sample name	sample
index	1185
start time	 04-26-2021  11:54:57 AM
880	0.416442
Peak Time (s)	91.036
Peak Height 	0.4164
calc peak height	90,93
Baseline Time (s)	11.037
Baseline Value 	-0.006356
subtract baseline	10,4
Abs	0.284839
Peak Time (s)	90.035
Peak Height 	0.2848
calc peak height	90,93
Baseline Time (s)	11.537
Baseline Value 	0.002044
subtract baseline	10,3
PK_550	0.175323
Peak Time (s)	92.537
Peak Height 	0.1753
calc peak height	90,93
Baseline Time (s)	11.037
Baseline Value 	7.7549E-4
subtract baseline	10,2
PK_880	0.274737
Peak Time (s)	92.537
Peak Height 	0.2747
calc peak height	90,93
Baseline Time (s)	10.539
Baseline Value 	0.002354
subtract baseline	10,1


Time (s)	A880-A510	A880-A775	A880-A975	A880	I510	I775	I975	I880	
0.036000	-0.001511	-0.000494	-0.001068	0.002869	6149.416503	43708.125265	3852.997813	22585.496536
0.536000	-0.002219	-0.001144	-0.000410	0.004480	6132.110600	43496.245868	3850.844508	22512.548245
1.039000	-0.001617	-0.000726	-0.003136	0.005178	6131.401391	43470.148445	3843.155668	22481.068179
1.538500	-0.001923	-0.000139	-0.002990	0.003087	6144.708619	43720.931094	3848.171743	22575.598295
2.037000	-0.000698	0.000198	-0.003199	0.001557	6165.350927	43896.680465	3851.147677	22645.048810
2.537500	0.000529	0.000004	-0.001643	0.001666	6173.763901	43868.115916	3854.417587	22640.104818
3.037000	0.001298	0.000463	-0.000482	0.002965	6169.770859	43788.974838	3854.105484	22581.129911
3.535000	-0.000294	0.000165	-0.002976	0.001328	6170.109702	43915.150537	3852.167300	22655.465700
4.035000	-0.000154	-0.000121	0.001994	0.000537	6177.130544	43962.962246	3865.264775	22691.518959
4.535500	-0.002484	-0.000067	-0.000576	0.000852	6157.237219	43938.259712	3858.684451	22677.165236
5.036000	-0.001884	-0.000576	-0.002011	-0.000284	6170.272305	43997.479101	3858.002992	22728.961457
5.536000	0.000534	0.000185	-0.000300	0.000655	6181.428388	43980.688685	3859.759519	22686.132809
6.035500	0.000603	0.000030	0.002081	0.000386	6183.984583	43991.460326	3865.806785	22698.388711
6.537000	-0.000580	-0.000691	0.001894	-0.000529	6181.956564	44009.781624	3867.475333	22740.146127
7.037500	0.001994	0.000573	0.006369	0.000952	6190.230503	43989.289705	3874.366642	22672.620983
7.535000	0.001939	0.000210	0.000499	0.000338	6194.463128	44012.995827	3862.302079	22700.585141
8.035000	0.001913	0.000576	0.001794	0.000615	6192.167957	44021.381000	3864.626454	22687.943034
8.535500	-0.001285	0.000432	0.000747	0.000458	6169.202612	44022.656961	3862.594197	22695.109532
9.035500	0.000027	-0.000310	-0.000485	-0.000375	6185.389068	44031.355779	3861.685843	22733.149796
9.535500	0.000430	-0.000518	-0.000375	-0.000172	6186.896717	43992.343633	3861.472169	22723.839783
10.036500	-0.002444	-0.000725	0.003893	-0.000483	6167.556767	44002.208530	3871.963755	22738.052095
10.538500	0.000000	0.000948	0.005056	0.000703	6177.039435	44048.339610	3871.912888	22683.959215
11.037000	-0.000146	0.000000	-0.000879	0.000000	6181.239400	44025.130038	3859.932999	22716.005551
11.537000	0.001085	0.000282	0.000000	0.000309	6188.216170	44022.549606	3861.230986	22701.915182
12.037000	-0.000734	-0.000142	0.001327	-0.000259	6178.755489	44036.222592	3865.557495	22727.830125
12.535000	0.003007	0.000150	0.001456	0.000040	6204.837717	44035.540703	3865.170185	22714.188047
13.035000	-0.001648	0.000608	-0.005298	0.005079	6131.905456	43604.136322	3838.548919	22485.506422
13.535500	-0.000857	-0.000128	0.000440	0.000672	6170.810511	43949.477419	3861.405896	22685.362386
14.036000	-0.001885	-0.001998	-0.002809	0.002249	6151.256869	43625.083390	3850.466820	22613.605649
14.539500	-0.000812	-0.000417	0.001837	0.002403	6158.139219	43759.148684	3860.646235	22606.629711
15.037000	0.000446	0.001159	0.004142	0.001718	6172.751226	43972.266029	3867.480222	22637.755040
15.536500	0.000717	0.000782	0.004577	0.001555	6176.015593	43952.044229	3868.850937	22645.142058
16.036500	0.000377	0.000464	0.003260	0.001561	6173.404850	43921.426980	3865.817526	22644.866492
16.537000	-0.001792	-0.000477	-0.001341	0.000269	6166.813466	43954.611459	3858.270390	22703.750496
17.037000	0.000734	0.000187	0.001322	-0.001392	6198.449105	44174.892583	3868.143933	22779.654712
17.534000	0.000566	0.000420	0.004460	0.001934	6172.024279	43882.072718	3867.712298	22627.937444
18.037500	-0.003190	-0.000021	0.000457	0.001985	6143.474149	43835.697647	3858.455370	22625.593684
18.536000	-0.001990	0.000150	0.001345	0.001717	6154.457747	43877.125136	3861.089059	22637.807197
19.036000	-0.000294	0.000930	0.001542	0.002404	6162.014621	43885.777810	3859.970870	22606.557032
19.536500	-0.000121	0.000228	0.000375	0.001726	6168.414695	43883.615869	3858.858602	22637.378221
20.039000	-0.001310	0.001219	0.003817	0.002317	6155.056132	43921.345040	3865.362756	22610.550000
20.536500	-0.001545	0.000440	-0.001341	0.001332	6160.675454	43940.774409	3855.856383	22655.280014
21.037000	-0.001325	-0.000002	0.003146	0.001488	6161.159262	43884.293821	3865.723471	22648.190642
21.537000	-0.000251	0.000832	0.002445	0.002017	6165.247910	43913.064658	3862.910810	22624.135492
22.037500	-0.001924	0.000322	0.004257	0.001018	6160.193277	43959.327539	3869.350480	22669.611535
22.535000	0.000607	0.000365	-0.003029	0.001377	6176.531022	43929.457403	3851.936033	22653.242775
23.035500	0.000005	0.000471	-0.002098	0.001424	6171.638943	43934.999276	3853.934122	22651.100190
23.536000	-0.000043	-0.000158	0.001760	0.001399	6171.468484	43878.051345	3862.759036	22652.241390
24.036000	-0.001137	0.000522	0.007388	0.001965	6158.986673	43888.753461	3874.380688	22626.505274
24.539000	0.001663	0.000492	0.001530	0.001771	6181.526513	43904.248140	3861.383724	22635.318780
25.036500	-0.001116	0.000306	0.004845	0.001751	6160.754113	43888.593590	3869.018479	22636.263128
25.537000	-0.001162	0.000474	0.005176	0.002098	6157.804428	43871.696697	3868.979335	22620.486981
26.037000	-0.000873	-0.000342	0.002601	0.001444	6164.888019	43856.432788	3864.576792	22650.218738
26.535000	-0.000855	0.000725	-0.001261	0.002008	6160.777977	43903.821830	3854.506324	22624.553584
27.035000	-0.002676	-0.000490	-0.003340	0.003373	6136.958607	43661.203327	3846.743620	22562.657878
27.535000	0.002205	-0.000116	0.006750	-0.000467	6202.594030	44058.302579	3878.530791	22737.314880
28.035500	0.000778	-0.000047	-0.003314	0.001259	6178.712504	43901.680323	3851.559619	22658.607020
28.538500	0.001130	0.000505	0.007551	0.000661	6185.891354	44010.365113	3877.774280	22685.857091
29.036000	-0.003228	0.000036	0.003374	0.006066	6112.863241	43458.397402	3855.813624	22441.051135
29.536500	0.002735	0.000641	0.003986	0.001219	6193.819632	43970.501686	3868.265273	22660.458092
30.036500	0.001488	-0.000143	0.007411	0.000279	6191.492099	43985.266611	3878.335449	22703.285808
30.536500	0.000435	0.000059	0.005989	0.000309	6183.293804	44001.483573	3874.974236	22701.892834
31.037000	-0.002510	-0.000526	0.000422	0.004930	6126.613564	43512.063675	3851.708759	22492.271676
31.540000	0.002590	0.000798	-0.000109	0.001277	6192.281349	43979.888453	3858.780693	22657.823208
32.034500	-0.000092	0.000908	0.006217	0.000608	6177.055591	44053.511609	3874.809552	22688.272233
32.557000	0.001673	0.000701	0.002813	0.001195	6185.955882	43978.360336	3865.631876	22661.516179
33.035500	-0.002839	0.000433	0.006036	0.005378	6120.837568	43559.691819	3863.435382	22472.020373
33.536000	0.000356	0.001013	0.005604	-0.001128	6193.583262	44228.302451	3877.407558	22767.579180
34.039000	0.000510	-0.000403	0.000598	0.001568	6174.354579	43838.980862	3859.725556	22644.551425
34.539500	-0.000647	-0.000099	0.001615	0.002642	6157.589106	43766.521991	3859.595128	22595.789765
35.036500	-0.000693	-0.000192	0.003078	0.003950	6147.450739	43635.033285	3859.948922	22536.535649
35.537000	-0.000795	-0.000559	-0.002986	0.001776	6162.977542	43804.733924	3851.134525	22635.117482
36.037500	-0.001603	0.000033	0.008760	0.002351	6152.603892	43806.320562	3876.659843	22608.964902
36.537000	-0.001562	-0.000096	0.005074	0.002280	6153.439586	43800.849405	3868.326812	22612.211293
37.035000	-0.002512	0.000541	-0.001495	0.003987	6133.603674	43700.320448	3849.512197	22534.867529
37.535000	-0.000831	-0.000522	0.003116	0.002054	6160.617350	43782.058163	3864.358987	22622.474444
38.035000	-0.000971	0.000845	-0.000772	0.002836	6153.700562	43837.067048	3853.740054	22586.973074
38.536000	0.000200	0.000390	0.003343	0.002935	6161.746580	43785.038281	3862.866019	22582.503035
39.036500	-0.000804	0.000572	0.001775	0.002792	6155.280743	43815.571447	3859.617747	22588.964472
39.536500	-0.001820	0.000024	0.002620	0.002342	6151.045895	43806.315564	3862.568651	22609.381702
40.037000	-0.000802	0.000433	-0.000022	0.002620	6156.591401	43818.660293	3855.928061	22596.787270
40.537000	-0.000608	-0.000037	0.000114	0.002502	6158.924863	43785.507766	3856.503121	22602.124624
41.037500	0.000430	-0.000015	0.001685	0.002062	6170.040480	43829.073668	3861.075391	22622.122648
41.537500	0.000716	0.000471	-0.002622	0.002769	6166.868211	43808.264150	3849.716472	22590.028241
42.035000	-0.000291	-0.000011	0.000785	0.002657	6160.144165	43773.395051	3857.675413	22595.087684
42.535500	-0.002469	0.000510	0.005278	0.003172	6139.998561	43774.011315	3866.750462	22571.751464
43.035500	0.000304	0.000045	-0.004022	0.002442	6166.235980	43798.937715	3847.302465	22604.873033
43.536000	0.001823	0.001123	0.001810	0.002653	6176.073104	43880.507576	3860.013766	22595.262424
44.036500	0.004842	0.000259	0.001111	-0.001158	6227.990616	44159.480137	3867.123707	22768.929979
44.537000	-0.000365	0.000586	-0.000187	0.000958	6172.361344	43989.870813	3859.325629	22672.316118
45.037000	0.000345	0.000335	0.001573	0.000833	6178.658846	43978.047004	3863.622909	22678.015885
45.537000	0.000190	-0.000507	0.003264	0.000184	6182.385380	43959.785270	3868.982863	22707.590407
46.034500	-0.000280	0.000459	0.004325	0.001700	6167.419263	43907.827913	3867.940329	22638.558343
46.534500	0.001450	0.000207	0.006207	0.001047	6185.387981	43945.671233	3873.771441	22668.257428
47.035500	-0.002556	0.000826	0.005204	0.005390	6122.852494	43595.412236	3861.511158	22471.489091
47.536000	-0.002210	0.000265	0.006060	0.002935	6143.699056	43773.182574	3869.088504	22582.487240
48.036500	0.000099	0.000685	0.002815	0.003865	6154.013515	43725.204733	3859.543211	22540.361759
48.536000	0.000203	0.000439	0.002456	0.001078	6175.744933	43964.757553	3865.082964	22666.880156
49.036500	-0.003054	-0.000078	-0.000698	0.005973	6114.844718	43456.479414	3846.836935	22445.251565
49.540000	0.003400	0.000253	0.008651	-0.001890	6222.563147	44228.428648	3886.270429	22802.470236
50.037000	0.001130	0.000959	0.007826	0.004863	6154.257494	43657.256625	3868.715241	22495.261091
50.534500	0.000557	-0.002361	0.008084	0.006531	6137.514995	43192.157941	3865.484767	22420.152771
51.035000	0.021828	-0.025438	-0.002046	0.582410	3803.456708	13061.509251	3129.335704	8077.981233
51.535500	-0.002737	-0.027444	-0.018396	-0.078094	6804.113721	49109.619153	4007.882940	26621.162205
52.036000	0.015040	-0.047765	0.010967	-0.197697	8256.442065	60972.782905	4472.876056	34144.296121
52.538500	-0.021869	-0.024466	-0.018346	-0.073791	6599.077242	48968.889211	3996.809752	26387.250071
53.039000	-0.008380	-0.024866	-0.010231	-0.151987	7468.342471	58002.332898	4244.226965	31022.214045
53.536500	0.024602	-0.020959	0.023266	-0.150296	7809.576658	58284.090512	4348.537124	30912.908770
54.036500	0.026767	-0.015535	0.027566	-0.083298	7128.861246	50965.955145	4149.974277	26907.207075
54.537000	0.028535	-0.012063	0.030498	-0.015296	6530.811857	44332.206762	3972.078660	23426.610207
55.037000	0.041516	-0.005695	0.042783	-0.009477	6591.178016	44384.639939	3988.587388	23153.345723
55.534500	0.062409	0.007614	0.065338	0.035691	6390.567102	41451.954167	3931.910759	21152.061369
56.035500	0.089649	0.022182	0.095173	0.074843	6296.145376	39331.455145	3909.402085	19577.987687
56.535500	0.117462	0.038721	0.119658	0.085922	6429.522158	39792.007159	3941.941033	19157.716017
57.035500	0.143770	0.057714	0.147481	0.135323	6246.789248	37298.782083	3890.053722	17408.917082
57.538500	0.170957	0.073974	0.173535	0.177383	6134.145042	35315.984617	3853.198112	16069.012395
58.035500	0.189881	0.087128	0.194448	0.219293	5967.467062	33240.562493	3806.861674	14856.912894
58.539500	0.205655	0.098618	0.208290	0.257875	5810.578478	31407.064677	3755.068505	13839.905788
59.037000	0.216676	0.108068	0.225141	0.288610	5681.445733	30044.564643	3727.267200	13091.946046
59.537000	0.222945	0.112509	0.230633	0.313887	5562.376255	28774.062876	3689.154244	12515.275623
60.034500	0.235561	0.124078	0.247269	0.339402	5484.484078	27957.053333	3672.606750	11966.236786
60.534500	0.244162	0.131161	0.239225	0.384608	5275.646557	25853.133238	3580.160992	11069.267356
61.035000	0.248096	0.134556	0.254386	0.386547	5286.584897	25930.145131	3602.070334	11032.856320
61.536000	0.256490	0.136673	0.263420	0.374752	5400.103237	26679.117175	3637.963040	11256.952425
62.035500	0.252710	0.143579	0.255804	0.398414	5247.069252	25779.966642	3584.702312	10813.434805
62.537000	0.252331	0.148039	0.252101	0.399223	5240.661717	25972.927757	3577.329396	10798.685552
63.036000	0.254555	0.153693	0.259973	0.401383	5241.004365	26159.146496	3586.675664	10759.469497
63.536000	0.254536	0.153093	0.259332	0.398289	5257.635398	26292.967727	3590.726890	10815.722589
64.037000	0.255982	0.156364	0.265261	0.397820	5268.050057	26495.080171	3601.399461	10824.266930
64.537000	0.258484	0.157760	0.259075	0.397221	5285.010595	26603.610290	3592.069736	10835.222174
65.034500	0.257437	0.160291	0.257528	0.399599	5266.283013	26611.929326	3585.586617	10791.843983
65.535500	0.260392	0.160656	0.266739	0.394241	5311.996603	26926.198997	3609.950161	10889.907191
66.035500	0.263591	0.163967	0.263154	0.395696	5321.704029	27029.030339	3601.429000	10863.166987
66.536000	0.264170	0.163745	0.260497	0.394380	5332.281539	27089.827486	3599.177956	10887.342093
67.039000	0.263733	0.164843	0.266947	0.396814	5316.264505	27015.600427	3605.938078	10842.661235
67.536000	0.262770	0.166241	0.267419	0.395837	5316.342125	27147.708126	3608.392882	10860.571299
68.036500	0.263179	0.166105	0.274575	0.395763	5319.030637	27144.246511	3620.763094	10861.923061
68.536500	0.264650	0.166150	0.265605	0.396183	5324.889343	27123.323796	3604.737005	10854.224228
69.036500	0.259655	0.166119	0.263456	0.398832	5282.594720	26974.422256	3596.680616	10805.806269
69.537500	0.261045	0.165586	0.264912	0.397905	5295.341705	26996.307087	3600.671285	10822.722861
70.035000	0.262932	0.166962	0.268314	0.401194	5287.620646	26890.484239	3600.861514	10762.894448
70.538000	0.260502	0.166252	0.269198	0.401373	5273.327078	26841.498614	3602.047112	10759.658765
71.035000	0.261320	0.166805	0.271359	0.404469	5260.917206	26701.846055	3600.474514	10703.772478
71.535500	0.260832	0.167902	0.268605	0.405720	5251.485676	26693.399559	3593.783057	10681.300594
72.036000	0.263067	0.168439	0.268055	0.409764	5241.710214	26502.171183	3586.181594	10609.108200
72.536500	0.262761	0.168784	0.269815	0.410415	5236.559383	26485.600330	3588.010695	10597.559253
73.036500	0.259211	0.169659	0.265653	0.413998	5198.508896	26339.126677	3575.345216	10534.251806
73.537000	0.260324	0.169800	0.267829	0.413782	5205.555431	26358.398501	3579.233858	10538.062931
74.037000	0.261637	0.170092	0.262870	0.417179	5194.522919	26191.432781	3565.746508	10478.494175
74.537500	0.264133	0.169930	0.260963	0.417911	5203.853902	26143.551492	3561.539911	10465.710750
75.035000	0.263731	0.171939	0.268511	0.421964	5180.352130	26034.516035	3567.114676	10395.365608
75.535500	0.262212	0.169886	0.269992	0.422246	5170.919019	25910.577370	3569.037385	10390.494410
76.035500	0.262882	0.170345	0.268786	0.424946	5160.330936	25792.259735	3562.792522	10344.028203
76.538500	0.262344	0.171035	0.270918	0.427013	5146.819997	25719.841332	3562.895306	10308.642435
77.036500	0.263886	0.169888	0.269954	0.427909	5150.166926	25612.880053	3559.941543	10293.373479
77.536500	0.266746	0.171012	0.270089	0.430437	5151.888464	25539.634959	3556.158989	10250.417199
78.037000	0.266292	0.170203	0.271380	0.430882	5147.227123	25474.399780	3557.493126	10242.871203
78.537000	0.268310	0.171653	0.274549	0.431973	5152.026363	25493.078704	3560.783176	10224.431539
79.037000	0.265476	0.170059	0.270330	0.431425	5140.214532	25438.774560	3554.981740	10233.699500
79.534500	0.269037	0.171270	0.272840	0.432772	5151.657381	25431.716581	3556.813922	10210.958756
80.035000	0.271282	0.172582	0.272842	0.434650	5153.556938	25402.379084	3553.860159	10179.378186
80.535500	0.267929	0.171497	0.271543	0.432226	5148.741986	25471.826324	3555.629683	10220.161262
81.035500	0.269452	0.172510	0.284374	0.433890	5148.017856	25438.052808	3573.450600	10192.150812
81.536000	0.269680	0.171647	0.277791	0.431645	5160.844932	25509.807267	3566.471535	10229.968448
82.035500	0.270642	0.172825	0.269512	0.431573	5166.235295	25574.932930	3553.462108	10231.187437
82.536500	0.269347	0.173825	0.280611	0.431019	5162.372246	25656.087138	3572.008585	10240.553159
83.036500	0.272058	0.173816	0.272179	0.430265	5180.490078	25695.140355	3559.733945	10253.326717
83.537000	0.269460	0.173552	0.277619	0.428446	5176.405729	25776.872064	3571.333065	10284.219373
84.037000	0.274940	0.174178	0.282397	0.427365	5211.042980	25866.855992	3580.839817	10302.641380
84.535000	0.271485	0.174422	0.276362	0.426139	5199.217018	25944.644039	3573.028879	10323.590190
85.035500	0.271518	0.172758	0.274310	0.424552	5207.808802	25940.582145	3572.278239	10350.799743
85.535500	0.273018	0.174953	0.276445	0.423594	5220.897052	26108.263739	3577.285070	10367.257487
86.038500	0.273660	0.174781	0.274096	0.422043	5232.645937	26182.045830	3575.990388	10394.006354
86.536500	0.273469	0.175376	0.277911	0.421088	5236.749062	26265.216337	3583.771942	10410.521129
87.036500	0.272443	0.174687	0.276182	0.419555	5239.479620	26310.620338	3583.449924	10437.107772
87.536500	0.272184	0.174986	0.285260	0.418380	5244.418044	26390.152000	3600.459039	10457.543348
88.036500	0.274374	0.174925	0.280579	0.417389	5261.641979	26440.463757	3594.291328	10474.823346
88.537000	0.274434	0.175655	0.283864	0.417685	5260.361015	26463.939530	3599.282013	10469.656037
89.034500	0.272148	0.174616	0.285564	0.417441	5249.291397	26420.908191	3602.547344	10473.910848
89.535000	0.271663	0.174942	0.277489	0.416552	5251.477573	26486.724697	3590.550328	10489.446799
90.035000	0.270651	0.173343	0.284839	0.415365	5252.424881	26464.360474	3604.825587	10510.235945
90.538000	0.272315	0.174167	0.273024	0.415608	5260.130871	26495.913380	3584.744606	10505.977522
91.036000	0.273275	0.174656	0.273421	0.416442	5260.819130	26477.220943	3584.027015	10491.377798
91.536000	0.273555	0.174205	0.275347	0.415280	5268.664007	26515.788706	3589.111687	10511.728697
92.036500	0.272194	0.173789	0.282558	0.415542	5259.833876	26478.993142	3600.686089	10507.135502
92.537000	0.274737	0.175323	0.280802	0.416251	5269.814828	26523.748157	3596.558295	10494.709166
93.037000	0.272689	0.174156	0.274548	0.415551	5262.474462	26498.398597	3587.345847	10506.971865
93.535000	0.271409	0.174002	0.273535	0.415249	5257.162954	26506.432920	3586.173555	10512.271351
94.035000	0.271519	0.173563	0.277239	0.415014	5259.031236	26495.359006	3592.685748	10516.389539
94.535000	0.269055	0.172845	0.279297	0.414573	5248.078519	26480.336779	3596.848313	10524.146761
95.035500	0.271771	0.174711	0.281948	0.416810	5250.666830	26460.225154	3597.541339	10484.943881
95.536000	0.270511	0.174063	0.284076	0.414983	5253.736280	26524.179135	3604.181930	10516.941549
96.036000	0.270986	0.172306	0.274424	0.414311	5259.957546	26465.310524	3589.187118	10528.747594
