sample name	sample
index	135
start time	 02-15-2021  01:33:55 PM
880	0.490697
Peak Time (s)	92.035
Peak Height 	0.4907
calc peak height	90,93
Baseline Time (s)	10.536
Baseline Value 	-0.003127
subtract baseline	10,4
Abs	0.338710
Peak Time (s)	91.038
Peak Height 	0.3387
calc peak height	90,93
Baseline Time (s)	9.535
Baseline Value 	0.005726
subtract baseline	10,3
PK_550	0.161232
Peak Time (s)	92.035
Peak Height 	0.1612
calc peak height	90,93
Baseline Time (s)	10.536
Baseline Value 	0.001261
subtract baseline	10,2
PK_880	0.318515
Peak Time (s)	92.035
Peak Height 	0.3185
calc peak height	90,93
Baseline Time (s)	11.536
Baseline Value 	0.001387
subtract baseline	10,1


Time (s)	A880-A510	A880-A775	A880-A975	A880	I510	I775	I975	I880	
0.034500	0.001015	0.000210	0.007228	0.002653	4235.335839	15427.298451	3267.786639	8783.423813
0.535500	0.000639	-0.001826	-0.011055	0.005869	4225.503112	15279.112658	3254.319497	8740.929273
1.035500	-0.000135	-0.000822	-0.011809	0.003273	4230.480964	15380.484327	3255.447085	8775.204643
1.536000	0.003509	-0.000880	-0.007177	-0.000055	4249.720566	15473.323715	3260.376386	8819.449277
2.036000	0.003015	-0.001343	-0.008776	0.000028	4248.115433	15457.766267	3259.327155	8818.337948
2.536500	-0.002030	-0.001781	0.005648	0.002274	4228.030404	15381.615835	3267.016305	8788.448091
3.036500	0.001639	-0.000046	-0.003455	-0.001046	4247.279937	15525.460863	3263.338343	8832.697537
3.537000	0.003005	-0.000265	-0.008226	0.001386	4244.323532	15449.826775	3258.825426	8800.254075
4.036500	0.002075	-0.001242	0.015013	0.000814	4243.332201	15438.305604	3274.034135	8807.863692
4.537500	0.006021	0.002010	0.014125	0.002641	4249.209139	15478.843890	3272.257175	8783.580262
5.037500	-0.002619	-0.001630	-0.001617	-0.000417	4233.784759	15462.275271	3264.102737	8824.278720
5.535000	0.001695	-0.001099	-0.010366	0.000749	4242.459994	15444.211311	3257.893024	8808.732481
6.038500	0.001692	-0.001929	-0.003113	-0.000340	4245.467289	15451.583574	3263.108280	8823.258356
6.536000	0.003925	0.000170	-0.003776	0.000082	4250.497069	15499.369776	3262.424119	8817.622960
7.036000	0.001790	0.000466	0.010234	0.000588	4243.167325	15493.370099	3271.060990	8810.875394
7.536000	-0.002364	-0.001224	-0.000186	-0.001040	4236.198510	15491.609765	3265.407489	8832.608016
8.036000	-0.000287	0.001105	-0.003553	0.000554	4237.530364	15512.614347	3262.267921	8811.334966
8.537000	-0.001144	-0.001567	0.001430	-0.001369	4240.469278	15491.224289	3266.648533	8837.020002
9.037000	-0.001339	-0.000058	0.007824	-0.000754	4238.235967	15516.759940	3270.368566	8828.792622
9.535000	0.000476	0.000614	0.000000	0.000579	4239.564115	15497.852700	3264.496881	8810.997581
10.034500	0.005042	-0.000117	-0.006452	-0.000087	4254.083431	15495.993580	3260.850402	8819.877985
10.535500	0.001472	0.000000	-0.000320	0.000000	4243.915567	15496.861689	3264.661117	8818.717776
11.035000	-0.000102	0.000217	0.002951	0.000298	4238.743836	15494.541177	3266.554838	8814.740815
11.536000	0.000000	0.000156	-0.008908	0.000461	4238.575798	15488.155914	3258.976218	8812.568451
12.036000	-0.000980	-0.000194	0.005276	-0.000578	4238.736523	15507.809699	3268.608063	8826.430027
12.536500	0.002888	0.001505	-0.004865	0.000468	4246.544788	15526.504645	3261.497140	8812.481191
13.039500	0.007305	0.000347	0.020080	-0.002076	4266.015029	15566.225542	3279.305508	8846.488030
13.539500	-0.000701	0.000683	0.010365	0.000888	4235.470328	15491.004799	3270.950994	8806.875123
14.037500	0.006871	0.000900	0.000410	-0.000501	4260.364530	15536.926625	3265.444154	8825.411015
14.537500	0.003648	-0.001325	0.001505	0.001165	4246.717471	15425.979240	3265.080514	8803.192983
15.035500	0.003828	0.001359	-0.003657	0.000787	4248.266277	15513.186739	3262.055228	8808.221409
15.535500	-0.001190	-0.002616	-0.000407	-0.002248	4242.770526	15486.377416	3266.036497	8848.796298
16.036500	0.000312	-0.000902	-0.011522	-0.001302	4244.309105	15508.265689	3258.447204	8836.113765
16.536000	0.002063	0.000986	0.003391	0.000160	4245.109522	15520.463641	3266.924418	8816.578742
17.036000	-0.002323	0.000391	0.004856	-0.000629	4235.180844	15526.005844	3268.370719	8827.114421
17.537000	0.001260	0.001785	0.003814	0.001494	4239.201951	15505.196142	3266.342214	8798.819408
18.036500	0.008552	0.000707	-0.002413	-0.002668	4271.211464	15593.601379	3265.026565	8854.435964
18.537000	0.005283	0.000353	-0.006019	0.001791	4249.520560	15455.888415	3259.947075	8794.867597
19.037500	0.001220	0.001235	-0.002099	0.000556	4241.680971	15516.249237	3263.182592	8811.297366
19.534500	0.002238	-0.000113	-0.008772	0.000781	4243.875398	15471.365150	3258.861712	8808.307263
20.035000	0.000511	-0.000579	-0.000764	-0.000093	4241.515601	15482.988182	3264.438509	8819.962542
20.535500	0.005226	-0.000796	0.002806	0.000379	4253.299171	15463.369572	3266.410656	8813.667720
21.035500	0.005221	-0.000501	-0.008372	-0.000201	4254.901931	15488.306684	3259.722056	8821.404878
21.536000	-0.000845	-0.000090	-0.000488	-0.000014	4237.557539	15494.694767	3264.563670	8818.908579
22.039000	0.003606	-0.000346	0.020352	0.000475	4248.518458	15473.456412	3277.785652	8812.386194
22.537000	0.006127	-0.001767	-0.008127	0.000051	4256.729945	15445.068452	3259.717925	8818.038133
23.039500	0.002212	0.000184	0.004289	0.000380	4244.914853	15491.282499	3267.359358	8813.651085
23.537500	0.006688	0.002026	0.004925	0.002392	4251.759752	15486.427001	3266.478048	8786.885852
24.034500	0.003919	-0.000004	-0.009522	0.000273	4249.950167	15488.947264	3258.711075	8815.074710
24.535000	-0.001161	0.001137	-0.002857	0.001168	4233.437171	15495.976313	3262.319390	8803.152885
25.035000	0.001258	0.001948	-0.003843	0.001089	4240.312208	15521.405652	3261.748685	8804.198546
25.536000	-0.000557	-0.000289	0.005596	-0.000422	4239.473846	15500.667802	3268.714375	8824.349590
26.036000	0.000179	0.000060	-0.006289	0.000954	4237.711842	15471.387782	3260.301179	8806.007535
26.536000	0.003085	-0.000669	-0.001896	-0.000632	4250.148838	15495.801244	3264.062611	8827.162461
27.036000	0.003558	-0.000550	0.004247	-0.000532	4251.187355	15496.359665	3267.917670	8825.825677
27.537500	0.004058	0.001194	-0.005509	0.001172	4247.838746	15497.493371	3260.652426	8803.103493
28.036500	0.000982	-0.000450	-0.005385	-0.001535	4246.814361	15527.881407	3262.429163	8839.239742
28.537500	0.002613	-0.000893	-0.015091	-0.000937	4249.684399	15498.111082	3256.017343	8831.237092
29.035000	0.004898	-0.001126	0.004233	-0.002311	4259.905278	15530.757868	3269.053520	8849.641685
29.535000	0.002490	0.000270	0.000147	-0.001413	4250.666096	15545.019890	3265.857302	8837.607206
30.035500	0.003559	0.000411	-0.002150	-0.001643	4254.287290	15555.645137	3264.542411	8840.680123
30.536000	0.003065	-0.000301	0.014357	-0.000898	4250.830922	15513.922664	3274.727764	8830.710500
31.036000	0.006682	0.001398	-0.002323	-0.000137	4258.813500	15540.758519	3263.479512	8820.548753
31.563000	0.003192	0.000218	0.018594	-0.000749	4250.773509	15524.506748	3277.431032	8828.727465
32.037000	0.001079	0.000333	0.011875	0.001171	4239.593266	15472.954333	3271.748904	8803.106380
32.539500	-0.001869	-0.000554	0.003882	-0.000666	4236.534043	15500.071954	3267.768977	8827.614723
33.041000	-0.007434	0.000981	-0.008311	0.002379	4213.071550	15457.002254	3258.155689	8787.052589
33.534500	-0.014698	0.001660	-0.020467	0.002516	4193.276746	15472.436031	3250.642808	8785.237345
34.035000	-0.015944	0.000833	-0.023815	0.002256	4190.666201	15456.309304	3248.788920	8788.690479
34.535500	-0.012725	-0.000923	-0.003241	0.001140	4202.192451	15438.113672	3262.095267	8803.523929
35.041500	0.002519	0.000159	-0.009180	-0.000488	4248.173044	15515.339159	3259.397112	8825.229361
35.535500	-0.005229	0.001064	-0.016474	0.002354	4219.106051	15460.082879	3253.158549	8787.389523
36.035500	-0.005076	-0.001584	-0.018412	0.000157	4225.496047	15447.254088	3253.316176	8816.627715
36.536500	-0.003907	-0.001525	-0.019887	0.000888	4226.689310	15428.148012	3251.976721	8806.880416
37.039500	-0.003148	0.000095	0.009820	0.001160	4228.021115	15466.500350	3270.421309	8803.263913
37.538500	-0.000618	0.000862	0.002351	0.001860	4233.030440	15468.424986	3265.176756	8793.955191
38.034500	0.003706	0.000005	0.021274	0.000889	4247.643929	15471.632101	3278.123680	8806.863812
38.535000	0.000016	0.000266	0.001496	0.000447	4238.657915	15491.704670	3265.531308	8812.753839
39.035000	-0.004394	-0.002795	0.000942	-0.000804	4229.981790	15440.156081	3265.975716	8829.455446
39.535500	0.001472	-0.000734	0.004573	0.000141	4243.524845	15471.907366	3267.693925	8816.831235
40.036000	0.002978	-0.000036	-0.000796	0.001325	4244.418545	15458.079452	3263.520533	8801.066643
40.536000	0.004848	-0.000465	0.003334	0.000178	4252.803950	15478.524222	3266.876633	8816.342549
41.036500	0.000364	-0.002316	-0.011793	-0.000541	4242.347293	15446.282780	3257.807902	8825.937369
41.536500	0.000216	-0.000839	-0.002791	0.000406	4239.324731	15461.386672	3262.840881	8813.305819
42.037000	0.002614	0.000749	0.008208	0.001131	4243.944916	15485.971212	3269.397486	8803.643320
42.537000	0.003249	-0.000484	0.014011	0.000589	4247.210271	15466.269727	3273.524814	8810.869017
43.034500	0.001867	0.001253	0.000574	0.001769	4240.119071	15482.159954	3264.106421	8795.163922
43.535500	0.001002	-0.000642	0.001186	0.000794	4240.422290	15455.950030	3265.113719	8808.136975
44.034500	0.009036	0.001066	0.005585	0.002826	4257.104461	15446.713007	3266.622541	8781.127368
44.535500	-0.001349	0.001081	0.011371	0.001963	4230.742137	15471.692874	3270.906135	8792.575093
45.036000	0.001513	-0.001330	-0.012021	0.000235	4243.378052	15452.264127	3257.186709	8815.579977
45.536500	0.007879	0.001266	0.015795	-0.002198	4267.978521	15596.157568	3276.535451	8848.125890
46.036500	0.001125	0.000167	0.003274	-0.001084	4245.958014	15532.638191	3267.646742	8833.199131
46.539500	0.001675	-0.000063	0.021344	-0.001191	4247.781828	15529.123145	3279.559084	8834.636144
47.037000	0.003724	0.000754	0.009339	-0.000072	4250.366977	15520.482739	3270.908769	8819.679904
47.534500	0.000107	0.000489	0.001923	0.003031	4231.807235	15424.514203	3264.161195	8778.411991
48.035000	0.004901	0.000215	0.005758	-0.000840	4255.792123	15527.002860	3269.088086	8829.935143
48.535000	0.005409	0.000389	-0.001073	-0.000317	4255.752547	15517.032897	3264.384561	8822.946541
49.054500	0.003941	-0.000396	0.001801	-0.001421	4254.734684	15526.151084	3266.918548	8837.705991
49.535500	0.002478	-0.000586	-0.019180	0.002160	4240.725115	15418.706477	3251.635320	8789.969538
50.036500	0.001292	-0.000398	-0.012922	0.001433	4239.459221	15444.713719	3255.893680	8799.628668
50.555500	0.001825	-0.000321	-0.003235	-0.000366	4245.909247	15498.143455	3263.047877	8823.602629
51.036500	-0.000060	0.002045	0.007988	-0.000015	4239.724693	15555.804862	3269.996060	8818.918775
51.537000	-0.000436	0.001747	0.013265	0.001799	4233.694935	15495.368783	3272.245831	8794.761503
52.037000	0.006194	0.001103	-0.001790	-0.001594	4261.529976	15574.088623	3264.739716	8840.024936
52.534500	0.001134	0.000275	-0.007346	-0.004084	4254.331906	15621.925399	3262.799637	8873.468248
53.035000	-0.000398	-0.002881	0.005598	-0.002773	4246.420279	15493.791959	3270.234230	8855.845122
53.535500	-0.023823	-0.027442	0.008119	0.288025	3625.926458	9094.516665	3133.787839	6009.050029
54.035500	0.017530	-0.005828	-0.006931	0.048233	4158.053707	14045.604358	3231.953354	8209.522764
54.536000	0.028718	-0.003731	0.018286	-0.031083	4416.759079	16302.898742	3298.080463	9248.720200
55.036000	0.009792	-0.010881	0.016127	0.016378	4221.810917	14742.511690	3264.704926	8604.223045
55.536500	0.029821	-0.005910	0.032203	0.059711	4160.143042	13758.014938	3247.930676	8074.240856
56.039500	0.052097	0.010076	0.059937	0.036800	4282.809011	14756.870960	3279.961645	8347.865286
56.537000	0.071406	0.016133	0.065600	0.017956	4396.790851	15444.907739	3296.854981	8583.983565
57.037500	0.084378	0.024225	0.101418	0.064976	4294.599449	14386.335450	3289.014969	8013.386304
57.535000	0.109194	0.031551	0.118773	0.112752	4230.068700	13382.375142	3268.716027	7493.535449
58.035000	0.132874	0.047851	0.140317	0.172729	4134.769134	12398.337623	3245.022668	6916.904253
58.535000	0.160026	0.061576	0.170061	0.200736	4132.619175	12097.452124	3246.048677	6673.731253
59.036000	0.176584	0.072729	0.191988	0.243768	4068.093416	11460.492525	3233.854356	6329.366212
59.536000	0.194074	0.083443	0.214221	0.272910	4040.916248	11113.071315	3229.989383	6114.796702
60.036000	0.203689	0.092031	0.220028	0.302889	3995.134426	10727.831103	3216.940588	5908.584251
60.537000	0.221563	0.102544	0.222324	0.334904	3964.580881	10359.242072	3201.861034	5703.530145
61.036500	0.248608	0.110310	0.264941	0.353620	3982.455278	10178.438551	3213.906438	5590.475717
61.537000	0.248836	0.117736	0.253607	0.373818	3940.167770	9973.239988	3198.153016	5473.810979
62.035000	0.256878	0.122889	0.256583	0.392952	3917.505793	9755.415774	3190.513011	5368.187126
62.534500	0.270852	0.130639	0.288563	0.405377	3920.635225	9684.134573	3199.795640	5302.051106
63.035500	0.281368	0.135968	0.296540	0.415350	3921.736984	9614.087183	3198.829207	5250.317721
63.535500	0.278962	0.139869	0.292773	0.417699	3912.151596	9637.413504	3195.894001	5238.302526
64.035500	0.288963	0.142579	0.289855	0.426423	3914.713820	9547.475919	3190.420745	5194.250437
64.540000	0.281875	0.146692	0.286079	0.422630	3908.115074	9665.962122	3190.428560	5213.294513
65.036500	0.289505	0.152091	0.288843	0.430132	3908.370269	9634.227867	3188.242342	5175.786798
65.539000	0.288590	0.150008	0.299386	0.422782	3921.310194	9713.993192	3196.624519	5212.527909
66.047500	0.289628	0.146655	0.292216	0.421698	3925.620439	9679.515631	3193.734843	5218.001349
66.537500	0.289967	0.150464	0.303785	0.418873	3932.084498	9780.831618	3200.635465	5232.322917
67.040000	0.295657	0.152937	0.310599	0.419919	3941.658868	9802.812177	3203.465185	5227.006347
67.535000	0.298550	0.152835	0.322691	0.422271	3942.781675	9765.037376	3208.330846	5215.106931
68.038000	0.297300	0.155171	0.293601	0.428510	3927.373007	9705.400210	3191.191681	5183.844255
68.536000	0.301297	0.155178	0.311676	0.427772	3937.084435	9716.744536	3200.144700	5187.519415
69.035500	0.303653	0.156799	0.303012	0.431506	3934.245475	9684.612976	3194.201113	5168.988396
69.539000	0.302951	0.157505	0.314241	0.434338	3927.010546	9652.430915	3198.208014	5155.039827
70.039000	0.296394	0.155332	0.296049	0.438609	3905.205213	9555.893594	3187.660001	5134.178582
70.536500	0.298008	0.157379	0.320554	0.437721	3910.194528	9599.680890	3199.624483	5138.497679
71.037500	0.294287	0.155800	0.307105	0.437282	3903.656110	9582.653735	3193.407334	5140.640592
71.537500	0.292493	0.151727	0.312135	0.436332	3901.983337	9536.186214	3196.242011	5145.276619
72.037000	0.297976	0.156481	0.312572	0.447340	3891.106215	9444.132794	3191.257576	5092.165992
72.535000	0.294005	0.154102	0.317356	0.440495	3896.744460	9509.723878	3196.747133	5125.030402
73.035000	0.291575	0.155594	0.304945	0.444967	3883.260992	9465.873081	3188.824702	5103.498779
73.536000	0.294509	0.156436	0.294712	0.446363	3886.247931	9457.758191	3183.543861	5096.823405
74.037500	0.293381	0.154106	0.299460	0.451420	3874.302104	9350.503777	3183.405841	5072.819787
74.535500	0.294835	0.155249	0.306705	0.449232	3881.316177	9398.645553	3187.675252	5083.171161
75.036000	0.296766	0.154794	0.304219	0.450301	3882.983366	9376.559579	3186.055161	5078.106006
75.536000	0.298666	0.156908	0.316797	0.454453	3878.631519	9347.163781	3189.916295	5058.552484
76.036500	0.293021	0.157352	0.304875	0.462291	3853.040362	9241.666862	3180.978080	5022.149750
76.534500	0.298125	0.156456	0.302104	0.456503	3873.653025	9311.266446	3182.316795	5048.971235
77.037000	0.301875	0.157661	0.308747	0.459173	3875.724276	9290.347338	3184.093600	5036.552927
77.535500	0.306238	0.162681	0.324270	0.464699	3873.492892	9283.136007	3188.637622	5011.099059
78.035000	0.300664	0.159202	0.324861	0.470809	3851.407857	9148.048117	3186.116098	4983.325826
78.536000	0.303590	0.159011	0.296311	0.465481	3866.948199	9220.052150	3175.851114	5007.521210
79.036000	0.300864	0.157214	0.313366	0.463565	3865.410262	9221.727943	3184.195936	5016.296391
79.539000	0.305721	0.160124	0.318187	0.465841	3870.320128	9230.667070	3185.342838	5005.875530
80.036500	0.304689	0.158043	0.316487	0.465399	3869.195345	9207.569760	3184.775128	5007.895263
80.537000	0.307496	0.157920	0.303066	0.465747	3873.894583	9200.933714	3178.664222	5006.304329
81.037500	0.301154	0.161103	0.297167	0.468609	3856.440009	9205.461579	3174.875971	4993.280769
81.534500	0.300927	0.158921	0.317705	0.467708	3857.705805	9187.472637	3184.283916	4997.371316
82.035500	0.301919	0.158320	0.320672	0.474286	3847.275236	9087.635677	3182.666682	4967.696955
82.535500	0.309239	0.160440	0.300244	0.470907	3867.371284	9163.964289	3175.209557	4982.884424
83.036000	0.303648	0.161460	0.316914	0.471795	3855.142939	9165.808065	3182.102518	4978.882557
83.536000	0.309495	0.158119	0.336298	0.470194	3869.215849	9141.527867	3191.663958	4986.102541
84.039000	0.307648	0.156572	0.313819	0.470411	3865.290941	9117.031311	3181.342702	4985.122724
84.536500	0.308375	0.160174	0.324721	0.473478	3860.865821	9124.463121	3184.844930	4971.317399
85.037000	0.307540	0.160165	0.323668	0.474308	3857.729274	9112.825732	3183.997582	4967.595856
85.537000	0.308114	0.156979	0.324651	0.473782	3859.800970	9076.102861	3184.676786	4969.955319
86.037500	0.308806	0.156323	0.318202	0.471731	3864.985102	9095.336910	3182.704552	4979.169587
86.535000	0.303626	0.158073	0.288846	0.474404	3850.228626	9082.596725	3168.930042	4967.168049
87.035500	0.311762	0.157991	0.299071	0.476032	3862.437553	9059.069572	3172.528219	4959.893410
87.535000	0.313920	0.160824	0.340887	0.479522	3859.924689	9050.057954	3189.463935	4944.392561
88.037500	0.305133	0.158416	0.316583	0.476874	3848.437718	9053.362885	3179.711491	4956.144701
88.535500	0.311755	0.162006	0.332311	0.480112	3854.749993	9058.180589	3185.276944	4941.785593
89.042000	0.309095	0.157555	0.319313	0.476471	3856.588334	9047.076920	3181.092207	4957.938047
89.536500	0.309018	0.158990	0.329134	0.479986	3849.873626	9018.651881	3183.902321	4942.341995
90.037000	0.306418	0.155467	0.312597	0.475522	3853.351586	9031.496712	3178.558065	4962.171296
90.536500	0.306668	0.157501	0.302360	0.479640	3846.151737	9003.079656	3172.393212	4943.869850
91.037500	0.306858	0.158011	0.338710	0.478989	3847.711413	9018.890322	3188.706219	4946.751184
91.535000	0.310480	0.158007	0.316799	0.481254	3850.235494	8988.041901	3177.890963	4936.747330
92.035500	0.318515	0.161232	0.327968	0.490697	3847.619118	8904.309806	3178.643411	4895.590621
92.535500	0.313088	0.157850	0.328600	0.482218	3853.302622	8972.866597	3182.664806	4932.504908
93.038500	0.313947	0.157577	0.322083	0.482552	3854.285010	8964.653599	3179.633202	4931.037604
93.536500	0.315552	0.157939	0.323147	0.482597	3857.209447	8968.936521	3180.081070	4930.838140
94.037000	0.306554	0.159226	0.329599	0.489997	3826.983283	8886.866925	3179.664015	4898.608402
94.536000	0.319067	0.158577	0.311464	0.484564	3860.121236	8950.994601	3174.167091	4922.217423
95.038000	0.315041	0.157961	0.315096	0.484702	3852.310204	8940.837998	3175.663208	4921.613645
95.534500	0.314943	0.156510	0.308184	0.484004	3853.430244	8930.719590	3173.010876	4924.666918
96.116500	0.314649	0.157452	0.340215	0.489345	3842.964991	8871.940957	3184.677078	4901.428399
96.535000	0.312654	0.156689	0.327880	0.486339	3844.831296	8901.829807	3180.517371	4914.470878
97.038000	0.309224	0.154197	0.331675	0.484376	3842.124849	8894.769704	3183.074511	4923.042264
97.535500	0.308459	0.156509	0.307673	0.487007	3835.887773	8890.512105	3171.527686	4911.565874
98.047000	0.308718	0.157221	0.327315	0.492369	3826.606741	8828.812370	3177.630398	4888.393352
98.539000	0.319611	0.157842	0.327004	0.487781	3855.098768	8897.969440	3179.497816	4908.202979
99.042000	0.318385	0.156053	0.320379	0.487391	3853.534793	8879.324207	3176.781931	4909.897510
99.537000	0.314391	0.156214	0.328283	0.487200	3846.454956	8884.004051	3180.315711	4910.727255
