sample name	sample
index	170
start time	 02-18-2021  10:22:26 AM
880	0.439973
Peak Time (s)	91.538
Peak Height 	0.44
calc peak height	90,93
Baseline Time (s)	10.536
Baseline Value 	8.0711E-5
subtract baseline	10,4
Abs	0.290309
Peak Time (s)	92.035
Peak Height 	0.2903
calc peak height	90,93
Baseline Time (s)	11.536
Baseline Value 	0.001631
subtract baseline	10,3
PK_550	0.141309
Peak Time (s)	90.037
Peak Height 	0.1413
calc peak height	90,93
Baseline Time (s)	9.037
Baseline Value 	6.9447E-4
subtract baseline	10,2
PK_880	0.272098
Peak Time (s)	91.538
Peak Height 	0.2721
calc peak height	90,93
Baseline Time (s)	10.536
Baseline Value 	0.001852
subtract baseline	10,1


Time (s)	A880-A510	A880-A775	A880-A975	A880	I510	I775	I975	I880	
0.034500	-0.004751	-0.001307	-0.003778	0.005095	6582.764696	43207.042893	3765.391723	22683.122612
0.538000	-0.002491	-0.001003	-0.001685	0.003429	6618.108686	43391.114540	3775.099824	22760.011311
1.035000	-0.004527	-0.000762	-0.001136	0.002197	6610.847373	43529.316290	3779.728297	22817.073511
1.535000	-0.000185	0.000438	0.000013	-0.000617	6675.974037	43908.258783	3790.097046	22947.990390
2.036000	-0.006199	-0.000863	-0.002910	0.005052	6570.183575	43252.383355	3767.734276	22685.068016
2.536500	-0.000302	-0.000290	0.000484	-0.001210	6680.352762	43895.474450	3792.896779	22975.707701
3.035500	-0.001233	-0.000507	0.003478	-0.002635	6684.888458	44010.128960	3804.597030	23042.397479
3.536000	-0.000180	-0.000585	0.000309	-0.000229	6672.468507	43774.594749	3789.853764	22929.894670
4.034000	-0.001724	-0.000038	-0.002158	0.000479	6651.869926	43759.436455	3781.543196	22896.895373
4.537000	-0.001296	-0.000121	0.003135	0.000402	6656.475782	43758.871936	3795.636867	22900.473588
5.034500	0.000271	-0.000878	0.002642	-0.000535	6679.416818	43775.924745	3796.811638	22944.181579
5.535000	-0.001169	-0.000567	-0.000920	-0.000361	6664.618245	43788.849172	3786.977532	22936.064533
6.036000	-0.001678	0.000203	0.003562	0.000512	6651.992508	43779.124224	3796.474816	22895.383404
6.535000	-0.000444	-0.001155	0.002271	-0.000601	6673.449166	43755.896103	3796.002608	22947.227544
7.035000	-0.001922	0.000006	0.002480	0.000277	6651.908465	43782.696674	3794.238352	22906.307364
7.536000	-0.000876	-0.001161	0.002730	-0.000930	6672.510751	43786.480375	3798.088590	22962.635504
8.036500	-0.002324	-0.000826	0.000836	-0.000777	6657.854228	43803.726910	3792.683105	22955.476620
8.536500	-0.001434	0.000680	-0.005009	0.000097	6658.007790	43863.499904	3775.120275	22914.709874
9.037000	-0.001716	0.000000	0.003501	-0.000137	6657.562817	43821.272623	3798.030666	22925.603665
9.537000	0.001755	-0.000357	-0.000837	-0.000182	6689.815271	43791.829016	3786.726676	22927.720802
10.034500	0.000158	-0.000989	0.001604	-0.000481	6677.875027	43760.262779	3793.927678	22941.651980
10.535500	0.000000	-0.000283	0.003067	0.000000	6672.014888	43781.564489	3796.520123	22919.214359
11.035500	-0.000562	0.000068	-0.000526	0.001077	6657.016360	43712.954541	3784.243159	22869.074343
11.535500	0.000121	0.000400	0.000000	0.000724	6666.487664	43777.648127	3786.543281	22885.491174
12.036000	-0.000706	-0.000090	0.002491	0.000035	6665.223202	43796.465847	3794.905075	22917.578485
12.536000	-0.001398	0.000836	0.005488	0.000700	6652.827857	43821.218167	3801.077296	22886.610087
13.037500	0.000390	0.000488	0.003595	0.000346	6672.421520	43821.752180	3797.000904	22903.085459
13.536500	0.000210	-0.000277	0.002482	-0.000967	6682.821060	43873.572864	3797.529452	22964.321404
14.037500	-0.001603	0.001019	0.004676	0.000200	6655.514837	43885.830710	3800.248505	22909.888459
14.537500	-0.001235	-0.000147	-0.001079	0.002666	6636.412146	43543.026374	3778.656534	22795.338032
15.038000	-0.002435	0.000146	0.001812	0.000295	6647.057148	43794.230388	3792.428702	22905.457013
15.561500	-0.000891	-0.000440	0.002657	-0.000882	6671.931240	43850.104617	3797.767174	22960.365348
16.036000	0.000356	0.000593	0.002052	-0.000771	6682.357263	43937.541128	3795.874745	22955.169764
16.536000	0.000115	0.000060	0.003592	-0.001186	6683.967682	43926.402467	3801.052199	22974.590567
17.036500	-0.000446	-0.000296	-0.002221	0.002971	6640.809795	43500.310600	3774.895841	22781.192404
17.536500	0.000895	0.000273	0.003294	-0.000797	6687.557404	43909.635782	3799.228055	22956.379153
18.036500	0.001396	0.000210	0.005157	0.000158	6683.379672	43813.224219	3801.636726	22911.831939
18.537000	0.000130	0.001031	0.002074	0.002271	6652.428340	43691.066487	3787.924961	22813.610777
19.037000	-0.000455	0.000582	0.002115	0.002362	6646.273480	43640.233096	3787.794979	22809.414081
19.535000	-0.001235	-0.000230	0.003178	0.001534	6646.710300	43641.750886	3792.765077	22847.829659
20.035000	-0.000573	0.000970	0.001359	0.002502	6643.924207	43663.634308	3785.446264	22802.915189
20.535500	0.000183	-0.000214	0.003212	0.001996	6655.426791	43599.807311	3791.639968	22826.406750
21.035500	0.000250	0.000475	0.003337	0.002504	6651.402423	43616.759136	3790.629278	22802.806391
21.539000	0.000938	0.000541	0.005511	0.002391	6658.717097	43633.676976	3796.661069	22808.075762
22.036000	-0.000417	0.000228	0.000038	0.002420	6646.090965	43601.501690	3782.207373	22806.737778
22.536500	0.000674	0.000869	0.002187	0.002785	6652.701767	43627.383230	3786.871375	22789.790591
23.036500	-0.001385	0.000205	0.000127	0.002183	6639.435943	43621.611118	3783.059523	22817.709748
23.537000	-0.001403	-0.000180	0.004527	0.001964	6641.263463	43605.962647	3795.188328	22827.858558
24.037000	0.000176	0.000147	0.002168	0.002393	6651.738203	43596.281883	3787.852077	22807.965666
24.535000	-0.000807	0.000904	0.001262	0.002620	6640.717994	43646.244638	3784.883442	22797.456368
25.035000	-0.001157	-0.000326	0.002170	0.001929	6643.824599	43595.500768	3789.075839	22829.505024
25.538000	0.000699	0.000068	0.004666	0.002401	6656.435959	43588.175306	3794.402209	22807.596638
26.036000	0.000146	0.000087	0.004294	0.002527	6650.243054	43578.073085	3793.086716	22801.740483
26.536000	-0.000485	0.000630	0.000816	0.003189	6638.475196	43566.940486	3782.231644	22771.106430
27.036500	0.000269	0.000563	0.005041	0.003026	6646.811587	43575.898271	3793.743146	22778.640816
27.536500	0.000203	-0.000296	0.004740	0.002526	6650.769204	43542.117450	3794.267649	22801.800194
28.037000	0.002967	0.000515	0.003814	-0.000462	6703.578539	43900.825435	3799.720249	22940.760027
28.537500	0.001504	-0.000123	0.007165	-0.000183	6687.506068	43813.986053	3807.890317	22927.733495
29.035000	0.000009	0.000448	0.001685	0.002806	6646.452586	43585.738869	3785.504120	22788.821093
29.535500	0.000770	0.000264	0.004783	0.001630	6664.145456	43679.316671	3796.749427	22843.396441
30.035000	0.000850	-0.000030	0.001679	0.000540	6674.852070	43754.417626	3791.434177	22894.040937
30.535500	0.001733	-0.000216	0.003219	0.000102	6687.000077	43778.200176	3796.651378	22914.461109
31.036000	-0.000591	0.000281	0.001502	0.002264	6645.928164	43621.094354	3786.444094	22813.961550
31.561000	0.000669	-0.000179	0.004942	0.004083	6640.842750	43407.032397	3790.699012	22729.789362
32.036500	-0.002115	-0.000025	0.004192	0.004348	6613.200747	43396.599394	3788.032323	22717.539180
32.536500	0.000912	0.000842	0.006402	0.001344	6668.057617	43760.836361	3801.795713	22856.678566
33.051000	0.000887	0.000633	0.002859	0.001853	6663.164303	43692.978031	3791.085185	22833.003220
33.537500	-0.000290	0.000517	0.003078	0.003450	6637.865891	43531.680930	3787.464630	22759.015103
34.037500	0.001115	0.000709	0.007232	0.000904	6673.948439	43789.836099	3805.171867	22877.122810
34.535500	0.001115	-0.000047	0.009509	0.000347	6679.058014	43770.965224	3812.741019	22903.023671
35.037500	0.000111	0.000665	0.001300	0.005154	6626.041213	43385.726092	3778.371628	22680.365931
35.603000	-0.001609	0.000043	0.002178	0.004677	6614.791699	43372.157000	3781.901501	22702.364526
36.041500	-0.001527	-0.000041	0.005664	0.004097	6620.779954	43418.674913	3792.561541	22729.130271
36.536500	-0.000733	-0.000032	0.004460	0.003467	6633.686133	43478.492658	3791.049569	22758.228313
37.036500	-0.000830	-0.000142	0.005205	0.003958	6628.353430	43422.206090	3791.717722	22735.543638
37.537500	0.001024	-0.000687	0.000187	0.003578	6648.661983	43406.732652	3779.575249	22753.104202
38.034000	-0.001310	-0.000204	0.006778	0.003639	6626.892521	43446.299794	3796.709388	22750.279265
38.534500	0.001660	0.000867	0.006638	0.004824	6643.114106	43435.647080	3793.212790	22695.590459
39.043500	-0.001562	0.000666	0.004924	0.004086	6620.567448	43486.060809	3790.645287	22729.661041
39.535000	0.000885	0.000644	0.002471	0.004625	6637.874982	43433.381702	3782.803623	22704.782348
40.036000	-0.000594	0.000730	0.006646	0.004525	6625.356659	43450.807498	3794.020615	22709.363897
40.538500	0.000594	0.000223	0.005788	0.003817	6642.573627	43469.640965	3793.625197	22742.045958
41.036500	-0.000913	0.000756	0.006689	0.004393	6623.661751	43465.635412	3794.482821	22715.466021
41.539500	-0.000305	0.000365	0.003685	0.004346	6629.598918	43433.299175	3786.708257	22717.618772
42.039500	-0.000419	0.000587	0.006634	0.003979	6631.892706	43488.584057	3795.431455	22734.564065
42.537000	-0.001330	0.000369	0.000363	0.004456	6619.318551	43423.346150	3777.748628	22712.543962
43.037500	-0.000082	0.000834	0.003648	0.004714	6628.287667	43442.890290	3785.648595	22700.677969
43.535000	-0.000509	0.000340	0.002526	0.004307	6628.106042	43434.639865	3783.776666	22719.430502
44.035000	0.000355	0.000332	-0.000276	0.004371	6635.368788	43427.930191	3776.312242	22716.503655
44.560000	0.001894	0.000857	-0.002522	0.004854	6644.973939	43431.941054	3769.247453	22694.230395
45.041500	-0.001838	0.000278	0.006924	0.004373	6615.473585	43422.717562	3795.156844	22716.397079
45.539000	-0.001119	0.000537	0.005021	0.005506	6611.735342	43340.798407	3787.171307	22664.180117
46.039000	0.000554	0.000569	0.004747	0.001784	6660.751836	43693.534309	3796.245288	22836.234901
46.536500	0.001434	0.000387	0.001900	0.001510	6671.323170	43702.230856	3789.465851	22848.967850
47.037000	-0.002775	-0.000662	0.000478	0.005267	6598.959798	43251.158353	3775.943041	22675.192154
47.537000	0.000286	0.001265	0.000281	0.007088	6610.138806	43260.961981	3770.714789	22591.481645
48.037500	0.002940	0.000865	0.006082	0.001831	6682.202318	43717.047509	3799.653528	22834.063561
48.540000	0.002768	0.001125	0.006125	0.002088	6678.253101	43717.237922	3799.085680	22822.097186
49.035500	0.000160	0.000469	0.005040	0.005813	6620.514038	43305.759935	3786.413368	22650.031602
49.535500	-0.001222	0.000628	0.002908	0.006857	6598.621795	43223.066952	3778.124146	22602.070060
50.035500	0.002819	0.001244	0.011436	0.002804	6672.154961	43661.007641	3811.322898	22788.928692
50.536000	0.003255	0.000996	0.001609	0.002572	6678.275927	43659.460041	3785.916286	22799.661191
51.036500	-0.001977	0.000286	0.002166	0.007444	6586.561834	43136.538981	3774.672096	22575.157283
51.537000	-0.000676	0.000754	0.005780	0.006719	6604.793849	43247.796182	3785.981062	22608.441106
52.037000	0.002487	0.000222	0.006281	0.001689	6679.336035	43669.651929	3800.555719	22840.616297
52.534500	-0.002410	-0.007126	0.013021	0.066410	6088.497315	37407.768010	3656.594794	20048.637252
53.035000	-0.033250	-0.022733	-0.005212	-0.012010	6481.966562	42806.167668	3806.423876	23486.878493
53.535000	-0.014582	-0.014721	0.001764	-0.060486	7115.935847	48374.820307	3964.105070	25944.524261
54.035000	-0.004193	-0.016993	0.016723	-0.094786	7595.605056	51869.238636	4122.098660	27856.875058
54.538000	-0.003220	-0.010399	0.020643	-0.033471	6959.265005	46050.374733	3939.690058	24541.158412
55.036000	0.002447	-0.000127	0.017192	-0.038600	7066.708082	47614.543654	3944.687042	24800.907068
55.561000	0.032800	0.010812	0.026480	-0.071028	7747.387228	52329.449688	4075.351622	26516.273460
56.036000	0.051893	0.018850	0.055494	-0.038120	7589.057349	49568.158220	4062.620025	24776.499800
56.537000	0.083181	0.029782	0.077069	-0.001256	7526.558079	46852.549587	4013.706995	22977.857960
57.037500	0.099705	0.045553	0.096026	0.052061	7133.695468	43197.074889	3909.867615	20632.219962
57.534500	0.121049	0.057038	0.115998	0.058832	7285.334059	43638.899584	3948.792080	20354.420489
58.034500	0.140527	0.069263	0.141915	0.143989	6640.401384	37312.827197	3783.012116	17206.495783
58.538500	0.162456	0.081228	0.171783	0.187282	6450.783702	34905.079333	3748.482757	15827.757877
59.035000	0.181976	0.092160	0.192421	0.218403	6351.658539	33442.992737	3722.252777	14918.214598
59.535500	0.190940	0.099677	0.200912	0.255490	6122.069320	31420.547361	3653.837200	13916.062656
60.036000	0.205704	0.108097	0.220099	0.281855	6031.615241	30258.712842	3637.362435	13253.954649
60.539500	0.219660	0.114168	0.234879	0.309237	5929.890700	28939.804472	3609.082828	12607.517956
61.036500	0.223390	0.121066	0.237581	0.332403	5788.099361	27975.727075	3564.878125	12091.575360
61.537000	0.225780	0.123079	0.246181	0.345040	5715.866428	27365.296335	3556.399414	11821.521440
62.037000	0.236898	0.128832	0.248906	0.370802	5615.544789	26255.436201	3509.503614	11294.727167
62.537500	0.243200	0.133355	0.254682	0.366377	5688.697955	26745.432080	3529.962593	11382.995311
63.035000	0.250704	0.136311	0.257916	0.384265	5617.853795	25933.338514	3500.722044	11031.613930
63.535500	0.254926	0.141403	0.266198	0.400859	5535.631460	25326.548394	3484.570347	10718.333036
64.035500	0.256764	0.143151	0.263512	0.386093	5646.519739	26202.848464	3508.147772	10996.508394
64.536000	0.256783	0.144113	0.263948	0.374887	5723.929443	26870.169914	3531.500626	11214.032636
65.041500	0.256191	0.143215	0.266477	0.369878	5754.936557	27099.856629	3546.955923	11313.078067
65.536500	0.255497	0.144324	0.258780	0.377837	5694.486798	26718.345295	3515.149903	11156.229457
66.036500	0.257551	0.142620	0.259501	0.371076	5756.084611	26999.421496	3530.207820	11289.287447
66.536500	0.259493	0.144096	0.269052	0.375049	5741.775479	26860.170489	3541.601305	11210.835303
67.037500	0.259869	0.142796	0.267844	0.377343	5728.333416	26661.208928	3534.431098	11165.867293
67.535000	0.256927	0.142507	0.260050	0.385935	5648.704284	26176.567220	3501.633100	10999.531468
68.035500	0.262255	0.143070	0.265147	0.383869	5699.507981	26318.989362	3515.818279	11039.235339
68.535500	0.261227	0.144087	0.267994	0.388189	5662.680996	26140.212229	3512.883073	10956.448579
69.035500	0.260777	0.142455	0.270614	0.390792	5641.860225	25912.922181	3512.917036	10906.961795
69.536000	0.261593	0.143255	0.275353	0.393188	5631.142247	25827.809002	3517.593208	10861.673364
70.036500	0.256451	0.141218	0.264005	0.394043	5590.808547	25674.393825	3493.515638	10845.561458
70.536500	0.258004	0.141983	0.266285	0.397397	5578.803232	25537.938346	3491.427625	10782.698812
71.088000	0.258050	0.142112	0.265731	0.401158	5554.198910	25347.915985	3483.096159	10712.790650
71.534000	0.256142	0.142742	0.267296	0.402958	5529.854426	25287.041220	3482.645520	10679.554624
72.033500	0.260123	0.144097	0.275702	0.406336	5533.796282	25182.133904	3492.356324	10617.529934
72.609000	0.262156	0.143838	0.275666	0.408084	5535.663082	25078.557007	3488.898646	10585.621336
73.194500	0.262157	0.143575	0.270777	0.410003	5523.123414	24966.507905	3475.829797	10550.751513
73.538500	0.258133	0.142624	0.270866	0.416876	5452.925318	24569.238913	3463.007140	10427.080997
74.046000	0.261381	0.142780	0.278051	0.411865	5505.968701	24830.774984	3486.202298	10517.059313
75.016500	0.260892	0.142892	0.280369	0.415311	5480.572559	24661.661330	3484.029232	10455.074148
75.581000	0.263583	0.144152	0.277726	0.420340	5465.589890	24472.062989	3469.402726	10365.505201
75.669500	0.260175	0.143792	0.281405	0.417843	5459.776245	24579.334066	3481.155944	10409.846872
76.037000	0.264260	0.142765	0.276285	0.416850	5492.348965	24577.644998	3473.282951	10427.553232
76.537500	0.263008	0.143472	0.280274	0.418840	5471.511098	24513.144662	3477.088038	10392.111694
77.040500	0.267098	0.144804	0.276358	0.420634	5486.251764	24489.981819	3466.266997	10360.296107
77.535000	0.264205	0.143355	0.276685	0.425716	5435.374448	24164.990971	3457.363709	10270.883304
78.035500	0.263795	0.143049	0.278702	0.421072	5462.269741	24380.326930	3469.862920	10352.550287
78.535500	0.267221	0.143310	0.282471	0.422658	5474.040366	24314.349362	3474.000542	10324.564622
79.036500	0.264282	0.144147	0.274832	0.425956	5434.338303	24192.230797	3453.473569	10266.680498
79.536500	0.260613	0.141864	0.277445	0.430100	5385.419094	23876.791495	3450.642420	10194.587133
80.036500	0.268128	0.144243	0.276667	0.426102	5457.823672	24189.776671	3456.610813	10264.130445
80.537000	0.266423	0.143662	0.280101	0.425948	5447.955816	24168.676947	3463.314285	10266.825911
81.037500	0.268286	0.143458	0.280636	0.427240	5451.587486	24094.936439	3461.895406	10244.276086
81.537500	0.264134	0.143154	0.284631	0.432809	5390.462017	23807.791969	3458.952763	10147.829863
82.040500	0.266702	0.141630	0.281366	0.426563	5445.824879	24038.361772	3464.535034	10256.084330
82.535000	0.269705	0.142400	0.282343	0.427783	5457.157844	24016.280119	3464.077630	10234.818497
83.035500	0.265925	0.141855	0.283958	0.428785	5426.855146	23940.502475	3465.229265	10217.388580
83.536000	0.266361	0.142907	0.277477	0.429998	5421.962326	23932.617897	3450.889231	10196.349074
84.036000	0.269123	0.141931	0.287784	0.429800	5440.649887	23894.708841	3470.531898	10199.792133
84.536500	0.267706	0.141435	0.278734	0.430371	5428.094310	23842.729477	3452.525400	10189.905532
85.037000	0.268832	0.141716	0.283573	0.432515	5421.678475	23752.311840	3457.529753	10152.896164
85.537000	0.266722	0.140972	0.288531	0.431490	5414.867668	23765.900012	3468.750496	10170.565917
86.037500	0.271448	0.142279	0.291970	0.433394	5432.627091	23736.970898	3471.653324	10137.767985
86.535000	0.268732	0.140362	0.279088	0.432015	5424.196576	23710.956514	3450.141362	10161.502141
87.038000	0.273124	0.140931	0.284672	0.432995	5445.755115	23691.103070	3458.681612	10144.624563
87.538000	0.267514	0.142305	0.282309	0.437370	5383.132668	23546.671771	3446.212904	10069.761670
88.035500	0.269313	0.142249	0.289428	0.436203	5401.582822	23600.036302	3461.575866	10089.657029
88.536000	0.269040	0.140456	0.287803	0.434684	5409.376067	23586.863215	3461.377443	10115.636946
89.036500	0.270875	0.140128	0.285591	0.435945	5412.967122	23510.638718	3454.902295	10094.057252
89.536000	0.268971	0.139970	0.284087	0.440955	5369.970109	23264.683624	3442.901663	10008.970709
90.037000	0.271819	0.141309	0.288117	0.437184	5411.122557	23507.887282	3457.297298	10072.931898
90.537000	0.271235	0.140031	0.286122	0.437202	5407.352148	23445.939510	3453.558175	10072.626699
91.037500	0.271647	0.140282	0.290224	0.438495	5401.847552	23396.252294	3458.779886	10050.634542
91.537500	0.272098	0.138446	0.283324	0.439973	5395.438239	23239.034008	3443.300317	10025.564175
92.035500	0.270293	0.138716	0.290309	0.437465	5399.824128	23370.718566	3460.861805	10068.144867
92.535500	0.271282	0.138744	0.286578	0.437924	5403.133210	23350.250615	3453.063795	10060.329920
93.036000	0.273153	0.138346	0.290904	0.440194	5400.644111	23223.864545	3456.882033	10021.833665
93.535500	0.268946	0.138096	0.289042	0.442724	5358.917537	23093.012774	3448.749009	9979.156021
94.036500	0.273161	0.139955	0.286796	0.440499	5398.787292	23285.510959	3448.708815	10016.664639
94.536500	0.276708	0.138778	0.290215	0.440423	5421.479013	23233.484060	3455.176080	10017.963402
95.036500	0.272638	0.139035	0.287055	0.442396	5383.737922	23152.540991	3445.697576	9984.669712
95.537500	0.269086	0.136239	0.283776	0.442548	5360.856324	23014.299746	3439.424602	9982.106873
96.037000	0.273389	0.137189	0.289297	0.440717	5398.846977	23144.684026	3452.927583	10012.987584
96.535000	0.273843	0.138251	0.293979	0.442331	5391.627513	23118.770937	3458.628714	9985.773159
97.035000	0.271793	0.137490	0.288813	0.443799	5369.830184	23014.306374	3446.349874	9961.089837
97.535500	0.273251	0.137521	0.286232	0.446478	5362.311601	22890.956489	3436.747706	9916.292353
