sample name	sample
index	209
start time	 02-22-2021  09:48:13 AM


Wavelength (nm)	Absorbance
494.344910	-0.163620
494.563924	-0.163620
494.782919	-0.163620
495.001897	0.051243
495.220856	-0.050772
495.439797	-0.024291
495.658719	-0.009870
495.877624	0.007991
496.096510	-0.008584
496.315378	-0.029586
496.534227	-0.006905
496.753059	-0.017117
496.971872	-0.000972
497.190667	0.056033
497.409444	0.066141
497.628203	0.067857
497.846943	0.072382
498.065665	0.074473
498.284369	0.077253
498.503055	0.077502
498.721723	0.078898
498.940372	0.077984
499.159003	0.076945
499.377616	0.077380
499.596210	0.077651
499.814787	0.076686
500.033345	0.076849
500.251885	0.075384
500.470406	0.074959
500.688910	0.074178
500.907395	0.074199
501.125862	0.074154
501.344311	0.072927
501.562742	0.074059
501.781154	0.074215
501.999548	0.073916
502.217924	0.074342
502.436282	0.074814
502.654621	0.075189
502.872942	0.075528
503.091245	0.076357
503.309530	0.076671
503.527797	0.076341
503.746045	0.076309
503.964275	0.076557
504.182487	0.076073
504.400681	0.076026
504.618856	0.075052
504.837013	0.074662
505.055152	0.074046
505.273273	0.075592
505.491376	0.075201
505.709460	0.074783
505.927526	0.074334
506.145574	0.074932
506.363604	0.074990
506.581615	0.076270
506.799608	0.077465
507.017583	0.078127
507.235540	0.076473
507.453478	0.076531
507.671399	0.077549
507.889301	0.077681
508.107185	0.077903
508.325050	0.077970
508.542898	0.076929
508.760727	0.076135
508.978538	0.077155
509.196330	0.077639
509.414105	0.077575
509.631861	0.077206
509.849599	0.078349
510.067319	0.078504
510.285021	0.078921
510.502704	0.079612
510.720369	0.080518
510.938016	0.079380
511.155645	0.079385
511.373255	0.079751
511.590848	0.079687
511.808422	0.079099
512.025977	0.078355
512.243515	0.077784
512.461034	0.077232
512.678536	0.076656
512.896018	0.076763
513.113483	0.077142
513.330930	0.077924
513.548358	0.077979
513.765768	0.077635
513.983160	0.078378
514.200533	0.079501
514.417889	0.080207
514.635226	0.080118
514.852545	0.080684
515.069845	0.080932
515.287128	0.080400
515.504392	0.080720
515.721638	0.081102
515.938866	0.081257
516.156075	0.080497
516.373267	0.080905
516.590440	0.080645
516.807594	0.080304
517.024731	0.080003
517.241850	0.080531
517.458950	0.081015
517.676032	0.081168
517.893095	0.081161
518.110141	0.081978
518.327168	0.081720
518.544177	0.083070
518.761168	0.083752
518.978141	0.083974
519.195095	0.084045
519.412031	0.084679
519.628949	0.085165
519.845849	0.085561
520.062731	0.084885
520.279594	0.084893
520.496439	0.084582
520.713266	0.084339
520.930074	0.084129
521.146865	0.083495
521.363637	0.082096
521.580391	0.081331
521.797127	0.080674
522.013844	0.081425
522.230543	0.081651
522.447224	0.080954
522.663887	0.081107
522.880532	0.081665
523.097158	0.082422
523.313766	0.083359
523.530356	0.084038
523.746928	0.084670
523.963481	0.084666
524.180017	0.084977
524.396534	0.085622
524.613032	0.085709
524.829513	0.085925
525.045975	0.086019
525.262420	0.086034
525.478845	0.086061
525.695253	0.086181
525.911643	0.086074
526.128014	0.085710
526.344367	0.085521
526.560702	0.085977
526.777018	0.086262
526.993316	0.086610
527.209597	0.086945
527.425858	0.087189
527.642102	0.087425
527.858328	0.087341
528.074535	0.087760
528.290724	0.088018
528.506894	0.087591
528.723047	0.087584
528.939181	0.087605
529.155297	0.087954
529.371395	0.088131
529.587475	0.088503
529.803536	0.088687
530.019579	0.088427
530.235604	0.088348
530.451611	0.088863
530.667600	0.088805
530.883570	0.088797
531.099522	0.088672
531.315456	0.088707
531.531372	0.088588
531.747269	0.088703
531.963148	0.089126
532.179009	0.090324
532.394852	0.090334
532.610676	0.090570
532.826482	0.090543
533.042271	0.090813
533.258040	0.090862
533.473792	0.090385
533.689525	0.091189
533.905240	0.091666
534.120937	0.091423
534.336616	0.091444
534.552277	0.091358
534.767919	0.091628
534.983543	0.092029
535.199149	0.092255
535.414736	0.092829
535.630306	0.092393
535.845857	0.091818
536.061390	0.091902
536.276904	0.092842
536.492401	0.093275
536.707879	0.093611
536.923339	0.093371
537.138781	0.093567
537.354204	0.093946
537.569610	0.094416
537.784997	0.094748
538.000366	0.095046
538.215716	0.094577
538.431049	0.094522
538.646363	0.094897
538.861659	0.094995
539.076937	0.095245
539.292196	0.095598
539.507438	0.095815
539.722661	0.096503
539.937866	0.096093
540.153052	0.096080
540.368221	0.096385
540.583371	0.096196
540.798503	0.096380
541.013617	0.096197
541.228712	0.096119
541.443789	0.096188
541.658848	0.096146
541.873889	0.096511
542.088912	0.097078
542.303916	0.097158
542.518902	0.097331
542.733870	0.097451
542.948820	0.098009
543.163752	0.098299
543.378665	0.098231
543.593560	0.098520
543.808437	0.098392
544.023295	0.098121
544.238136	0.098094
544.452958	0.097998
544.667762	0.098108
544.882548	0.098240
545.097315	0.098267
545.312064	0.098302
545.526795	0.098300
545.741508	0.098566
545.956203	0.098624
546.170879	0.098905
546.385537	0.098956
546.600177	0.098579
546.814799	0.098635
547.029402	0.098812
547.243988	0.099102
547.458555	0.099428
547.673103	0.100092
547.887634	0.100496
548.102146	0.100934
548.316640	0.101203
548.531116	0.101811
548.745574	0.101668
548.960013	0.101730
549.174435	0.102040
549.388838	0.102158
549.603222	0.101843
549.817589	0.102169
550.031937	0.101677
550.246267	0.101935
550.460579	0.102116
550.674873	0.102728
550.889148	0.102761
551.103405	0.102723
551.317644	0.102410
551.531865	0.102440
551.746068	0.102577
551.960252	0.103235
552.174418	0.103203
552.388566	0.103061
552.602696	0.102526
552.816807	0.102673
553.030900	0.102666
553.244975	0.102920
553.459032	0.103161
553.673070	0.102961
553.887091	0.103091
554.101093	0.103209
554.315077	0.103576
554.529042	0.103547
554.742990	0.103478
554.956919	0.103457
555.170830	0.103814
555.384722	0.103863
555.598597	0.104293
555.812453	0.104466
556.026291	0.104509
556.240111	0.104504
556.453913	0.105152
556.667696	0.105400
556.881461	0.105718
557.095208	0.105620
557.308937	0.105859
557.522647	0.105543
557.736339	0.105413
557.950013	0.105567
558.163669	0.105554
558.377307	0.105509
558.590926	0.105635
558.804527	0.105270
559.018110	0.105309
559.231675	0.105430
559.445221	0.105369
559.658749	0.105528
559.872259	0.105769
560.085751	0.105731
560.299225	0.105939
560.512680	0.106071
560.726117	0.106521
560.939536	0.106661
561.152937	0.106429
561.366319	0.106859
561.579683	0.106563
561.793029	0.106522
562.006357	0.106802
562.219667	0.106821
562.432958	0.106693
562.646231	0.106827
562.859486	0.106892
563.072723	0.106964
563.285941	0.106829
563.499141	0.107386
563.712323	0.107521
563.925487	0.107365
564.138632	0.107127
564.351760	0.107724
564.564869	0.107814
564.777960	0.107953
564.991032	0.108110
565.204087	0.108336
565.417123	0.108228
565.630141	0.108262
565.843140	0.108738
566.056122	0.109113
566.269085	0.108942
566.482030	0.109111
566.694957	0.109102
566.907866	0.109351
567.120756	0.109436
567.333628	0.109745
567.546482	0.109948
567.759318	0.109864
567.972135	0.109716
568.184935	0.109733
568.397716	0.109757
568.610478	0.110011
568.823223	0.110089
569.035949	0.110603
569.248657	0.110716
569.461347	0.110836
569.674019	0.110823
569.886672	0.111090
570.099308	0.111171
570.311925	0.111279
570.524523	0.111070
570.737104	0.110948
570.949666	0.110904
571.162210	0.110779
571.374736	0.110556
571.587244	0.110724
571.799733	0.110632
572.012205	0.110770
572.224658	0.110794
572.437092	0.110955
572.649509	0.111216
572.861907	0.111401
573.074287	0.111469
573.286649	0.111805
573.498993	0.111879
573.711318	0.112253
573.923625	0.112139
574.135914	0.112353
574.348185	0.112598
574.560438	0.112665
574.772672	0.112288
574.984888	0.112275
575.197086	0.112096
575.409266	0.112341
575.621427	0.112381
575.833570	0.112393
576.045695	0.112525
576.257802	0.112555
576.469890	0.112556
576.681961	0.112762
576.894013	0.113112
577.106046	0.113545
577.318062	0.113593
577.530059	0.113654
577.742039	0.113837
577.954000	0.113978
578.165942	0.114145
578.377867	0.114547
578.589773	0.114712
578.801661	0.114728
579.013531	0.114729
579.225382	0.114910
579.437216	0.115220
579.649031	0.115000
579.860828	0.114760
580.072606	0.114721
580.284367	0.114743
580.496109	0.114536
580.707833	0.114496
580.919539	0.114643
581.131227	0.114608
581.342896	0.114537
581.554547	0.115382
581.766180	0.115499
581.977795	0.115612
582.189391	0.115441
582.400969	0.115390
582.612529	0.115652
582.824071	0.115645
583.035595	0.115795
583.247100	0.115711
583.458587	0.115432
583.670056	0.115699
583.881506	0.115811
584.092939	0.116206
584.304353	0.116775
584.515749	0.116793
584.727127	0.116848
584.938486	0.116770
585.149828	0.116822
585.361151	0.117126
585.572456	0.117248
585.783742	0.117265
585.995011	0.117097
586.206261	0.116922
586.417493	0.117026
586.628706	0.116987
586.839902	0.117323
587.051079	0.117417
587.262238	0.117541
587.473379	0.117528
587.684502	0.117724
587.895606	0.117804
588.106692	0.118039
588.317760	0.118201
588.528810	0.118278
588.739841	0.118358
588.950855	0.118384
589.161850	0.118490
589.372827	0.118689
589.583785	0.118684
589.794726	0.118857
590.005648	0.119117
590.216552	0.119285
590.427437	0.119690
590.638305	0.119387
590.849154	0.119402
591.059985	0.119149
591.270798	0.119183
591.481592	0.119326
591.692369	0.119513
591.903127	0.119137
592.113867	0.118860
592.324588	0.118790
592.535292	0.119063
592.745977	0.119115
592.956644	0.118937
593.167293	0.118806
593.377923	0.118950
593.588536	0.118808
593.799130	0.119045
594.009706	0.119112
594.220263	0.119386
594.430803	0.119692
594.641324	0.120276
594.851827	0.120514
595.062312	0.120862
595.272778	0.120910
595.483227	0.121177
595.693657	0.121261
595.904069	0.121591
596.114462	0.121567
596.324838	0.121598
596.535195	0.121487
596.745534	0.121937
596.955855	0.121836
597.166157	0.121728
597.376441	0.121844
597.586707	0.121959
597.796955	0.122150
598.007185	0.122408
598.217396	0.122334
598.427589	0.122686
598.637764	0.122723
598.847921	0.122937
599.058060	0.123181
599.268180	0.123391
599.478282	0.123438
599.688366	0.123393
599.898431	0.123243
600.108479	0.123603
600.318508	0.123455
600.528519	0.123420
600.738511	0.123381
600.948486	0.123641
601.158442	0.123523
601.368380	0.123830
601.578300	0.123616
601.788202	0.123462
601.998085	0.123240
602.207950	0.123375
602.417797	0.123295
602.627626	0.123530
602.837436	0.123392
603.047228	0.123672
603.257002	0.123397
603.466758	0.123710
603.676496	0.124279
603.886215	0.124335
604.095916	0.124281
604.305599	0.124325
604.515264	0.124151
604.724910	0.124348
604.934538	0.124117
605.144148	0.124690
605.353740	0.124872
605.563314	0.124776
605.772869	0.125146
605.982406	0.125417
606.191925	0.125790
606.401425	0.125972
606.610908	0.126183
606.820372	0.126330
607.029818	0.126048
607.239246	0.125876
607.448655	0.125777
607.658047	0.125736
607.867420	0.126029
608.076775	0.125931
608.286111	0.126015
608.495430	0.125805
608.704730	0.125859
608.914012	0.125848
609.123275	0.126156
609.332521	0.126217
609.541748	0.126294
609.750957	0.125931
609.960148	0.125927
610.169321	0.125998
610.378475	0.126146
610.587611	0.126219
610.796729	0.126600
611.005829	0.126504
611.214910	0.126656
611.423974	0.126548
611.633019	0.126749
611.842045	0.126627
612.051054	0.126470
612.260044	0.126430
612.469017	0.126297
612.677970	0.126178
612.886906	0.126208
613.095824	0.126282
613.304723	0.126473
613.513604	0.126437
613.722467	0.126757
613.931311	0.126899
614.140138	0.127112
614.348946	0.127399
614.557736	0.127519
614.766507	0.127615
614.975261	0.127639
615.183996	0.127402
615.392713	0.127624
615.601412	0.127809
615.810092	0.128073
616.018754	0.128141
616.227399	0.128250
616.436024	0.128027
616.644632	0.128104
616.853222	0.128272
617.061793	0.128517
617.270346	0.128510
617.478880	0.128459
617.687397	0.128506
617.895895	0.128483
618.104375	0.128455
618.312837	0.128838
618.521281	0.128986
618.729706	0.128840
618.938113	0.128940
619.146502	0.129044
619.354873	0.129166
619.563226	0.129218
619.771560	0.129340
619.979876	0.129625
620.188174	0.129463
620.396453	0.129511
620.604715	0.129746
620.812958	0.129679
621.021183	0.129842
621.229390	0.129948
621.437578	0.130174
621.645748	0.130138
621.853900	0.130080
622.062034	0.130294
622.270150	0.130244
622.478247	0.130387
622.686326	0.130518
622.894387	0.130333
623.102430	0.130092
623.310454	0.130047
623.518461	0.130105
623.726449	0.130164
623.934418	0.130137
624.142370	0.130188
624.350303	0.130168
624.558218	0.130421
624.766115	0.130564
624.973994	0.130863
625.181855	0.130974
625.389697	0.131091
625.597521	0.131181
625.805327	0.131275
626.013114	0.131368
626.220883	0.131429
626.428634	0.131347
626.636367	0.131425
626.844082	0.131293
627.051778	0.131240
627.259457	0.131298
627.467117	0.131292
627.674758	0.131369
627.882382	0.131441
628.089987	0.131585
628.297574	0.131712
628.505143	0.131712
628.712694	0.131737
628.920226	0.131688
629.127740	0.131965
629.335236	0.132029
629.542714	0.132093
629.750174	0.132246
629.957615	0.132190
630.165038	0.132303
630.372443	0.132597
630.579829	0.132864
630.787198	0.133228
630.994548	0.133028
631.201880	0.133099
631.409194	0.133055
631.616489	0.132911
631.823766	0.132806
632.031025	0.132944
632.238266	0.132847
632.445489	0.132774
632.652693	0.132729
632.859879	0.132675
633.067047	0.132648
633.274197	0.132871
633.481329	0.133035
633.688442	0.133121
633.895537	0.132867
634.102614	0.132919
634.309672	0.133036
634.516713	0.133249
634.723735	0.133501
634.930739	0.133507
635.137724	0.133399
635.344692	0.133359
635.551641	0.133425
635.758572	0.133782
635.965485	0.133726
636.172379	0.133869
636.379256	0.133732
636.586114	0.133867
636.792954	0.134028
636.999775	0.134267
637.206579	0.134677
637.413364	0.134892
637.620131	0.134909
637.826880	0.135052
638.033610	0.135090
638.240323	0.135130
638.447017	0.135038
638.653692	0.134996
638.860350	0.134858
639.066990	0.134769
639.273611	0.134749
639.480214	0.134938
639.686798	0.134852
639.893365	0.134857
640.099913	0.135039
640.306443	0.135331
640.512955	0.135451
640.719449	0.135779
640.925924	0.135770
641.132381	0.135961
641.338820	0.135901
641.545241	0.135959
641.751644	0.136132
641.958028	0.136179
642.164394	0.136189
642.370742	0.136287
642.577071	0.136230
642.783383	0.136364
642.989676	0.136354
643.195951	0.136255
643.402207	0.136574
643.608446	0.136438
643.814666	0.136511
644.020868	0.136474
644.227052	0.136631
644.433218	0.136830
644.639365	0.137054
644.845494	0.137154
645.051605	0.137389
645.257698	0.137201
645.463772	0.137398
645.669828	0.137492
645.875866	0.137489
646.081886	0.137564
646.287888	0.137528
646.493871	0.137323
646.699836	0.137505
646.905783	0.137639
647.111712	0.137899
647.317622	0.137869
647.523514	0.137755
647.729388	0.137946
647.935244	0.137952
648.141082	0.138206
648.346901	0.138308
648.552702	0.138541
648.758485	0.138569
648.964250	0.138787
649.169996	0.139110
649.375724	0.139399
649.581434	0.139539
649.787126	0.139687
649.992800	0.139554
650.198455	0.139858
650.404092	0.139608
650.609711	0.139876
650.815311	0.139670
651.020894	0.139580
651.226458	0.139566
651.432004	0.139609
651.637532	0.139693
651.843041	0.139758
652.048532	0.139596
652.254006	0.139666
652.459460	0.139649
652.664897	0.139807
652.870315	0.139930
653.075716	0.140013
653.281097	0.140148
653.486461	0.140207
653.691807	0.140457
653.897134	0.140545
654.102443	0.140674
654.307734	0.140550
654.513006	0.140805
654.718261	0.140992
654.923497	0.141219
655.128715	0.141307
655.333915	0.141537
655.539096	0.141450
655.744259	0.141602
655.949404	0.141657
656.154531	0.141948
656.359640	0.141803
656.564730	0.141787
656.769802	0.141938
656.974856	0.141833
657.179892	0.141919
657.384909	0.141961
657.589908	0.142135
657.794889	0.142265
657.999852	0.142240
658.204797	0.142567
658.409723	0.142707
658.614631	0.142606
658.819521	0.142698
659.024393	0.142498
659.229246	0.142734
659.434081	0.142598
659.638898	0.142539
659.843697	0.142577
660.048478	0.142544
660.253240	0.142590
660.457984	0.142524
660.662710	0.142978
660.867417	0.143173
661.072107	0.143203
661.276778	0.143540
661.481431	0.143872
661.686066	0.143942
661.890682	0.143997
662.095281	0.144282
662.299861	0.144537
662.504422	0.144387
662.708966	0.144462
662.913491	0.144610
663.117999	0.144510
663.322488	0.144513
663.526958	0.144578
663.731411	0.144749
663.935845	0.144591
664.140261	0.144555
664.344659	0.144722
664.549038	0.144893
664.753400	0.144853
664.957743	0.145262
665.162068	0.145515
665.366375	0.145558
665.570663	0.145580
665.774933	0.145852
665.979185	0.146063
666.183419	0.146158
666.387635	0.146126
666.591832	0.146338
666.796011	0.146200
667.000172	0.146170
667.204315	0.146475
667.408439	0.146613
667.612545	0.146534
667.816634	0.146640
668.020703	0.146482
668.224755	0.146620
668.428788	0.146744
668.632803	0.146775
668.836800	0.146770
669.040779	0.146826
669.244739	0.147038
669.448681	0.147138
669.652605	0.147120
669.856511	0.147140
670.060399	0.147136
670.264268	0.147204
670.468119	0.147193
670.671952	0.147046
670.875767	0.147039
671.079563	0.146967
671.283341	0.147074
671.487101	0.147092
671.690843	0.147316
671.894567	0.147409
672.098272	0.147472
672.301959	0.147762
672.505628	0.148199
672.709278	0.148302
672.912911	0.148459
673.116525	0.148552
673.320121	0.148510
673.523699	0.148772
673.727258	0.148879
673.930799	0.148761
674.134322	0.148834
674.337827	0.148723
674.541314	0.149030
674.744782	0.149058
674.948232	0.149009
675.151664	0.149190
675.355078	0.149257
675.558474	0.149369
675.761851	0.149541
675.965210	0.149608
676.168551	0.149859
676.371873	0.149851
676.575178	0.149967
676.778464	0.150187
676.981732	0.150278
677.184981	0.150206
677.388213	0.150304
677.591426	0.150616
677.794621	0.150751
677.997798	0.150789
678.200956	0.150592
678.404097	0.150570
678.607219	0.150591
678.810323	0.150833
679.013408	0.150865
679.216476	0.151002
679.419525	0.150821
679.622556	0.150862
679.825569	0.151014
680.028563	0.151229
680.231540	0.151341
680.434498	0.151480
680.637438	0.151559
680.840359	0.151797
681.043263	0.151887
681.246148	0.152114
681.449015	0.152275
681.651864	0.152347
681.854694	0.152414
682.057506	0.152417
682.260301	0.152707
682.463076	0.152800
682.665834	0.152781
682.868573	0.152803
683.071295	0.152806
683.273998	0.152942
683.476682	0.152969
683.679349	0.153069
683.881997	0.153288
684.084627	0.153185
684.287239	0.153283
684.489833	0.153317
684.692408	0.153558
684.894965	0.153691
685.097504	0.153693
685.300025	0.153768
685.502527	0.153900
685.705012	0.153851
685.907478	0.153782
686.109925	0.153475
686.312355	0.153600
686.514766	0.153549
686.717159	0.153606
686.919534	0.153396
687.121891	0.153283
687.324230	0.153301
687.526550	0.153446
687.728852	0.153611
687.931136	0.153925
688.133401	0.154057
688.335649	0.154014
688.537878	0.154102
688.740089	0.154501
688.942281	0.154914
689.144456	0.155016
689.346612	0.155225
689.548750	0.155489
689.750870	0.155649
689.952971	0.155669
690.155055	0.155946
690.357120	0.155849
690.559167	0.155738
690.761195	0.155634
690.963206	0.155786
691.165198	0.155804
691.367172	0.155896
691.569128	0.155910
691.771065	0.156105
691.972984	0.156244
692.174885	0.156432
692.376768	0.156584
692.578633	0.156712
692.780479	0.156567
692.982308	0.156564
693.184118	0.156480
693.385909	0.156617
693.587683	0.156574
693.789438	0.156656
693.991175	0.156751
694.192894	0.156889
694.394595	0.156832
694.596277	0.156905
694.797941	0.156970
694.999587	0.157156
695.201215	0.157146
695.402824	0.157259
695.604416	0.157254
695.805989	0.157307
696.007543	0.157281
696.209080	0.157667
696.410598	0.157877
696.612099	0.157890
696.813580	0.157891
697.015044	0.157920
697.216490	0.157923
697.417917	0.157890
697.619326	0.158065
697.820717	0.158054
698.022089	0.157863
698.223444	0.158030
698.424780	0.158131
698.626098	0.158261
698.827397	0.158513
699.028679	0.158680
699.229942	0.158896
699.431187	0.158695
699.632414	0.158843
699.833622	0.158698
700.034813	0.158663
700.235985	0.158849
700.437139	0.158667
700.638274	0.158558
700.839392	0.158816
701.040491	0.158971
701.241572	0.159309
701.442635	0.159415
701.643679	0.159775
701.844706	0.159900
702.045714	0.159723
702.246704	0.159930
702.447675	0.160044
702.648629	0.159836
702.849564	0.159618
703.050481	0.159697
703.251380	0.159820
703.452260	0.159787
703.653122	0.159685
703.853966	0.159899
704.054792	0.159953
704.255600	0.160055
704.456389	0.159969
704.657160	0.159805
704.857913	0.159654
705.058648	0.159537
705.259365	0.159434
705.460063	0.159439
705.660743	0.159276
705.861405	0.159215
706.062048	0.159203
706.262674	0.159316
706.463281	0.159528
706.663870	0.159515
706.864441	0.159394
707.064993	0.159643
707.265527	0.159698
707.466043	0.159742
707.666541	0.159709
707.867021	0.159787
708.067482	0.159839
708.267925	0.159956
708.468350	0.160126
708.668757	0.160403
708.869145	0.160588
709.069516	0.160770
709.269868	0.160781
709.470201	0.161135
709.670517	0.161195
709.870814	0.161275
710.071093	0.161298
710.271354	0.161300
710.471597	0.161175
710.671821	0.161011
710.872028	0.160584
711.072216	0.160838
711.272385	0.160491
711.472537	0.160446
711.672670	0.160587
711.872785	0.160496
712.072882	0.160546
712.272961	0.160563
712.473021	0.160431
712.673063	0.160678
712.873087	0.160510
713.073093	0.160681
713.273081	0.160468
713.473050	0.160276
713.673001	0.160194
713.872934	0.160021
714.072849	0.160140
714.272745	0.160329
714.472623	0.160425
714.672483	0.160409
714.872325	0.160394
715.072148	0.160462
715.271954	0.160441
715.471741	0.160632
715.671509	0.160822
715.871260	0.160642
716.070992	0.160236
716.270707	0.160227
716.470403	0.160336
716.670080	0.160415
716.869740	0.160648
717.069381	0.160768
717.269004	0.160618
717.468609	0.160410
717.668195	0.160411
717.867764	0.160462
718.067314	0.160364
718.266846	0.160295
718.466360	0.160265
718.665855	0.160012
718.865332	0.159806
719.064791	0.159610
719.264232	0.159729
719.463655	0.159781
719.663059	0.160089
719.862445	0.160128
720.061813	0.160081
720.261163	0.159950
720.460494	0.159952
720.659807	0.159988
720.859102	0.160107
721.058379	0.160170
721.257638	0.160130
721.456878	0.160089
721.656100	0.160055
721.855304	0.160025
722.054490	0.160114
722.253657	0.160307
722.452806	0.160374
722.651937	0.160413
722.851050	0.160355
723.050145	0.160332
723.249221	0.160230
723.448279	0.160234
723.647319	0.160228
723.846340	0.160239
724.045344	0.160203
724.244329	0.160091
724.443296	0.160101
724.642245	0.160073
724.841175	0.160181
725.040088	0.160238
725.238982	0.160297
725.437857	0.160341
725.636715	0.160255
725.835554	0.160086
726.034376	0.160157
726.233179	0.160392
726.431963	0.160296
726.630730	0.160148
726.829478	0.160129
727.028208	0.160214
727.226920	0.160268
727.425614	0.160217
727.624289	0.160233
727.822946	0.160075
728.021585	0.159731
728.220206	0.159756
728.418808	0.159868
728.617392	0.159677
728.815958	0.159482
729.014506	0.159452
729.213036	0.159368
729.411547	0.159181
729.610040	0.159257
729.808515	0.159208
730.006972	0.159249
730.205410	0.158933
730.403831	0.158938
730.602233	0.158841
730.800616	0.158647
730.998982	0.158561
731.197329	0.158707
731.395658	0.158493
731.593969	0.158558
731.792262	0.158287
731.990536	0.158369
732.188793	0.158124
732.387031	0.158129
732.585250	0.158233
732.783452	0.158280
732.981635	0.158255
733.179800	0.158415
733.377947	0.158455
733.576076	0.158410
733.774186	0.158365
733.972278	0.158304
734.170352	0.158121
734.368408	0.158007
734.566446	0.157891
734.764465	0.157665
734.962466	0.157476
735.160449	0.157066
735.358413	0.157169
735.556360	0.157172
735.754288	0.157391
735.952198	0.157321
736.150090	0.157205
736.347963	0.156941
736.545818	0.156895
736.743655	0.156831
736.941474	0.156935
737.139275	0.156878
737.337057	0.156708
737.534821	0.156611
737.732567	0.156802
737.930295	0.156845
738.128005	0.157011
738.325696	0.156784
738.523369	0.156697
738.721024	0.156685
738.918660	0.156548
739.116279	0.156588
739.313879	0.156440
739.511461	0.156259
739.709024	0.156104
739.906570	0.155930
740.104097	0.156081
740.301606	0.156064
740.499097	0.156059
740.696569	0.155836
740.894024	0.155815
741.091460	0.155702
741.288878	0.155348
741.486277	0.155326
741.683659	0.155362
741.881022	0.155292
742.078367	0.155202
742.275694	0.154942
742.473002	0.154962
742.670293	0.155026
742.867565	0.154958
743.064819	0.155171
743.262054	0.154891
743.459272	0.154908
743.656471	0.154643
743.853652	0.154586
744.050815	0.154696
744.247959	0.154731
744.445085	0.154275
744.642194	0.154397
744.839283	0.154118
745.036355	0.154258
745.233408	0.154191
745.430444	0.154192
745.627461	0.153990
745.824459	0.153595
746.021440	0.153393
746.218402	0.153308
746.415346	0.153221
746.612272	0.153069
746.809180	0.152889
747.006069	0.152532
747.202940	0.152561
747.399793	0.152518
747.596628	0.152609
747.793444	0.152435
747.990243	0.152477
748.187023	0.152053
748.383784	0.152105
748.580528	0.152128
748.777253	0.152122
748.973960	0.151938
749.170649	0.151917
749.367320	0.151906
749.563973	0.151866
749.760607	0.151708
749.957223	0.151962
750.153821	0.151998
750.350400	0.152008
750.546962	0.151977
750.743505	0.151887
750.940030	0.151706
751.136536	0.151595
751.333025	0.151436
751.529495	0.151379
751.725947	0.151143
751.922381	0.150736
752.118796	0.150480
752.315194	0.150440
752.511573	0.150289
752.707934	0.150177
752.904276	0.150072
753.100601	0.150054
753.296907	0.150000
753.493195	0.149957
753.689465	0.149891
753.885716	0.149928
754.081949	0.149765
754.278164	0.149796
754.474361	0.149923
754.670540	0.149874
754.866700	0.149818
755.062843	0.149630
755.258967	0.149668
755.455072	0.149800
755.651160	0.149740
755.847229	0.149861
756.043280	0.150117
756.239313	0.149889
756.435328	0.149778
756.631324	0.149840
756.827302	0.149924
757.023262	0.149596
757.219204	0.149749
757.415127	0.149526
757.611033	0.149548
757.806920	0.149187
758.002788	0.149073
758.198639	0.149289
758.394471	0.149038
758.590286	0.148823
758.786081	0.148988
758.981859	0.148663
759.177619	0.148549
759.373360	0.148350
759.569083	0.148132
759.764788	0.148050
759.960474	0.147628
760.156143	0.147596
760.351793	0.147633
760.547425	0.147395
760.743038	0.147340
760.938634	0.147252
761.134211	0.147064
761.329770	0.147169
761.525311	0.147155
761.720833	0.147089
761.916338	0.147190
762.111824	0.147210
762.307292	0.147056
762.502741	0.147187
762.698173	0.147306
762.893586	0.147240
763.088981	0.147153
763.284358	0.147112
763.479716	0.147059
763.675057	0.146883
763.870379	0.146646
764.065683	0.146779
764.260968	0.146588
764.456236	0.146438
764.651485	0.146348
764.846716	0.146190
765.041929	0.146152
765.237123	0.146168
765.432299	0.146123
765.627457	0.146252
765.822597	0.146197
766.017719	0.146150
766.212822	0.146038
766.407907	0.145941
766.602974	0.146111
766.798023	0.146159
766.993054	0.146232
767.188066	0.146226
767.383060	0.146219
767.578036	0.146260
767.772993	0.146284
767.967933	0.146389
768.162854	0.146448
768.357757	0.146419
768.552642	0.146152
768.747508	0.146143
768.942356	0.146226
769.137186	0.146030
769.331998	0.146010
769.526792	0.145952
769.721567	0.145622
769.916324	0.145555
770.111063	0.145330
770.305784	0.145556
770.500486	0.145512
770.695171	0.145482
770.889837	0.145447
771.084484	0.145358
771.279114	0.145302
771.473725	0.145585
771.668318	0.145634
771.862893	0.145706
772.057450	0.145793
772.251988	0.145596
772.446509	0.145675
772.641011	0.145891
772.835494	0.145820
773.029960	0.145725
773.224407	0.145550
773.418836	0.145600
773.613247	0.145401
773.807640	0.145147
774.002014	0.145253
774.196370	0.144818
774.390708	0.144478
774.585028	0.144463
774.779330	0.144543
774.973613	0.144604
775.167878	0.144483
775.362125	0.144472
775.556354	0.144429
775.750564	0.144336
775.944756	0.144384
776.138930	0.144663
776.333086	0.144719
776.527223	0.144836
776.721343	0.144852
776.915444	0.144782
777.109526	0.144885
777.303591	0.144857
777.497637	0.144733
777.691666	0.144814
777.885676	0.144742
778.079667	0.144668
778.273641	0.144552
778.467596	0.144720
778.661533	0.144663
778.855452	0.144750
779.049352	0.144715
779.243235	0.144849
779.437099	0.144853
779.630945	0.144791
779.824773	0.144717
780.018582	0.144422
780.212373	0.143976
780.406146	0.144040
780.599901	0.144053
780.793638	0.144087
780.987356	0.143978
781.181056	0.144143
781.374738	0.144133
781.568402	0.144079
781.762047	0.144469
781.955674	0.144745
782.149283	0.144649
782.342874	0.144741
782.536447	0.144805
782.730001	0.144963
782.923537	0.144768
783.117055	0.144572
783.310555	0.144788
783.504036	0.144619
783.697499	0.144511
783.890944	0.144451
784.084371	0.144495
784.277780	0.144697
784.471170	0.144804
784.664542	0.144648
784.857896	0.144753
785.051231	0.144306
785.244549	0.144250
785.437848	0.144346
785.631129	0.144520
785.824392	0.144502
786.017636	0.144353
786.210863	0.144325
786.404071	0.144671
786.597260	0.144797
786.790432	0.145226
786.983585	0.145307
787.176721	0.145111
787.369838	0.145203
787.562936	0.145059
787.756017	0.145103
787.949079	0.145084
788.142123	0.145109
788.335149	0.145095
788.528156	0.145147
788.721146	0.145296
788.914117	0.145458
789.107070	0.145557
789.300005	0.145676
789.492921	0.145712
789.685819	0.145799
789.878699	0.145761
790.071561	0.145792
790.264405	0.145876
790.457230	0.145892
790.650037	0.146149
790.842826	0.146166
791.035597	0.146073
791.228349	0.145942
791.421084	0.145804
791.613800	0.145787
791.806497	0.145914
791.999177	0.145968
792.191838	0.146189
792.384481	0.145994
792.577106	0.145977
792.769713	0.146300
792.962301	0.146478
793.154871	0.146847
793.347423	0.146851
793.539957	0.146765
793.732473	0.146971
793.924970	0.146681
794.117449	0.146830
794.309910	0.146911
794.502353	0.146661
794.694777	0.146630
794.887183	0.146436
795.079571	0.146680
795.271941	0.146827
795.464293	0.146614
795.656626	0.146887
795.848941	0.147022
796.041238	0.147088
796.233516	0.147499
796.425777	0.147749
796.618019	0.147933
796.810243	0.147910
797.002449	0.148063
797.194636	0.148346
797.386805	0.148385
797.578956	0.148477
797.771089	0.148450
797.963204	0.148359
798.155300	0.148541
798.347378	0.148606
798.539438	0.148783
798.731480	0.148825
798.923503	0.148775
799.115509	0.148774
799.307496	0.148903
799.499465	0.149022
799.691415	0.149101
799.883348	0.149135
800.075262	0.149253
800.267158	0.149173
800.459035	0.149117
800.650895	0.149009
800.842736	0.149095
801.034559	0.149041
801.226364	0.149264
801.418150	0.149324
801.609919	0.149341
801.801669	0.149301
801.993401	0.149610
802.185114	0.149957
802.376810	0.150151
802.568487	0.150584
802.760146	0.150726
802.951787	0.150751
803.143409	0.151015
803.335014	0.151150
803.526600	0.151240
803.718168	0.151335
803.909717	0.151176
804.101249	0.151384
804.292762	0.151351
804.484257	0.151340
804.675734	0.151365
804.867192	0.151039
805.058632	0.150950
805.250054	0.151045
805.441458	0.150996
805.632844	0.151201
805.824211	0.151194
806.015561	0.150930
806.206891	0.151018
806.398204	0.151013
806.589499	0.151255
806.780775	0.151579
806.972033	0.151790
807.163273	0.151754
807.354495	0.151951
807.545698	0.152221
807.736883	0.152457
807.928050	0.152629
808.119199	0.152777
808.310329	0.152876
808.501441	0.153049
808.692535	0.153273
808.883611	0.153533
809.074669	0.153760
809.265708	0.153627
809.456729	0.154006
809.647732	0.154181
809.838717	0.154499
810.029683	0.154845
810.220632	0.154979
810.411562	0.154961
810.602474	0.154995
810.793367	0.155103
810.984242	0.155354
811.175100	0.155224
811.365938	0.155154
811.556759	0.154967
811.747562	0.155031
811.938346	0.155103
812.129112	0.155156
812.319860	0.155469
812.510589	0.155198
812.701300	0.155280
812.891994	0.155510
813.082668	0.155766
813.273325	0.156091
813.463964	0.156162
813.654584	0.156217
813.845186	0.156346
814.035769	0.156566
814.226335	0.156935
814.416882	0.157241
814.607411	0.157685
814.797922	0.157988
814.988415	0.158155
815.178889	0.158383
815.369345	0.158431
815.559783	0.158661
815.750203	0.158829
815.940605	0.159150
816.130988	0.159372
816.321353	0.159423
816.511700	0.159471
816.702028	0.159576
816.892339	0.159732
817.082631	0.160004
817.272905	0.160306
817.463161	0.160126
817.653398	0.160265
817.843617	0.160184
818.033819	0.160277
818.224001	0.160226
818.414166	0.160459
818.604312	0.160574
818.794440	0.160642
818.984550	0.160761
819.174642	0.161314
819.364716	0.161418
819.554771	0.161724
819.744808	0.161868
819.934827	0.162159
820.124827	0.162282
820.314810	0.162533
820.504774	0.162448
820.694720	0.162497
820.884647	0.162515
821.074557	0.162855
821.264448	0.163108
821.454321	0.163202
821.644176	0.163449
821.834012	0.163722
822.023831	0.163805
822.213631	0.164304
822.403413	0.164248
822.593176	0.164489
822.782922	0.164469
822.972649	0.164549
823.162358	0.164784
823.352049	0.164935
823.541721	0.165268
823.731376	0.165589
823.921012	0.165823
824.110629	0.166200
824.300229	0.166383
824.489811	0.166716
824.679374	0.166920
824.868919	0.166926
825.058445	0.167193
825.247954	0.167162
825.437444	0.167040
825.626916	0.167153
825.816370	0.167231
826.005806	0.167224
826.195223	0.166995
826.384622	0.167117
826.574003	0.167145
826.763366	0.167270
826.952711	0.167509
827.142037	0.167848
827.331345	0.168117
827.520635	0.168244
827.709906	0.168402
827.899160	0.168917
828.088395	0.169025
828.277612	0.169108
828.466810	0.169353
828.655991	0.169410
828.845153	0.169644
829.034297	0.169796
829.223423	0.169987
829.412531	0.170400
829.601620	0.170475
829.790691	0.170579
829.979744	0.171022
830.168779	0.170993
830.357795	0.171220
830.546793	0.171181
830.735773	0.171294
830.924735	0.171610
831.113679	0.171686
831.302604	0.171852
831.491511	0.172350
831.680400	0.172507
831.869271	0.172968
832.058123	0.173292
832.246957	0.173632
832.435773	0.173810
832.624571	0.173942
832.813351	0.174202
833.002112	0.174413
833.190855	0.174515
833.379580	0.174787
833.568287	0.174970
833.756975	0.174905
833.945645	0.175286
834.134297	0.175576
834.322931	0.176011
834.511547	0.176017
834.700144	0.176163
834.888723	0.176357
835.077284	0.176662
835.265826	0.176649
835.454351	0.177089
835.642857	0.177243
835.831345	0.177355
836.019815	0.177071
836.208266	0.177349
836.396699	0.177659
836.585114	0.177865
836.773511	0.178079
836.961890	0.178391
837.150250	0.178562
837.338592	0.178460
837.526916	0.178913
837.715222	0.179572
837.903510	0.179802
838.091779	0.179815
838.280030	0.179670
838.468263	0.179819
838.656477	0.180128
838.844674	0.180300
839.032852	0.180516
839.221012	0.180574
839.409153	0.180775
839.597277	0.180887
839.785382	0.181200
839.973469	0.181817
840.161538	0.182063
840.349589	0.182153
840.537621	0.182407
840.725635	0.182812
840.913631	0.182830
841.101609	0.182940
841.289568	0.183135
841.477509	0.183315
841.665432	0.183034
841.853337	0.183047
842.041224	0.183250
842.229092	0.183508
842.416942	0.183774
842.604774	0.184154
842.792588	0.184703
842.980383	0.185148
843.168160	0.185614
843.355919	0.186380
843.543660	0.186992
843.731382	0.187131
843.919087	0.187384
844.106773	0.187724
844.294441	0.187865
844.482090	0.187834
844.669722	0.187992
844.857335	0.188092
845.044930	0.188351
845.232507	0.188519
845.420065	0.188996
845.607605	0.189069
845.795127	0.189218
845.982631	0.189486
846.170117	0.189627
846.357584	0.189866
846.545033	0.190046
846.732464	0.190215
846.919877	0.190618
847.107272	0.190941
847.294648	0.191393
847.482006	0.191466
847.669346	0.191917
847.856667	0.192242
848.043971	0.192520
848.231256	0.192714
848.418523	0.192798
848.605771	0.192812
848.793002	0.192897
848.980214	0.193023
849.167408	0.192991
849.354584	0.192853
849.541742	0.193083
849.728881	0.193397
849.916002	0.193801
850.103105	0.193940
850.290190	0.194037
850.477256	0.194115
850.664304	0.194406
850.851334	0.194961
851.038346	0.195399
851.225340	0.195723
851.412315	0.195796
851.599272	0.195766
851.786211	0.196041
851.973132	0.196404
852.160034	0.196571
852.346918	0.196819
852.533784	0.197185
852.720632	0.197554
852.907462	0.197575
853.094273	0.197759
853.281066	0.198236
853.467841	0.198439
853.654598	0.198354
853.841336	0.198786
854.028056	0.199083
854.214758	0.199182
854.401442	0.199401
854.588107	0.199846
854.774755	0.200076
854.961384	0.200292
855.147995	0.200542
855.334587	0.201051
855.521162	0.201505
855.707718	0.201668
855.894256	0.201951
856.080775	0.201979
856.267277	0.202135
856.453760	0.202248
856.640225	0.202679
856.826672	0.203161
857.013101	0.203309
857.199511	0.203377
857.385903	0.203491
857.572277	0.203789
857.758633	0.203996
857.944970	0.204129
858.131290	0.204510
858.317591	0.204606
858.503873	0.204742
858.690138	0.204912
858.876384	0.205125
859.062612	0.205425
859.248822	0.205700
859.435014	0.206195
859.621188	0.206405
859.807343	0.206297
859.993480	0.206225
860.179599	0.206473
860.365699	0.206322
860.551781	0.206334
860.737846	0.206416
860.923891	0.206598
861.109919	0.206784
861.295929	0.206841
861.481920	0.207500
861.667893	0.207977
861.853848	0.208010
862.039784	0.208377
862.225702	0.208745
862.411603	0.208903
862.597484	0.208866
862.783348	0.208668
862.969193	0.209116
863.155021	0.209137
863.340830	0.209254
863.526620	0.209593
863.712393	0.209895
863.898147	0.210182
864.083883	0.210349
864.269601	0.210716
864.455301	0.211364
864.640982	0.211489
864.826645	0.211669
865.012290	0.211663
865.197917	0.211853
865.383526	0.212269
865.569116	0.212379
865.754688	0.212554
865.940242	0.212556
866.125777	0.212513
866.311295	0.212875
866.496794	0.213049
866.682275	0.213416
866.867737	0.213532
867.053182	0.213988
867.238608	0.214184
867.424016	0.214234
867.609406	0.214670
867.794778	0.214922
867.980131	0.214889
868.165466	0.214985
868.350783	0.215135
868.536082	0.215096
868.721362	0.214804
868.906625	0.215060
869.091869	0.215535
869.277094	0.215354
869.462302	0.215326
869.647491	0.215275
869.832662	0.215378
870.017815	0.215656
870.202950	0.215998
870.388066	0.216356
870.573165	0.216387
870.758245	0.216356
870.943306	0.216406
871.128350	0.216652
871.313375	0.217073
871.498382	0.217478
871.683371	0.217501
871.868342	0.217590
872.053294	0.217532
872.238229	0.217891
872.423144	0.218222
872.608042	0.218904
872.792922	0.218955
872.977783	0.219197
873.162626	0.219079
873.347451	0.219174
873.532258	0.219574
873.717046	0.219515
873.901816	0.219271
874.086568	0.219236
874.271302	0.219243
874.456017	0.219144
874.640715	0.219157
874.825394	0.219455
875.010055	0.219569
875.194697	0.219392
875.379322	0.219616
875.563928	0.219915
875.748516	0.220344
875.933085	0.220163
876.117637	0.220835
876.302170	0.221048
876.486685	0.221548
876.671182	0.221595
876.855661	0.221843
877.040121	0.222247
877.224563	0.222356
877.408987	0.222032
877.593393	0.222115
877.777780	0.222191
877.962150	0.221953
878.146501	0.221554
878.330833	0.221798
878.515148	0.221755
878.699444	0.221953
878.883722	0.221893
879.067982	0.222220
879.252224	0.222675
879.436447	0.222562
879.620653	0.222939
879.804840	0.223278
879.989008	0.223352
880.173159	0.223300
880.357291	0.223172
880.541405	0.222979
880.725501	0.223064
880.909579	0.222994
881.093638	0.223317
881.277680	0.223286
881.461703	0.223383
881.645707	0.223453
881.829694	0.223759
882.013662	0.224125
882.197612	0.224595
882.381544	0.224746
882.565458	0.224691
882.749353	0.224519
882.933230	0.224524
883.117089	0.224497
883.300930	0.224504
883.484753	0.224489
883.668557	0.224054
883.852343	0.224032
884.036111	0.223576
884.219861	0.223524
884.403592	0.223346
884.587305	0.223467
884.771000	0.223376
884.954677	0.223406
885.138335	0.223484
885.321976	0.223738
885.505598	0.223796
885.689201	0.224551
885.872787	0.224511
886.056354	0.224687
886.239904	0.224612
886.423434	0.224286
886.606947	0.224253
886.790442	0.224182
886.973918	0.224136
887.157376	0.224415
887.340816	0.224114
887.524237	0.224375
887.707641	0.224902
887.891026	0.225322
888.074393	0.225853
888.257741	0.225755
888.441072	0.225795
888.624384	0.225984
888.807678	0.225875
888.990954	0.225990
889.174211	0.226089
889.357451	0.225699
889.540672	0.225531
889.723875	0.225558
889.907059	0.225950
890.090226	0.226255
890.273374	0.226205
890.456504	0.226193
890.639616	0.226191
890.822709	0.226228
891.005785	0.226084
891.188842	0.226378
891.371881	0.226411
891.554901	0.226197
891.737904	0.225930
891.920888	0.226029
892.103854	0.226009
892.286802	0.225809
892.469731	0.225763
892.652643	0.226140
892.835536	0.225498
893.018410	0.225332
893.201267	0.224947
893.384106	0.224815
893.566926	0.224724
893.749728	0.224194
893.932511	0.223868
894.115277	0.223641
894.298024	0.223400
894.480753	0.223276
894.663464	0.223183
894.846157	0.223480
895.028831	0.223453
895.211487	0.223167
895.394125	0.223603
895.576745	0.223865
895.759346	0.223683
895.941930	0.223344
896.124495	0.223600
896.307041	0.223437
896.489570	0.223283
896.672080	0.223269
896.854573	0.223006
897.037046	0.222992
897.219502	0.222971
897.401940	0.222979
897.584359	0.223208
897.766760	0.222888
897.949143	0.222438
898.131507	0.222230
898.313854	0.222353
898.496182	0.222450
898.678492	0.222341
898.860783	0.222407
899.043057	0.222185
899.225312	0.221891
899.407549	0.221992
899.589768	0.222140
899.771968	0.222195
899.954151	0.221703
900.136315	0.221488
900.318461	0.221085
900.500588	0.221037
900.682698	0.221063
900.864789	0.220968
901.046862	0.220580
901.228917	0.220945
901.410953	0.220837
901.592971	0.220815
901.774972	0.220856
901.956953	0.220923
902.138917	0.220220
902.320862	0.220380
902.502790	0.219930
902.684699	0.219486
902.866589	0.218979
903.048462	0.218732
903.230316	0.218347
903.412152	0.217981
903.593970	0.217666
903.775770	0.217653
903.957551	0.217255
904.139314	0.217024
904.321059	0.217438
904.502786	0.217460
904.684494	0.217231
904.866185	0.217005
905.047857	0.217229
905.229510	0.217423
905.411146	0.217442
905.592763	0.217383
905.774363	0.217584
905.955943	0.217328
906.137506	0.216789
906.319051	0.216798
906.500577	0.217132
906.682085	0.216848
906.863575	0.216067
907.045046	0.215769
907.226500	0.215434
907.407935	0.214991
907.589352	0.214641
907.770750	0.214975
907.952131	0.214233
908.133493	0.213820
908.314837	0.213190
908.496163	0.213015
908.677470	0.212332
908.858760	0.212127
909.040031	0.211965
909.221284	0.212118
909.402518	0.211565
909.583735	0.211659
909.764933	0.211361
909.946113	0.211015
910.127275	0.210603
910.308418	0.210746
910.489544	0.210403
910.670651	0.210371
910.851740	0.210053
911.032810	0.209863
911.213863	0.209698
911.394897	0.209347
911.575913	0.209438
911.756911	0.209424
911.937890	0.208651
912.118851	0.208238
912.299794	0.207868
912.480719	0.207534
912.661626	0.207320
912.842514	0.206866
913.023384	0.206661
913.204236	0.206390
913.385070	0.206098
913.565886	0.206357
913.746683	0.206662
913.927462	0.206282
914.108223	0.205890
914.288965	0.205545
914.469690	0.205805
914.650396	0.205248
914.831084	0.205062
915.011754	0.205016
915.192405	0.204812
915.373038	0.203569
915.553653	0.203145
915.734250	0.202871
915.914829	0.202383
916.095389	0.201675
916.275931	0.201665
916.456455	0.200469
916.636961	0.199904
916.817448	0.199061
916.997917	0.199076
917.178368	0.198665
917.358801	0.197795
917.539216	0.197348
917.719612	0.197068
917.899990	0.196423
918.080350	0.196910
918.260692	0.196350
918.441015	0.196020
918.621320	0.196158
918.801607	0.196032
918.981876	0.196295
919.162127	0.195780
919.342359	0.195524
919.522573	0.195304
919.702769	0.195056
919.882947	0.194846
920.063106	0.194553
920.243247	0.193560
920.423370	0.192873
920.603475	0.192484
920.783562	0.192539
920.963630	0.192114
921.143680	0.191580
921.323712	0.191012
921.503725	0.190649
921.683721	0.190631
921.863698	0.190543
922.043657	0.190141
922.223598	0.189135
922.403520	0.188069
922.583424	0.187594
922.763311	0.187447
922.943178	0.186870
923.123028	0.186136
923.302859	0.185249
923.482673	0.184659
923.662467	0.184473
923.842244	0.184322
924.022003	0.184279
924.201743	0.183479
924.381465	0.182705
924.561169	0.182215
924.740854	0.182105
924.920522	0.181805
925.100171	0.181350
925.279802	0.180909
925.459414	0.180729
925.639009	0.180458
925.818585	0.179798
925.998143	0.179489
926.177683	0.179305
926.357205	0.178707
926.536708	0.178138
926.716193	0.177962
926.895660	0.177828
927.075109	0.177225
927.254539	0.176546
927.433951	0.176479
927.613345	0.176025
927.792721	0.175041
927.972079	0.174381
928.151418	0.174577
928.330739	0.173564
928.510042	0.172787
928.689327	0.173100
928.868593	0.172136
929.047841	0.171579
929.227071	0.171296
929.406283	0.170792
929.585476	0.170667
929.764652	0.169863
929.943809	0.169872
930.122948	0.168757
930.302068	0.167020
930.481171	0.166930
930.660255	0.165864
930.839321	0.165642
931.018369	0.165497
931.197398	0.165049
931.376409	0.164668
931.555402	0.164586
931.734377	0.164380
931.913334	0.164506
932.092272	0.163980
932.271192	0.163754
932.450094	0.162827
932.628978	0.162943
932.807844	0.161828
932.986691	0.161640
933.165520	0.160224
933.344331	0.159985
933.523123	0.159214
933.701898	0.158796
933.880654	0.159013
934.059392	0.158366
934.238111	0.157182
934.416813	0.156429
934.595496	0.155668
934.774161	0.155357
934.952808	0.154388
935.131437	0.153872
935.310047	0.153424
935.488639	0.152097
935.667213	0.151734
935.845769	0.151076
936.024306	0.150657
936.202825	0.149655
936.381326	0.149396
936.559809	0.149673
936.738274	0.149224
936.916720	0.148278
937.095148	0.148058
937.273558	0.147783
937.451950	0.146997
937.630323	0.146908
937.808678	0.146569
937.987015	0.146130
938.165334	0.145012
938.343635	0.144780
938.521917	0.144790
938.700181	0.144066
938.878427	0.143088
939.056655	0.142105
939.234864	0.140949
939.413055	0.140116
939.591228	0.138337
939.769383	0.138084
939.947519	0.136769
940.125638	0.135967
940.303738	0.134811
940.481820	0.134640
940.659883	0.134398
940.837929	0.134431
941.015956	0.134235
941.193965	0.133734
941.371955	0.132754
941.549928	0.132552
941.727882	0.131783
941.905818	0.131169
942.083736	0.129665
942.261636	0.129305
942.439517	0.128038
942.617380	0.126493
942.795225	0.126344
942.973052	0.125861
943.150860	0.124767
943.328651	0.124090
943.506423	0.123932
943.684176	0.123624
943.861912	0.123471
944.039629	0.123905
944.217328	0.124190
944.395009	0.123506
944.572672	0.122197
944.750317	0.122209
944.927943	0.122541
945.105551	0.122570
945.283141	0.121956
945.460712	0.121358
945.638265	0.120436
945.815801	0.120460
945.993317	0.120449
946.170816	0.120228
946.348297	0.119427
946.525759	0.118449
946.703203	0.117471
946.880629	0.116655
947.058036	0.115607
947.235425	0.115726
947.412797	0.114095
947.590149	0.112124
947.767484	0.111596
947.944800	0.110359
948.122099	0.108757
948.299379	0.108416
948.476640	0.107846
948.653884	0.106785
948.831109	0.104809
949.008316	0.104324
949.185505	0.105037
949.362676	0.103519
949.539828	0.103609
949.716962	0.102646
949.894078	0.100519
950.071176	0.100624
950.248256	0.101171
950.425317	0.100767
950.602360	0.098454
950.779385	0.096448
950.956391	0.096116
951.133380	0.095564
951.310350	0.096071
951.487302	0.096444
951.664235	0.095065
951.841151	0.092844
952.018048	0.091882
952.194927	0.092597
952.371788	0.093285
952.548631	0.093772
952.725455	0.091975
952.902261	0.091218
953.079049	0.089864
953.255819	0.090465
953.432570	0.091100
953.609303	0.091468
953.786018	0.090746
953.962715	0.089354
954.139394	0.088987
954.316054	0.089271
954.492696	0.088461
954.669320	0.088806
954.845926	0.088129
955.022513	0.087001
955.199083	0.086091
955.375634	0.085288
955.552166	0.084523
955.728681	0.081793
955.905177	0.081438
956.081655	0.080972
956.258115	0.079900
956.434557	0.079311
956.610980	0.078301
956.787385	0.079513
956.963772	0.078601
957.140141	0.079024
957.316492	0.080456
957.492824	0.079754
957.669138	0.080677
957.845434	0.081371
958.021712	0.080308
958.197971	0.081139
958.374212	0.079206
958.550435	0.080241
958.726640	0.079723
958.902826	0.078890
959.078995	0.078756
959.255145	0.074878
959.431277	0.073770
959.607390	0.073586
959.783486	0.073089
959.959563	0.073010
960.135622	0.073059
960.311662	0.073508
960.487685	0.072490
960.663689	0.071751
960.839675	0.072507
961.015643	0.072652
961.191593	0.071333
961.367524	0.070909
961.543437	0.070335
961.719332	0.069190
961.895209	0.069365
962.071067	0.070430
962.246907	0.071224
962.422730	0.073223
962.598533	0.072780
962.774319	0.071654
962.950086	0.072402
963.125835	0.071497
963.301566	0.071324
963.477279	0.070614
963.652973	0.069250
963.828650	0.066963
964.004308	0.063766
964.179947	0.065788
964.355569	0.067110
964.531172	0.065823
964.706757	0.068841
964.882324	0.066882
965.057873	0.066727
965.233403	0.067235
965.408916	0.068971
965.584410	0.071197
965.759885	0.069705
965.935343	0.068881
966.110782	0.068159
966.286203	0.067053
966.461606	0.069613
966.636991	0.068871
966.812357	0.069823
966.987705	0.068868
967.163035	0.068080
967.338347	0.067190
967.513641	0.065879
967.688916	0.065698
967.864173	0.064162
968.039412	0.063341
968.214632	0.063783
968.389835	0.063856
968.565019	0.063794
968.740185	0.063940
968.915333	0.063940
969.090462	0.065085
969.265573	0.066037
969.440667	0.067414
969.615741	0.069173
969.790798	0.068597
969.965836	0.067941
970.140856	0.068187
970.315858	0.071226
970.490842	0.069886
970.665808	0.071395
970.840755	0.070850
971.015684	0.069471
971.190595	0.067560
971.365487	0.068811
971.540362	0.070270
971.715218	0.068710
971.890056	0.065532
972.064875	0.068826
972.239677	0.067261
972.414460	0.067415
972.589225	0.068490
972.763972	0.069088
972.938700	0.066622
973.113411	0.064722
973.288103	0.066127
973.462777	0.067312
973.637432	0.064631
973.812070	0.064475
973.986689	0.065120
974.161290	0.063392
974.335873	0.062800
974.510437	0.063703
974.684984	0.063972
974.859512	0.062773
975.034022	0.062548
975.208513	0.065062
975.382987	0.065531
975.557442	0.064140
975.731879	0.066165
975.906298	0.067456
976.080698	0.068550
976.255080	0.068303
976.429445	0.070946
976.603790	0.071135
976.778118	0.069101
976.952427	0.071648
977.126719	0.072749
977.300992	0.071415
977.475246	0.070524
977.649483	0.070782
977.823701	0.070908
977.997901	0.070377
978.172083	0.069507
978.346247	0.070406
978.520392	0.069507
978.694519	0.069669
978.868628	0.071443
979.042719	0.070906
979.216791	0.069738
979.390845	0.070164
979.564882	0.070857
979.738899	0.072354
979.912899	0.073262
980.086880	0.073700
980.260843	0.073105
980.434788	0.072192
980.608715	0.072494
980.782623	0.071672
980.956514	0.073250
981.130386	0.072281
981.304240	0.072299
981.478075	0.070606
981.651892	0.069956
981.825692	0.071558
981.999472	0.070661
982.173235	0.072764
982.346980	0.074438
982.520706	0.073536
982.694414	0.071518
982.868104	0.070568
983.041775	0.070618
983.215428	0.069495
983.389064	0.067970
983.562680	0.067888
983.736279	0.065272
983.909860	0.064468
984.083422	0.062815
984.256966	0.064214
984.430491	0.063873
984.603999	0.063917
984.777488	0.065205
984.950959	0.067104
985.124412	0.067254
985.297847	0.069031
985.471263	0.069572
985.644661	0.068789
985.818041	0.068435
985.991403	0.069024
986.164747	0.069461
986.338072	0.070208
986.511379	0.067533
986.684668	0.068779
986.857938	0.068572
987.031191	0.068953
987.204425	0.069029
987.377641	0.069181
987.550839	0.069043
987.724018	0.068693
987.897179	0.066946
988.070322	0.067174
988.243447	0.066205
988.416554	0.065110
988.589642	0.064685
988.762712	0.066570
988.935764	0.065354
989.108798	0.064898
989.281813	0.064475
989.454811	0.064321
989.627790	0.064396
989.800751	0.064109
989.973693	0.063723
990.146617	0.063070
990.319524	0.064043
990.492412	0.065755
990.665281	0.065924
990.838133	0.067087
991.010966	0.068355
991.183781	0.069261
991.356578	0.070233
991.529356	0.071173
991.702117	0.073020
991.874859	0.073150
992.047583	0.072146
992.220288	0.072692
992.392976	0.073103
992.565645	0.072503
992.738296	0.071859
992.910929	0.071169
993.083543	0.071450
993.256139	0.070016
993.428718	0.069051
993.601277	0.069711
993.773819	0.069685
993.946342	0.068866
994.118848	0.068664
994.291335	0.070355
994.463803	0.070505
994.636254	0.068890
994.808686	0.069214
994.981100	0.069049
995.153496	0.068900
995.325874	0.068541
995.498233	0.067531
995.670574	0.066205
995.842897	0.065393
996.015202	0.065780
996.187488	0.067271
996.359757	0.068172
996.532007	0.068131
996.704239	0.068361
996.876452	0.067661
997.048648	0.068798
997.220825	0.070740
997.392984	0.070358
997.565124	0.068765
997.737247	0.068065
997.909351	0.068920
998.081437	0.069600
998.253505	0.069792
998.425554	0.071357
998.597586	0.071441
998.769599	0.071130
998.941594	0.071969
999.113571	0.072524
999.285529	0.073111
999.457469	0.071451
999.629391	0.071259
999.801295	0.071506
999.973181	0.070371
1000.145048	0.070688
1000.316897	0.068663
1000.488728	0.067390
1000.660541	0.069057
1000.832335	0.067702
1001.004111	0.068082
1001.175869	0.067633
1001.347609	0.068346
1001.519331	0.069002
1001.691034	0.068082
1001.862719	0.069342
1002.034386	0.069008
1002.206035	0.067040
1002.377665	0.070211
1002.549277	0.070372
1002.720871	0.070523
1002.892447	0.070341
1003.064004	0.069840
1003.235544	0.070554
1003.407065	0.071288
1003.578568	0.073346
1003.750052	0.074693
1003.921519	0.073800
1004.092967	0.074391
1004.264397	0.073549
1004.435809	0.073876
1004.607202	0.074536
1004.778577	0.074834
1004.949934	0.074462
1005.121273	0.072846
1005.292594	0.073706
1005.463896	0.073208
1005.635180	0.072188
1005.806446	0.072254
1005.977694	0.070992
1006.148923	0.070567
1006.320135	0.069998
1006.491328	0.068681
1006.662503	0.068306
1006.833659	0.067745
1007.004798	0.067087
1007.175918	0.066324
1007.347020	0.067104
1007.518103	0.067032
1007.689169	0.066156
1007.860216	0.066852
1008.031245	0.066589
1008.202256	0.067188
1008.373248	0.066169
1008.544223	0.066750
1008.715179	0.067746
1008.886117	0.067971
1009.057036	0.068446
1009.227938	0.069576
1009.398821	0.067993
1009.569686	0.070117
1009.740533	0.071366
1009.911361	0.071591
1010.082172	0.070568
1010.252964	0.069955
1010.423738	0.069914
1010.594493	0.069687
1010.765231	0.069244
1010.935950	0.071725
1011.106651	0.072502
1011.277334	0.071148
1011.447998	0.072626
1011.618645	0.074131
1011.789273	0.074947
1011.959882	0.075710
1012.130474	0.075594
1012.301048	0.077590
1012.471603	0.076423
1012.642140	0.075895
1012.812658	0.076532
1012.983159	0.075583
1013.153641	0.074949
1013.324105	0.073591
1013.494551	0.072881
1013.664979	0.073944
1013.835388	0.071207
1014.005779	0.071678
1014.176152	0.071672
1014.346507	0.071919
1014.516843	0.073503
1014.687162	0.074684
1014.857462	0.075861
1015.027744	0.074896
1015.198007	0.073453
1015.368252	0.074080
1015.538480	0.071960
1015.708689	0.070631
1015.878879	0.070493
1016.049052	0.067889
1016.219206	0.066422
1016.389342	0.066138
1016.559460	0.066310
1016.729559	0.067947
1016.899641	0.067391
1017.069704	0.070221
1017.239749	0.071048
1017.409775	0.069055
1017.579784	0.069601
1017.749774	0.068799
1017.919746	0.069762
1018.089700	0.070118
1018.259635	0.068576
1018.429553	0.069145
1018.599452	0.067713
1018.769333	0.067324
1018.939195	0.069259
1019.109040	0.069316
1019.278866	0.070675
1019.448674	0.071786
1019.618464	0.072358
1019.788235	0.073265
1019.957989	0.074093
1020.127724	0.074753
1020.297441	0.075442
1020.467139	0.076122
1020.636820	0.075366
1020.806482	0.075222
1020.976126	0.072301
1021.145752	0.072547
1021.315359	0.072849
1021.484948	0.072099
1021.654519	0.070955
1021.824072	0.071677
1021.993607	0.070457
1022.163123	0.071268
1022.332621	0.070234
1022.502101	0.071210
1022.671563	0.069464
1022.841007	0.069073
1023.010432	0.071740
1023.179839	0.069965
1023.349228	0.069664
1023.518598	0.070402
1023.687951	0.070254
1023.857285	0.071300
1024.026601	0.071440
1024.195899	0.073972
1024.365178	0.075362
1024.534439	0.073042
1024.703682	0.076397
1024.872907	0.075959
1025.042114	0.076525
1025.211302	0.076864
1025.380472	0.076640
1025.549624	0.077903
1025.718758	0.076762
1025.887873	0.074704
1026.056970	0.074081
1026.226049	0.072791
1026.395110	0.073584
1026.564153	0.073299
1026.733177	0.074289
1026.902183	0.074336
1027.071171	0.072467
1027.240141	0.071956
1027.409092	0.071697
1027.578026	0.071808
1027.746940	0.070888
1027.915837	0.069427
1028.084716	0.068294
1028.253576	0.067319
1028.422418	0.068104
1028.591242	0.068325
1028.760048	0.068363
1028.928835	0.068475
1029.097604	0.067979
1029.266355	0.068246
1029.435088	0.068987
1029.603803	0.070262
1029.772499	0.069768
1029.941177	0.068460
1030.109837	0.068203
1030.278478	0.067099
1030.447102	0.066538
1030.615707	0.068216
1030.784294	0.069611
1030.952863	0.068003
1031.121413	0.067369
1031.289945	0.067732
1031.458460	0.068067
1031.626955	0.068581
1031.795433	0.069169
1031.963892	0.069092
1032.132334	0.067561
1032.300756	0.066781
1032.469161	0.068232
1032.637548	0.068978
1032.805916	0.069273
1032.974266	0.069405
1033.142598	0.068874
1033.310911	0.069025
1033.479207	0.068615
1033.647484	0.068930
1033.815743	0.070412
1033.983983	0.069365
1034.152206	0.068695
1034.320410	0.068315
1034.488596	0.067447
1034.656764	0.067850
1034.824914	0.069306
1034.993045	0.071414
1035.161158	0.071194
1035.329253	0.070908
1035.497330	0.070351
1035.665388	0.069874
1035.833428	0.069566
1036.001450	0.069188
1036.169454	0.069106
1036.337440	0.068422
1036.505407	0.068429
1036.673356	0.069894
1036.841287	0.067640
1037.009200	0.066929
1037.177094	0.067204
1037.344970	0.067413
1037.512828	0.069332
1037.680668	0.070248
1037.848489	0.070235
1038.016293	0.069761
1038.184078	0.068495
1038.351845	0.069509
1038.519593	0.070402
1038.687324	0.070391
1038.855036	0.069968
1039.022730	0.068568
1039.190406	0.067081
1039.358063	0.066006
1039.525702	0.067664
1039.693323	0.067468
1039.860926	0.068704
1040.028511	0.070302
1040.196077	0.070307
1040.363625	0.069611
1040.531155	0.070057
1040.698667	0.069521
1040.866161	0.068558
1041.033636	0.066062
1041.201093	0.066163
1041.368532	0.064209
1041.535952	0.064394
1041.703355	0.063802
1041.870739	0.065831
1042.038105	0.067674
1042.205452	0.069381
1042.372782	0.070742
1042.540093	0.071105
1042.707386	0.071628
1042.874661	0.072785
1043.041918	0.071880
1043.209156	0.072263
1043.376376	0.071686
1043.543578	0.071141
1043.710762	0.070164
1043.877927	0.070121
1044.045074	0.070364
1044.212203	0.070587
1044.379314	0.070608
1044.546407	0.069735
1044.713481	0.069163
1044.880537	0.069139
1045.047575	0.068435
1045.214595	0.067534
1045.381596	0.067950
1045.548579	0.067998
1045.715544	0.068534
1045.882491	0.068245
1046.049420	0.069735
1046.216330	0.069547
1046.383222	0.070340
1046.550096	0.071068
1046.716951	0.071661
1046.883789	0.070971
1047.050608	0.072611
1047.217409	0.072010
1047.384192	0.072096
1047.550956	0.071993
1047.717703	0.073332
1047.884431	0.072950
1048.051140	0.072529
1048.217832	0.074432
1048.384505	0.075825
1048.551161	0.073354
1048.717798	0.073593
1048.884416	0.074085
1049.051017	0.073536
1049.217599	0.074040
1049.384163	0.073512
1049.550709	0.073055
1049.717237	0.070558
1049.883746	0.069944
1050.050237	0.070501
1050.216710	0.069675
1050.383165	0.069647
1050.549601	0.070015
1050.716019	0.068632
1050.882420	0.067853
1051.048801	0.067090
1051.215165	0.069361
1051.381510	0.069963
1051.547837	0.070688
1051.714146	0.071561
1051.880437	0.071986
1052.046709	0.072578
1052.212964	0.073191
1052.379200	0.073959
1052.545417	0.075027
1052.711617	0.075659
1052.877798	0.073965
1053.043961	0.073629
1053.210106	0.073607
1053.376233	0.071691
1053.542341	0.070806
1053.708432	0.070893
1053.874504	0.071718
1054.040557	0.071567
1054.206593	0.070315
1054.372610	0.070924
1054.538609	0.071669
1054.704590	0.071036
1054.870553	0.071151
1055.036497	0.071372
1055.202424	0.072022
1055.368331	0.071816
1055.534221	0.072190
1055.700093	0.070150
1055.865946	0.070767
1056.031781	0.070122
1056.197598	0.072355
1056.363397	0.070689
1056.529177	0.069611
1056.694939	0.068933
1056.860683	0.068334
1057.026409	0.067402
1057.192116	0.069122
1057.357806	0.067874
1057.523477	0.068166
1057.689130	0.066898
1057.854764	0.069088
1058.020381	0.070469
1058.185979	0.069981
1058.351559	0.070614
1058.517120	0.071170
1058.682664	0.071136
1058.848189	0.071518
1059.013696	0.071270
1059.179185	0.069820
1059.344656	0.071757
1059.510108	0.070007
1059.675542	0.070994
1059.840958	0.070935
1060.006356	0.070405
1060.171735	0.068860
1060.337096	0.069036
1060.502439	0.070267
1060.667764	0.070849
1060.833071	0.069728
1060.998359	0.070399
1061.163629	0.069329
1061.328881	0.069877
1061.494115	0.070180
1061.659330	0.072054
1061.824527	0.070968
1061.989706	0.069594
1062.154867	0.069879
1062.320010	0.069854
1062.485134	0.070264
1062.650240	0.071432
1062.815328	0.070140
1062.980398	0.068283
1063.145449	0.068101
1063.310482	0.070400
1063.475497	0.069789
1063.640494	0.070509
1063.805473	0.071703
1063.970433	0.071075
1064.135375	0.071102
1064.300299	0.070983
1064.465204	0.071843
1064.630092	0.072637
1064.794961	0.073032
1064.959812	0.073852
1065.124645	0.074429
1065.289459	0.073302
1065.454256	0.073977
1065.619034	0.074318
1065.783793	0.074140
1065.948535	0.075348
1066.113258	0.074490
1066.277964	0.075571
1066.442651	0.075079
1066.607319	0.074267
1066.771970	0.073845
1066.936602	0.074103
1067.101216	0.072619
1067.265812	0.072888
1067.430389	0.070719
1067.594949	0.070951
1067.759490	0.069482
1067.924013	0.070964
1068.088518	0.069008
1068.253004	0.069196
1068.417472	0.068703
1068.581922	0.068035
1068.746354	0.069695
1068.910768	0.069629
1069.075163	0.070208
1069.239540	0.068812
1069.403899	0.066389
1069.568240	0.067207
1069.732562	0.065306
1069.896866	0.066778
1070.061152	0.068656
1070.225420	0.066529
1070.389670	0.069428
1070.553901	0.070216
1070.718114	0.070226
1070.882309	0.071194
1071.046486	0.071889
1071.210644	0.074451
1071.374784	0.071853
1071.538906	0.070840
1071.703010	0.070041
1071.867096	0.069121
1072.031163	0.066962
1072.195212	0.069042
1072.359243	0.069719
1072.523256	0.068245
1072.687250	0.065479
1072.851226	0.066994
1073.015184	0.067206
1073.179124	0.069897
1073.343045	0.068818
1073.506949	0.070440
1073.670834	0.069623
1073.834701	0.070448
1073.998549	0.072744
1074.162380	0.075727
1074.326192	0.076411
1074.489986	0.077613
1074.653761	0.078071
1074.817519	0.077765
1074.981258	0.076951
1075.144979	0.076136
1075.308682	0.075779
1075.472367	0.073371
1075.636033	0.072331
1075.799681	0.072645
1075.963311	0.071982
1076.126923	0.070651
1076.290516	0.071514
1076.454092	0.069052
1076.617649	0.069000
1076.781187	0.067799
1076.944708	0.068129
1077.108210	0.068751
1077.271695	0.067330
1077.435160	0.067295
1077.598608	0.065632
1077.762038	0.067680
1077.925449	0.070539
1078.088842	0.072858
1078.252217	0.074308
1078.415573	0.077184
1078.578912	0.077415
1078.742232	0.077908
1078.905534	0.077474
1079.068817	0.078266
1079.232083	0.074887
1079.395330	0.074821
1079.558559	0.072162
1079.721770	0.070080
1079.884962	0.068811
1080.048136	0.067065
1080.211293	0.067712
1080.374430	0.068616
1080.537550	0.067779
1080.700651	0.068098
1080.863735	0.070444
1081.026800	0.069412
1081.189846	0.069957
1081.352875	0.069433
1081.515885	0.070877
1081.678877	0.069882
1081.841851	0.068641
1082.004807	0.070378
1082.167744	0.072432
1082.330663	0.068808
1082.493564	0.071409
1082.656447	0.073504
1082.819312	0.074182
1082.982158	0.073623
1083.144986	0.074406
1083.307796	0.076015
1083.470587	0.075382
1083.633361	0.075172
1083.796116	0.074074
1083.958853	0.072918
1084.121571	0.070964
1084.284272	0.070764
1084.446954	0.071315
1084.609618	0.069649
1084.772264	0.069007
1084.934892	0.068574
1085.097501	0.068712
1085.260092	0.070843
1085.422665	0.072469
1085.585220	0.072224
1085.747756	0.072189
1085.910274	0.072144
1086.072774	0.072914
1086.235256	0.073429
1086.397720	0.073819
1086.560165	0.072667
1086.722592	0.074135
1086.885001	0.072881
1087.047392	0.073218
1087.209764	0.074482
1087.372119	0.074220
1087.534455	0.076035
1087.696772	0.075883
1087.859072	0.077281
1088.021353	0.078278
1088.183616	0.077140
1088.345861	0.077608
1088.508088	0.078193
1088.670296	0.076164
1088.832486	0.078703
1088.994658	0.075754
1089.156812	0.078690
1089.318948	0.078299
1089.481065	0.079639
1089.643164	0.080020
1089.805245	0.079309
1089.967308	0.078832
1090.129352	0.080960
1090.291378	0.078666
1090.453386	0.079430
1090.615376	0.072899
1090.777347	0.073370
1090.939301	0.070536
1091.101236	0.069599
1091.263153	0.069715
1091.425051	0.070657
1091.586932	0.067479
1091.748794	0.065435
1091.910638	0.066035
1092.072463	0.067347
1092.234271	0.067013
1092.396060	0.068210
1092.557831	0.069580
1092.719584	0.068599
1092.881319	0.068460
1093.043035	0.069334
1093.204733	0.072007
1093.366413	0.074444
1093.528075	0.076147
1093.689718	0.076743
1093.851343	0.078019
1094.012950	0.077024
1094.174539	0.079589
1094.336110	0.079456
1094.497662	0.082056
1094.659196	0.078704
1094.820712	0.074912
1094.982210	0.073391
1095.143689	0.073565
1095.305151	0.073931
1095.466594	0.075341
1095.628018	0.073324
1095.789425	0.073446
1095.950813	0.069605
1096.112183	0.072898
1096.273535	0.074229
1096.434869	0.074438
1096.596184	0.073321
1096.757482	0.071512
1096.918761	0.070748
1097.080021	0.070598
1097.241264	0.070427
1097.402488	0.074198
1097.563694	0.074794
1097.724882	0.073799
1097.886052	0.073850
1098.047203	0.071437
1098.208336	0.073746
1098.369451	0.072517
1098.530548	0.073147
1098.691627	0.073735
1098.852687	0.073381
1099.013729	0.073896
1099.174753	0.076121
1099.335758	0.075219
1099.496746	0.078949
1099.657715	0.077560
1099.818666	0.078695
1099.979599	0.076982
1100.140513	0.077946
1100.301409	0.075773
1100.462287	0.073244
1100.623147	0.074319
1100.783989	0.076700
1100.944812	0.073329
1101.105617	0.071386
1101.266404	0.070228
1101.427173	0.071678
1101.587923	0.070268
1101.748656	0.074817
1101.909370	0.074849
1102.070066	0.072940
1102.230743	0.074341
1102.391403	0.077124
1102.552044	0.081265
1102.712667	0.081147
1102.873271	0.078030
1103.033858	0.079434
1103.194426	0.078409
1103.354976	0.081262
1103.515508	0.081541
1103.676021	0.081474
1103.836517	0.080610
1103.996994	0.077058
1104.157453	0.076092
1104.317893	0.083436
1104.478316	0.084531
1104.638720	0.080281
1104.799106	0.078244
1104.959474	0.077577
1105.119823	0.074485
1105.280155	0.078850
1105.440468	0.080835
1105.600763	0.080780
1105.761039	0.074756
1105.921298	0.071660
1106.081538	0.073089
1106.241760	0.071368
1106.401964	0.072729
1106.562149	0.074726
1106.722316	0.069025
1106.882465	0.071485
1107.042596	0.073898
1107.202709	0.072503
1107.362803	0.070636
1107.522879	0.068141
1107.682937	0.071605
1107.842977	0.070405
1108.002999	0.069762
1108.163002	0.072777
1108.322987	0.070231
1108.482954	0.066288
1108.642902	0.070482
1108.802833	0.072676
1108.962745	0.076276
1109.122639	0.073993
1109.282515	0.074232
1109.442372	0.074352
1109.602211	0.073683
1109.762032	0.071082
1109.921835	0.076115
1110.081620	0.075420
1110.241386	0.075048
1110.401134	0.073103
1110.560864	0.076528
1110.720576	0.077024
1110.880269	0.078097
1111.039945	0.075097
1111.199602	0.078055
1111.359240	0.074740
1111.518861	0.077327
1111.678463	0.080110
1111.838047	0.082297
1111.997613	0.079632
1112.157161	0.081119
1112.316690	0.079793
1112.476202	0.083529
1112.635695	0.080756
1112.795169	0.081722
1112.954626	0.082493
1113.114064	0.083868
1113.273484	0.083965
1113.432886	0.085310
1113.592270	0.081261
1113.751635	0.082467
1113.910983	0.083378
1114.070312	0.083651
1114.229622	0.085481
1114.388915	0.082825
1114.548189	0.079038
1114.707445	0.080699
1114.866683	0.074996
1115.025903	0.075771
1115.185104	0.076462
1115.344287	0.074307
1115.503452	0.075085
1115.662599	0.074261
1115.821727	0.075472
1115.980838	0.074370
1116.139930	0.071476
1116.299004	0.075787
1116.458059	0.077738
1116.617097	0.073429
1116.776116	0.073034
1116.935117	0.074082
1117.094099	0.076275
1117.253064	0.073125
1117.412010	0.074766
1117.570938	0.075235
1117.729848	0.076031
1117.888740	0.074061
1118.047613	0.077753
1118.206468	0.077815
1118.365305	0.077592
1118.524124	0.076198
1118.682924	0.076370
1118.841707	0.076217
1119.000471	0.074148
1119.159216	0.070087
1119.317944	0.071048
1119.476653	0.071523
1119.635344	0.072064
1119.794017	0.070637
1119.952672	0.066079
1120.111308	0.064998
1120.269927	0.064623
1120.428527	0.065431
1120.587108	0.065923
1120.745672	0.064712
1120.904217	0.064263
1121.062744	0.060335
1121.221253	0.060328
1121.379744	0.064163
1121.538216	0.063368
1121.696671	0.064297
1121.855107	0.061342
1122.013524	0.064686
1122.171924	0.064900
1122.330305	0.065947
1122.488668	0.070425
1122.647013	0.073859
1122.805340	0.071895
1122.963648	0.076807
1123.121938	0.079529
1123.280210	0.084329
1123.438464	0.079986
1123.596700	0.084875
1123.754917	0.080971
1123.913116	0.078298
1124.071297	0.077111
1124.229459	0.078709
1124.387604	0.075517
1124.545730	0.070835
1124.703838	0.069610
1124.861928	0.076765
1125.019999	0.074816
1125.178052	0.074894
1125.336088	0.075099
1125.494104	0.079009
1125.652103	0.081470
1125.810083	0.083558
1125.968045	0.086340
1126.125989	0.087791
1126.283915	0.084922
1126.441823	0.085285
1126.599712	0.080876
1126.757583	0.083135
1126.915436	0.078485
1127.073270	0.073578
1127.231087	0.074669
1127.388885	0.073889
1127.546665	0.073057
1127.704426	0.075519
1127.862170	0.077724
1128.019895	0.086576
1128.177602	0.086640
1128.335291	0.084095
1128.492961	0.085136
1128.650614	0.087466
1128.808248	0.081991
1128.965864	0.080890
1129.123461	0.077176
1129.281041	0.074493
1129.438602	0.068423
1129.596145	0.066974
1129.753670	0.073251
1129.911176	0.074145
1130.068665	0.069073
1130.226135	0.074949
1130.383587	0.077082
1130.541020	0.076919
1130.698436	0.073849
1130.855833	0.079205
1131.013212	0.078811
1131.170573	0.075368
1131.327915	0.075578
1131.485239	0.076773
1131.642545	0.075430
1131.799833	0.073552
1131.957103	0.074181
1132.114354	0.078142
1132.271588	0.077829
1132.428803	0.072902
1132.585999	0.073733
1132.743178	0.071795
1132.900338	0.067597
1133.057480	0.065931
1133.214604	0.067440
1133.371710	0.066329
1133.528797	0.064892
1133.685866	0.060312
1133.842917	0.065154
1133.999950	0.062540
1134.156964	0.062026
1134.313960	0.066480
1134.470938	0.067557
1134.627898	0.066577
1134.784840	0.065092
1134.941763	0.063766
1135.098668	0.065436
1135.255555	0.068296
1135.412424	0.071301
1135.569274	0.070712
1135.726107	0.072362
1135.882921	0.072060
1136.039716	0.071868
1136.196494	0.074513
1136.353253	0.077407
1136.509995	0.081459
1136.666717	0.081338
1136.823422	0.076722
1136.980109	0.079687
1137.136777	0.077507
1137.293427	0.074228
1137.450059	0.073453
1137.606672	0.077454
1137.763267	0.077379
1137.919844	0.073219
1138.076403	0.077328
1138.232944	0.079601
1138.389466	0.076028
1138.545971	0.072282
1138.702457	0.076338
1138.858924	0.076763
1139.015374	0.075204
1139.171805	0.074356
1139.328218	0.075215
1139.484613	0.068740
1139.640990	0.069574
1139.797348	0.075139
1139.953688	0.080717
1140.110010	0.075729
1140.266314	0.072996
1140.422600	0.070818
1140.578867	0.071274
1140.735116	0.070579
1140.891347	0.070560
1141.047559	0.065485
1141.203754	0.063449
1141.359930	0.059885
1141.516088	0.065842
1141.672228	0.065951
1141.828349	0.068775
1141.984452	0.069617
1142.140537	0.071917
1142.296604	0.070792
1142.452653	0.078486
1142.608683	0.082783
1142.764695	0.083030
1142.920689	0.081910
1143.076665	0.082859
1143.232622	0.081288
1143.388562	0.078931
1143.544483	0.079682
1143.700385	0.081461
1143.856270	0.080556
1144.012136	0.076814
1144.167985	0.079199
1144.323814	0.076872
1144.479626	0.079683
1144.635420	0.073288
1144.791195	0.074628
1144.946952	0.074152
1145.102691	0.074990
1145.258411	0.075020
1145.414113	0.073727
1145.569798	0.072200
1145.725463	0.072328
1145.881111	0.072352
1146.036741	0.077737
1146.192352	0.075066
1146.347945	0.073449
1146.503519	0.075022
1146.659076	0.071244
1146.814614	0.072896
1146.970134	0.072543
1147.125636	0.076176
1147.281120	0.076347
1147.436585	0.077284
1147.592032	0.079170
1147.747461	0.077691
1147.902872	0.078588
1148.058265	0.075885
1148.213639	0.071471
1148.368995	0.071804
1148.524333	0.071535
1148.679653	0.065352
1148.834954	0.065859
1148.990237	0.065586
1149.145502	0.067573
1149.300749	0.062392
1149.455977	0.066831
1149.611188	0.067510
1149.766380	0.067549
1149.921553	0.064320
1150.076709	0.063426
1150.231846	0.066349
1150.386966	0.067865
1150.542066	0.064325
1150.697149	0.069756
1150.852214	0.068939
1151.007260	0.068026
1151.162288	0.066664
1151.317298	0.065704
1151.472289	0.069343
1151.627263	0.061499
1151.782218	0.055306
1151.937155	0.062028
1152.092073	0.055805
1152.246974	0.055598
1152.401856	0.061079
1152.556720	0.058685
1152.711566	0.059489
1152.866393	0.062943
1153.021203	0.066973
1153.175994	0.071330
1153.330767	0.066478
1153.485521	0.072501
1153.640258	0.069931
1153.794976	0.076404
1153.949676	0.085716
1154.104358	0.082519
1154.259021	0.077550
1154.413667	0.075150
1154.568294	0.074387
1154.722903	0.077337
1154.877493	0.076947
1155.032066	0.079904
1155.186620	0.069201
1155.341156	0.067016
1155.495674	0.069695
1155.650173	0.071028
1155.804654	0.073204
1155.959118	0.070303
1156.113562	0.057752
1156.267989	0.062121
1156.422397	0.060033
1156.576788	0.065791
1156.731160	0.065471
1156.885513	0.061629
1157.039849	0.063905
1157.194166	0.061461
1157.348465	0.068547
1157.502746	0.078206
1157.657009	0.070943
1157.811253	0.067662
1157.965479	0.064176
1158.119687	0.058093
1158.273877	0.063207
1158.428048	0.058202
1158.582201	0.057378
1158.736337	0.052863
1158.890453	0.050377
1159.044552	0.047212
1159.198632	0.051439
1159.352694	0.052205
1159.506738	0.052444
1159.660764	0.050396
1159.814771	0.057887
1159.968761	0.058437
1160.122732	0.060681
1160.276685	0.057507
1160.430619	0.062915
1160.584535	0.064382
1160.738434	0.066239
1160.892313	0.073426
1161.046175	0.072724
1161.200019	0.068256
1161.353844	0.068746
1161.507651	0.066466
1161.661440	0.069885
1161.815210	0.058003
1161.968962	0.054276
1162.122697	0.041792
1162.276412	0.040970
1162.430110	0.045158
1162.583789	0.046410
1162.737451	0.043314
1162.891094	0.049570
1163.044718	0.052414
1163.198325	0.064295
1163.351913	0.070305
1163.505483	0.076945
1163.659035	0.066242
1163.812569	0.068406
1163.966084	0.068093
1164.119581	0.070457
1164.273060	0.064162
1164.426521	0.057621
1164.579964	0.051796
1164.733388	0.046593
1164.886794	0.048223
1165.040182	0.061113
1165.193551	0.054255
1165.346903	0.057090
1165.500236	0.056443
1165.653551	0.056868
1165.806848	0.065628
1165.960126	0.069320
1166.113386	0.073356
1166.266628	0.077097
1166.419852	0.070478
1166.573058	0.072900
1166.726245	0.065904
1166.879414	0.067157
1167.032565	0.064785
1167.185698	0.063151
1167.338812	0.065914
1167.491909	0.061527
1167.644987	0.061908
1167.798046	0.064162
1167.951088	0.064906
1168.104111	0.077705
1168.257117	0.070236
1168.410103	0.071731
1168.563072	0.072963
1168.716023	0.075084
1168.868955	0.082011
1169.021869	0.080553
1169.174765	0.080788
1169.327642	0.084026
1169.480501	0.074310
1169.633343	0.078854
1169.786165	0.087613
1169.938970	0.089473
1170.091757	0.084152
1170.244525	0.075565
1170.397275	0.069336
1170.550007	0.057319
1170.702720	0.052309
1170.855415	0.049909
1171.008092	0.045617
1171.160751	0.029806
1171.313392	0.018927
1171.466014	0.030370
1171.618619	-0.001102
1171.771205	-0.001102
1171.923772	-0.001102
