sample name	sample
index	1420
start time	 05-10-2021  12:05:37 PM


Wavelength (nm)	Absorbance
494.344910	-0.020491
494.563924	-0.020491
494.782919	-0.020491
495.001897	0.064388
495.220856	-0.021110
495.439797	-0.022032
495.658719	-0.016452
495.877624	-0.012910
496.096510	-0.014463
496.315378	-0.011566
496.534227	-0.005500
496.753059	0.007223
496.971872	0.009506
497.190667	0.048769
497.409444	0.064218
497.628203	0.068855
497.846943	0.072087
498.065665	0.073793
498.284369	0.077353
498.503055	0.079854
498.721723	0.080795
498.940372	0.081419
499.159003	0.082229
499.377616	0.082831
499.596210	0.084119
499.814787	0.084539
500.033345	0.084238
500.251885	0.083123
500.470406	0.082941
500.688910	0.082225
500.907395	0.081996
501.125862	0.082306
501.344311	0.081749
501.562742	0.080619
501.781154	0.081450
501.999548	0.082530
502.217924	0.083102
502.436282	0.081435
502.654621	0.082937
502.872942	0.083335
503.091245	0.083716
503.309530	0.084282
503.527797	0.085375
503.746045	0.084788
503.964275	0.084205
504.182487	0.083895
504.400681	0.085168
504.618856	0.084235
504.837013	0.084227
505.055152	0.084322
505.273273	0.083764
505.491376	0.082973
505.709460	0.082877
505.927526	0.083329
506.145574	0.082408
506.363604	0.082516
506.581615	0.082273
506.799608	0.082189
507.017583	0.082428
507.235540	0.083283
507.453478	0.083558
507.671399	0.084649
507.889301	0.083974
508.107185	0.085160
508.325050	0.085411
508.542898	0.085844
508.760727	0.086560
508.978538	0.085433
509.196330	0.085868
509.414105	0.085836
509.631861	0.084775
509.849599	0.085253
510.067319	0.085647
510.285021	0.085335
510.502704	0.084886
510.720369	0.084814
510.938016	0.085233
511.155645	0.085132
511.373255	0.085830
511.590848	0.086034
511.808422	0.085848
512.025977	0.085600
512.243515	0.085555
512.461034	0.085527
512.678536	0.086123
512.896018	0.086186
513.113483	0.084919
513.330930	0.084740
513.548358	0.084494
513.765768	0.085005
513.983160	0.084747
514.200533	0.084737
514.417889	0.085418
514.635226	0.085401
514.852545	0.086306
515.069845	0.087531
515.287128	0.087293
515.504392	0.087994
515.721638	0.088374
515.938866	0.088746
516.156075	0.088962
516.373267	0.088908
516.590440	0.088591
516.807594	0.088198
517.024731	0.087499
517.241850	0.088147
517.458950	0.088048
517.676032	0.087820
517.893095	0.088343
518.110141	0.088637
518.327168	0.088334
518.544177	0.088283
518.761168	0.089002
518.978141	0.090443
519.195095	0.090003
519.412031	0.090155
519.628949	0.090307
519.845849	0.090739
520.062731	0.090412
520.279594	0.090590
520.496439	0.090395
520.713266	0.090429
520.930074	0.089778
521.146865	0.090832
521.363637	0.091541
521.580391	0.092461
521.797127	0.091663
522.013844	0.092221
522.230543	0.093855
522.447224	0.094283
522.663887	0.094060
522.880532	0.094246
523.097158	0.093134
523.313766	0.092812
523.530356	0.092525
523.746928	0.092891
523.963481	0.092559
524.180017	0.091522
524.396534	0.092102
524.613032	0.092069
524.829513	0.092565
525.045975	0.093686
525.262420	0.094510
525.478845	0.094487
525.695253	0.094348
525.911643	0.094953
526.128014	0.095511
526.344367	0.095540
526.560702	0.096055
526.777018	0.096030
526.993316	0.096127
527.209597	0.095705
527.425858	0.095660
527.642102	0.095466
527.858328	0.096018
528.074535	0.095962
528.290724	0.095143
528.506894	0.094889
528.723047	0.094733
528.939181	0.094300
529.155297	0.094263
529.371395	0.094609
529.587475	0.095265
529.803536	0.094978
530.019579	0.095581
530.235604	0.096420
530.451611	0.096325
530.667600	0.096772
530.883570	0.096993
531.099522	0.097207
531.315456	0.097604
531.531372	0.098164
531.747269	0.098261
531.963148	0.097343
532.179009	0.097773
532.394852	0.098188
532.610676	0.098485
532.826482	0.098682
533.042271	0.099142
533.258040	0.098647
533.473792	0.098228
533.689525	0.098187
533.905240	0.099089
534.120937	0.098640
534.336616	0.098800
534.552277	0.098816
534.767919	0.098832
534.983543	0.098277
535.199149	0.099013
535.414736	0.099295
535.630306	0.099544
535.845857	0.099497
536.061390	0.099786
536.276904	0.100040
536.492401	0.100301
536.707879	0.100758
536.923339	0.101360
537.138781	0.101138
537.354204	0.101691
537.569610	0.102179
537.784997	0.102015
538.000366	0.102095
538.215716	0.102095
538.431049	0.101952
538.646363	0.102420
538.861659	0.102748
539.076937	0.102745
539.292196	0.102559
539.507438	0.102404
539.722661	0.102771
539.937866	0.103312
540.153052	0.103075
540.368221	0.103307
540.583371	0.103138
540.798503	0.102772
541.013617	0.103038
541.228712	0.103283
541.443789	0.103627
541.658848	0.103387
541.873889	0.103478
542.088912	0.104316
542.303916	0.104592
542.518902	0.104934
542.733870	0.105312
542.948820	0.105195
543.163752	0.105210
543.378665	0.105502
543.593560	0.105889
543.808437	0.106018
544.023295	0.105886
544.238136	0.105999
544.452958	0.106063
544.667762	0.106044
544.882548	0.106570
545.097315	0.106831
545.312064	0.106213
545.526795	0.106628
545.741508	0.106799
545.956203	0.107160
546.170879	0.107507
546.385537	0.107845
546.600177	0.108272
546.814799	0.108446
547.029402	0.108826
547.243988	0.109598
547.458555	0.109684
547.673103	0.109701
547.887634	0.109781
548.102146	0.109661
548.316640	0.109469
548.531116	0.109655
548.745574	0.109631
548.960013	0.109616
549.174435	0.109905
549.388838	0.109765
549.603222	0.109803
549.817589	0.109974
550.031937	0.109935
550.246267	0.110058
550.460579	0.110040
550.674873	0.110182
550.889148	0.109948
551.103405	0.109750
551.317644	0.109934
551.531865	0.110090
551.746068	0.109833
551.960252	0.110374
552.174418	0.110455
552.388566	0.110749
552.602696	0.111115
552.816807	0.111479
553.030900	0.111272
553.244975	0.111633
553.459032	0.111740
553.673070	0.112214
553.887091	0.111939
554.101093	0.112218
554.315077	0.112660
554.529042	0.112518
554.742990	0.112449
554.956919	0.112979
555.170830	0.112832
555.384722	0.112815
555.598597	0.112758
555.812453	0.112450
556.026291	0.112260
556.240111	0.111468
556.453913	0.111011
556.667696	0.110789
556.881461	0.110792
557.095208	0.111004
557.308937	0.111201
557.522647	0.111129
557.736339	0.111505
557.950013	0.111671
558.163669	0.112025
558.377307	0.112367
558.590926	0.112791
558.804527	0.112666
559.018110	0.112591
559.231675	0.112666
559.445221	0.112391
559.658749	0.112842
559.872259	0.112600
560.085751	0.112368
560.299225	0.112711
560.512680	0.112473
560.726117	0.112681
560.939536	0.112855
561.152937	0.112686
561.366319	0.113117
561.579683	0.112904
561.793029	0.113571
562.006357	0.114058
562.219667	0.114144
562.432958	0.114530
562.646231	0.114842
562.859486	0.115073
563.072723	0.115532
563.285941	0.115792
563.499141	0.115563
563.712323	0.115308
563.925487	0.115285
564.138632	0.115263
564.351760	0.115076
564.564869	0.114830
564.777960	0.114536
564.991032	0.114594
565.204087	0.114413
565.417123	0.114904
565.630141	0.114618
565.843140	0.114520
566.056122	0.114902
566.269085	0.115259
566.482030	0.115753
566.694957	0.115743
566.907866	0.115562
567.120756	0.115998
567.333628	0.115837
567.546482	0.116149
567.759318	0.116356
567.972135	0.116009
568.184935	0.115798
568.397716	0.115475
568.610478	0.115743
568.823223	0.116042
569.035949	0.116065
569.248657	0.116290
569.461347	0.116253
569.674019	0.116290
569.886672	0.116313
570.099308	0.116717
570.311925	0.116852
570.524523	0.116820
570.737104	0.116591
570.949666	0.116534
571.162210	0.116461
571.374736	0.116749
571.587244	0.117057
571.799733	0.117292
572.012205	0.116989
572.224658	0.117290
572.437092	0.117587
572.649509	0.117815
572.861907	0.117840
573.074287	0.118105
573.286649	0.118318
573.498993	0.118451
573.711318	0.118631
573.923625	0.119111
574.135914	0.119024
574.348185	0.119259
574.560438	0.119623
574.772672	0.120078
574.984888	0.120311
575.197086	0.120291
575.409266	0.120024
575.621427	0.120065
575.833570	0.120308
576.045695	0.120680
576.257802	0.120559
576.469890	0.120656
576.681961	0.120623
576.894013	0.120415
577.106046	0.120495
577.318062	0.120705
577.530059	0.120638
577.742039	0.120388
577.954000	0.120190
578.165942	0.120152
578.377867	0.119798
578.589773	0.119908
578.801661	0.120093
579.013531	0.120318
579.225382	0.120723
579.437216	0.120772
579.649031	0.120839
579.860828	0.121112
580.072606	0.121381
580.284367	0.121975
580.496109	0.121566
580.707833	0.121561
580.919539	0.121429
581.131227	0.121311
581.342896	0.121611
581.554547	0.121798
581.766180	0.121863
581.977795	0.121849
582.189391	0.121400
582.400969	0.121597
582.612529	0.121980
582.824071	0.122069
583.035595	0.121951
583.247100	0.122120
583.458587	0.122306
583.670056	0.122188
583.881506	0.122273
584.092939	0.122693
584.304353	0.123089
584.515749	0.123259
584.727127	0.123719
584.938486	0.124110
585.149828	0.124312
585.361151	0.124451
585.572456	0.124592
585.783742	0.124845
585.995011	0.125044
586.206261	0.125157
586.417493	0.125210
586.628706	0.125154
586.839902	0.125126
587.051079	0.124742
587.262238	0.124907
587.473379	0.124981
587.684502	0.124933
587.895606	0.124876
588.106692	0.124705
588.317760	0.124849
588.528810	0.125061
588.739841	0.125185
588.950855	0.125526
589.161850	0.125335
589.372827	0.125389
589.583785	0.125259
589.794726	0.125420
590.005648	0.125616
590.216552	0.125485
590.427437	0.125390
590.638305	0.125606
590.849154	0.125868
591.059985	0.126437
591.270798	0.126563
591.481592	0.127004
591.692369	0.126766
591.903127	0.127096
592.113867	0.127300
592.324588	0.127580
592.535292	0.127386
592.745977	0.127796
592.956644	0.127374
593.167293	0.127690
593.377923	0.127788
593.588536	0.127983
593.799130	0.128051
594.009706	0.128164
594.220263	0.128027
594.430803	0.128261
594.641324	0.127980
594.851827	0.128312
595.062312	0.128578
595.272778	0.128521
595.483227	0.128788
595.693657	0.128493
595.904069	0.128317
596.114462	0.128519
596.324838	0.128479
596.535195	0.128482
596.745534	0.128380
596.955855	0.127893
597.166157	0.127981
597.376441	0.127956
597.586707	0.128218
597.796955	0.128557
598.007185	0.128153
598.217396	0.128133
598.427589	0.127774
598.637764	0.127866
598.847921	0.128216
599.058060	0.128166
599.268180	0.128537
599.478282	0.128569
599.688366	0.128526
599.898431	0.129209
600.108479	0.129309
600.318508	0.129568
600.528519	0.129895
600.738511	0.129824
600.948486	0.129963
601.158442	0.129729
601.368380	0.129799
601.578300	0.129375
601.788202	0.129178
601.998085	0.129001
602.207950	0.128863
602.417797	0.128852
602.627626	0.128783
602.837436	0.129023
603.047228	0.129088
603.257002	0.129229
603.466758	0.130053
603.676496	0.130428
603.886215	0.130992
604.095916	0.131551
604.305599	0.131156
604.515264	0.131194
604.724910	0.131058
604.934538	0.131252
605.144148	0.131274
605.353740	0.130789
605.563314	0.130431
605.772869	0.130368
605.982406	0.130272
606.191925	0.130740
606.401425	0.131206
606.610908	0.131399
606.820372	0.131339
607.029818	0.131717
607.239246	0.132119
607.448655	0.132428
607.658047	0.132485
607.867420	0.132536
608.076775	0.132423
608.286111	0.132224
608.495430	0.132379
608.704730	0.132334
608.914012	0.132122
609.123275	0.131850
609.332521	0.131649
609.541748	0.131725
609.750957	0.131929
609.960148	0.132127
610.169321	0.132341
610.378475	0.132487
610.587611	0.132654
610.796729	0.132760
611.005829	0.133348
611.214910	0.133638
611.423974	0.133574
611.633019	0.133446
611.842045	0.133749
612.051054	0.133545
612.260044	0.133692
612.469017	0.134005
612.677970	0.133733
612.886906	0.133677
613.095824	0.133620
613.304723	0.133488
613.513604	0.133746
613.722467	0.133622
613.931311	0.134012
614.140138	0.133838
614.348946	0.133936
614.557736	0.134360
614.766507	0.134370
614.975261	0.134627
615.183996	0.135112
615.392713	0.135302
615.601412	0.135545
615.810092	0.135479
616.018754	0.135709
616.227399	0.135726
616.436024	0.135882
616.644632	0.135996
616.853222	0.136038
617.061793	0.136301
617.270346	0.136315
617.478880	0.136375
617.687397	0.136773
617.895895	0.136551
618.104375	0.136858
618.312837	0.136916
618.521281	0.137119
618.729706	0.137412
618.938113	0.137201
619.146502	0.137494
619.354873	0.137579
619.563226	0.137527
619.771560	0.137845
619.979876	0.137524
620.188174	0.137542
620.396453	0.137423
620.604715	0.137236
620.812958	0.137379
621.021183	0.137151
621.229390	0.137110
621.437578	0.136924
621.645748	0.137105
621.853900	0.137135
622.062034	0.137326
622.270150	0.137335
622.478247	0.137556
622.686326	0.137741
622.894387	0.137954
623.102430	0.138097
623.310454	0.138280
623.518461	0.138309
623.726449	0.138347
623.934418	0.138182
624.142370	0.138284
624.350303	0.138307
624.558218	0.138349
624.766115	0.138315
624.973994	0.138241
625.181855	0.138208
625.389697	0.138131
625.597521	0.138139
625.805327	0.138278
626.013114	0.138218
626.220883	0.137917
626.428634	0.137800
626.636367	0.137628
626.844082	0.137663
627.051778	0.137556
627.259457	0.137482
627.467117	0.137833
627.674758	0.137755
627.882382	0.137682
628.089987	0.138171
628.297574	0.138572
628.505143	0.138738
628.712694	0.138741
628.920226	0.139351
629.127740	0.139690
629.335236	0.139671
629.542714	0.139777
629.750174	0.139931
629.957615	0.139919
630.165038	0.139843
630.372443	0.140135
630.579829	0.140410
630.787198	0.140358
630.994548	0.140278
631.201880	0.140363
631.409194	0.140461
631.616489	0.140508
631.823766	0.140490
632.031025	0.140432
632.238266	0.140341
632.445489	0.140470
632.652693	0.140604
632.859879	0.140746
633.067047	0.140935
633.274197	0.141112
633.481329	0.141500
633.688442	0.141658
633.895537	0.141909
634.102614	0.142123
634.309672	0.142104
634.516713	0.142118
634.723735	0.142367
634.930739	0.142305
635.137724	0.142369
635.344692	0.142391
635.551641	0.142415
635.758572	0.142601
635.965485	0.142755
636.172379	0.142981
636.379256	0.143040
636.586114	0.143106
636.792954	0.143288
636.999775	0.143356
637.206579	0.143391
637.413364	0.143735
637.620131	0.143857
637.826880	0.143919
638.033610	0.144092
638.240323	0.144121
638.447017	0.144248
638.653692	0.144450
638.860350	0.144594
639.066990	0.144781
639.273611	0.144869
639.480214	0.144838
639.686798	0.145096
639.893365	0.145069
640.099913	0.145188
640.306443	0.145107
640.512955	0.145197
640.719449	0.145363
640.925924	0.145361
641.132381	0.145447
641.338820	0.145506
641.545241	0.145577
641.751644	0.145733
641.958028	0.145885
642.164394	0.146167
642.370742	0.146130
642.577071	0.146049
642.783383	0.146204
642.989676	0.146131
643.195951	0.146142
643.402207	0.145989
643.608446	0.145999
643.814666	0.146128
644.020868	0.146325
644.227052	0.146445
644.433218	0.146668
644.639365	0.146625
644.845494	0.146810
645.051605	0.146902
645.257698	0.146936
645.463772	0.147024
645.669828	0.147109
645.875866	0.147026
646.081886	0.147049
646.287888	0.147087
646.493871	0.147248
646.699836	0.147196
646.905783	0.147424
647.111712	0.147693
647.317622	0.147825
647.523514	0.147801
647.729388	0.147587
647.935244	0.147624
648.141082	0.147931
648.346901	0.147856
648.552702	0.147946
648.758485	0.147867
648.964250	0.148082
649.169996	0.147726
649.375724	0.147680
649.581434	0.147985
649.787126	0.148271
649.992800	0.148127
650.198455	0.148325
650.404092	0.148386
650.609711	0.148489
650.815311	0.148279
651.020894	0.148576
651.226458	0.148800
651.432004	0.148571
651.637532	0.148458
651.843041	0.148640
652.048532	0.148844
652.254006	0.148768
652.459460	0.148700
652.664897	0.148776
652.870315	0.148788
653.075716	0.148857
653.281097	0.149320
653.486461	0.149537
653.691807	0.149570
653.897134	0.149774
654.102443	0.150128
654.307734	0.150409
654.513006	0.150530
654.718261	0.151149
654.923497	0.151314
655.128715	0.151699
655.333915	0.151902
655.539096	0.152120
655.744259	0.152183
655.949404	0.152250
656.154531	0.152519
656.359640	0.152719
656.564730	0.152656
656.769802	0.152775
656.974856	0.152279
657.179892	0.152345
657.384909	0.152158
657.589908	0.152123
657.794889	0.152159
657.999852	0.151938
658.204797	0.151873
658.409723	0.151672
658.614631	0.151781
658.819521	0.152121
659.024393	0.152123
659.229246	0.152165
659.434081	0.152212
659.638898	0.152472
659.843697	0.152947
660.048478	0.153150
660.253240	0.153471
660.457984	0.153406
660.662710	0.153596
660.867417	0.153574
661.072107	0.153753
661.276778	0.153977
661.481431	0.153743
661.686066	0.153542
661.890682	0.153699
662.095281	0.153913
662.299861	0.153845
662.504422	0.153981
662.708966	0.154129
662.913491	0.154302
663.117999	0.154412
663.322488	0.154800
663.526958	0.155115
663.731411	0.155259
663.935845	0.155152
664.140261	0.155632
664.344659	0.155630
664.549038	0.155718
664.753400	0.155854
664.957743	0.155834
665.162068	0.155923
665.366375	0.155881
665.570663	0.155877
665.774933	0.155866
665.979185	0.155755
666.183419	0.155733
666.387635	0.155715
666.591832	0.155813
666.796011	0.156023
667.000172	0.156002
667.204315	0.155970
667.408439	0.155926
667.612545	0.156127
667.816634	0.156209
668.020703	0.156156
668.224755	0.156403
668.428788	0.156385
668.632803	0.156313
668.836800	0.156328
669.040779	0.156412
669.244739	0.156617
669.448681	0.156590
669.652605	0.156676
669.856511	0.156938
670.060399	0.157011
670.264268	0.157228
670.468119	0.157396
670.671952	0.157529
670.875767	0.157580
671.079563	0.157435
671.283341	0.157807
671.487101	0.158042
671.690843	0.158290
671.894567	0.158459
672.098272	0.158662
672.301959	0.158807
672.505628	0.159024
672.709278	0.159345
672.912911	0.159822
673.116525	0.159580
673.320121	0.159672
673.523699	0.159727
673.727258	0.159814
673.930799	0.159788
674.134322	0.160003
674.337827	0.159910
674.541314	0.159887
674.744782	0.159757
674.948232	0.160005
675.151664	0.159939
675.355078	0.159817
675.558474	0.160005
675.761851	0.159803
675.965210	0.159690
676.168551	0.159798
676.371873	0.159976
676.575178	0.160165
676.778464	0.160283
676.981732	0.160482
677.184981	0.160639
677.388213	0.160634
677.591426	0.161084
677.794621	0.161377
677.997798	0.161623
678.200956	0.161812
678.404097	0.162178
678.607219	0.162523
678.810323	0.162886
679.013408	0.163201
679.216476	0.163143
679.419525	0.163316
679.622556	0.163243
679.825569	0.163462
680.028563	0.163527
680.231540	0.163331
680.434498	0.163314
680.637438	0.163400
680.840359	0.163278
681.043263	0.163671
681.246148	0.163555
681.449015	0.163757
681.651864	0.163626
681.854694	0.163651
682.057506	0.163825
682.260301	0.163807
682.463076	0.163682
682.665834	0.163843
682.868573	0.163998
683.071295	0.164100
683.273998	0.164469
683.476682	0.164745
683.679349	0.164903
683.881997	0.164933
684.084627	0.165122
684.287239	0.165069
684.489833	0.165196
684.692408	0.165043
684.894965	0.165103
685.097504	0.165021
685.300025	0.165139
685.502527	0.165071
685.705012	0.165118
685.907478	0.164988
686.109925	0.165280
686.312355	0.165356
686.514766	0.165403
686.717159	0.165686
686.919534	0.165641
687.121891	0.165562
687.324230	0.165921
687.526550	0.166196
687.728852	0.166226
687.931136	0.166230
688.133401	0.166377
688.335649	0.166312
688.537878	0.166245
688.740089	0.166289
688.942281	0.166358
689.144456	0.166347
689.346612	0.166424
689.548750	0.166897
689.750870	0.166952
689.952971	0.166969
690.155055	0.167132
690.357120	0.167306
690.559167	0.167496
690.761195	0.167685
690.963206	0.167792
691.165198	0.167727
691.367172	0.167518
691.569128	0.167375
691.771065	0.167481
691.972984	0.167772
692.174885	0.167763
692.376768	0.167659
692.578633	0.167526
692.780479	0.167559
692.982308	0.167593
693.184118	0.167744
693.385909	0.168027
693.587683	0.168012
693.789438	0.168009
693.991175	0.168273
694.192894	0.168498
694.394595	0.168753
694.596277	0.168759
694.797941	0.169101
694.999587	0.169356
695.201215	0.169665
695.402824	0.170041
695.604416	0.169969
695.805989	0.170204
696.007543	0.170149
696.209080	0.170432
696.410598	0.170540
696.612099	0.170571
696.813580	0.170470
697.015044	0.170652
697.216490	0.170608
697.417917	0.170801
697.619326	0.170625
697.820717	0.170733
698.022089	0.170496
698.223444	0.170691
698.424780	0.170632
698.626098	0.170901
698.827397	0.170703
699.028679	0.170880
699.229942	0.171069
699.431187	0.171165
699.632414	0.171366
699.833622	0.171678
700.034813	0.171771
700.235985	0.171932
700.437139	0.171854
700.638274	0.171960
700.839392	0.171834
701.040491	0.172014
701.241572	0.172199
701.442635	0.172358
701.643679	0.172284
701.844706	0.172037
702.045714	0.172000
702.246704	0.171964
702.447675	0.172074
702.648629	0.172210
702.849564	0.171905
703.050481	0.171699
703.251380	0.171733
703.452260	0.171677
703.653122	0.171880
703.853966	0.171830
704.054792	0.171934
704.255600	0.171715
704.456389	0.171684
704.657160	0.171820
704.857913	0.172056
705.058648	0.171962
705.259365	0.172076
705.460063	0.172161
705.660743	0.172139
705.861405	0.172131
706.062048	0.172450
706.262674	0.172376
706.463281	0.172341
706.663870	0.172334
706.864441	0.172447
707.064993	0.172473
707.265527	0.172446
707.466043	0.172465
707.666541	0.172448
707.867021	0.172285
708.067482	0.172337
708.267925	0.172382
708.468350	0.172303
708.668757	0.172103
708.869145	0.172020
709.069516	0.171933
709.269868	0.171966
709.470201	0.171930
709.670517	0.171959
709.870814	0.171968
710.071093	0.171975
710.271354	0.171842
710.471597	0.171922
710.671821	0.172173
710.872028	0.172356
711.072216	0.172343
711.272385	0.172467
711.472537	0.172456
711.672670	0.172403
711.872785	0.172742
712.072882	0.173022
712.272961	0.173243
712.473021	0.173283
712.673063	0.173310
712.873087	0.173610
713.073093	0.173851
713.273081	0.174073
713.473050	0.174223
713.673001	0.173909
713.872934	0.173845
714.072849	0.173893
714.272745	0.174005
714.472623	0.173950
714.672483	0.173892
714.872325	0.173952
715.072148	0.173882
715.271954	0.174141
715.471741	0.174394
715.671509	0.174332
715.871260	0.174307
716.070992	0.174219
716.270707	0.174145
716.470403	0.174240
716.670080	0.173867
716.869740	0.173845
717.069381	0.173716
717.269004	0.173596
717.468609	0.173595
717.668195	0.173505
717.867764	0.173575
718.067314	0.173680
718.266846	0.173665
718.466360	0.173635
718.665855	0.173672
718.865332	0.173519
719.064791	0.173197
719.264232	0.173162
719.463655	0.172998
719.663059	0.172737
719.862445	0.172701
720.061813	0.172818
720.261163	0.173034
720.460494	0.172886
720.659807	0.173017
720.859102	0.173236
721.058379	0.173281
721.257638	0.173342
721.456878	0.173385
721.656100	0.173322
721.855304	0.172964
722.054490	0.172825
722.253657	0.172709
722.452806	0.172557
722.651937	0.172482
722.851050	0.172354
723.050145	0.172256
723.249221	0.172026
723.448279	0.171973
723.647319	0.171706
723.846340	0.171555
724.045344	0.171609
724.244329	0.171387
724.443296	0.171144
724.642245	0.171054
724.841175	0.170979
725.040088	0.171126
725.238982	0.171078
725.437857	0.171328
725.636715	0.171230
725.835554	0.171171
726.034376	0.170890
726.233179	0.171043
726.431963	0.170958
726.630730	0.170693
726.829478	0.170467
727.028208	0.170424
727.226920	0.170223
727.425614	0.170110
727.624289	0.170005
727.822946	0.170241
728.021585	0.170185
728.220206	0.170158
728.418808	0.170214
728.617392	0.169968
728.815958	0.169872
729.014506	0.169769
729.213036	0.169871
729.411547	0.169634
729.610040	0.169525
729.808515	0.169324
730.006972	0.169135
730.205410	0.168928
730.403831	0.169010
730.602233	0.168837
730.800616	0.168774
730.998982	0.168581
731.197329	0.168569
731.395658	0.168599
731.593969	0.168601
731.792262	0.168638
731.990536	0.168603
732.188793	0.168420
732.387031	0.168155
732.585250	0.168046
732.783452	0.167756
732.981635	0.167661
733.179800	0.167463
733.377947	0.167107
733.576076	0.166901
733.774186	0.166967
733.972278	0.167032
734.170352	0.167050
734.368408	0.166951
734.566446	0.166855
734.764465	0.166645
734.962466	0.166206
735.160449	0.166304
735.358413	0.166316
735.556360	0.166166
735.754288	0.166227
735.952198	0.166090
736.150090	0.165876
736.347963	0.165953
736.545818	0.165950
736.743655	0.166118
736.941474	0.166070
737.139275	0.165936
737.337057	0.165705
737.534821	0.165009
737.732567	0.164943
737.930295	0.165194
738.128005	0.164978
738.325696	0.164883
738.523369	0.164873
738.721024	0.164824
738.918660	0.164643
739.116279	0.164839
739.313879	0.164973
739.511461	0.164934
739.709024	0.164678
739.906570	0.164673
740.104097	0.164851
740.301606	0.164788
740.499097	0.164512
740.696569	0.164634
740.894024	0.164419
741.091460	0.164326
741.288878	0.164072
741.486277	0.163898
741.683659	0.163837
741.881022	0.163617
742.078367	0.163595
742.275694	0.163478
742.473002	0.163087
742.670293	0.162890
742.867565	0.163095
743.064819	0.163097
743.262054	0.163106
743.459272	0.163120
743.656471	0.162947
743.853652	0.162676
744.050815	0.162679
744.247959	0.162973
744.445085	0.162837
744.642194	0.162515
744.839283	0.162477
745.036355	0.162437
745.233408	0.162033
745.430444	0.162073
745.627461	0.162083
745.824459	0.162087
746.021440	0.161805
746.218402	0.161726
746.415346	0.161705
746.612272	0.161457
746.809180	0.161158
747.006069	0.161255
747.202940	0.161198
747.399793	0.161170
747.596628	0.161307
747.793444	0.161510
747.990243	0.161502
748.187023	0.161604
748.383784	0.161853
748.580528	0.161842
748.777253	0.161917
748.973960	0.161857
749.170649	0.161802
749.367320	0.161637
749.563973	0.161218
749.760607	0.161286
749.957223	0.161142
750.153821	0.160983
750.350400	0.161031
750.546962	0.161000
750.743505	0.160560
750.940030	0.160152
751.136536	0.159997
751.333025	0.160160
751.529495	0.160130
751.725947	0.160041
751.922381	0.159689
752.118796	0.159503
752.315194	0.159425
752.511573	0.159388
752.707934	0.159497
752.904276	0.159425
753.100601	0.159097
753.296907	0.158815
753.493195	0.158700
753.689465	0.158755
753.885716	0.158767
754.081949	0.158585
754.278164	0.158595
754.474361	0.158546
754.670540	0.158310
754.866700	0.158426
755.062843	0.158495
755.258967	0.158243
755.455072	0.158387
755.651160	0.158278
755.847229	0.157951
756.043280	0.158120
756.239313	0.158108
756.435328	0.158264
756.631324	0.158084
756.827302	0.157894
757.023262	0.157848
757.219204	0.157534
757.415127	0.157468
757.611033	0.157730
757.806920	0.157354
758.002788	0.157154
758.198639	0.156939
758.394471	0.156909
758.590286	0.156653
758.786081	0.156615
758.981859	0.156492
759.177619	0.156321
759.373360	0.156242
759.569083	0.156174
759.764788	0.155990
759.960474	0.155815
760.156143	0.155590
760.351793	0.155726
760.547425	0.155774
760.743038	0.155799
760.938634	0.155869
761.134211	0.155716
761.329770	0.155809
761.525311	0.155872
761.720833	0.155849
761.916338	0.155919
762.111824	0.155879
762.307292	0.156063
762.502741	0.156081
762.698173	0.156143
762.893586	0.156086
763.088981	0.155748
763.284358	0.155767
763.479716	0.155780
763.675057	0.155565
763.870379	0.155544
764.065683	0.155258
764.260968	0.155168
764.456236	0.155081
764.651485	0.155070
764.846716	0.155285
765.041929	0.155201
765.237123	0.155281
765.432299	0.155451
765.627457	0.155247
765.822597	0.155170
766.017719	0.155000
766.212822	0.154767
766.407907	0.154942
766.602974	0.154818
766.798023	0.154886
766.993054	0.154665
767.188066	0.154330
767.383060	0.154404
767.578036	0.154281
767.772993	0.154236
767.967933	0.154124
768.162854	0.153684
768.357757	0.153455
768.552642	0.152952
768.747508	0.152684
768.942356	0.152780
769.137186	0.152559
769.331998	0.152377
769.526792	0.152391
769.721567	0.152406
769.916324	0.152258
770.111063	0.152315
770.305784	0.152524
770.500486	0.152732
770.695171	0.152672
770.889837	0.152636
771.084484	0.152528
771.279114	0.152409
771.473725	0.152229
771.668318	0.152184
771.862893	0.151973
772.057450	0.151886
772.251988	0.151777
772.446509	0.151784
772.641011	0.152025
772.835494	0.151976
773.029960	0.152233
773.224407	0.152201
773.418836	0.152302
773.613247	0.152437
773.807640	0.152365
774.002014	0.152306
774.196370	0.152117
774.390708	0.151873
774.585028	0.152017
774.779330	0.151757
774.973613	0.151625
775.167878	0.151737
775.362125	0.151642
775.556354	0.151666
775.750564	0.151535
775.944756	0.151452
776.138930	0.151501
776.333086	0.151492
776.527223	0.151424
776.721343	0.151540
776.915444	0.151270
777.109526	0.151394
777.303591	0.151512
777.497637	0.151649
777.691666	0.151943
777.885676	0.151988
778.079667	0.151719
778.273641	0.151862
778.467596	0.151967
778.661533	0.152079
778.855452	0.152308
779.049352	0.152173
779.243235	0.152061
779.437099	0.151870
779.630945	0.151818
779.824773	0.152067
780.018582	0.151951
780.212373	0.151765
780.406146	0.151856
780.599901	0.151451
780.793638	0.151272
780.987356	0.151330
781.181056	0.151371
781.374738	0.151334
781.568402	0.151264
781.762047	0.151107
781.955674	0.151301
782.149283	0.151447
782.342874	0.151635
782.536447	0.151790
782.730001	0.151793
782.923537	0.151774
783.117055	0.151982
783.310555	0.152125
783.504036	0.152320
783.697499	0.152583
783.890944	0.152603
784.084371	0.152680
784.277780	0.152970
784.471170	0.153258
784.664542	0.153504
784.857896	0.153599
785.051231	0.153910
785.244549	0.154123
785.437848	0.154162
785.631129	0.154092
785.824392	0.154122
786.017636	0.154398
786.210863	0.154425
786.404071	0.154352
786.597260	0.154079
786.790432	0.154022
786.983585	0.154135
787.176721	0.154064
787.369838	0.153987
787.562936	0.154273
787.756017	0.154132
787.949079	0.154275
788.142123	0.154389
788.335149	0.154686
788.528156	0.154647
788.721146	0.154591
788.914117	0.154511
789.107070	0.154406
789.300005	0.154326
789.492921	0.154131
789.685819	0.154007
789.878699	0.153788
790.071561	0.153463
790.264405	0.153428
790.457230	0.153583
790.650037	0.153736
790.842826	0.153983
791.035597	0.154018
791.228349	0.154211
791.421084	0.154284
791.613800	0.154468
791.806497	0.154486
791.999177	0.154774
792.191838	0.154576
792.384481	0.154590
792.577106	0.154616
792.769713	0.154724
792.962301	0.154856
793.154871	0.155021
793.347423	0.155054
793.539957	0.155420
793.732473	0.155490
793.924970	0.155911
794.117449	0.156106
794.309910	0.156359
794.502353	0.156413
794.694777	0.156655
794.887183	0.156737
795.079571	0.157169
795.271941	0.157339
795.464293	0.157384
795.656626	0.157231
795.848941	0.157300
796.041238	0.157477
796.233516	0.157743
796.425777	0.157767
796.618019	0.157804
796.810243	0.157750
797.002449	0.157921
797.194636	0.157870
797.386805	0.158280
797.578956	0.158458
797.771089	0.158314
797.963204	0.158258
798.155300	0.158323
798.347378	0.158721
798.539438	0.158866
798.731480	0.158778
798.923503	0.158846
799.115509	0.158744
799.307496	0.158755
799.499465	0.159170
799.691415	0.159251
799.883348	0.159481
800.075262	0.159408
800.267158	0.159737
800.459035	0.160048
800.650895	0.160363
800.842736	0.160368
801.034559	0.160625
801.226364	0.160732
801.418150	0.160933
801.609919	0.161178
801.801669	0.161553
801.993401	0.161724
802.185114	0.161897
802.376810	0.162227
802.568487	0.162681
802.760146	0.162704
802.951787	0.162991
803.143409	0.163038
803.335014	0.162906
803.526600	0.162816
803.718168	0.162829
803.909717	0.162913
804.101249	0.162846
804.292762	0.162842
804.484257	0.162978
804.675734	0.162830
804.867192	0.162981
805.058632	0.163361
805.250054	0.163377
805.441458	0.163355
805.632844	0.163452
805.824211	0.163667
806.015561	0.163613
806.206891	0.163802
806.398204	0.163958
806.589499	0.164163
806.780775	0.164184
806.972033	0.164422
807.163273	0.164695
807.354495	0.164954
807.545698	0.164964
807.736883	0.165364
807.928050	0.165255
808.119199	0.165604
808.310329	0.165882
808.501441	0.166062
808.692535	0.166113
808.883611	0.166327
809.074669	0.166428
809.265708	0.166784
809.456729	0.166811
809.647732	0.167318
809.838717	0.167214
810.029683	0.167138
810.220632	0.167190
810.411562	0.167438
810.602474	0.167673
810.793367	0.167981
810.984242	0.168206
811.175100	0.168714
811.365938	0.168732
811.556759	0.169230
811.747562	0.169664
811.938346	0.169844
812.129112	0.170090
812.319860	0.170217
812.510589	0.170335
812.701300	0.170405
812.891994	0.170584
813.082668	0.171109
813.273325	0.171326
813.463964	0.171510
813.654584	0.171774
813.845186	0.172116
814.035769	0.172304
814.226335	0.172608
814.416882	0.172799
814.607411	0.172942
814.797922	0.172932
814.988415	0.173026
815.178889	0.172935
815.369345	0.173129
815.559783	0.173295
815.750203	0.173534
815.940605	0.173934
816.130988	0.174363
816.321353	0.174679
816.511700	0.174858
816.702028	0.175254
816.892339	0.175889
817.082631	0.176305
817.272905	0.176584
817.463161	0.177077
817.653398	0.177171
817.843617	0.177137
818.033819	0.177196
818.224001	0.177585
818.414166	0.177683
818.604312	0.177660
818.794440	0.177774
818.984550	0.177988
819.174642	0.177841
819.364716	0.177789
819.554771	0.178060
819.744808	0.178140
819.934827	0.178341
820.124827	0.178415
820.314810	0.178794
820.504774	0.178825
820.694720	0.178764
820.884647	0.179029
821.074557	0.179056
821.264448	0.179278
821.454321	0.179423
821.644176	0.179730
821.834012	0.180142
822.023831	0.180054
822.213631	0.180449
822.403413	0.180929
822.593176	0.181233
822.782922	0.181589
822.972649	0.181696
823.162358	0.182121
823.352049	0.182259
823.541721	0.182287
823.731376	0.182897
823.921012	0.182717
824.110629	0.182753
824.300229	0.182803
824.489811	0.183199
824.679374	0.183504
824.868919	0.183528
825.058445	0.183919
825.247954	0.184568
825.437444	0.184765
825.626916	0.185449
825.816370	0.185617
826.005806	0.186031
826.195223	0.186287
826.384622	0.186495
826.574003	0.186895
826.763366	0.186820
826.952711	0.186896
827.142037	0.187176
827.331345	0.187355
827.520635	0.187654
827.709906	0.187747
827.899160	0.187886
828.088395	0.188258
828.277612	0.188632
828.466810	0.188871
828.655991	0.188984
828.845153	0.188999
829.034297	0.189042
829.223423	0.189177
829.412531	0.189286
829.601620	0.189642
829.790691	0.189778
829.979744	0.189874
830.168779	0.190114
830.357795	0.190352
830.546793	0.190639
830.735773	0.191009
830.924735	0.191303
831.113679	0.191631
831.302604	0.191948
831.491511	0.192226
831.680400	0.192534
831.869271	0.192679
832.058123	0.192566
832.246957	0.192519
832.435773	0.192577
832.624571	0.192998
832.813351	0.193089
833.002112	0.193037
833.190855	0.192897
833.379580	0.192869
833.568287	0.193016
833.756975	0.193245
833.945645	0.193739
834.134297	0.194061
834.322931	0.194012
834.511547	0.194370
834.700144	0.194786
834.888723	0.195381
835.077284	0.195826
835.265826	0.195875
835.454351	0.196388
835.642857	0.196530
835.831345	0.196779
836.019815	0.197336
836.208266	0.197598
836.396699	0.198046
836.585114	0.198429
836.773511	0.198575
836.961890	0.199507
837.150250	0.199929
837.338592	0.200773
837.526916	0.201033
837.715222	0.201183
837.903510	0.201448
838.091779	0.201443
838.280030	0.201752
838.468263	0.202253
838.656477	0.202170
838.844674	0.202507
839.032852	0.202619
839.221012	0.202962
839.409153	0.203508
839.597277	0.204072
839.785382	0.204640
839.973469	0.204569
840.161538	0.204941
840.349589	0.205582
840.537621	0.205715
840.725635	0.205771
840.913631	0.206342
841.101609	0.206667
841.289568	0.206936
841.477509	0.207071
841.665432	0.207721
841.853337	0.207746
842.041224	0.207958
842.229092	0.208196
842.416942	0.208233
842.604774	0.208383
842.792588	0.208460
842.980383	0.208707
843.168160	0.209028
843.355919	0.209461
843.543660	0.209827
843.731382	0.210250
843.919087	0.210714
844.106773	0.211223
844.294441	0.211584
844.482090	0.211700
844.669722	0.211822
844.857335	0.211926
845.044930	0.211916
845.232507	0.212441
845.420065	0.212353
845.607605	0.212396
845.795127	0.212696
845.982631	0.212660
846.170117	0.213072
846.357584	0.213608
846.545033	0.213898
846.732464	0.214191
846.919877	0.214352
847.107272	0.214456
847.294648	0.214770
847.482006	0.214941
847.669346	0.215372
847.856667	0.215740
848.043971	0.215694
848.231256	0.215958
848.418523	0.216260
848.605771	0.216465
848.793002	0.216939
848.980214	0.217259
849.167408	0.217511
849.354584	0.217906
849.541742	0.218093
849.728881	0.218759
849.916002	0.219048
850.103105	0.219033
850.290190	0.219423
850.477256	0.219751
850.664304	0.219749
850.851334	0.219784
851.038346	0.220084
851.225340	0.220242
851.412315	0.220052
851.599272	0.220360
851.786211	0.220963
851.973132	0.221031
852.160034	0.221144
852.346918	0.221577
852.533784	0.222051
852.720632	0.221895
852.907462	0.222191
853.094273	0.222509
853.281066	0.222748
853.467841	0.222916
853.654598	0.223129
853.841336	0.223833
854.028056	0.224276
854.214758	0.224673
854.401442	0.225157
854.588107	0.225534
854.774755	0.225830
854.961384	0.226213
855.147995	0.226730
855.334587	0.226895
855.521162	0.226721
855.707718	0.226694
855.894256	0.226912
856.080775	0.227284
856.267277	0.227386
856.453760	0.227950
856.640225	0.228292
856.826672	0.228585
857.013101	0.228822
857.199511	0.229333
857.385903	0.229920
857.572277	0.230327
857.758633	0.230623
857.944970	0.230793
858.131290	0.230741
858.317591	0.230835
858.503873	0.230958
858.690138	0.231714
858.876384	0.232126
859.062612	0.232546
859.248822	0.232776
859.435014	0.233241
859.621188	0.233732
859.807343	0.234307
859.993480	0.234694
860.179599	0.234638
860.365699	0.234056
860.551781	0.234098
860.737846	0.234173
860.923891	0.234576
861.109919	0.234694
861.295929	0.234960
861.481920	0.235169
861.667893	0.235635
861.853848	0.236319
862.039784	0.237282
862.225702	0.237850
862.411603	0.238426
862.597484	0.238381
862.783348	0.238585
862.969193	0.238660
863.155021	0.239042
863.340830	0.238992
863.526620	0.239098
863.712393	0.239386
863.898147	0.239366
864.083883	0.239358
864.269601	0.239654
864.455301	0.240213
864.640982	0.240690
864.826645	0.241001
865.012290	0.241381
865.197917	0.241719
865.383526	0.241740
865.569116	0.241852
865.754688	0.241523
865.940242	0.241655
866.125777	0.241406
866.311295	0.241686
866.496794	0.241761
866.682275	0.241761
866.867737	0.241812
867.053182	0.241937
867.238608	0.242086
867.424016	0.242623
867.609406	0.242963
867.794778	0.242850
867.980131	0.242835
868.165466	0.242781
868.350783	0.242785
868.536082	0.242765
868.721362	0.242940
868.906625	0.243170
869.091869	0.243263
869.277094	0.243313
869.462302	0.244238
869.647491	0.244414
869.832662	0.244527
870.017815	0.244770
870.202950	0.244981
870.388066	0.244881
870.573165	0.245236
870.758245	0.245716
870.943306	0.245840
871.128350	0.245935
871.313375	0.245955
871.498382	0.246150
871.683371	0.246597
871.868342	0.246910
872.053294	0.247686
872.238229	0.247900
872.423144	0.248164
872.608042	0.248765
872.792922	0.248637
872.977783	0.249301
873.162626	0.249920
873.347451	0.250274
873.532258	0.250577
873.717046	0.250662
873.901816	0.251134
874.086568	0.251246
874.271302	0.251395
874.456017	0.252091
874.640715	0.252208
874.825394	0.252382
875.010055	0.252446
875.194697	0.252735
875.379322	0.252849
875.563928	0.252604
875.748516	0.252855
875.933085	0.253130
876.117637	0.252796
876.302170	0.253037
876.486685	0.253193
876.671182	0.253841
876.855661	0.253976
877.040121	0.254208
877.224563	0.254951
877.408987	0.255095
877.593393	0.254954
877.777780	0.255465
877.962150	0.255406
878.146501	0.255113
878.330833	0.254507
878.515148	0.254490
878.699444	0.254927
878.883722	0.254625
879.067982	0.254388
879.252224	0.254629
879.436447	0.254460
879.620653	0.254924
879.804840	0.255145
879.989008	0.255735
880.173159	0.256005
880.357291	0.255556
880.541405	0.255729
880.725501	0.256339
880.909579	0.256522
881.093638	0.256664
881.277680	0.256548
881.461703	0.256756
881.645707	0.256595
881.829694	0.256767
882.013662	0.257199
882.197612	0.256914
882.381544	0.256567
882.565458	0.256381
882.749353	0.256568
882.933230	0.256152
883.117089	0.256416
883.300930	0.256531
883.484753	0.256326
883.668557	0.256218
883.852343	0.256397
884.036111	0.256744
884.219861	0.256537
884.403592	0.256029
884.587305	0.256379
884.771000	0.256022
884.954677	0.255822
885.138335	0.255936
885.321976	0.256134
885.505598	0.256216
885.689201	0.256047
885.872787	0.256390
886.056354	0.257079
886.239904	0.257252
886.423434	0.257564
886.606947	0.257710
886.790442	0.257834
886.973918	0.257735
887.157376	0.258201
887.340816	0.258713
887.524237	0.258741
887.707641	0.258673
887.891026	0.258644
888.074393	0.258460
888.257741	0.258243
888.441072	0.258316
888.624384	0.258311
888.807678	0.257776
888.990954	0.256874
889.174211	0.256926
889.357451	0.256537
889.540672	0.256464
889.723875	0.256890
889.907059	0.257129
890.090226	0.257093
890.273374	0.257002
890.456504	0.257338
890.639616	0.257666
890.822709	0.258154
891.005785	0.258623
891.188842	0.258660
891.371881	0.258609
891.554901	0.258573
891.737904	0.258604
891.920888	0.258830
892.103854	0.258774
892.286802	0.259190
892.469731	0.258824
892.652643	0.258541
892.835536	0.258280
893.018410	0.257766
893.201267	0.257671
893.384106	0.257364
893.566926	0.257084
893.749728	0.256802
893.932511	0.256337
894.115277	0.256201
894.298024	0.256442
894.480753	0.257062
894.663464	0.256979
894.846157	0.257036
895.028831	0.257282
895.211487	0.257131
895.394125	0.257112
895.576745	0.257010
895.759346	0.257064
895.941930	0.257317
896.124495	0.256710
896.307041	0.256938
896.489570	0.257073
896.672080	0.257081
896.854573	0.257198
897.037046	0.257154
897.219502	0.257155
897.401940	0.256882
897.584359	0.256709
897.766760	0.257405
897.949143	0.256665
898.131507	0.256494
898.313854	0.255978
898.496182	0.255632
898.678492	0.255971
898.860783	0.256103
899.043057	0.255917
899.225312	0.255546
899.407549	0.255006
899.589768	0.255544
899.771968	0.255163
899.954151	0.255331
900.136315	0.255439
900.318461	0.255088
900.500588	0.254697
900.682698	0.254666
900.864789	0.254083
901.046862	0.252713
901.228917	0.252527
901.410953	0.252224
901.592971	0.251761
901.774972	0.251083
901.956953	0.250831
902.138917	0.250602
902.320862	0.250234
902.502790	0.250040
902.684699	0.250917
902.866589	0.250173
903.048462	0.249817
903.230316	0.249507
903.412152	0.249609
903.593970	0.248922
903.775770	0.249155
903.957551	0.249026
904.139314	0.248811
904.321059	0.248268
904.502786	0.248418
904.684494	0.248829
904.866185	0.248644
905.047857	0.248646
905.229510	0.248419
905.411146	0.247551
905.592763	0.247328
905.774363	0.247161
905.955943	0.246805
906.137506	0.246930
906.319051	0.246223
906.500577	0.245884
906.682085	0.245212
906.863575	0.245481
907.045046	0.245072
907.226500	0.245025
907.407935	0.244679
907.589352	0.244485
907.770750	0.243695
907.952131	0.243357
908.133493	0.243213
908.314837	0.242913
908.496163	0.242287
908.677470	0.242172
908.858760	0.241465
909.040031	0.241291
909.221284	0.241327
909.402518	0.241000
909.583735	0.240891
909.764933	0.240355
909.946113	0.239937
910.127275	0.239663
910.308418	0.239220
910.489544	0.239041
910.670651	0.238904
910.851740	0.238270
911.032810	0.238163
911.213863	0.237300
911.394897	0.237063
911.575913	0.237213
911.756911	0.236172
911.937890	0.235771
912.118851	0.234426
912.299794	0.233168
912.480719	0.232675
912.661626	0.232152
912.842514	0.232621
913.023384	0.232003
913.204236	0.231421
913.385070	0.231820
913.565886	0.231430
913.746683	0.231967
913.927462	0.231880
914.108223	0.231447
914.288965	0.230907
914.469690	0.229688
914.650396	0.229338
914.831084	0.228616
915.011754	0.228325
915.192405	0.228174
915.373038	0.227716
915.553653	0.227613
915.734250	0.227326
915.914829	0.227354
916.095389	0.227342
916.275931	0.227010
916.456455	0.226798
916.636961	0.225603
916.817448	0.225516
916.997917	0.225011
917.178368	0.224323
917.358801	0.223899
917.539216	0.222802
917.719612	0.222222
917.899990	0.221392
918.080350	0.220847
918.260692	0.220353
918.441015	0.219770
918.621320	0.219397
918.801607	0.219030
918.981876	0.218402
919.162127	0.217928
919.342359	0.217589
919.522573	0.217603
919.702769	0.217138
919.882947	0.217571
920.063106	0.217000
920.243247	0.216125
920.423370	0.215336
920.603475	0.214926
920.783562	0.214340
920.963630	0.213815
921.143680	0.213382
921.323712	0.212213
921.503725	0.211393
921.683721	0.210735
921.863698	0.210560
922.043657	0.209761
922.223598	0.209302
922.403520	0.209076
922.583424	0.208231
922.763311	0.207193
922.943178	0.207251
923.123028	0.205823
923.302859	0.204629
923.482673	0.204291
923.662467	0.204195
923.842244	0.203376
924.022003	0.202586
924.201743	0.202215
924.381465	0.202375
924.561169	0.201457
924.740854	0.201615
924.920522	0.201291
925.100171	0.200707
925.279802	0.200182
925.459414	0.199768
925.639009	0.199567
925.818585	0.198526
925.998143	0.197672
926.177683	0.197259
926.357205	0.196758
926.536708	0.196169
926.716193	0.194868
926.895660	0.194290
927.075109	0.193361
927.254539	0.192310
927.433951	0.191848
927.613345	0.191015
927.792721	0.190592
927.972079	0.189797
928.151418	0.189719
928.330739	0.189708
928.510042	0.188328
928.689327	0.187809
928.868593	0.187038
929.047841	0.186522
929.227071	0.185016
929.406283	0.183727
929.585476	0.183114
929.764652	0.182425
929.943809	0.181714
930.122948	0.181439
930.302068	0.180944
930.481171	0.180580
930.660255	0.179894
930.839321	0.180184
931.018369	0.180423
931.197398	0.179418
931.376409	0.177921
931.555402	0.177192
931.734377	0.177080
931.913334	0.176411
932.092272	0.176187
932.271192	0.175885
932.450094	0.174689
932.628978	0.173479
932.807844	0.173003
932.986691	0.173012
933.165520	0.172426
933.344331	0.170991
933.523123	0.169936
933.701898	0.169017
933.880654	0.168919
934.059392	0.168993
934.238111	0.169200
934.416813	0.168634
934.595496	0.166857
934.774161	0.165850
934.952808	0.164658
935.131437	0.164456
935.310047	0.163808
935.488639	0.161673
935.667213	0.160786
935.845769	0.159189
936.024306	0.158104
936.202825	0.157954
936.381326	0.156868
936.559809	0.157005
936.738274	0.156020
936.916720	0.154907
937.095148	0.154741
937.273558	0.153864
937.451950	0.153146
937.630323	0.152678
937.808678	0.152048
937.987015	0.152295
938.165334	0.151993
938.343635	0.151219
938.521917	0.150310
938.700181	0.149496
938.878427	0.148026
939.056655	0.148142
939.234864	0.146964
939.413055	0.146070
939.591228	0.143493
939.769383	0.142676
939.947519	0.141882
940.125638	0.141146
940.303738	0.140197
940.481820	0.140057
940.659883	0.138044
940.837929	0.136586
941.015956	0.136376
941.193965	0.137018
941.371955	0.136455
941.549928	0.135745
941.727882	0.135746
941.905818	0.135512
942.083736	0.134630
942.261636	0.134732
942.439517	0.134550
942.617380	0.133400
942.795225	0.131819
942.973052	0.130658
943.150860	0.129545
943.328651	0.128509
943.506423	0.126587
943.684176	0.125244
943.861912	0.124308
944.039629	0.124962
944.217328	0.124617
944.395009	0.125204
944.572672	0.124167
944.750317	0.124279
944.927943	0.123289
945.105551	0.123572
945.283141	0.124246
945.460712	0.124433
945.638265	0.123185
945.815801	0.122252
945.993317	0.121046
946.170816	0.121027
946.348297	0.118781
946.525759	0.117824
946.703203	0.116885
946.880629	0.115847
947.058036	0.113347
947.235425	0.112569
947.412797	0.112318
947.590149	0.110433
947.767484	0.109736
947.944800	0.109647
948.122099	0.108973
948.299379	0.108672
948.476640	0.107174
948.653884	0.107597
948.831109	0.106209
949.008316	0.105738
949.185505	0.106106
949.362676	0.104020
949.539828	0.103534
949.716962	0.101784
949.894078	0.099273
950.071176	0.099969
950.248256	0.098774
950.425317	0.098666
950.602360	0.097687
950.779385	0.096711
950.956391	0.097026
951.133380	0.096525
951.310350	0.098196
951.487302	0.100300
951.664235	0.098475
951.841151	0.098398
952.018048	0.096826
952.194927	0.095976
952.371788	0.096293
952.548631	0.096057
952.725455	0.094651
952.902261	0.092038
953.079049	0.090122
953.255819	0.090254
953.432570	0.089806
953.609303	0.091511
953.786018	0.090340
953.962715	0.088869
954.139394	0.088256
954.316054	0.088422
954.492696	0.088770
954.669320	0.089091
954.845926	0.087854
955.022513	0.085805
955.199083	0.083321
955.375634	0.082488
955.552166	0.082877
955.728681	0.082684
955.905177	0.082428
956.081655	0.082241
956.258115	0.080734
956.434557	0.080637
956.610980	0.082989
956.787385	0.082212
956.963772	0.082269
957.140141	0.080819
957.316492	0.079911
957.492824	0.080321
957.669138	0.079827
957.845434	0.080520
958.021712	0.079469
958.197971	0.077071
958.374212	0.076298
958.550435	0.076264
958.726640	0.075366
958.902826	0.074469
959.078995	0.072736
959.255145	0.072533
959.431277	0.071928
959.607390	0.072874
959.783486	0.074247
959.959563	0.076013
960.135622	0.075902
960.311662	0.075146
960.487685	0.073908
960.663689	0.074518
960.839675	0.075138
961.015643	0.074442
961.191593	0.073615
961.367524	0.071559
961.543437	0.070353
961.719332	0.069715
961.895209	0.072615
962.071067	0.074321
962.246907	0.075635
962.422730	0.074156
962.598533	0.073239
962.774319	0.073455
962.950086	0.073217
963.125835	0.072457
963.301566	0.071700
963.477279	0.069816
963.652973	0.069587
963.828650	0.067827
964.004308	0.069176
964.179947	0.070543
964.355569	0.071011
964.531172	0.070586
964.706757	0.072777
964.882324	0.072799
965.057873	0.072793
965.233403	0.073304
965.408916	0.075913
965.584410	0.075261
965.759885	0.074215
965.935343	0.073912
966.110782	0.075755
966.286203	0.072499
966.461606	0.074090
966.636991	0.075545
966.812357	0.074224
966.987705	0.071695
967.163035	0.072724
967.338347	0.073766
967.513641	0.073354
967.688916	0.071957
967.864173	0.074587
968.039412	0.072757
968.214632	0.071845
968.389835	0.072571
968.565019	0.072856
968.740185	0.072523
968.915333	0.073202
969.090462	0.072477
969.265573	0.074575
969.440667	0.073140
969.615741	0.073451
969.790798	0.071956
969.965836	0.071396
970.140856	0.071190
970.315858	0.070821
970.490842	0.070047
970.665808	0.071432
970.840755	0.069234
971.015684	0.071411
971.190595	0.072913
971.365487	0.073927
971.540362	0.074007
971.715218	0.073071
971.890056	0.073173
972.064875	0.073671
972.239677	0.073196
972.414460	0.073922
972.589225	0.071210
972.763972	0.071466
972.938700	0.071819
973.113411	0.072362
973.288103	0.071865
973.462777	0.070646
973.637432	0.071654
973.812070	0.072600
973.986689	0.073396
974.161290	0.075132
974.335873	0.072602
974.510437	0.073611
974.684984	0.072946
974.859512	0.076480
975.034022	0.075817
975.208513	0.074953
975.382987	0.073830
975.557442	0.073058
975.731879	0.071491
975.906298	0.072831
976.080698	0.072382
976.255080	0.075708
976.429445	0.075591
976.603790	0.076950
976.778118	0.075859
976.952427	0.074755
977.126719	0.075171
977.300992	0.077173
977.475246	0.077191
977.649483	0.077277
977.823701	0.074549
977.997901	0.074376
978.172083	0.075245
978.346247	0.076533
978.520392	0.078879
978.694519	0.078138
978.868628	0.077912
979.042719	0.078833
979.216791	0.077402
979.390845	0.077199
979.564882	0.074986
979.738899	0.074463
979.912899	0.071539
980.086880	0.069863
980.260843	0.070029
980.434788	0.069358
980.608715	0.066962
980.782623	0.067353
980.956514	0.067517
981.130386	0.068045
981.304240	0.068224
981.478075	0.070806
981.651892	0.071026
981.825692	0.071220
981.999472	0.070947
982.173235	0.073537
982.346980	0.073006
982.520706	0.071898
982.694414	0.070822
982.868104	0.068979
983.041775	0.067328
983.215428	0.067649
983.389064	0.068279
983.562680	0.068550
983.736279	0.068101
983.909860	0.067351
984.083422	0.068310
984.256966	0.068578
984.430491	0.069533
984.603999	0.070683
984.777488	0.071092
984.950959	0.070359
985.124412	0.070834
985.297847	0.071848
985.471263	0.072882
985.644661	0.073311
985.818041	0.073598
985.991403	0.075777
986.164747	0.074764
986.338072	0.075114
986.511379	0.075884
986.684668	0.075225
986.857938	0.073844
987.031191	0.074438
987.204425	0.074407
987.377641	0.075911
987.550839	0.075753
987.724018	0.076039
987.897179	0.075793
988.070322	0.075020
988.243447	0.075587
988.416554	0.077108
988.589642	0.079822
988.762712	0.080713
988.935764	0.079250
989.108798	0.078682
989.281813	0.078807
989.454811	0.078203
989.627790	0.077443
989.800751	0.076959
989.973693	0.075969
990.146617	0.072911
990.319524	0.073104
990.492412	0.075127
990.665281	0.073411
990.838133	0.075452
991.010966	0.076671
991.183781	0.077248
991.356578	0.076989
991.529356	0.077135
991.702117	0.077325
991.874859	0.075128
992.047583	0.073565
992.220288	0.073099
992.392976	0.070614
992.565645	0.070042
992.738296	0.070105
992.910929	0.071026
993.083543	0.069934
993.256139	0.068739
993.428718	0.069184
993.601277	0.068932
993.773819	0.069107
993.946342	0.067251
994.118848	0.067018
994.291335	0.065883
994.463803	0.066031
994.636254	0.064848
994.808686	0.066806
994.981100	0.067345
995.153496	0.068609
995.325874	0.070132
995.498233	0.073101
995.670574	0.071851
995.842897	0.072519
996.015202	0.072867
996.187488	0.074509
996.359757	0.074232
996.532007	0.072264
996.704239	0.071245
996.876452	0.070053
997.048648	0.068733
997.220825	0.070659
997.392984	0.072679
997.565124	0.070166
997.737247	0.070519
997.909351	0.071293
998.081437	0.072365
998.253505	0.071689
998.425554	0.071625
998.597586	0.073206
998.769599	0.072614
998.941594	0.071501
999.113571	0.073538
999.285529	0.074631
999.457469	0.071941
999.629391	0.071016
999.801295	0.072457
999.973181	0.072757
1000.145048	0.072765
1000.316897	0.072052
1000.488728	0.072938
1000.660541	0.071766
1000.832335	0.071519
1001.004111	0.073677
1001.175869	0.075227
1001.347609	0.073963
1001.519331	0.074979
1001.691034	0.073751
1001.862719	0.075410
1002.034386	0.073174
1002.206035	0.073588
1002.377665	0.073762
1002.549277	0.072240
1002.720871	0.072432
1002.892447	0.072665
1003.064004	0.071855
1003.235544	0.072641
1003.407065	0.071444
1003.578568	0.072407
1003.750052	0.072335
1003.921519	0.070659
1004.092967	0.071886
1004.264397	0.072178
1004.435809	0.072582
1004.607202	0.072355
1004.778577	0.071983
1004.949934	0.071565
1005.121273	0.069443
1005.292594	0.068534
1005.463896	0.067938
1005.635180	0.066977
1005.806446	0.066257
1005.977694	0.066473
1006.148923	0.068021
1006.320135	0.068723
1006.491328	0.069447
1006.662503	0.071778
1006.833659	0.072084
1007.004798	0.073199
1007.175918	0.073612
1007.347020	0.073816
1007.518103	0.074569
1007.689169	0.073517
1007.860216	0.073219
1008.031245	0.073421
1008.202256	0.074175
1008.373248	0.076121
1008.544223	0.076473
1008.715179	0.076794
1008.886117	0.076917
1009.057036	0.076662
1009.227938	0.075347
1009.398821	0.074627
1009.569686	0.074164
1009.740533	0.072665
1009.911361	0.070735
1010.082172	0.070228
1010.252964	0.069289
1010.423738	0.068710
1010.594493	0.067164
1010.765231	0.067554
1010.935950	0.068624
1011.106651	0.070134
1011.277334	0.069183
1011.447998	0.070268
1011.618645	0.070979
1011.789273	0.071303
1011.959882	0.071937
1012.130474	0.073949
1012.301048	0.073170
1012.471603	0.071462
1012.642140	0.069121
1012.812658	0.070760
1012.983159	0.070871
1013.153641	0.070115
1013.324105	0.070218
1013.494551	0.070468
1013.664979	0.069330
1013.835388	0.071020
1014.005779	0.071259
1014.176152	0.072335
1014.346507	0.073150
1014.516843	0.072920
1014.687162	0.071747
1014.857462	0.072102
1015.027744	0.070481
1015.198007	0.070734
1015.368252	0.070729
1015.538480	0.071734
1015.708689	0.071612
1015.878879	0.070604
1016.049052	0.069603
1016.219206	0.072374
1016.389342	0.073495
1016.559460	0.073497
1016.729559	0.072130
1016.899641	0.073501
1017.069704	0.072272
1017.239749	0.071796
1017.409775	0.073155
1017.579784	0.073942
1017.749774	0.071072
1017.919746	0.071041
1018.089700	0.071771
1018.259635	0.072481
1018.429553	0.072015
1018.599452	0.071690
1018.769333	0.072039
1018.939195	0.070674
1019.109040	0.070408
1019.278866	0.072483
1019.448674	0.071307
1019.618464	0.072054
1019.788235	0.072359
1019.957989	0.070215
1020.127724	0.072027
1020.297441	0.072927
1020.467139	0.072511
1020.636820	0.072015
1020.806482	0.071589
1020.976126	0.071248
1021.145752	0.071493
1021.315359	0.071310
1021.484948	0.072115
1021.654519	0.070095
1021.824072	0.067908
1021.993607	0.069943
1022.163123	0.070866
1022.332621	0.068249
1022.502101	0.068832
1022.671563	0.068184
1022.841007	0.068349
1023.010432	0.068565
1023.179839	0.070332
1023.349228	0.069707
1023.518598	0.067429
1023.687951	0.069179
1023.857285	0.071339
1024.026601	0.071614
1024.195899	0.071801
1024.365178	0.070671
1024.534439	0.069956
1024.703682	0.070415
1024.872907	0.071947
1025.042114	0.072769
1025.211302	0.070492
1025.380472	0.070583
1025.549624	0.069357
1025.718758	0.068955
1025.887873	0.071124
1026.056970	0.070708
1026.226049	0.069255
1026.395110	0.068192
1026.564153	0.068560
1026.733177	0.067916
1026.902183	0.067546
1027.071171	0.068142
1027.240141	0.069653
1027.409092	0.069156
1027.578026	0.069011
1027.746940	0.068087
1027.915837	0.066625
1028.084716	0.064880
1028.253576	0.064748
1028.422418	0.064811
1028.591242	0.064691
1028.760048	0.061435
1028.928835	0.060805
1029.097604	0.061251
1029.266355	0.063128
1029.435088	0.065185
1029.603803	0.066273
1029.772499	0.066298
1029.941177	0.066469
1030.109837	0.067325
1030.278478	0.067756
1030.447102	0.067739
1030.615707	0.069475
1030.784294	0.069225
1030.952863	0.069153
1031.121413	0.069438
1031.289945	0.070766
1031.458460	0.069426
1031.626955	0.068577
1031.795433	0.069858
1031.963892	0.067806
1032.132334	0.065438
1032.300756	0.064834
1032.469161	0.065127
1032.637548	0.064316
1032.805916	0.063423
1032.974266	0.063949
1033.142598	0.062628
1033.310911	0.062774
1033.479207	0.063361
1033.647484	0.063899
1033.815743	0.064148
1033.983983	0.063338
1034.152206	0.064550
1034.320410	0.064784
1034.488596	0.064878
1034.656764	0.065620
1034.824914	0.065696
1034.993045	0.066052
1035.161158	0.066591
1035.329253	0.067534
1035.497330	0.068178
1035.665388	0.067277
1035.833428	0.067040
1036.001450	0.067079
1036.169454	0.067012
1036.337440	0.068595
1036.505407	0.069532
1036.673356	0.069564
1036.841287	0.069025
1037.009200	0.070629
1037.177094	0.071473
1037.344970	0.073089
1037.512828	0.074415
1037.680668	0.074845
1037.848489	0.073865
1038.016293	0.072747
1038.184078	0.072632
1038.351845	0.071599
1038.519593	0.069542
1038.687324	0.068946
1038.855036	0.068012
1039.022730	0.066790
1039.190406	0.066065
1039.358063	0.065591
1039.525702	0.066417
1039.693323	0.066482
1039.860926	0.068115
1040.028511	0.069027
1040.196077	0.068389
1040.363625	0.068106
1040.531155	0.070008
1040.698667	0.070660
1040.866161	0.070205
1041.033636	0.070079
1041.201093	0.068122
1041.368532	0.068455
1041.535952	0.068503
1041.703355	0.068715
1041.870739	0.069720
1042.038105	0.069255
1042.205452	0.068360
1042.372782	0.069083
1042.540093	0.068730
1042.707386	0.070457
1042.874661	0.067750
1043.041918	0.070273
1043.209156	0.070290
1043.376376	0.069472
1043.543578	0.070040
1043.710762	0.072110
1043.877927	0.070523
1044.045074	0.069953
1044.212203	0.071217
1044.379314	0.073847
1044.546407	0.069397
1044.713481	0.069293
1044.880537	0.069871
1045.047575	0.069612
1045.214595	0.068509
1045.381596	0.070251
1045.548579	0.070176
1045.715544	0.069326
1045.882491	0.068048
1046.049420	0.069576
1046.216330	0.068567
1046.383222	0.067690
1046.550096	0.067926
1046.716951	0.066460
1046.883789	0.065410
1047.050608	0.066851
1047.217409	0.065505
1047.384192	0.065551
1047.550956	0.066000
1047.717703	0.066910
1047.884431	0.066320
1048.051140	0.065047
1048.217832	0.066469
1048.384505	0.065755
1048.551161	0.066539
1048.717798	0.066876
1048.884416	0.066157
1049.051017	0.065820
1049.217599	0.066717
1049.384163	0.066314
1049.550709	0.066420
1049.717237	0.067022
1049.883746	0.067386
1050.050237	0.066372
1050.216710	0.068356
1050.383165	0.071105
1050.549601	0.072358
1050.716019	0.071705
1050.882420	0.073080
1051.048801	0.072255
1051.215165	0.072082
1051.381510	0.074180
1051.547837	0.073591
1051.714146	0.071792
1051.880437	0.069233
1052.046709	0.067561
1052.212964	0.068230
1052.379200	0.069512
1052.545417	0.068894
1052.711617	0.067688
1052.877798	0.066370
1053.043961	0.067044
1053.210106	0.067936
1053.376233	0.067095
1053.542341	0.066338
1053.708432	0.066455
1053.874504	0.065800
1054.040557	0.067358
1054.206593	0.068401
1054.372610	0.069003
1054.538609	0.068229
1054.704590	0.068060
1054.870553	0.070156
1055.036497	0.072129
1055.202424	0.070119
1055.368331	0.068960
1055.534221	0.067549
1055.700093	0.067307
1055.865946	0.065291
1056.031781	0.064139
1056.197598	0.064208
1056.363397	0.062096
1056.529177	0.060338
1056.694939	0.061931
1056.860683	0.061245
1057.026409	0.062684
1057.192116	0.063124
1057.357806	0.063629
1057.523477	0.064992
1057.689130	0.064716
1057.854764	0.065759
1058.020381	0.067425
1058.185979	0.065804
1058.351559	0.064193
1058.517120	0.063182
1058.682664	0.062548
1058.848189	0.063897
1059.013696	0.064296
1059.179185	0.065281
1059.344656	0.065296
1059.510108	0.063985
1059.675542	0.064043
1059.840958	0.066920
1060.006356	0.066801
1060.171735	0.065882
1060.337096	0.066731
1060.502439	0.066753
1060.667764	0.066517
1060.833071	0.066294
1060.998359	0.068143
1061.163629	0.069714
1061.328881	0.069762
1061.494115	0.069536
1061.659330	0.069918
1061.824527	0.068918
1061.989706	0.069304
1062.154867	0.069317
1062.320010	0.069459
1062.485134	0.069250
1062.650240	0.069751
1062.815328	0.068238
1062.980398	0.068330
1063.145449	0.067849
1063.310482	0.068123
1063.475497	0.068120
1063.640494	0.066818
1063.805473	0.065697
1063.970433	0.063547
1064.135375	0.063096
1064.300299	0.063403
1064.465204	0.064191
1064.630092	0.065882
1064.794961	0.064428
1064.959812	0.064391
1065.124645	0.065918
1065.289459	0.067848
1065.454256	0.069510
1065.619034	0.068854
1065.783793	0.068388
1065.948535	0.068557
1066.113258	0.067432
1066.277964	0.067018
1066.442651	0.066062
1066.607319	0.066286
1066.771970	0.066481
1066.936602	0.064904
1067.101216	0.064203
1067.265812	0.064537
1067.430389	0.061575
1067.594949	0.064991
1067.759490	0.067582
1067.924013	0.067995
1068.088518	0.066154
1068.253004	0.064658
1068.417472	0.065145
1068.581922	0.065847
1068.746354	0.069110
1068.910768	0.069677
1069.075163	0.065087
1069.239540	0.064981
1069.403899	0.066198
1069.568240	0.064728
1069.732562	0.065453
1069.896866	0.066176
1070.061152	0.065951
1070.225420	0.063243
1070.389670	0.066062
1070.553901	0.068773
1070.718114	0.068247
1070.882309	0.067297
1071.046486	0.070205
1071.210644	0.070538
1071.374784	0.072090
1071.538906	0.071450
1071.703010	0.072400
1071.867096	0.070339
1072.031163	0.071395
1072.195212	0.070185
1072.359243	0.068981
1072.523256	0.068741
1072.687250	0.068804
1072.851226	0.067852
1073.015184	0.068714
1073.179124	0.070331
1073.343045	0.070398
1073.506949	0.067569
1073.670834	0.069023
1073.834701	0.069679
1073.998549	0.067719
1074.162380	0.069275
1074.326192	0.068870
1074.489986	0.069868
1074.653761	0.068097
1074.817519	0.067808
1074.981258	0.069402
1075.144979	0.065982
1075.308682	0.064336
1075.472367	0.065804
1075.636033	0.065516
1075.799681	0.065693
1075.963311	0.067115
1076.126923	0.066055
1076.290516	0.065136
1076.454092	0.063362
1076.617649	0.065726
1076.781187	0.068132
1076.944708	0.067534
1077.108210	0.066496
1077.271695	0.068366
1077.435160	0.067608
1077.598608	0.068092
1077.762038	0.069246
1077.925449	0.070408
1078.088842	0.071060
1078.252217	0.070339
1078.415573	0.070967
1078.578912	0.071445
1078.742232	0.068663
1078.905534	0.068074
1079.068817	0.068254
1079.232083	0.069478
1079.395330	0.071694
1079.558559	0.072609
1079.721770	0.071028
1079.884962	0.069772
1080.048136	0.071553
1080.211293	0.071635
1080.374430	0.070725
1080.537550	0.070335
1080.700651	0.070491
1080.863735	0.070472
1081.026800	0.070314
1081.189846	0.073131
1081.352875	0.074283
1081.515885	0.070896
1081.678877	0.071433
1081.841851	0.073426
1082.004807	0.075582
1082.167744	0.077539
1082.330663	0.075099
1082.493564	0.074267
1082.656447	0.074225
1082.819312	0.076002
1082.982158	0.075799
1083.144986	0.074832
1083.307796	0.074029
1083.470587	0.074054
1083.633361	0.071938
1083.796116	0.073756
1083.958853	0.072102
1084.121571	0.071674
1084.284272	0.068829
1084.446954	0.069822
1084.609618	0.072541
1084.772264	0.073509
1084.934892	0.072340
1085.097501	0.073259
1085.260092	0.071060
1085.422665	0.074087
1085.585220	0.076607
1085.747756	0.077148
1085.910274	0.077171
1086.072774	0.076049
1086.235256	0.074784
1086.397720	0.073473
1086.560165	0.071167
1086.722592	0.071523
1086.885001	0.069467
1087.047392	0.067741
1087.209764	0.070168
1087.372119	0.069535
1087.534455	0.070211
1087.696772	0.069955
1087.859072	0.067950
1088.021353	0.070243
1088.183616	0.069895
1088.345861	0.069607
1088.508088	0.068502
1088.670296	0.067818
1088.832486	0.067270
1088.994658	0.065392
1089.156812	0.065739
1089.318948	0.069725
1089.481065	0.070066
1089.643164	0.071029
1089.805245	0.072529
1089.967308	0.071842
1090.129352	0.071050
1090.291378	0.070836
1090.453386	0.072371
1090.615376	0.072629
1090.777347	0.071347
1090.939301	0.070743
1091.101236	0.072520
1091.263153	0.071019
1091.425051	0.072042
1091.586932	0.071152
1091.748794	0.071592
1091.910638	0.070783
1092.072463	0.068945
1092.234271	0.070847
1092.396060	0.070883
1092.557831	0.067241
1092.719584	0.069634
1092.881319	0.068438
1093.043035	0.070880
1093.204733	0.070157
1093.366413	0.069983
1093.528075	0.073027
1093.689718	0.072250
1093.851343	0.072019
1094.012950	0.073145
1094.174539	0.073350
1094.336110	0.075573
1094.497662	0.074446
1094.659196	0.074543
1094.820712	0.075085
1094.982210	0.074693
1095.143689	0.074538
1095.305151	0.073508
1095.466594	0.073374
1095.628018	0.072258
1095.789425	0.072338
1095.950813	0.072803
1096.112183	0.077529
1096.273535	0.076176
1096.434869	0.077217
1096.596184	0.079998
1096.757482	0.079934
1096.918761	0.080300
1097.080021	0.080772
1097.241264	0.078529
1097.402488	0.078684
1097.563694	0.075790
1097.724882	0.076036
1097.886052	0.070528
1098.047203	0.064268
1098.208336	0.066623
1098.369451	0.067432
1098.530548	0.067744
1098.691627	0.069750
1098.852687	0.068095
1099.013729	0.067183
1099.174753	0.067110
1099.335758	0.070494
1099.496746	0.075865
1099.657715	0.076354
1099.818666	0.078802
1099.979599	0.076577
1100.140513	0.074499
1100.301409	0.076307
1100.462287	0.078824
1100.623147	0.075879
1100.783989	0.073869
1100.944812	0.073429
1101.105617	0.072989
1101.266404	0.070608
1101.427173	0.069723
1101.587923	0.070267
1101.748656	0.067051
1101.909370	0.066823
1102.070066	0.071046
1102.230743	0.074448
1102.391403	0.072416
1102.552044	0.069795
1102.712667	0.070331
1102.873271	0.072232
1103.033858	0.071936
1103.194426	0.073951
1103.354976	0.072677
1103.515508	0.074600
1103.676021	0.070093
1103.836517	0.068928
1103.996994	0.065290
1104.157453	0.062756
1104.317893	0.060161
1104.478316	0.061251
1104.638720	0.061073
1104.799106	0.060923
1104.959474	0.061262
1105.119823	0.059397
1105.280155	0.058264
1105.440468	0.064599
1105.600763	0.065847
1105.761039	0.064556
1105.921298	0.064880
1106.081538	0.066330
1106.241760	0.067124
1106.401964	0.065973
1106.562149	0.070186
1106.722316	0.071476
1106.882465	0.073200
1107.042596	0.072563
1107.202709	0.076034
1107.362803	0.080010
1107.522879	0.080475
1107.682937	0.078402
1107.842977	0.075637
1108.002999	0.075077
1108.163002	0.076228
1108.322987	0.071752
1108.482954	0.072304
1108.642902	0.073559
1108.802833	0.069627
1108.962745	0.067339
1109.122639	0.069896
1109.282515	0.072282
1109.442372	0.071936
1109.602211	0.073492
1109.762032	0.072504
1109.921835	0.072962
1110.081620	0.068456
1110.241386	0.066592
1110.401134	0.067119
1110.560864	0.063985
1110.720576	0.056629
1110.880269	0.056730
1111.039945	0.055473
1111.199602	0.059244
1111.359240	0.060206
1111.518861	0.062713
1111.678463	0.062368
1111.838047	0.060995
1111.997613	0.065104
1112.157161	0.070077
1112.316690	0.069953
1112.476202	0.066468
1112.635695	0.065130
1112.795169	0.063824
1112.954626	0.066062
1113.114064	0.067854
1113.273484	0.069200
1113.432886	0.066334
1113.592270	0.067294
1113.751635	0.067272
1113.910983	0.066423
1114.070312	0.065405
1114.229622	0.065586
1114.388915	0.061937
1114.548189	0.064756
1114.707445	0.066568
1114.866683	0.065369
1115.025903	0.064864
1115.185104	0.066644
1115.344287	0.067653
1115.503452	0.068086
1115.662599	0.067584
1115.821727	0.066103
1115.980838	0.061328
1116.139930	0.061010
1116.299004	0.063107
1116.458059	0.062488
1116.617097	0.062994
1116.776116	0.067474
1116.935117	0.066191
1117.094099	0.064496
1117.253064	0.069906
1117.412010	0.071586
1117.570938	0.068062
1117.729848	0.064962
1117.888740	0.065706
1118.047613	0.067237
1118.206468	0.068174
1118.365305	0.068660
1118.524124	0.065902
1118.682924	0.067409
1118.841707	0.066494
1119.000471	0.067461
1119.159216	0.069059
1119.317944	0.067805
1119.476653	0.064325
1119.635344	0.061336
1119.794017	0.063529
1119.952672	0.065499
1120.111308	0.062245
1120.269927	0.064830
1120.428527	0.063346
1120.587108	0.062149
1120.745672	0.061114
1120.904217	0.058264
1121.062744	0.057197
1121.221253	0.053776
1121.379744	0.059306
1121.538216	0.058662
1121.696671	0.055773
1121.855107	0.059106
1122.013524	0.062361
1122.171924	0.064238
1122.330305	0.067116
1122.488668	0.066739
1122.647013	0.067736
1122.805340	0.065957
1122.963648	0.063421
1123.121938	0.060603
1123.280210	0.059706
1123.438464	0.061356
1123.596700	0.064669
1123.754917	0.066651
1123.913116	0.066425
1124.071297	0.069029
1124.229459	0.069363
1124.387604	0.071106
1124.545730	0.073369
1124.703838	0.071972
1124.861928	0.068883
1125.019999	0.066609
1125.178052	0.063710
1125.336088	0.068573
1125.494104	0.063056
1125.652103	0.056489
1125.810083	0.054574
1125.968045	0.056284
1126.125989	0.058639
1126.283915	0.058417
1126.441823	0.057683
1126.599712	0.053352
1126.757583	0.050320
1126.915436	0.055609
1127.073270	0.060735
1127.231087	0.064042
1127.388885	0.068315
1127.546665	0.068598
1127.704426	0.064072
1127.862170	0.066165
1128.019895	0.068057
1128.177602	0.068909
1128.335291	0.069754
1128.492961	0.068422
1128.650614	0.065373
1128.808248	0.059194
1128.965864	0.057157
1129.123461	0.061755
1129.281041	0.058983
1129.438602	0.063201
1129.596145	0.063596
1129.753670	0.062419
1129.911176	0.062279
1130.068665	0.069584
1130.226135	0.069405
1130.383587	0.070504
1130.541020	0.070270
1130.698436	0.066099
1130.855833	0.060228
1131.013212	0.062224
1131.170573	0.062217
1131.327915	0.062958
1131.485239	0.063221
1131.642545	0.065101
1131.799833	0.063590
1131.957103	0.062214
1132.114354	0.068117
1132.271588	0.072966
1132.428803	0.064577
1132.585999	0.062519
1132.743178	0.064335
1132.900338	0.057333
1133.057480	0.057959
1133.214604	0.057659
1133.371710	0.056476
1133.528797	0.052987
1133.685866	0.052718
1133.842917	0.058505
1133.999950	0.060590
1134.156964	0.055985
1134.313960	0.055108
1134.470938	0.055873
1134.627898	0.055557
1134.784840	0.061305
1134.941763	0.063484
1135.098668	0.062140
1135.255555	0.060856
1135.412424	0.059855
1135.569274	0.063118
1135.726107	0.067755
1135.882921	0.064819
1136.039716	0.064871
1136.196494	0.063443
1136.353253	0.066750
1136.509995	0.065688
1136.666717	0.068073
1136.823422	0.070797
1136.980109	0.071661
1137.136777	0.070491
1137.293427	0.071746
1137.450059	0.069523
1137.606672	0.069119
1137.763267	0.066226
1137.919844	0.071528
1138.076403	0.068719
1138.232944	0.069643
1138.389466	0.067779
1138.545971	0.065934
1138.702457	0.059436
1138.858924	0.062412
1139.015374	0.061403
1139.171805	0.059449
1139.328218	0.059905
1139.484613	0.060452
1139.640990	0.053748
1139.797348	0.055655
1139.953688	0.057054
1140.110010	0.064055
1140.266314	0.059108
1140.422600	0.054887
1140.578867	0.052097
1140.735116	0.050516
1140.891347	0.048962
1141.047559	0.054614
1141.203754	0.055609
1141.359930	0.055551
1141.516088	0.055003
1141.672228	0.060152
1141.828349	0.061387
1141.984452	0.063561
1142.140537	0.057899
1142.296604	0.059123
1142.452653	0.053332
1142.608683	0.049789
1142.764695	0.049842
1142.920689	0.047824
1143.076665	0.052340
1143.232622	0.052238
1143.388562	0.057096
1143.544483	0.058494
1143.700385	0.057723
1143.856270	0.061996
1144.012136	0.065010
1144.167985	0.064629
1144.323814	0.064711
1144.479626	0.054853
1144.635420	0.054602
1144.791195	0.051788
1144.946952	0.054792
1145.102691	0.055203
1145.258411	0.047062
1145.414113	0.043620
1145.569798	0.043861
1145.725463	0.047380
1145.881111	0.055146
1146.036741	0.055695
1146.192352	0.055437
1146.347945	0.055092
1146.503519	0.056277
1146.659076	0.058600
1146.814614	0.060882
1146.970134	0.061290
1147.125636	0.055889
1147.281120	0.050779
1147.436585	0.059135
1147.592032	0.056773
1147.747461	0.053310
1147.902872	0.053706
1148.058265	0.056753
1148.213639	0.055962
1148.368995	0.056846
1148.524333	0.060303
1148.679653	0.059510
1148.834954	0.050054
1148.990237	0.057896
1149.145502	0.064166
1149.300749	0.061796
1149.455977	0.058266
1149.611188	0.058333
1149.766380	0.059858
1149.921553	0.059289
1150.076709	0.055105
1150.231846	0.060766
1150.386966	0.046121
1150.542066	0.041277
1150.697149	0.035906
1150.852214	0.038019
1151.007260	0.036159
1151.162288	0.037290
1151.317298	0.038998
1151.472289	0.042839
1151.627263	0.040738
1151.782218	0.052449
1151.937155	0.055234
1152.092073	0.055956
1152.246974	0.058545
1152.401856	0.058524
1152.556720	0.048784
1152.711566	0.045120
1152.866393	0.046273
1153.021203	0.048466
1153.175994	0.040801
1153.330767	0.045132
1153.485521	0.051884
1153.640258	0.050729
1153.794976	0.057704
1153.949676	0.063204
1154.104358	0.062459
1154.259021	0.058439
1154.413667	0.056779
1154.568294	0.060458
1154.722903	0.057652
1154.877493	0.054158
1155.032066	0.051975
1155.186620	0.043958
1155.341156	0.039343
1155.495674	0.038859
1155.650173	0.041983
1155.804654	0.038204
1155.959118	0.036524
1156.113562	0.026166
1156.267989	0.031573
1156.422397	0.027066
1156.576788	0.031080
1156.731160	0.032273
1156.885513	0.032520
1157.039849	0.032022
1157.194166	0.030755
1157.348465	0.031492
1157.502746	0.038484
1157.657009	0.036318
1157.811253	0.044162
1157.965479	0.041253
1158.119687	0.045104
1158.273877	0.051081
1158.428048	0.049532
1158.582201	0.052446
1158.736337	0.052433
1158.890453	0.051214
1159.044552	0.045121
1159.198632	0.043628
1159.352694	0.037329
1159.506738	0.039452
1159.660764	0.036564
1159.814771	0.034323
1159.968761	0.037686
1160.122732	0.037641
1160.276685	0.041090
1160.430619	0.043999
1160.584535	0.046338
1160.738434	0.051267
1160.892313	0.045439
1161.046175	0.047295
1161.200019	0.048605
1161.353844	0.045891
1161.507651	0.050144
1161.661440	0.048442
1161.815210	0.047816
1161.968962	0.047717
1162.122697	0.046251
1162.276412	0.046787
1162.430110	0.043717
1162.583789	0.049823
1162.737451	0.052501
1162.891094	0.051789
1163.044718	0.053600
1163.198325	0.055015
1163.351913	0.056819
1163.505483	0.059587
1163.659035	0.064802
1163.812569	0.060986
1163.966084	0.057189
1164.119581	0.052845
1164.273060	0.052673
1164.426521	0.049787
1164.579964	0.044683
1164.733388	0.041900
1164.886794	0.041600
1165.040182	0.034551
1165.193551	0.043205
1165.346903	0.038706
1165.500236	0.030998
1165.653551	0.033323
1165.806848	0.034232
1165.960126	0.039267
1166.113386	0.025320
1166.266628	0.024394
1166.419852	0.026189
1166.573058	0.028489
1166.726245	0.034763
1166.879414	0.041055
1167.032565	0.037870
1167.185698	0.034379
1167.338812	0.036508
1167.491909	0.051023
1167.644987	0.050314
1167.798046	0.048194
1167.951088	0.041689
1168.104111	0.037685
1168.257117	0.036310
1168.410103	0.032476
1168.563072	0.038141
1168.716023	0.031502
1168.868955	0.028137
1169.021869	0.033715
1169.174765	0.033155
1169.327642	0.027507
1169.480501	0.031366
1169.633343	0.033234
1169.786165	0.035405
1169.938970	0.037847
1170.091757	0.041949
1170.244525	0.046938
1170.397275	0.045331
1170.550007	0.046323
1170.702720	0.049337
1170.855415	0.051327
1171.008092	0.047129
1171.160751	0.042089
1171.313392	0.030654
1171.466014	0.064896
1171.618619	-0.001399
1171.771205	-0.001399
1171.923772	-0.001399
