sample name	sample
index	805
start time	 03-31-2021  02:59:18 PM


Wavelength (nm)	Absorbance
494.344910	NaN
494.563924	NaN
494.782919	NaN
495.001897	0.193734
495.220856	NaN
495.439797	-1.375500
495.658719	-0.471377
495.877624	-0.243631
496.096510	-0.511973
496.315378	-1.467696
496.534227	-0.944595
496.753059	NaN
496.971872	NaN
497.190667	0.159608
497.409444	0.144536
497.628203	0.137394
497.846943	0.135015
498.065665	0.131892
498.284369	0.131819
498.503055	0.132416
498.721723	0.131139
498.940372	0.131481
499.159003	0.130780
499.377616	0.130215
499.596210	0.130441
499.814787	0.129759
500.033345	0.130399
500.251885	0.130364
500.470406	0.129202
500.688910	0.129011
500.907395	0.127919
501.125862	0.129444
501.344311	0.128891
501.562742	0.129170
501.781154	0.128782
501.999548	0.128177
502.217924	0.128922
502.436282	0.129130
502.654621	0.129418
502.872942	0.129284
503.091245	0.129188
503.309530	0.129588
503.527797	0.129911
503.746045	0.132197
503.964275	0.131794
504.182487	0.131438
504.400681	0.131660
504.618856	0.132595
504.837013	0.133091
505.055152	0.133308
505.273273	0.134298
505.491376	0.133732
505.709460	0.132985
505.927526	0.133520
506.145574	0.133742
506.363604	0.133863
506.581615	0.133908
506.799608	0.135198
507.017583	0.135281
507.235540	0.134637
507.453478	0.135948
507.671399	0.135326
507.889301	0.135726
508.107185	0.135007
508.325050	0.135430
508.542898	0.135215
508.760727	0.135084
508.978538	0.134925
509.196330	0.134545
509.414105	0.134785
509.631861	0.135131
509.849599	0.135724
510.067319	0.136555
510.285021	0.135661
510.502704	0.135539
510.720369	0.135458
510.938016	0.134486
511.155645	0.135758
511.373255	0.135810
511.590848	0.136617
511.808422	0.137081
512.025977	0.136963
512.243515	0.138463
512.461034	0.138245
512.678536	0.137652
512.896018	0.138313
513.113483	0.138094
513.330930	0.137345
513.548358	0.137615
513.765768	0.137108
513.983160	0.137994
514.200533	0.137314
514.417889	0.137328
514.635226	0.137639
514.852545	0.138869
515.069845	0.139456
515.287128	0.140682
515.504392	0.140364
515.721638	0.140699
515.938866	0.140208
516.156075	0.140383
516.373267	0.140770
516.590440	0.141181
516.807594	0.140314
517.024731	0.140822
517.241850	0.140059
517.458950	0.140749
517.676032	0.140602
517.893095	0.141065
518.110141	0.141256
518.327168	0.141950
518.544177	0.142014
518.761168	0.142961
518.978141	0.142399
519.195095	0.142486
519.412031	0.141652
519.628949	0.142381
519.845849	0.142451
520.062731	0.142589
520.279594	0.143253
520.496439	0.144729
520.713266	0.144652
520.930074	0.145233
521.146865	0.146263
521.363637	0.147319
521.580391	0.146877
521.797127	0.146663
522.013844	0.147425
522.230543	0.146379
522.447224	0.145066
522.663887	0.145182
522.880532	0.145549
523.097158	0.145348
523.313766	0.145059
523.530356	0.145692
523.746928	0.146226
523.963481	0.145934
524.180017	0.146771
524.396534	0.147097
524.613032	0.147069
524.829513	0.146597
525.045975	0.146672
525.262420	0.147339
525.478845	0.147800
525.695253	0.147712
525.911643	0.147236
526.128014	0.147469
526.344367	0.148017
526.560702	0.148697
526.777018	0.149226
526.993316	0.150280
527.209597	0.150690
527.425858	0.151503
527.642102	0.152799
527.858328	0.153420
528.074535	0.154040
528.290724	0.154011
528.506894	0.154186
528.723047	0.154956
528.939181	0.154869
529.155297	0.155055
529.371395	0.154654
529.587475	0.153882
529.803536	0.153990
530.019579	0.153618
530.235604	0.154028
530.451611	0.154620
530.667600	0.154024
530.883570	0.154395
531.099522	0.154119
531.315456	0.154290
531.531372	0.155214
531.747269	0.155835
531.963148	0.156658
532.179009	0.156779
532.394852	0.156719
532.610676	0.157969
532.826482	0.158368
533.042271	0.158869
533.258040	0.159763
533.473792	0.159257
533.689525	0.159751
533.905240	0.159648
534.120937	0.160341
534.336616	0.160661
534.552277	0.160518
534.767919	0.160340
534.983543	0.160467
535.199149	0.159832
535.414736	0.159891
535.630306	0.160150
535.845857	0.160547
536.061390	0.160414
536.276904	0.160886
536.492401	0.160978
536.707879	0.161250
536.923339	0.161861
537.138781	0.162251
537.354204	0.163268
537.569610	0.163239
537.784997	0.163732
538.000366	0.164452
538.215716	0.164274
538.431049	0.164624
538.646363	0.164863
538.861659	0.165968
539.076937	0.167055
539.292196	0.167160
539.507438	0.167941
539.722661	0.167890
539.937866	0.168518
540.153052	0.169477
540.368221	0.169616
540.583371	0.170234
540.798503	0.169623
541.013617	0.169313
541.228712	0.169956
541.443789	0.170222
541.658848	0.170570
541.873889	0.170405
542.088912	0.169850
542.303916	0.169753
542.518902	0.169999
542.733870	0.170153
542.948820	0.170431
543.163752	0.170788
543.378665	0.170855
543.593560	0.171204
543.808437	0.171811
544.023295	0.172404
544.238136	0.173766
544.452958	0.173663
544.667762	0.174157
544.882548	0.174538
545.097315	0.174559
545.312064	0.175117
545.526795	0.175474
545.741508	0.175426
545.956203	0.175832
546.170879	0.174971
546.385537	0.176060
546.600177	0.176258
546.814799	0.176490
547.029402	0.176572
547.243988	0.176048
547.458555	0.176140
547.673103	0.176473
547.887634	0.176831
548.102146	0.177607
548.316640	0.177448
548.531116	0.177588
548.745574	0.178045
548.960013	0.178592
549.174435	0.179495
549.388838	0.179966
549.603222	0.180524
549.817589	0.180513
550.031937	0.180595
550.246267	0.180082
550.460579	0.180664
550.674873	0.180616
550.889148	0.180646
551.103405	0.180865
551.317644	0.181075
551.531865	0.181227
551.746068	0.181859
551.960252	0.182285
552.174418	0.183046
552.388566	0.183186
552.602696	0.183468
552.816807	0.184439
553.030900	0.184587
553.244975	0.184892
553.459032	0.184475
553.673070	0.184363
553.887091	0.184682
554.101093	0.184836
554.315077	0.184900
554.529042	0.185106
554.742990	0.184557
554.956919	0.184606
555.170830	0.185173
555.384722	0.185834
555.598597	0.185722
555.812453	0.185693
556.026291	0.185905
556.240111	0.186161
556.453913	0.186317
556.667696	0.186560
556.881461	0.186975
557.095208	0.186740
557.308937	0.186721
557.522647	0.187360
557.736339	0.187820
557.950013	0.187955
558.163669	0.188007
558.377307	0.188185
558.590926	0.188446
558.804527	0.188564
559.018110	0.188800
559.231675	0.189087
559.445221	0.189439
559.658749	0.189375
559.872259	0.189143
560.085751	0.189380
560.299225	0.189810
560.512680	0.190112
560.726117	0.190226
560.939536	0.190377
561.152937	0.190781
561.366319	0.190882
561.579683	0.191287
561.793029	0.191640
562.006357	0.191520
562.219667	0.191686
562.432958	0.191591
562.646231	0.192004
562.859486	0.191809
563.072723	0.191714
563.285941	0.191605
563.499141	0.191905
563.712323	0.192427
563.925487	0.192541
564.138632	0.192419
564.351760	0.192757
564.564869	0.192808
564.777960	0.193252
564.991032	0.193232
565.204087	0.192865
565.417123	0.192834
565.630141	0.193003
565.843140	0.193700
566.056122	0.194051
566.269085	0.194257
566.482030	0.194076
566.694957	0.194285
566.907866	0.194683
567.120756	0.195502
567.333628	0.195375
567.546482	0.195642
567.759318	0.195769
567.972135	0.195918
568.184935	0.196033
568.397716	0.196552
568.610478	0.196691
568.823223	0.196854
569.035949	0.197111
569.248657	0.197716
569.461347	0.197664
569.674019	0.197769
569.886672	0.197701
570.099308	0.198272
570.311925	0.197958
570.524523	0.198078
570.737104	0.197844
570.949666	0.197391
571.162210	0.196926
571.374736	0.197098
571.587244	0.197233
571.799733	0.197049
572.012205	0.196900
572.224658	0.197511
572.437092	0.197447
572.649509	0.197828
572.861907	0.198399
573.074287	0.198862
573.286649	0.198486
573.498993	0.198574
573.711318	0.199237
573.923625	0.199357
574.135914	0.199537
574.348185	0.199888
574.560438	0.200098
574.772672	0.200269
574.984888	0.200502
575.197086	0.201115
575.409266	0.201119
575.621427	0.201636
575.833570	0.201834
576.045695	0.201847
576.257802	0.201667
576.469890	0.201531
576.681961	0.201587
576.894013	0.201723
577.106046	0.202220
577.318062	0.202545
577.530059	0.202290
577.742039	0.202216
577.954000	0.202828
578.165942	0.203129
578.377867	0.203454
578.589773	0.204055
578.801661	0.203935
579.013531	0.203459
579.225382	0.203557
579.437216	0.203757
579.649031	0.203644
579.860828	0.203783
580.072606	0.204039
580.284367	0.204277
580.496109	0.203747
580.707833	0.204126
580.919539	0.204593
581.131227	0.205038
581.342896	0.205086
581.554547	0.205776
581.766180	0.205440
581.977795	0.205693
582.189391	0.206156
582.400969	0.206340
582.612529	0.206421
582.824071	0.206469
583.035595	0.206259
583.247100	0.206736
583.458587	0.206701
583.670056	0.206951
583.881506	0.207170
584.092939	0.207115
584.304353	0.207645
584.515749	0.207560
584.727127	0.208320
584.938486	0.208722
585.149828	0.208731
585.361151	0.208911
585.572456	0.209060
585.783742	0.209310
585.995011	0.209278
586.206261	0.209455
586.417493	0.209976
586.628706	0.209427
586.839902	0.209597
587.051079	0.209348
587.262238	0.209340
587.473379	0.209234
587.684502	0.209167
587.895606	0.209345
588.106692	0.209433
588.317760	0.209437
588.528810	0.209741
588.739841	0.209965
588.950855	0.210433
589.161850	0.210998
589.372827	0.211426
589.583785	0.211536
589.794726	0.211394
590.005648	0.211447
590.216552	0.211691
590.427437	0.211641
590.638305	0.211596
590.849154	0.211516
591.059985	0.211294
591.270798	0.211273
591.481592	0.211522
591.692369	0.212185
591.903127	0.212159
592.113867	0.212243
592.324588	0.212517
592.535292	0.212473
592.745977	0.212533
592.956644	0.212652
593.167293	0.213018
593.377923	0.212977
593.588536	0.213023
593.799130	0.213175
594.009706	0.213083
594.220263	0.213135
594.430803	0.213126
594.641324	0.213401
594.851827	0.213327
595.062312	0.213063
595.272778	0.213316
595.483227	0.213344
595.693657	0.213415
595.904069	0.213804
596.114462	0.213977
596.324838	0.214471
596.535195	0.214837
596.745534	0.215097
596.955855	0.215547
597.166157	0.215937
597.376441	0.216331
597.586707	0.216726
597.796955	0.216732
598.007185	0.216629
598.217396	0.216845
598.427589	0.217025
598.637764	0.217375
598.847921	0.216999
599.058060	0.216580
599.268180	0.216587
599.478282	0.216909
599.688366	0.217086
599.898431	0.217642
600.108479	0.217498
600.318508	0.217646
600.528519	0.217693
600.738511	0.218288
600.948486	0.218888
601.158442	0.219153
601.368380	0.219072
601.578300	0.219347
601.788202	0.219507
601.998085	0.219569
602.207950	0.219597
602.417797	0.219463
602.627626	0.219480
602.837436	0.219264
603.047228	0.219375
603.257002	0.219681
603.466758	0.219456
603.676496	0.219296
603.886215	0.219515
604.095916	0.219801
604.305599	0.220437
604.515264	0.220641
604.724910	0.221031
604.934538	0.220987
605.144148	0.220950
605.353740	0.221497
605.563314	0.221896
605.772869	0.222516
605.982406	0.222523
606.191925	0.222446
606.401425	0.222638
606.610908	0.222644
606.820372	0.222702
607.029818	0.222781
607.239246	0.223001
607.448655	0.223175
607.658047	0.222860
607.867420	0.223036
608.076775	0.222971
608.286111	0.223246
608.495430	0.223499
608.704730	0.223861
608.914012	0.224263
609.123275	0.223983
609.332521	0.224049
609.541748	0.224198
609.750957	0.224066
609.960148	0.224438
610.169321	0.224127
610.378475	0.224124
610.587611	0.224131
610.796729	0.224052
611.005829	0.224261
611.214910	0.223911
611.423974	0.224078
611.633019	0.224236
611.842045	0.224238
612.051054	0.224273
612.260044	0.224346
612.469017	0.224642
612.677970	0.224731
612.886906	0.224648
613.095824	0.225221
613.304723	0.225630
613.513604	0.225851
613.722467	0.226051
613.931311	0.226305
614.140138	0.226471
614.348946	0.226315
614.557736	0.226162
614.766507	0.226308
614.975261	0.226273
615.183996	0.226199
615.392713	0.226125
615.601412	0.226018
615.810092	0.226504
616.018754	0.226793
616.227399	0.226968
616.436024	0.227404
616.644632	0.227662
616.853222	0.227919
617.061793	0.227720
617.270346	0.227910
617.478880	0.228080
617.687397	0.227941
617.895895	0.227989
618.104375	0.228198
618.312837	0.228175
618.521281	0.228178
618.729706	0.228562
618.938113	0.228963
619.146502	0.229066
619.354873	0.229280
619.563226	0.229591
619.771560	0.229597
619.979876	0.229550
620.188174	0.229781
620.396453	0.230161
620.604715	0.229807
620.812958	0.230129
621.021183	0.230286
621.229390	0.230705
621.437578	0.230821
621.645748	0.230933
621.853900	0.231077
622.062034	0.231373
622.270150	0.231617
622.478247	0.232071
622.686326	0.231911
622.894387	0.232077
623.102430	0.232056
623.310454	0.232283
623.518461	0.232455
623.726449	0.232481
623.934418	0.232647
624.142370	0.232542
624.350303	0.232639
624.558218	0.232688
624.766115	0.232875
624.973994	0.232991
625.181855	0.232624
625.389697	0.232753
625.597521	0.233209
625.805327	0.233085
626.013114	0.233379
626.220883	0.233393
626.428634	0.233515
626.636367	0.233599
626.844082	0.233802
627.051778	0.234256
627.259457	0.234640
627.467117	0.234735
627.674758	0.234641
627.882382	0.234553
628.089987	0.234870
628.297574	0.235466
628.505143	0.235672
628.712694	0.235739
628.920226	0.235894
629.127740	0.236039
629.335236	0.236123
629.542714	0.236786
629.750174	0.237183
629.957615	0.237026
630.165038	0.236790
630.372443	0.237272
630.579829	0.237456
630.787198	0.237895
630.994548	0.237939
631.201880	0.238270
631.409194	0.238308
631.616489	0.238508
631.823766	0.239013
632.031025	0.239604
632.238266	0.239305
632.445489	0.239299
632.652693	0.239188
632.859879	0.239370
633.067047	0.239266
633.274197	0.239400
633.481329	0.239545
633.688442	0.239423
633.895537	0.239174
634.102614	0.239319
634.309672	0.239332
634.516713	0.239628
634.723735	0.239509
634.930739	0.239963
635.137724	0.240167
635.344692	0.240264
635.551641	0.240376
635.758572	0.240443
635.965485	0.240825
636.172379	0.241144
636.379256	0.241054
636.586114	0.241289
636.792954	0.241490
636.999775	0.241827
637.206579	0.241906
637.413364	0.241902
637.620131	0.241827
637.826880	0.241745
638.033610	0.242058
638.240323	0.242226
638.447017	0.242478
638.653692	0.242285
638.860350	0.242302
639.066990	0.242472
639.273611	0.242839
639.480214	0.243264
639.686798	0.243517
639.893365	0.243715
640.099913	0.243873
640.306443	0.243986
640.512955	0.244416
640.719449	0.244344
640.925924	0.244440
641.132381	0.244526
641.338820	0.244620
641.545241	0.244768
641.751644	0.244968
641.958028	0.245077
642.164394	0.245170
642.370742	0.245211
642.577071	0.245522
642.783383	0.245620
642.989676	0.245799
643.195951	0.246022
643.402207	0.246149
643.608446	0.245902
643.814666	0.246196
644.020868	0.246261
644.227052	0.246366
644.433218	0.246402
644.639365	0.246643
644.845494	0.246756
645.051605	0.246755
645.257698	0.246872
645.463772	0.247289
645.669828	0.247202
645.875866	0.247396
646.081886	0.247621
646.287888	0.247598
646.493871	0.247776
646.699836	0.248098
646.905783	0.248138
647.111712	0.248318
647.317622	0.248318
647.523514	0.248584
647.729388	0.248774
647.935244	0.248910
648.141082	0.249293
648.346901	0.249416
648.552702	0.249657
648.758485	0.250198
648.964250	0.250258
649.169996	0.250301
649.375724	0.250544
649.581434	0.250595
649.787126	0.250664
649.992800	0.250789
650.198455	0.250951
650.404092	0.250852
650.609711	0.250740
650.815311	0.250960
651.020894	0.251101
651.226458	0.251265
651.432004	0.251848
651.637532	0.252344
651.843041	0.252478
652.048532	0.252603
652.254006	0.253186
652.459460	0.253742
652.664897	0.253967
652.870315	0.254425
653.075716	0.254721
653.281097	0.254834
653.486461	0.254847
653.691807	0.255197
653.897134	0.255512
654.102443	0.255612
654.307734	0.255716
654.513006	0.256008
654.718261	0.256049
654.923497	0.256088
655.128715	0.256254
655.333915	0.256240
655.539096	0.256139
655.744259	0.256052
655.949404	0.256059
656.154531	0.256323
656.359640	0.256283
656.564730	0.256650
656.769802	0.257062
656.974856	0.257139
657.179892	0.257463
657.384909	0.257632
657.589908	0.257996
657.794889	0.258130
657.999852	0.258117
658.204797	0.258544
658.409723	0.258653
658.614631	0.258788
658.819521	0.258956
659.024393	0.258932
659.229246	0.259338
659.434081	0.259565
659.638898	0.259924
659.843697	0.260163
660.048478	0.260215
660.253240	0.260101
660.457984	0.260010
660.662710	0.259911
660.867417	0.260423
661.072107	0.260484
661.276778	0.260526
661.481431	0.260614
661.686066	0.260493
661.890682	0.260818
662.095281	0.261215
662.299861	0.261309
662.504422	0.261756
662.708966	0.261785
662.913491	0.262096
663.117999	0.262551
663.322488	0.262842
663.526958	0.263429
663.731411	0.263549
663.935845	0.263811
664.140261	0.264171
664.344659	0.264563
664.549038	0.264684
664.753400	0.264698
664.957743	0.264507
665.162068	0.264682
665.366375	0.264691
665.570663	0.264987
665.774933	0.265015
665.979185	0.265276
666.183419	0.265490
666.387635	0.265825
666.591832	0.266002
666.796011	0.266384
667.000172	0.266755
667.204315	0.267213
667.408439	0.267419
667.612545	0.267852
667.816634	0.268017
668.020703	0.268115
668.224755	0.267884
668.428788	0.268214
668.632803	0.268468
668.836800	0.268292
669.040779	0.268355
669.244739	0.268402
669.448681	0.268396
669.652605	0.268684
669.856511	0.268746
670.060399	0.269136
670.264268	0.269197
670.468119	0.269364
670.671952	0.269582
670.875767	0.269747
671.079563	0.269967
671.283341	0.270314
671.487101	0.270548
671.690843	0.270688
671.894567	0.270961
672.098272	0.271320
672.301959	0.271404
672.505628	0.271552
672.709278	0.271922
672.912911	0.271973
673.116525	0.272422
673.320121	0.272178
673.523699	0.272622
673.727258	0.272783
673.930799	0.272850
674.134322	0.273141
674.337827	0.273681
674.541314	0.273716
674.744782	0.274069
674.948232	0.273874
675.151664	0.274366
675.355078	0.274123
675.558474	0.274446
675.761851	0.274512
675.965210	0.274532
676.168551	0.274341
676.371873	0.274457
676.575178	0.274605
676.778464	0.274810
676.981732	0.274827
677.184981	0.275186
677.388213	0.275133
677.591426	0.275455
677.794621	0.276016
677.997798	0.276172
678.200956	0.276477
678.404097	0.276507
678.607219	0.276842
678.810323	0.277145
679.013408	0.277506
679.216476	0.278194
679.419525	0.278564
679.622556	0.278659
679.825569	0.279134
680.028563	0.279234
680.231540	0.279720
680.434498	0.279798
680.637438	0.280114
680.840359	0.280278
681.043263	0.280210
681.246148	0.280412
681.449015	0.280651
681.651864	0.280911
681.854694	0.281079
682.057506	0.281306
682.260301	0.281591
682.463076	0.281645
682.665834	0.281536
682.868573	0.281873
683.071295	0.281987
683.273998	0.282354
683.476682	0.282471
683.679349	0.282871
683.881997	0.282838
684.084627	0.282926
684.287239	0.283365
684.489833	0.283895
684.692408	0.283958
684.894965	0.284259
685.097504	0.284151
685.300025	0.283998
685.502527	0.283954
685.705012	0.284379
685.907478	0.284642
686.109925	0.284600
686.312355	0.284412
686.514766	0.284362
686.717159	0.284541
686.919534	0.284395
687.121891	0.285105
687.324230	0.285300
687.526550	0.285520
687.728852	0.285669
687.931136	0.285703
688.133401	0.285878
688.335649	0.286212
688.537878	0.286299
688.740089	0.286977
688.942281	0.287004
689.144456	0.287065
689.346612	0.287201
689.548750	0.287130
689.750870	0.287422
689.952971	0.287987
690.155055	0.288157
690.357120	0.288363
690.559167	0.288497
690.761195	0.288639
690.963206	0.288739
691.165198	0.288684
691.367172	0.289095
691.569128	0.289252
691.771065	0.289242
691.972984	0.289365
692.174885	0.289239
692.376768	0.289119
692.578633	0.289353
692.780479	0.289406
692.982308	0.289546
693.184118	0.289739
693.385909	0.289905
693.587683	0.289990
693.789438	0.290095
693.991175	0.290377
694.192894	0.290672
694.394595	0.290705
694.596277	0.291115
694.797941	0.291100
694.999587	0.291072
695.201215	0.291234
695.402824	0.291423
695.604416	0.291892
695.805989	0.292117
696.007543	0.291984
696.209080	0.292083
696.410598	0.292452
696.612099	0.292869
696.813580	0.293162
697.015044	0.293336
697.216490	0.293667
697.417917	0.293520
697.619326	0.293397
697.820717	0.293612
698.022089	0.293648
698.223444	0.293346
698.424780	0.293449
698.626098	0.293525
698.827397	0.293443
699.028679	0.293048
699.229942	0.293207
699.431187	0.293527
699.632414	0.293750
699.833622	0.293659
700.034813	0.294077
700.235985	0.293962
700.437139	0.293872
700.638274	0.293822
700.839392	0.294316
701.040491	0.294326
701.241572	0.294667
701.442635	0.294841
701.643679	0.295280
701.844706	0.295636
702.045714	0.295888
702.246704	0.296005
702.447675	0.296611
702.648629	0.296694
702.849564	0.296887
703.050481	0.296609
703.251380	0.296559
703.452260	0.296629
703.653122	0.296445
703.853966	0.296492
704.054792	0.296603
704.255600	0.296440
704.456389	0.296297
704.657160	0.296254
704.857913	0.296244
705.058648	0.296509
705.259365	0.296647
705.460063	0.296572
705.660743	0.296538
705.861405	0.296670
706.062048	0.296387
706.262674	0.296407
706.463281	0.296468
706.663870	0.296482
706.864441	0.296125
707.064993	0.295927
707.265527	0.296029
707.466043	0.296054
707.666541	0.296016
707.867021	0.296592
708.067482	0.296788
708.267925	0.296608
708.468350	0.296998
708.668757	0.297305
708.869145	0.297563
709.069516	0.297574
709.269868	0.297695
709.470201	0.297724
709.670517	0.297757
709.870814	0.298086
710.071093	0.298420
710.271354	0.298341
710.471597	0.298464
710.671821	0.298411
710.872028	0.298369
711.072216	0.298568
711.272385	0.298593
711.472537	0.298153
711.672670	0.297973
711.872785	0.298012
712.072882	0.297790
712.272961	0.297609
712.473021	0.297685
712.673063	0.297930
712.873087	0.297821
713.073093	0.297825
713.273081	0.298173
713.473050	0.298167
713.673001	0.297673
713.872934	0.297822
714.072849	0.297957
714.272745	0.297978
714.472623	0.297677
714.672483	0.297593
714.872325	0.297339
715.072148	0.297250
715.271954	0.296971
715.471741	0.297083
715.671509	0.297031
715.871260	0.296744
716.070992	0.296507
716.270707	0.296108
716.470403	0.295926
716.670080	0.296244
716.869740	0.295903
717.069381	0.296094
717.269004	0.296058
717.468609	0.295780
717.668195	0.295798
717.867764	0.295591
718.067314	0.295958
718.266846	0.295897
718.466360	0.295940
718.665855	0.295980
718.865332	0.295713
719.064791	0.295641
719.264232	0.295821
719.463655	0.295815
719.663059	0.295814
719.862445	0.295757
720.061813	0.295721
720.261163	0.295572
720.460494	0.295526
720.659807	0.295441
720.859102	0.295544
721.058379	0.295526
721.257638	0.295294
721.456878	0.295379
721.656100	0.295177
721.855304	0.295187
722.054490	0.294894
722.253657	0.294851
722.452806	0.294813
722.651937	0.294847
722.851050	0.294826
723.050145	0.294840
723.249221	0.294495
723.448279	0.294428
723.647319	0.294328
723.846340	0.294268
724.045344	0.294279
724.244329	0.293987
724.443296	0.293930
724.642245	0.293743
724.841175	0.293641
725.040088	0.293465
725.238982	0.293325
725.437857	0.293281
725.636715	0.293167
725.835554	0.293094
726.034376	0.293004
726.233179	0.292637
726.431963	0.292448
726.630730	0.292401
726.829478	0.292517
727.028208	0.292485
727.226920	0.292141
727.425614	0.292004
727.624289	0.291774
727.822946	0.291879
728.021585	0.291739
728.220206	0.291474
728.418808	0.291383
728.617392	0.291322
728.815958	0.291026
729.014506	0.291014
729.213036	0.290813
729.411547	0.290670
729.610040	0.290545
729.808515	0.290692
730.006972	0.290934
730.205410	0.290511
730.403831	0.290031
730.602233	0.289913
730.800616	0.289692
730.998982	0.289817
731.197329	0.289349
731.395658	0.289090
731.593969	0.288862
731.792262	0.288636
731.990536	0.288637
732.188793	0.288648
732.387031	0.288642
732.585250	0.288647
732.783452	0.288445
732.981635	0.288741
733.179800	0.288590
733.377947	0.288295
733.576076	0.287861
733.774186	0.287869
733.972278	0.287540
734.170352	0.286967
734.368408	0.286591
734.566446	0.286166
734.764465	0.286078
734.962466	0.285977
735.160449	0.285698
735.358413	0.285693
735.556360	0.285412
735.754288	0.285561
735.952198	0.285545
736.150090	0.285545
736.347963	0.285375
736.545818	0.284934
736.743655	0.284687
736.941474	0.284567
737.139275	0.284516
737.337057	0.284159
737.534821	0.284028
737.732567	0.284073
737.930295	0.283916
738.128005	0.283974
738.325696	0.283739
738.523369	0.283518
738.721024	0.283333
738.918660	0.282949
739.116279	0.283078
739.313879	0.283064
739.511461	0.283019
739.709024	0.282817
739.906570	0.282698
740.104097	0.282708
740.301606	0.282625
740.499097	0.282626
740.696569	0.282389
740.894024	0.282392
741.091460	0.281772
741.288878	0.281342
741.486277	0.281023
741.683659	0.280823
741.881022	0.280367
742.078367	0.280074
742.275694	0.279791
742.473002	0.279781
742.670293	0.279222
742.867565	0.279175
743.064819	0.279142
743.262054	0.278993
743.459272	0.278591
743.656471	0.278552
743.853652	0.278650
744.050815	0.278478
744.247959	0.278235
744.445085	0.277896
744.642194	0.277521
744.839283	0.277331
745.036355	0.277139
745.233408	0.276963
745.430444	0.276554
745.627461	0.276008
745.824459	0.275787
746.021440	0.275449
746.218402	0.275501
746.415346	0.275506
746.612272	0.275056
746.809180	0.274964
747.006069	0.274760
747.202940	0.274899
747.399793	0.274764
747.596628	0.274534
747.793444	0.274200
747.990243	0.273911
748.187023	0.273463
748.383784	0.273525
748.580528	0.273289
748.777253	0.273199
748.973960	0.272795
749.170649	0.272739
749.367320	0.272480
749.563973	0.272417
749.760607	0.272298
749.957223	0.272365
750.153821	0.272107
750.350400	0.271903
750.546962	0.271730
750.743505	0.271594
750.940030	0.271144
751.136536	0.270892
751.333025	0.270660
751.529495	0.270605
751.725947	0.270168
751.922381	0.270064
752.118796	0.269966
752.315194	0.269907
752.511573	0.269819
752.707934	0.269761
752.904276	0.269658
753.100601	0.269601
753.296907	0.269101
753.493195	0.269132
753.689465	0.268917
753.885716	0.268671
754.081949	0.268334
754.278164	0.268152
754.474361	0.268043
754.670540	0.267953
754.866700	0.267944
755.062843	0.267927
755.258967	0.267968
755.455072	0.267740
755.651160	0.267421
755.847229	0.267203
756.043280	0.267290
756.239313	0.266995
756.435328	0.266989
756.631324	0.266971
756.827302	0.267100
757.023262	0.266755
757.219204	0.266754
757.415127	0.267024
757.611033	0.267014
757.806920	0.266535
758.002788	0.266521
758.198639	0.266319
758.394471	0.265940
758.590286	0.265618
758.786081	0.265513
758.981859	0.265099
759.177619	0.264562
759.373360	0.264345
759.569083	0.264073
759.764788	0.263694
759.960474	0.263471
760.156143	0.263295
760.351793	0.262982
760.547425	0.262804
760.743038	0.262800
760.938634	0.262619
761.134211	0.262167
761.329770	0.262014
761.525311	0.262181
761.720833	0.262141
761.916338	0.261997
762.111824	0.261800
762.307292	0.261516
762.502741	0.261394
762.698173	0.261226
762.893586	0.261327
763.088981	0.261324
763.284358	0.261117
763.479716	0.260875
763.675057	0.260732
763.870379	0.260694
764.065683	0.260723
764.260968	0.260604
764.456236	0.260633
764.651485	0.260115
764.846716	0.260313
765.041929	0.260214
765.237123	0.259927
765.432299	0.259780
765.627457	0.259541
765.822597	0.259050
766.017719	0.258828
766.212822	0.258593
766.407907	0.258674
766.602974	0.258319
766.798023	0.258262
766.993054	0.258233
767.188066	0.257726
767.383060	0.257742
767.578036	0.257813
767.772993	0.257842
767.967933	0.257843
768.162854	0.257898
768.357757	0.257901
768.552642	0.257727
768.747508	0.257675
768.942356	0.258014
769.137186	0.257743
769.331998	0.257719
769.526792	0.257581
769.721567	0.257532
769.916324	0.257241
770.111063	0.256936
770.305784	0.256673
770.500486	0.256263
770.695171	0.256074
770.889837	0.256216
771.084484	0.256062
771.279114	0.255918
771.473725	0.255357
771.668318	0.255230
771.862893	0.255005
772.057450	0.254970
772.251988	0.255091
772.446509	0.254905
772.641011	0.254685
772.835494	0.254527
773.029960	0.254386
773.224407	0.254640
773.418836	0.255020
773.613247	0.254833
773.807640	0.254914
774.002014	0.254998
774.196370	0.254985
774.390708	0.255078
774.585028	0.255078
774.779330	0.255174
774.973613	0.255247
775.167878	0.254839
775.362125	0.255073
775.556354	0.254915
775.750564	0.254732
775.944756	0.254684
776.138930	0.254512
776.333086	0.254387
776.527223	0.254163
776.721343	0.253938
776.915444	0.253772
777.109526	0.253442
777.303591	0.253374
777.497637	0.253431
777.691666	0.253579
777.885676	0.253376
778.079667	0.253284
778.273641	0.253044
778.467596	0.252896
778.661533	0.253147
778.855452	0.253271
779.049352	0.253424
779.243235	0.253559
779.437099	0.253408
779.630945	0.253460
779.824773	0.253595
780.018582	0.253978
780.212373	0.254062
780.406146	0.254091
780.599901	0.254180
780.793638	0.254290
780.987356	0.254065
781.181056	0.253973
781.374738	0.254298
781.568402	0.254636
781.762047	0.254376
781.955674	0.254498
782.149283	0.254357
782.342874	0.254373
782.536447	0.254249
782.730001	0.254114
782.923537	0.254312
783.117055	0.253944
783.310555	0.253436
783.504036	0.253559
783.697499	0.253533
783.890944	0.253773
784.084371	0.253715
784.277780	0.253743
784.471170	0.253870
784.664542	0.253831
784.857896	0.254131
785.051231	0.254510
785.244549	0.254693
785.437848	0.254823
785.631129	0.254628
785.824392	0.254873
786.017636	0.254892
786.210863	0.254827
786.404071	0.254982
786.597260	0.255134
786.790432	0.255093
786.983585	0.255088
787.176721	0.254928
787.369838	0.255122
787.562936	0.254924
787.756017	0.255046
787.949079	0.255266
788.142123	0.255340
788.335149	0.254998
788.528156	0.254847
788.721146	0.254801
788.914117	0.255009
789.107070	0.255129
789.300005	0.255319
789.492921	0.255310
789.685819	0.255235
789.878699	0.255021
790.071561	0.255226
790.264405	0.255233
790.457230	0.255282
790.650037	0.255287
790.842826	0.255380
791.035597	0.255602
791.228349	0.255536
791.421084	0.255588
791.613800	0.255495
791.806497	0.255574
791.999177	0.255416
792.191838	0.255578
792.384481	0.255801
792.577106	0.256012
792.769713	0.255988
792.962301	0.256285
793.154871	0.256411
793.347423	0.256654
793.539957	0.256892
793.732473	0.257594
793.924970	0.257695
794.117449	0.257926
794.309910	0.257735
794.502353	0.257877
794.694777	0.257829
794.887183	0.258046
795.079571	0.258315
795.271941	0.258391
795.464293	0.258596
795.656626	0.258764
795.848941	0.258723
796.041238	0.259091
796.233516	0.259122
796.425777	0.259338
796.618019	0.259660
796.810243	0.260108
797.002449	0.260350
797.194636	0.260488
797.386805	0.260649
797.578956	0.260925
797.771089	0.260882
797.963204	0.261002
798.155300	0.261187
798.347378	0.261125
798.539438	0.260956
798.731480	0.260950
798.923503	0.260956
799.115509	0.260916
799.307496	0.260980
799.499465	0.261388
799.691415	0.261706
799.883348	0.261864
800.075262	0.262214
800.267158	0.262513
800.459035	0.262944
800.650895	0.263160
800.842736	0.263477
801.034559	0.263802
801.226364	0.263901
801.418150	0.264385
801.609919	0.264605
801.801669	0.264901
801.993401	0.265004
802.185114	0.265051
802.376810	0.265263
802.568487	0.265623
802.760146	0.265735
802.951787	0.265791
803.143409	0.265713
803.335014	0.265987
803.526600	0.265927
803.718168	0.266339
803.909717	0.266396
804.101249	0.266868
804.292762	0.266902
804.484257	0.267188
804.675734	0.267574
804.867192	0.267599
805.058632	0.267674
805.250054	0.268073
805.441458	0.267974
805.632844	0.268404
805.824211	0.268404
806.015561	0.268839
806.206891	0.269221
806.398204	0.269599
806.589499	0.270139
806.780775	0.270876
806.972033	0.270866
807.163273	0.271325
807.354495	0.271625
807.545698	0.271938
807.736883	0.272228
807.928050	0.272639
808.119199	0.272742
808.310329	0.272784
808.501441	0.272522
808.692535	0.272929
808.883611	0.273282
809.074669	0.273704
809.265708	0.274178
809.456729	0.274496
809.647732	0.274667
809.838717	0.274866
810.029683	0.275190
810.220632	0.275428
810.411562	0.276009
810.602474	0.275966
810.793367	0.275977
810.984242	0.276219
811.175100	0.276305
811.365938	0.276215
811.556759	0.276601
811.747562	0.276986
811.938346	0.277343
812.129112	0.277377
812.319860	0.277966
812.510589	0.278070
812.701300	0.278221
812.891994	0.278382
813.082668	0.278661
813.273325	0.278777
813.463964	0.279071
813.654584	0.279317
813.845186	0.279820
814.035769	0.280015
814.226335	0.280610
814.416882	0.280977
814.607411	0.281343
814.797922	0.281760
814.988415	0.282379
815.178889	0.282874
815.369345	0.283431
815.559783	0.283621
815.750203	0.284016
815.940605	0.284366
816.130988	0.284743
816.321353	0.285480
816.511700	0.285868
816.702028	0.286133
816.892339	0.286394
817.082631	0.286777
817.272905	0.287098
817.463161	0.287539
817.653398	0.287813
817.843617	0.288010
818.033819	0.288233
818.224001	0.288716
818.414166	0.289109
818.604312	0.289161
818.794440	0.289360
818.984550	0.289645
819.174642	0.289996
819.364716	0.290478
819.554771	0.290810
819.744808	0.290857
819.934827	0.291054
820.124827	0.291175
820.314810	0.291609
820.504774	0.291903
820.694720	0.292488
820.884647	0.292951
821.074557	0.293127
821.264448	0.293411
821.454321	0.293746
821.644176	0.294002
821.834012	0.294495
822.023831	0.294652
822.213631	0.295017
822.403413	0.295160
822.593176	0.295249
822.782922	0.295406
822.972649	0.295599
823.162358	0.296107
823.352049	0.296543
823.541721	0.296796
823.731376	0.297640
823.921012	0.298113
824.110629	0.298422
824.300229	0.298385
824.489811	0.299202
824.679374	0.299509
824.868919	0.299649
825.058445	0.299877
825.247954	0.300214
825.437444	0.300518
825.626916	0.300783
825.816370	0.301453
826.005806	0.302349
826.195223	0.302709
826.384622	0.303451
826.574003	0.304030
826.763366	0.304630
826.952711	0.305037
827.142037	0.305104
827.331345	0.305310
827.520635	0.305325
827.709906	0.305594
827.899160	0.305679
828.088395	0.306288
828.277612	0.306804
828.466810	0.307198
828.655991	0.307548
828.845153	0.307921
829.034297	0.308624
829.223423	0.309178
829.412531	0.309821
829.601620	0.310438
829.790691	0.310750
829.979744	0.311267
830.168779	0.311655
830.357795	0.312165
830.546793	0.312785
830.735773	0.313159
830.924735	0.313477
831.113679	0.313540
831.302604	0.313746
831.491511	0.313988
831.680400	0.314245
831.869271	0.314742
832.058123	0.315417
832.246957	0.315659
832.435773	0.316010
832.624571	0.316496
832.813351	0.317179
833.002112	0.317770
833.190855	0.318235
833.379580	0.318607
833.568287	0.319102
833.756975	0.319249
833.945645	0.319985
834.134297	0.320188
834.322931	0.320775
834.511547	0.321216
834.700144	0.321715
834.888723	0.322341
835.077284	0.322936
835.265826	0.323469
835.454351	0.323991
835.642857	0.324498
835.831345	0.325233
836.019815	0.325380
836.208266	0.325791
836.396699	0.326207
836.585114	0.326537
836.773511	0.326833
836.961890	0.327278
837.150250	0.327875
837.338592	0.328636
837.526916	0.329169
837.715222	0.329860
837.903510	0.330192
838.091779	0.330589
838.280030	0.330833
838.468263	0.331307
838.656477	0.331597
838.844674	0.332224
839.032852	0.332109
839.221012	0.332649
839.409153	0.333347
839.597277	0.333952
839.785382	0.334184
839.973469	0.334655
840.161538	0.335305
840.349589	0.335761
840.537621	0.335529
840.725635	0.336313
840.913631	0.336878
841.101609	0.336906
841.289568	0.337322
841.477509	0.338331
841.665432	0.339140
841.853337	0.339434
842.041224	0.340180
842.229092	0.340632
842.416942	0.340788
842.604774	0.341186
842.792588	0.342040
842.980383	0.342464
843.168160	0.342604
843.355919	0.342945
843.543660	0.343785
843.731382	0.343825
843.919087	0.344723
844.106773	0.345010
844.294441	0.345362
844.482090	0.346044
844.669722	0.346568
844.857335	0.347287
845.044930	0.347581
845.232507	0.347880
845.420065	0.348506
845.607605	0.349180
845.795127	0.349935
845.982631	0.350422
846.170117	0.350706
846.357584	0.351108
846.545033	0.351746
846.732464	0.352528
846.919877	0.352601
847.107272	0.353159
847.294648	0.353656
847.482006	0.354336
847.669346	0.354895
847.856667	0.355357
848.043971	0.355962
848.231256	0.355883
848.418523	0.356114
848.605771	0.357085
848.793002	0.357728
848.980214	0.357957
849.167408	0.358167
849.354584	0.358746
849.541742	0.358988
849.728881	0.359306
849.916002	0.359852
850.103105	0.360353
850.290190	0.360330
850.477256	0.360412
850.664304	0.360876
850.851334	0.361439
851.038346	0.361837
851.225340	0.362071
851.412315	0.362196
851.599272	0.362896
851.786211	0.363471
851.973132	0.363937
852.160034	0.364499
852.346918	0.364559
852.533784	0.365096
852.720632	0.365126
852.907462	0.365590
853.094273	0.366368
853.281066	0.366702
853.467841	0.366522
853.654598	0.366753
853.841336	0.367477
854.028056	0.368395
854.214758	0.368761
854.401442	0.369523
854.588107	0.369966
854.774755	0.370293
854.961384	0.370807
855.147995	0.371753
855.334587	0.372980
855.521162	0.373114
855.707718	0.373151
855.894256	0.373368
856.080775	0.373718
856.267277	0.374119
856.453760	0.374597
856.640225	0.374704
856.826672	0.374956
857.013101	0.374873
857.199511	0.375214
857.385903	0.376201
857.572277	0.377004
857.758633	0.377119
857.944970	0.378043
858.131290	0.378844
858.317591	0.379506
858.503873	0.380274
858.690138	0.381039
858.876384	0.381693
859.062612	0.381822
859.248822	0.381809
859.435014	0.382428
859.621188	0.382289
859.807343	0.382207
859.993480	0.382736
860.179599	0.383061
860.365699	0.382903
860.551781	0.382913
860.737846	0.383088
860.923891	0.383747
861.109919	0.383983
861.295929	0.385008
861.481920	0.385459
861.667893	0.385672
861.853848	0.385405
862.039784	0.385464
862.225702	0.385826
862.411603	0.386525
862.597484	0.387030
862.783348	0.387658
862.969193	0.387591
863.155021	0.387968
863.340830	0.388441
863.526620	0.389462
863.712393	0.390683
863.898147	0.391284
864.083883	0.391589
864.269601	0.391719
864.455301	0.391684
864.640982	0.391861
864.826645	0.392119
865.012290	0.392522
865.197917	0.392926
865.383526	0.393132
865.569116	0.393596
865.754688	0.393676
865.940242	0.394260
866.125777	0.395022
866.311295	0.395780
866.496794	0.395849
866.682275	0.396113
866.867737	0.395822
867.053182	0.396164
867.238608	0.396611
867.424016	0.397224
867.609406	0.397466
867.794778	0.398129
867.980131	0.398577
868.165466	0.399605
868.350783	0.400382
868.536082	0.401318
868.721362	0.401714
868.906625	0.401600
869.091869	0.402073
869.277094	0.402425
869.462302	0.402573
869.647491	0.402578
869.832662	0.402428
870.017815	0.402123
870.202950	0.402067
870.388066	0.402468
870.573165	0.403115
870.758245	0.403270
870.943306	0.403671
871.128350	0.404033
871.313375	0.404656
871.498382	0.405316
871.683371	0.405379
871.868342	0.405995
872.053294	0.406036
872.238229	0.406279
872.423144	0.406791
872.608042	0.406835
872.792922	0.406458
872.977783	0.406649
873.162626	0.406326
873.347451	0.406935
873.532258	0.407135
873.717046	0.407604
873.901816	0.407756
874.086568	0.408017
874.271302	0.408619
874.456017	0.409548
874.640715	0.409350
874.825394	0.410029
875.010055	0.410516
875.194697	0.410889
875.379322	0.411141
875.563928	0.411348
875.748516	0.411448
875.933085	0.411365
876.117637	0.411771
876.302170	0.412289
876.486685	0.412814
876.671182	0.412762
876.855661	0.412783
877.040121	0.412681
877.224563	0.413142
877.408987	0.412751
877.593393	0.413088
877.777780	0.413365
877.962150	0.414234
878.146501	0.414658
878.330833	0.414866
878.515148	0.415208
878.699444	0.415586
878.883722	0.415533
879.067982	0.416331
879.252224	0.416463
879.436447	0.415929
879.620653	0.415433
879.804840	0.415224
879.989008	0.415831
880.173159	0.415536
880.357291	0.415715
880.541405	0.416458
880.725501	0.416551
880.909579	0.416628
881.093638	0.417369
881.277680	0.418046
881.461703	0.418152
881.645707	0.417993
881.829694	0.418206
882.013662	0.418339
882.197612	0.417920
882.381544	0.418083
882.565458	0.418537
882.749353	0.418224
882.933230	0.417860
883.117089	0.418214
883.300930	0.418029
883.484753	0.418293
883.668557	0.418569
883.852343	0.418893
884.036111	0.419114
884.219861	0.419492
884.403592	0.419626
884.587305	0.419668
884.771000	0.419308
884.954677	0.419583
885.138335	0.420157
885.321976	0.420361
885.505598	0.420520
885.689201	0.420912
885.872787	0.420881
886.056354	0.421157
886.239904	0.421501
886.423434	0.421890
886.606947	0.422212
886.790442	0.421953
886.973918	0.421820
887.157376	0.422292
887.340816	0.421483
887.524237	0.420750
887.707641	0.421207
887.891026	0.421442
888.074393	0.421894
888.257741	0.421255
888.441072	0.421355
888.624384	0.421356
888.807678	0.421071
888.990954	0.421269
889.174211	0.421583
889.357451	0.421216
889.540672	0.421201
889.723875	0.420838
889.907059	0.421126
890.090226	0.420847
890.273374	0.420980
890.456504	0.420889
890.639616	0.421233
890.822709	0.420936
891.005785	0.420504
891.188842	0.420235
891.371881	0.420085
891.554901	0.420003
891.737904	0.420209
891.920888	0.420110
892.103854	0.419755
892.286802	0.419333
892.469731	0.419499
892.652643	0.419922
892.835536	0.419356
893.018410	0.419241
893.201267	0.419298
893.384106	0.419256
893.566926	0.419067
893.749728	0.418808
893.932511	0.418664
894.115277	0.419404
894.298024	0.419150
894.480753	0.419209
894.663464	0.418793
894.846157	0.418663
895.028831	0.418526
895.211487	0.418095
895.394125	0.418759
895.576745	0.418843
895.759346	0.418564
895.941930	0.418283
896.124495	0.418519
896.307041	0.419370
896.489570	0.419188
896.672080	0.419392
896.854573	0.419469
897.037046	0.418744
897.219502	0.419195
897.401940	0.418669
897.584359	0.418846
897.766760	0.418418
897.949143	0.417395
898.131507	0.416777
898.313854	0.416346
898.496182	0.415911
898.678492	0.415655
898.860783	0.414913
899.043057	0.414650
899.225312	0.414170
899.407549	0.413819
899.589768	0.413680
899.771968	0.414007
899.954151	0.413651
900.136315	0.414043
900.318461	0.413614
900.500588	0.413045
900.682698	0.413031
900.864789	0.412976
901.046862	0.412998
901.228917	0.412945
901.410953	0.412560
901.592971	0.411755
901.774972	0.410698
901.956953	0.411332
902.138917	0.411227
902.320862	0.410391
902.502790	0.410399
902.684699	0.409978
902.866589	0.409753
903.048462	0.409777
903.230316	0.409476
903.412152	0.409510
903.593970	0.408173
903.775770	0.407826
903.957551	0.407567
904.139314	0.406626
904.321059	0.406666
904.502786	0.406001
904.684494	0.404853
904.866185	0.405170
905.047857	0.404964
905.229510	0.404269
905.411146	0.404022
905.592763	0.403795
905.774363	0.403731
905.955943	0.403236
906.137506	0.403868
906.319051	0.403814
906.500577	0.403023
906.682085	0.402584
906.863575	0.403020
907.045046	0.402959
907.226500	0.402782
907.407935	0.401977
907.589352	0.401424
907.770750	0.400324
907.952131	0.400302
908.133493	0.399563
908.314837	0.399618
908.496163	0.398858
908.677470	0.398603
908.858760	0.398066
909.040031	0.397762
909.221284	0.397129
909.402518	0.396447
909.583735	0.395715
909.764933	0.396036
909.946113	0.395809
910.127275	0.395757
910.308418	0.394712
910.489544	0.394326
910.670651	0.394047
910.851740	0.393792
911.032810	0.393126
911.213863	0.393023
911.394897	0.392162
911.575913	0.391304
911.756911	0.390548
911.937890	0.390373
912.118851	0.390580
912.299794	0.390082
912.480719	0.389605
912.661626	0.389504
912.842514	0.388415
913.023384	0.388298
913.204236	0.387405
913.385070	0.386706
913.565886	0.385997
913.746683	0.384346
913.927462	0.383313
914.108223	0.382071
914.288965	0.381641
914.469690	0.381086
914.650396	0.379866
914.831084	0.379404
915.011754	0.378954
915.192405	0.378622
915.373038	0.378534
915.553653	0.378038
915.734250	0.378070
915.914829	0.376853
916.095389	0.376889
916.275931	0.376612
916.456455	0.376392
916.636961	0.376022
916.817448	0.375255
916.997917	0.375001
917.178368	0.374258
917.358801	0.372861
917.539216	0.373421
917.719612	0.372411
917.899990	0.371938
918.080350	0.370889
918.260692	0.370012
918.441015	0.369166
918.621320	0.367786
918.801607	0.367461
918.981876	0.367563
919.162127	0.365614
919.342359	0.364899
919.522573	0.364475
919.702769	0.363511
919.882947	0.363148
920.063106	0.361992
920.243247	0.361816
920.423370	0.361081
920.603475	0.360080
920.783562	0.359976
920.963630	0.359184
921.143680	0.358197
921.323712	0.357976
921.503725	0.357062
921.683721	0.357487
921.863698	0.355874
922.043657	0.354089
922.223598	0.353354
922.403520	0.353020
922.583424	0.352719
922.763311	0.351499
922.943178	0.350472
923.123028	0.349492
923.302859	0.347713
923.482673	0.347132
923.662467	0.347688
923.842244	0.346874
924.022003	0.345751
924.201743	0.344614
924.381465	0.344114
924.561169	0.342765
924.740854	0.342179
924.920522	0.342131
925.100171	0.341791
925.279802	0.341185
925.459414	0.340975
925.639009	0.340451
925.818585	0.339408
925.998143	0.339111
926.177683	0.338458
926.357205	0.337020
926.536708	0.336060
926.716193	0.334722
926.895660	0.333140
927.075109	0.331710
927.254539	0.330486
927.433951	0.330371
927.613345	0.329093
927.792721	0.328633
927.972079	0.328020
928.151418	0.326692
928.330739	0.325490
928.510042	0.324712
928.689327	0.324073
928.868593	0.322374
929.047841	0.320393
929.227071	0.319041
929.406283	0.318059
929.585476	0.317270
929.764652	0.316968
929.943809	0.316759
930.122948	0.316422
930.302068	0.315213
930.481171	0.315615
930.660255	0.315156
930.839321	0.314230
931.018369	0.313773
931.197398	0.313203
931.376409	0.311450
931.555402	0.309900
931.734377	0.308548
931.913334	0.308989
932.092272	0.307176
932.271192	0.307282
932.450094	0.307229
932.628978	0.305907
932.807844	0.305389
932.986691	0.304593
933.165520	0.303693
933.344331	0.303283
933.523123	0.301783
933.701898	0.301000
933.880654	0.298119
934.059392	0.296706
934.238111	0.295569
934.416813	0.293624
934.595496	0.293211
934.774161	0.293070
934.952808	0.291461
935.131437	0.289870
935.310047	0.289670
935.488639	0.289976
935.667213	0.288424
935.845769	0.287821
936.024306	0.287934
936.202825	0.286348
936.381326	0.284862
936.559809	0.284142
936.738274	0.283396
936.916720	0.281747
937.095148	0.280927
937.273558	0.280070
937.451950	0.277514
937.630323	0.274468
937.808678	0.273942
937.987015	0.272824
938.165334	0.271689
938.343635	0.270298
938.521917	0.268316
938.700181	0.267110
938.878427	0.265814
939.056655	0.266563
939.234864	0.267393
939.413055	0.265777
939.591228	0.264046
939.769383	0.262650
939.947519	0.261461
940.125638	0.260850
940.303738	0.259977
940.481820	0.259696
940.659883	0.257195
940.837929	0.255833
941.015956	0.254989
941.193965	0.254342
941.371955	0.253318
941.549928	0.253205
941.727882	0.251649
941.905818	0.249570
942.083736	0.247931
942.261636	0.247721
942.439517	0.246823
942.617380	0.246707
942.795225	0.245894
942.973052	0.244497
943.150860	0.241540
943.328651	0.241478
943.506423	0.240227
943.684176	0.239344
943.861912	0.238907
944.039629	0.237680
944.217328	0.235565
944.395009	0.233603
944.572672	0.232855
944.750317	0.232862
944.927943	0.232618
945.105551	0.231650
945.283141	0.231132
945.460712	0.227837
945.638265	0.225810
945.815801	0.223302
945.993317	0.223085
946.170816	0.222096
946.348297	0.220245
946.525759	0.217570
946.703203	0.215942
946.880629	0.214572
947.058036	0.212656
947.235425	0.211235
947.412797	0.211572
947.590149	0.210555
947.767484	0.208701
947.944800	0.208390
948.122099	0.205933
948.299379	0.206024
948.476640	0.204456
948.653884	0.204538
948.831109	0.203945
949.008316	0.202604
949.185505	0.199745
949.362676	0.198901
949.539828	0.197744
949.716962	0.198906
949.894078	0.196920
950.071176	0.195469
950.248256	0.194651
950.425317	0.194457
950.602360	0.191088
950.779385	0.190663
950.956391	0.188267
951.133380	0.187052
951.310350	0.183157
951.487302	0.183699
951.664235	0.182384
951.841151	0.182874
952.018048	0.180609
952.194927	0.180906
952.371788	0.181193
952.548631	0.180291
952.725455	0.178287
952.902261	0.179313
953.079049	0.177094
953.255819	0.175971
953.432570	0.170880
953.609303	0.166802
953.786018	0.165253
953.962715	0.163255
954.139394	0.164244
954.316054	0.162566
954.492696	0.159142
954.669320	0.156463
954.845926	0.155116
955.022513	0.157146
955.199083	0.159118
955.375634	0.158326
955.552166	0.157350
955.728681	0.155932
955.905177	0.156724
956.081655	0.156706
956.258115	0.157153
956.434557	0.156221
956.610980	0.154668
956.787385	0.153656
956.963772	0.152325
957.140141	0.151736
957.316492	0.149427
957.492824	0.146362
957.669138	0.147752
957.845434	0.148035
958.021712	0.146827
958.197971	0.146425
958.374212	0.144841
958.550435	0.145726
958.726640	0.145661
958.902826	0.145652
959.078995	0.146157
959.255145	0.144468
959.431277	0.143649
959.607390	0.142386
959.783486	0.141875
959.959563	0.143913
960.135622	0.142672
960.311662	0.138211
960.487685	0.135681
960.663689	0.135114
960.839675	0.134635
961.015643	0.132126
961.191593	0.133180
961.367524	0.134953
961.543437	0.131446
961.719332	0.130849
961.895209	0.133589
962.071067	0.136706
962.246907	0.136337
962.422730	0.137394
962.598533	0.137774
962.774319	0.136598
962.950086	0.133333
963.125835	0.133020
963.301566	0.132130
963.477279	0.129788
963.652973	0.126182
963.828650	0.126764
964.004308	0.124553
964.179947	0.122233
964.355569	0.120583
964.531172	0.120680
964.706757	0.122782
964.882324	0.122387
965.057873	0.121488
965.233403	0.124379
965.408916	0.124364
965.584410	0.125796
965.759885	0.128073
965.935343	0.126890
966.110782	0.126994
966.286203	0.126246
966.461606	0.125214
966.636991	0.127147
966.812357	0.124575
966.987705	0.123827
967.163035	0.120970
967.338347	0.119110
967.513641	0.121063
967.688916	0.120162
967.864173	0.117910
968.039412	0.118770
968.214632	0.117077
968.389835	0.116206
968.565019	0.115894
968.740185	0.116739
968.915333	0.117364
969.090462	0.118407
969.265573	0.117391
969.440667	0.117956
969.615741	0.119735
969.790798	0.120272
969.965836	0.123646
970.140856	0.120472
970.315858	0.122143
970.490842	0.123604
970.665808	0.119822
970.840755	0.119003
971.015684	0.120672
971.190595	0.119309
971.365487	0.119057
971.540362	0.117970
971.715218	0.119422
971.890056	0.118138
972.064875	0.116846
972.239677	0.120542
972.414460	0.120693
972.589225	0.118675
972.763972	0.117976
972.938700	0.119360
973.113411	0.117134
973.288103	0.116364
973.462777	0.116001
973.637432	0.117764
973.812070	0.116756
973.986689	0.118813
974.161290	0.119013
974.335873	0.120401
974.510437	0.121124
974.684984	0.123721
974.859512	0.126001
975.034022	0.125105
975.208513	0.122378
975.382987	0.126052
975.557442	0.124629
975.731879	0.126340
975.906298	0.128220
976.080698	0.127715
976.255080	0.127423
976.429445	0.127461
976.603790	0.128825
976.778118	0.130930
976.952427	0.127532
977.126719	0.126247
977.300992	0.123716
977.475246	0.120537
977.649483	0.121303
977.823701	0.119872
977.997901	0.120551
978.172083	0.120847
978.346247	0.117359
978.520392	0.116788
978.694519	0.119232
978.868628	0.117666
979.042719	0.117567
979.216791	0.116307
979.390845	0.118443
979.564882	0.119289
979.738899	0.119518
979.912899	0.121875
980.086880	0.121601
980.260843	0.122149
980.434788	0.125183
980.608715	0.125511
980.782623	0.123959
980.956514	0.123009
981.130386	0.117370
981.304240	0.115786
981.478075	0.114580
981.651892	0.115717
981.825692	0.114206
981.999472	0.115655
982.173235	0.113265
982.346980	0.115798
982.520706	0.114233
982.694414	0.115487
982.868104	0.116605
983.041775	0.119714
983.215428	0.119026
983.389064	0.118540
983.562680	0.117055
983.736279	0.118816
983.909860	0.120067
984.083422	0.121262
984.256966	0.122562
984.430491	0.121450
984.603999	0.118932
984.777488	0.118017
984.950959	0.117701
985.124412	0.117680
985.297847	0.117954
985.471263	0.115984
985.644661	0.115837
985.818041	0.117362
985.991403	0.118444
986.164747	0.119752
986.338072	0.121220
986.511379	0.120857
986.684668	0.119711
986.857938	0.121456
987.031191	0.120803
987.204425	0.118189
987.377641	0.118003
987.550839	0.115810
987.724018	0.115780
987.897179	0.115468
988.070322	0.115847
988.243447	0.117512
988.416554	0.115636
988.589642	0.116823
988.762712	0.119747
988.935764	0.119517
989.108798	0.121006
989.281813	0.120792
989.454811	0.121841
989.627790	0.123395
989.800751	0.122959
989.973693	0.124581
990.146617	0.122311
990.319524	0.121456
990.492412	0.119625
990.665281	0.120488
990.838133	0.119437
991.010966	0.118619
991.183781	0.118557
991.356578	0.116737
991.529356	0.115596
991.702117	0.115135
991.874859	0.113332
992.047583	0.114958
992.220288	0.115392
992.392976	0.116098
992.565645	0.114835
992.738296	0.114419
992.910929	0.115072
993.083543	0.115034
993.256139	0.116205
993.428718	0.118169
993.601277	0.117840
993.773819	0.117050
993.946342	0.117093
994.118848	0.119403
994.291335	0.118292
994.463803	0.118451
994.636254	0.117069
994.808686	0.117857
994.981100	0.117268
995.153496	0.116869
995.325874	0.116576
995.498233	0.116708
995.670574	0.114475
995.842897	0.116325
996.015202	0.117811
996.187488	0.121506
996.359757	0.120835
996.532007	0.119567
996.704239	0.120295
996.876452	0.121731
997.048648	0.120157
997.220825	0.121985
997.392984	0.120603
997.565124	0.118353
997.737247	0.114874
997.909351	0.115060
998.081437	0.115922
998.253505	0.116023
998.425554	0.113573
998.597586	0.112641
998.769599	0.109854
998.941594	0.109518
999.113571	0.111479
999.285529	0.114785
999.457469	0.113278
999.629391	0.114394
999.801295	0.112494
999.973181	0.111719
1000.145048	0.111987
1000.316897	0.113805
1000.488728	0.115174
1000.660541	0.113136
1000.832335	0.110839
1001.004111	0.110598
1001.175869	0.107977
1001.347609	0.106906
1001.519331	0.105925
1001.691034	0.107167
1001.862719	0.106881
1002.034386	0.104265
1002.206035	0.105830
1002.377665	0.104670
1002.549277	0.106704
1002.720871	0.109759
1002.892447	0.110059
1003.064004	0.112243
1003.235544	0.111642
1003.407065	0.113248
1003.578568	0.114613
1003.750052	0.116748
1003.921519	0.118368
1004.092967	0.117733
1004.264397	0.116843
1004.435809	0.116626
1004.607202	0.117044
1004.778577	0.116227
1004.949934	0.114416
1005.121273	0.114347
1005.292594	0.110168
1005.463896	0.109960
1005.635180	0.109474
1005.806446	0.110154
1005.977694	0.112889
1006.148923	0.112002
1006.320135	0.111557
1006.491328	0.111745
1006.662503	0.111926
1006.833659	0.113015
1007.004798	0.111353
1007.175918	0.110904
1007.347020	0.111901
1007.518103	0.110937
1007.689169	0.110856
1007.860216	0.111133
1008.031245	0.109794
1008.202256	0.110466
1008.373248	0.111799
1008.544223	0.112215
1008.715179	0.113517
1008.886117	0.111088
1009.057036	0.110211
1009.227938	0.112292
1009.398821	0.113777
1009.569686	0.113049
1009.740533	0.111892
1009.911361	0.109699
1010.082172	0.110511
1010.252964	0.110494
1010.423738	0.108781
1010.594493	0.109570
1010.765231	0.106426
1010.935950	0.106965
1011.106651	0.107869
1011.277334	0.107289
1011.447998	0.109164
1011.618645	0.108390
1011.789273	0.107693
1011.959882	0.110088
1012.130474	0.110319
1012.301048	0.110990
1012.471603	0.112167
1012.642140	0.114719
1012.812658	0.115276
1012.983159	0.113517
1013.153641	0.117914
1013.324105	0.117524
1013.494551	0.116667
1013.664979	0.116247
1013.835388	0.116980
1014.005779	0.114644
1014.176152	0.112538
1014.346507	0.111791
1014.516843	0.112516
1014.687162	0.110105
1014.857462	0.110502
1015.027744	0.112023
1015.198007	0.114005
1015.368252	0.114150
1015.538480	0.113823
1015.708689	0.115156
1015.878879	0.116628
1016.049052	0.117679
1016.219206	0.117096
1016.389342	0.117057
1016.559460	0.113423
1016.729559	0.110149
1016.899641	0.110122
1017.069704	0.110684
1017.239749	0.108805
1017.409775	0.108665
1017.579784	0.106816
1017.749774	0.105110
1017.919746	0.104242
1018.089700	0.107370
1018.259635	0.107438
1018.429553	0.107590
1018.599452	0.106057
1018.769333	0.107201
1018.939195	0.108413
1019.109040	0.109244
1019.278866	0.111189
1019.448674	0.109512
1019.618464	0.109202
1019.788235	0.110416
1019.957989	0.110227
1020.127724	0.111454
1020.297441	0.110042
1020.467139	0.108609
1020.636820	0.107272
1020.806482	0.104655
1020.976126	0.108869
1021.145752	0.108673
1021.315359	0.109326
1021.484948	0.107505
1021.654519	0.108211
1021.824072	0.110924
1021.993607	0.110772
1022.163123	0.110761
1022.332621	0.112332
1022.502101	0.109267
1022.671563	0.109851
1022.841007	0.109277
1023.010432	0.111437
1023.179839	0.112190
1023.349228	0.109912
1023.518598	0.109315
1023.687951	0.108614
1023.857285	0.108722
1024.026601	0.110569
1024.195899	0.110027
1024.365178	0.108357
1024.534439	0.106939
1024.703682	0.106139
1024.872907	0.106058
1025.042114	0.106865
1025.211302	0.108004
1025.380472	0.107394
1025.549624	0.106944
1025.718758	0.106347
1025.887873	0.105955
1026.056970	0.105316
1026.226049	0.105552
1026.395110	0.105392
1026.564153	0.104189
1026.733177	0.104369
1026.902183	0.105175
1027.071171	0.106469
1027.240141	0.107165
1027.409092	0.108445
1027.578026	0.108889
1027.746940	0.111484
1027.915837	0.113287
1028.084716	0.113138
1028.253576	0.113277
1028.422418	0.113618
1028.591242	0.110829
1028.760048	0.110705
1028.928835	0.111061
1029.097604	0.110760
1029.266355	0.107273
1029.435088	0.105447
1029.603803	0.105390
1029.772499	0.104960
1029.941177	0.101939
1030.109837	0.102224
1030.278478	0.102433
1030.447102	0.102049
1030.615707	0.104301
1030.784294	0.105136
1030.952863	0.105441
1031.121413	0.108241
1031.289945	0.108241
1031.458460	0.109448
1031.626955	0.108658
1031.795433	0.106203
1031.963892	0.105932
1032.132334	0.104450
1032.300756	0.105412
1032.469161	0.104932
1032.637548	0.101737
1032.805916	0.103956
1032.974266	0.104695
1033.142598	0.106865
1033.310911	0.106382
1033.479207	0.106768
1033.647484	0.105319
1033.815743	0.104723
1033.983983	0.105094
1034.152206	0.106998
1034.320410	0.105387
1034.488596	0.103950
1034.656764	0.102627
1034.824914	0.104124
1034.993045	0.103982
1035.161158	0.104341
1035.329253	0.103797
1035.497330	0.104520
1035.665388	0.101668
1035.833428	0.101765
1036.001450	0.103646
1036.169454	0.104455
1036.337440	0.103513
1036.505407	0.105411
1036.673356	0.106547
1036.841287	0.104668
1037.009200	0.103632
1037.177094	0.105405
1037.344970	0.103852
1037.512828	0.103379
1037.680668	0.102358
1037.848489	0.103109
1038.016293	0.100850
1038.184078	0.100759
1038.351845	0.102441
1038.519593	0.103550
1038.687324	0.102697
1038.855036	0.103120
1039.022730	0.102588
1039.190406	0.103648
1039.358063	0.104142
1039.525702	0.102932
1039.693323	0.103857
1039.860926	0.101881
1040.028511	0.100562
1040.196077	0.101329
1040.363625	0.101683
1040.531155	0.101417
1040.698667	0.101395
1040.866161	0.100063
1041.033636	0.102186
1041.201093	0.100271
1041.368532	0.102119
1041.535952	0.102443
1041.703355	0.102967
1041.870739	0.103703
1042.038105	0.104611
1042.205452	0.105942
1042.372782	0.107190
1042.540093	0.106289
1042.707386	0.107816
1042.874661	0.107983
1043.041918	0.108093
1043.209156	0.108275
1043.376376	0.105955
1043.543578	0.103488
1043.710762	0.103000
1043.877927	0.104142
1044.045074	0.103184
1044.212203	0.102001
1044.379314	0.101861
1044.546407	0.100692
1044.713481	0.099516
1044.880537	0.101218
1045.047575	0.103212
1045.214595	0.102656
1045.381596	0.102828
1045.548579	0.103862
1045.715544	0.103826
1045.882491	0.104197
1046.049420	0.106153
1046.216330	0.106991
1046.383222	0.106895
1046.550096	0.109686
1046.716951	0.108123
1046.883789	0.106747
1047.050608	0.107196
1047.217409	0.106147
1047.384192	0.105414
1047.550956	0.103966
1047.717703	0.104361
1047.884431	0.106728
1048.051140	0.104703
1048.217832	0.106701
1048.384505	0.107576
1048.551161	0.108641
1048.717798	0.111716
1048.884416	0.111233
1049.051017	0.113697
1049.217599	0.112895
1049.384163	0.111437
1049.550709	0.110916
1049.717237	0.109681
1049.883746	0.108580
1050.050237	0.106568
1050.216710	0.106814
1050.383165	0.106851
1050.549601	0.103568
1050.716019	0.104089
1050.882420	0.103785
1051.048801	0.103730
1051.215165	0.103292
1051.381510	0.103136
1051.547837	0.103996
1051.714146	0.101769
1051.880437	0.101292
1052.046709	0.103611
1052.212964	0.102984
1052.379200	0.101576
1052.545417	0.100044
1052.711617	0.102197
1052.877798	0.104061
1053.043961	0.104660
1053.210106	0.105074
1053.376233	0.106867
1053.542341	0.106953
1053.708432	0.106621
1053.874504	0.106450
1054.040557	0.107983
1054.206593	0.105760
1054.372610	0.104624
1054.538609	0.104657
1054.704590	0.107761
1054.870553	0.106346
1055.036497	0.104906
1055.202424	0.108114
1055.368331	0.110428
1055.534221	0.109992
1055.700093	0.109631
1055.865946	0.109656
1056.031781	0.108355
1056.197598	0.107835
1056.363397	0.107902
1056.529177	0.110039
1056.694939	0.109369
1056.860683	0.108548
1057.026409	0.107665
1057.192116	0.108840
1057.357806	0.108316
1057.523477	0.108579
1057.689130	0.108732
1057.854764	0.109679
1058.020381	0.106646
1058.185979	0.106923
1058.351559	0.106405
1058.517120	0.106138
1058.682664	0.106922
1058.848189	0.107986
1059.013696	0.108190
1059.179185	0.104917
1059.344656	0.104757
1059.510108	0.108402
1059.675542	0.107415
1059.840958	0.108812
1060.006356	0.111726
1060.171735	0.112521
1060.337096	0.112664
1060.502439	0.113481
1060.667764	0.115434
1060.833071	0.115932
1060.998359	0.112994
1061.163629	0.114271
1061.328881	0.113296
1061.494115	0.114582
1061.659330	0.114468
1061.824527	0.112854
1061.989706	0.114000
1062.154867	0.115252
1062.320010	0.113865
1062.485134	0.115127
1062.650240	0.113254
1062.815328	0.113857
1062.980398	0.112751
1063.145449	0.112762
1063.310482	0.116300
1063.475497	0.114188
1063.640494	0.114587
1063.805473	0.115385
1063.970433	0.115147
1064.135375	0.114904
1064.300299	0.114256
1064.465204	0.112659
1064.630092	0.112124
1064.794961	0.112406
1064.959812	0.111880
1065.124645	0.109229
1065.289459	0.109275
1065.454256	0.108983
1065.619034	0.110329
1065.783793	0.111630
1065.948535	0.113772
1066.113258	0.115208
1066.277964	0.110857
1066.442651	0.111142
1066.607319	0.111533
1066.771970	0.110021
1066.936602	0.111513
1067.101216	0.109962
1067.265812	0.108446
1067.430389	0.107264
1067.594949	0.105233
1067.759490	0.107577
1067.924013	0.108527
1068.088518	0.107803
1068.253004	0.109558
1068.417472	0.108849
1068.581922	0.110252
1068.746354	0.110659
1068.910768	0.111245
1069.075163	0.111337
1069.239540	0.110520
1069.403899	0.110759
1069.568240	0.111230
1069.732562	0.111791
1069.896866	0.110972
1070.061152	0.111042
1070.225420	0.110261
1070.389670	0.111706
1070.553901	0.110663
1070.718114	0.110582
1070.882309	0.111604
1071.046486	0.113123
1071.210644	0.112679
1071.374784	0.115010
1071.538906	0.115625
1071.703010	0.115983
1071.867096	0.116193
1072.031163	0.116553
1072.195212	0.118907
1072.359243	0.119089
1072.523256	0.118131
1072.687250	0.117320
1072.851226	0.117652
1073.015184	0.113791
1073.179124	0.116321
1073.343045	0.115711
1073.506949	0.117980
1073.670834	0.116376
1073.834701	0.114066
1073.998549	0.113648
1074.162380	0.115259
1074.326192	0.112695
1074.489986	0.116344
1074.653761	0.114526
1074.817519	0.112632
1074.981258	0.112112
1075.144979	0.112234
1075.308682	0.113806
1075.472367	0.115393
1075.636033	0.115167
1075.799681	0.117478
1075.963311	0.116398
1076.126923	0.115356
1076.290516	0.116033
1076.454092	0.116615
1076.617649	0.118554
1076.781187	0.119008
1076.944708	0.118186
1077.108210	0.121558
1077.271695	0.120578
1077.435160	0.120119
1077.598608	0.121346
1077.762038	0.123152
1077.925449	0.119522
1078.088842	0.119353
1078.252217	0.119514
1078.415573	0.121890
1078.578912	0.119999
1078.742232	0.122271
1078.905534	0.124744
1079.068817	0.126001
1079.232083	0.125525
1079.395330	0.128277
1079.558559	0.127126
1079.721770	0.127889
1079.884962	0.126615
1080.048136	0.126135
1080.211293	0.126301
1080.374430	0.123100
1080.537550	0.125662
1080.700651	0.121496
1080.863735	0.121548
1081.026800	0.121554
1081.189846	0.121079
1081.352875	0.120856
1081.515885	0.120642
1081.678877	0.117623
1081.841851	0.119997
1082.004807	0.116497
1082.167744	0.121017
1082.330663	0.120169
1082.493564	0.118876
1082.656447	0.116719
1082.819312	0.116220
1082.982158	0.117116
1083.144986	0.119681
1083.307796	0.121885
1083.470587	0.121334
1083.633361	0.121421
1083.796116	0.123424
1083.958853	0.125746
1084.121571	0.129985
1084.284272	0.131448
1084.446954	0.131079
1084.609618	0.131379
1084.772264	0.129345
1084.934892	0.132911
1085.097501	0.132463
1085.260092	0.133099
1085.422665	0.133101
1085.585220	0.134486
1085.747756	0.132505
1085.910274	0.130234
1086.072774	0.130488
1086.235256	0.131040
1086.397720	0.130591
1086.560165	0.129236
1086.722592	0.130881
1086.885001	0.130884
1087.047392	0.129339
1087.209764	0.129637
1087.372119	0.130947
1087.534455	0.131122
1087.696772	0.129892
1087.859072	0.131473
1088.021353	0.133504
1088.183616	0.135333
1088.345861	0.135709
1088.508088	0.133944
1088.670296	0.137186
1088.832486	0.139180
1088.994658	0.136957
1089.156812	0.136348
1089.318948	0.134894
1089.481065	0.134588
1089.643164	0.130877
1089.805245	0.130654
1089.967308	0.128199
1090.129352	0.124842
1090.291378	0.124910
1090.453386	0.127638
1090.615376	0.131488
1090.777347	0.130715
1090.939301	0.126365
1091.101236	0.127100
1091.263153	0.127133
1091.425051	0.132621
1091.586932	0.133773
1091.748794	0.133064
1091.910638	0.132215
1092.072463	0.130034
1092.234271	0.129647
1092.396060	0.131961
1092.557831	0.131616
1092.719584	0.131277
1092.881319	0.130857
1093.043035	0.131368
1093.204733	0.131593
1093.366413	0.131242
1093.528075	0.132125
1093.689718	0.131706
1093.851343	0.132900
1094.012950	0.134563
1094.174539	0.133957
1094.336110	0.132078
1094.497662	0.133772
1094.659196	0.132482
1094.820712	0.136136
1094.982210	0.135156
1095.143689	0.139481
1095.305151	0.143031
1095.466594	0.143034
1095.628018	0.143046
1095.789425	0.143868
1095.950813	0.143438
1096.112183	0.146581
1096.273535	0.145257
1096.434869	0.145561
1096.596184	0.144541
1096.757482	0.141023
1096.918761	0.139677
1097.080021	0.139544
1097.241264	0.141336
1097.402488	0.141910
1097.563694	0.139396
1097.724882	0.137787
1097.886052	0.140472
1098.047203	0.140328
1098.208336	0.141527
1098.369451	0.143817
1098.530548	0.146628
1098.691627	0.143784
1098.852687	0.143795
1099.013729	0.148817
1099.174753	0.148782
1099.335758	0.147083
1099.496746	0.146984
1099.657715	0.144997
1099.818666	0.140750
1099.979599	0.141221
1100.140513	0.144785
1100.301409	0.142376
1100.462287	0.138774
1100.623147	0.136161
1100.783989	0.134130
1100.944812	0.135904
1101.105617	0.140211
1101.266404	0.141487
1101.427173	0.141722
1101.587923	0.141369
1101.748656	0.140657
1101.909370	0.146352
1102.070066	0.148074
1102.230743	0.151596
1102.391403	0.152036
1102.552044	0.151399
1102.712667	0.151306
1102.873271	0.151927
1103.033858	0.150180
1103.194426	0.152582
1103.354976	0.147123
1103.515508	0.144027
1103.676021	0.143306
1103.836517	0.142749
1103.996994	0.142536
1104.157453	0.151726
1104.317893	0.151139
1104.478316	0.151662
1104.638720	0.150547
1104.799106	0.148039
1104.959474	0.153193
1105.119823	0.151557
1105.280155	0.144954
1105.440468	0.146711
1105.600763	0.141651
1105.761039	0.140510
1105.921298	0.144776
1106.081538	0.146564
1106.241760	0.146084
1106.401964	0.144968
1106.562149	0.150252
1106.722316	0.154153
1106.882465	0.153741
1107.042596	0.154165
1107.202709	0.157782
1107.362803	0.154745
1107.522879	0.153035
1107.682937	0.155041
1107.842977	0.152529
1108.002999	0.150605
1108.163002	0.150015
1108.322987	0.150734
1108.482954	0.146853
1108.642902	0.143450
1108.802833	0.140151
1108.962745	0.146632
1109.122639	0.149033
1109.282515	0.151664
1109.442372	0.147231
1109.602211	0.149253
1109.762032	0.145930
1109.921835	0.146868
1110.081620	0.145634
1110.241386	0.147487
1110.401134	0.145312
1110.560864	0.143338
1110.720576	0.145397
1110.880269	0.147672
1111.039945	0.147411
1111.199602	0.149818
1111.359240	0.148702
1111.518861	0.149250
1111.678463	0.153672
1111.838047	0.150464
1111.997613	0.151188
1112.157161	0.150981
1112.316690	0.150820
1112.476202	0.150339
1112.635695	0.152657
1112.795169	0.161219
1112.954626	0.162566
1113.114064	0.162207
1113.273484	0.164465
1113.432886	0.166422
1113.592270	0.169074
1113.751635	0.169121
1113.910983	0.168027
1114.070312	0.167838
1114.229622	0.161531
1114.388915	0.161801
1114.548189	0.160070
1114.707445	0.158808
1114.866683	0.154146
1115.025903	0.150898
1115.185104	0.156001
1115.344287	0.157066
1115.503452	0.153435
1115.662599	0.155191
1115.821727	0.153695
1115.980838	0.154545
1116.139930	0.150384
1116.299004	0.153215
1116.458059	0.152125
1116.617097	0.149248
1116.776116	0.152841
1116.935117	0.152312
1117.094099	0.152419
1117.253064	0.153096
1117.412010	0.149112
1117.570938	0.154065
1117.729848	0.153547
1117.888740	0.151400
1118.047613	0.150379
1118.206468	0.143945
1118.365305	0.145829
1118.524124	0.145361
1118.682924	0.143034
1118.841707	0.139366
1119.000471	0.140082
1119.159216	0.141087
1119.317944	0.145402
1119.476653	0.148423
1119.635344	0.151174
1119.794017	0.151262
1119.952672	0.148746
1120.111308	0.148522
1120.269927	0.155077
1120.428527	0.154625
1120.587108	0.157502
1120.745672	0.150954
1120.904217	0.146849
1121.062744	0.144373
1121.221253	0.147434
1121.379744	0.157873
1121.538216	0.162240
1121.696671	0.161303
1121.855107	0.159022
1122.013524	0.157613
1122.171924	0.163422
1122.330305	0.168989
1122.488668	0.175207
1122.647013	0.171970
1122.805340	0.163487
1122.963648	0.162541
1123.121938	0.161536
1123.280210	0.167257
1123.438464	0.171649
1123.596700	0.167150
1123.754917	0.160459
1123.913116	0.158508
1124.071297	0.157692
1124.229459	0.157458
1124.387604	0.156310
1124.545730	0.157595
1124.703838	0.158719
1124.861928	0.154135
1125.019999	0.156228
1125.178052	0.160843
1125.336088	0.166320
1125.494104	0.168588
1125.652103	0.166897
1125.810083	0.172594
1125.968045	0.172095
1126.125989	0.165583
1126.283915	0.167764
1126.441823	0.169069
1126.599712	0.174651
1126.757583	0.171277
1126.915436	0.174620
1127.073270	0.173277
1127.231087	0.167841
1127.388885	0.169021
1127.546665	0.166720
1127.704426	0.163700
1127.862170	0.168418
1128.019895	0.160062
1128.177602	0.159705
1128.335291	0.154281
1128.492961	0.151082
1128.650614	0.152499
1128.808248	0.153612
1128.965864	0.161169
1129.123461	0.164644
1129.281041	0.161015
1129.438602	0.160851
1129.596145	0.159183
1129.753670	0.158382
1129.911176	0.162892
1130.068665	0.160504
1130.226135	0.162429
1130.383587	0.162711
1130.541020	0.162183
1130.698436	0.163550
1130.855833	0.162023
1131.013212	0.156781
1131.170573	0.153527
1131.327915	0.159504
1131.485239	0.161296
1131.642545	0.155975
1131.799833	0.149718
1131.957103	0.144901
1132.114354	0.147083
1132.271588	0.152715
1132.428803	0.166140
1132.585999	0.171309
1132.743178	0.165918
1132.900338	0.170990
1133.057480	0.175998
1133.214604	0.175982
1133.371710	0.178862
1133.528797	0.173646
1133.685866	0.170872
1133.842917	0.161623
1133.999950	0.170363
1134.156964	0.173403
1134.313960	0.163017
1134.470938	0.157232
1134.627898	0.161719
1134.784840	0.162665
1134.941763	0.163337
1135.098668	0.167442
1135.255555	0.177267
1135.412424	0.177362
1135.569274	0.174362
1135.726107	0.178705
1135.882921	0.178033
1136.039716	0.179865
1136.196494	0.174394
1136.353253	0.169850
1136.509995	0.174600
1136.666717	0.169572
1136.823422	0.164127
1136.980109	0.168491
1137.136777	0.170642
1137.293427	0.178700
1137.450059	0.180235
1137.606672	0.192039
1137.763267	0.204742
1137.919844	0.199278
1138.076403	0.193787
1138.232944	0.192865
1138.389466	0.194586
1138.545971	0.207002
1138.702457	0.207150
1138.858924	0.203519
1139.015374	0.194579
1139.171805	0.196750
1139.328218	0.199029
1139.484613	0.204089
1139.640990	0.200375
1139.797348	0.195016
1139.953688	0.182704
1140.110010	0.179555
1140.266314	0.175431
1140.422600	0.178000
1140.578867	0.169502
1140.735116	0.169289
1140.891347	0.161247
1141.047559	0.152802
1141.203754	0.154581
1141.359930	0.156918
1141.516088	0.154728
1141.672228	0.155707
1141.828349	0.155241
1141.984452	0.159034
1142.140537	0.161052
1142.296604	0.159618
1142.452653	0.171523
1142.608683	0.178857
1142.764695	0.178146
1142.920689	0.178499
1143.076665	0.176639
1143.232622	0.184285
1143.388562	0.186798
1143.544483	0.176312
1143.700385	0.178617
1143.856270	0.166813
1144.012136	0.160673
1144.167985	0.160629
1144.323814	0.165129
1144.479626	0.168744
1144.635420	0.156729
1144.791195	0.153420
1144.946952	0.156520
1145.102691	0.165303
1145.258411	0.173735
1145.414113	0.170944
1145.569798	0.177783
1145.725463	0.167335
1145.881111	0.169046
1146.036741	0.172384
1146.192352	0.172814
1146.347945	0.174180
1146.503519	0.167396
1146.659076	0.170224
1146.814614	0.171300
1146.970134	0.163834
1147.125636	0.181132
1147.281120	0.179170
1147.436585	0.177416
1147.592032	0.182902
1147.747461	0.190671
1147.902872	0.190975
1148.058265	0.182802
1148.213639	0.187905
1148.368995	0.187685
1148.524333	0.174798
1148.679653	0.179396
1148.834954	0.181308
1148.990237	0.178693
1149.145502	0.170207
1149.300749	0.178628
1149.455977	0.190379
1149.611188	0.185418
1149.766380	0.176645
1149.921553	0.179375
1150.076709	0.177095
1150.231846	0.175396
1150.386966	0.171054
1150.542066	0.176300
1150.697149	0.173622
1150.852214	0.178566
1151.007260	0.173760
1151.162288	0.191006
1151.317298	0.184094
1151.472289	0.189537
1151.627263	0.179402
1151.782218	0.172323
1151.937155	0.173318
1152.092073	0.166487
1152.246974	0.160984
1152.401856	0.157192
1152.556720	0.154104
1152.711566	0.164296
1152.866393	0.153431
1153.021203	0.176335
1153.175994	0.187007
1153.330767	0.185570
1153.485521	0.195486
1153.640258	0.183621
1153.794976	0.200925
1153.949676	0.190055
1154.104358	0.190874
1154.259021	0.195379
1154.413667	0.187495
1154.568294	0.194614
1154.722903	0.196888
1154.877493	0.192473
1155.032066	0.194924
1155.186620	0.188822
1155.341156	0.202519
1155.495674	0.204582
1155.650173	0.206897
1155.804654	0.211560
1155.959118	0.204033
1156.113562	0.197463
1156.267989	0.194215
1156.422397	0.195639
1156.576788	0.198802
1156.731160	0.199740
1156.885513	0.196452
1157.039849	0.201553
1157.194166	0.203940
1157.348465	0.206202
1157.502746	0.209714
1157.657009	0.204966
1157.811253	0.215422
1157.965479	0.224761
1158.119687	0.233263
1158.273877	0.236300
1158.428048	0.226450
1158.582201	0.218176
1158.736337	0.217781
1158.890453	0.221945
1159.044552	0.235012
1159.198632	0.230306
1159.352694	0.216393
1159.506738	0.213789
1159.660764	0.212232
1159.814771	0.204310
1159.968761	0.210687
1160.122732	0.202495
1160.276685	0.195843
1160.430619	0.200762
1160.584535	0.197191
1160.738434	0.218034
1160.892313	0.211084
1161.046175	0.208498
1161.200019	0.214866
1161.353844	0.206796
1161.507651	0.208378
1161.661440	0.212423
1161.815210	0.190599
1161.968962	0.204820
1162.122697	0.180046
1162.276412	0.180056
1162.430110	0.190132
1162.583789	0.195549
1162.737451	0.215513
1162.891094	0.220989
1163.044718	0.219071
1163.198325	0.238685
1163.351913	0.229861
1163.505483	0.233838
1163.659035	0.226707
1163.812569	0.222859
1163.966084	0.219806
1164.119581	0.205526
1164.273060	0.201402
1164.426521	0.195472
1164.579964	0.186602
1164.733388	0.183855
1164.886794	0.182647
1165.040182	0.195519
1165.193551	0.184453
1165.346903	0.191813
1165.500236	0.191482
1165.653551	0.190225
1165.806848	0.189198
1165.960126	0.186685
1166.113386	0.194310
1166.266628	0.183623
1166.419852	0.171402
1166.573058	0.169469
1166.726245	0.173997
1166.879414	0.178244
1167.032565	0.190584
1167.185698	0.205491
1167.338812	0.219206
1167.491909	0.208201
1167.644987	0.228156
1167.798046	0.237797
1167.951088	0.252275
1168.104111	0.230234
1168.257117	0.216661
1168.410103	0.195581
1168.563072	0.187780
1168.716023	0.178792
1168.868955	0.165454
1169.021869	0.152802
1169.174765	0.142156
1169.327642	0.139474
1169.480501	0.150769
1169.633343	0.151340
1169.786165	0.154368
1169.938970	0.153424
1170.091757	0.156174
1170.244525	0.172428
1170.397275	0.179248
1170.550007	0.188697
1170.702720	0.178559
1170.855415	0.186331
1171.008092	0.181838
1171.160751	0.179824
1171.313392	0.169035
1171.466014	0.276824
1171.618619	0.106826
1171.771205	0.106826
1171.923772	0.106826
