sample name	sample
index	713
start time	 03-25-2021  11:19:05 AM


Wavelength (nm)	Absorbance
494.344910	0.013517
494.563924	0.013517
494.782919	0.013517
495.001897	-0.023787
495.220856	0.021686
495.439797	0.010495
495.658719	0.016628
495.877624	0.016875
496.096510	0.010106
496.315378	0.012250
496.534227	-0.000175
496.753059	0.009288
496.971872	-0.013871
497.190667	0.053295
497.409444	0.073553
497.628203	0.080344
497.846943	0.084870
498.065665	0.088420
498.284369	0.089621
498.503055	0.091552
498.721723	0.092458
498.940372	0.093206
499.159003	0.093074
499.377616	0.093946
499.596210	0.094039
499.814787	0.093254
500.033345	0.093464
500.251885	0.092753
500.470406	0.092852
500.688910	0.093021
500.907395	0.092656
501.125862	0.091838
501.344311	0.091899
501.562742	0.091824
501.781154	0.092496
501.999548	0.092312
502.217924	0.092941
502.436282	0.092074
502.654621	0.091591
502.872942	0.092859
503.091245	0.093567
503.309530	0.093190
503.527797	0.093569
503.746045	0.093965
503.964275	0.093924
504.182487	0.094281
504.400681	0.095358
504.618856	0.095344
504.837013	0.095506
505.055152	0.095815
505.273273	0.096932
505.491376	0.096342
505.709460	0.095764
505.927526	0.095331
506.145574	0.095328
506.363604	0.095317
506.581615	0.095786
506.799608	0.094908
507.017583	0.095064
507.235540	0.095035
507.453478	0.095281
507.671399	0.096146
507.889301	0.097572
508.107185	0.098134
508.325050	0.097526
508.542898	0.097047
508.760727	0.097685
508.978538	0.098082
509.196330	0.097436
509.414105	0.097477
509.631861	0.097294
509.849599	0.096737
510.067319	0.096941
510.285021	0.097667
510.502704	0.098756
510.720369	0.099517
510.938016	0.099803
511.155645	0.099970
511.373255	0.100856
511.590848	0.100541
511.808422	0.100695
512.025977	0.100970
512.243515	0.101264
512.461034	0.101244
512.678536	0.100483
512.896018	0.100653
513.113483	0.101301
513.330930	0.101279
513.548358	0.102144
513.765768	0.101817
513.983160	0.102046
514.200533	0.101811
514.417889	0.101431
514.635226	0.102017
514.852545	0.101410
515.069845	0.101387
515.287128	0.101710
515.504392	0.101043
515.721638	0.101184
515.938866	0.101244
516.156075	0.101175
516.373267	0.100585
516.590440	0.100192
516.807594	0.100574
517.024731	0.100647
517.241850	0.100432
517.458950	0.100664
517.676032	0.100870
517.893095	0.100349
518.110141	0.101091
518.327168	0.101787
518.544177	0.102087
518.761168	0.102469
518.978141	0.102528
519.195095	0.102824
519.412031	0.103124
519.628949	0.104012
519.845849	0.104231
520.062731	0.104076
520.279594	0.104036
520.496439	0.104448
520.713266	0.104346
520.930074	0.104333
521.146865	0.104422
521.363637	0.104307
521.580391	0.104284
521.797127	0.104649
522.013844	0.104324
522.230543	0.104813
522.447224	0.104178
522.663887	0.104151
522.880532	0.104572
523.097158	0.104661
523.313766	0.104749
523.530356	0.104648
523.746928	0.104627
523.963481	0.104988
524.180017	0.105187
524.396534	0.105866
524.613032	0.105711
524.829513	0.105486
525.045975	0.105489
525.262420	0.106390
525.478845	0.106688
525.695253	0.106607
525.911643	0.106874
526.128014	0.107344
526.344367	0.107446
526.560702	0.108100
526.777018	0.108865
526.993316	0.108943
527.209597	0.108775
527.425858	0.108703
527.642102	0.108927
527.858328	0.109188
528.074535	0.108948
528.290724	0.108910
528.506894	0.108815
528.723047	0.108266
528.939181	0.108876
529.155297	0.108885
529.371395	0.109075
529.587475	0.108813
529.803536	0.109349
530.019579	0.109099
530.235604	0.109740
530.451611	0.110179
530.667600	0.111153
530.883570	0.110552
531.099522	0.110752
531.315456	0.111082
531.531372	0.112114
531.747269	0.112365
531.963148	0.113059
532.179009	0.113169
532.394852	0.113154
532.610676	0.113520
532.826482	0.114443
533.042271	0.114817
533.258040	0.114801
533.473792	0.114653
533.689525	0.114641
533.905240	0.115076
534.120937	0.115167
534.336616	0.115444
534.552277	0.115012
534.767919	0.114774
534.983543	0.114428
535.199149	0.114736
535.414736	0.114887
535.630306	0.115114
535.845857	0.115011
536.061390	0.114867
536.276904	0.114795
536.492401	0.114631
536.707879	0.114644
536.923339	0.115198
537.138781	0.115375
537.354204	0.115364
537.569610	0.115209
537.784997	0.115570
538.000366	0.115540
538.215716	0.115964
538.431049	0.116035
538.646363	0.116262
538.861659	0.116105
539.076937	0.116447
539.292196	0.117007
539.507438	0.116877
539.722661	0.116476
539.937866	0.116529
540.153052	0.116616
540.368221	0.117254
540.583371	0.117549
540.798503	0.117685
541.013617	0.117515
541.228712	0.117338
541.443789	0.117607
541.658848	0.118247
541.873889	0.119074
542.088912	0.119466
542.303916	0.119364
542.518902	0.119641
542.733870	0.120305
542.948820	0.120614
543.163752	0.121248
543.378665	0.121799
543.593560	0.121813
543.808437	0.121580
544.023295	0.121706
544.238136	0.122251
544.452958	0.122362
544.667762	0.122368
544.882548	0.122400
545.097315	0.122181
545.312064	0.122126
545.526795	0.122348
545.741508	0.122622
545.956203	0.122587
546.170879	0.122402
546.385537	0.122226
546.600177	0.122018
546.814799	0.122200
547.029402	0.122251
547.243988	0.122116
547.458555	0.122301
547.673103	0.122650
547.887634	0.123182
548.102146	0.123558
548.316640	0.123828
548.531116	0.124080
548.745574	0.124166
548.960013	0.124421
549.174435	0.124938
549.388838	0.125142
549.603222	0.125378
549.817589	0.125047
550.031937	0.124604
550.246267	0.124695
550.460579	0.124702
550.674873	0.125194
550.889148	0.125178
551.103405	0.125235
551.317644	0.125150
551.531865	0.124784
551.746068	0.124887
551.960252	0.125486
552.174418	0.125892
552.388566	0.126153
552.602696	0.125733
552.816807	0.125780
553.030900	0.125863
553.244975	0.126283
553.459032	0.126523
553.673070	0.126728
553.887091	0.126511
554.101093	0.126275
554.315077	0.126555
554.529042	0.126899
554.742990	0.127234
554.956919	0.127402
555.170830	0.127411
555.384722	0.127632
555.598597	0.127558
555.812453	0.128264
556.026291	0.128341
556.240111	0.128297
556.453913	0.128507
556.667696	0.128598
556.881461	0.128651
557.095208	0.128560
557.308937	0.128906
557.522647	0.129083
557.736339	0.128906
557.950013	0.129380
558.163669	0.129959
558.377307	0.129990
558.590926	0.130166
558.804527	0.130352
559.018110	0.130310
559.231675	0.130235
559.445221	0.130756
559.658749	0.131080
559.872259	0.131186
560.085751	0.130731
560.299225	0.130861
560.512680	0.130718
560.726117	0.130751
560.939536	0.131058
561.152937	0.130986
561.366319	0.131218
561.579683	0.131123
561.793029	0.131195
562.006357	0.131700
562.219667	0.131775
562.432958	0.131970
562.646231	0.132104
562.859486	0.132412
563.072723	0.132498
563.285941	0.132569
563.499141	0.132824
563.712323	0.132754
563.925487	0.132689
564.138632	0.132869
564.351760	0.133064
564.564869	0.133337
564.777960	0.133121
564.991032	0.133472
565.204087	0.133224
565.417123	0.133317
565.630141	0.133494
565.843140	0.133682
566.056122	0.134045
566.269085	0.134141
566.482030	0.133965
566.694957	0.134163
566.907866	0.134301
567.120756	0.134342
567.333628	0.134815
567.546482	0.134771
567.759318	0.134865
567.972135	0.134811
568.184935	0.134880
568.397716	0.135246
568.610478	0.135300
568.823223	0.135262
569.035949	0.135446
569.248657	0.134858
569.461347	0.135064
569.674019	0.135205
569.886672	0.135124
570.099308	0.135056
570.311925	0.134630
570.524523	0.134691
570.737104	0.134854
570.949666	0.134811
571.162210	0.135164
571.374736	0.135395
571.587244	0.135325
571.799733	0.135155
572.012205	0.135331
572.224658	0.135478
572.437092	0.135748
572.649509	0.136045
572.861907	0.135960
573.074287	0.135844
573.286649	0.135952
573.498993	0.136028
573.711318	0.136391
573.923625	0.136910
574.135914	0.137234
574.348185	0.137437
574.560438	0.137514
574.772672	0.137748
574.984888	0.138074
575.197086	0.138227
575.409266	0.138376
575.621427	0.138531
575.833570	0.138362
576.045695	0.138645
576.257802	0.138660
576.469890	0.138448
576.681961	0.138836
576.894013	0.138903
577.106046	0.138975
577.318062	0.139298
577.530059	0.139130
577.742039	0.139221
577.954000	0.139045
578.165942	0.138737
578.377867	0.139209
578.589773	0.139161
578.801661	0.139178
579.013531	0.139077
579.225382	0.138915
579.437216	0.139377
579.649031	0.139267
579.860828	0.139653
580.072606	0.139863
580.284367	0.139676
580.496109	0.139733
580.707833	0.139635
580.919539	0.139644
581.131227	0.139768
581.342896	0.139570
581.554547	0.139752
581.766180	0.139965
581.977795	0.140332
582.189391	0.140591
582.400969	0.140698
582.612529	0.140857
582.824071	0.141266
583.035595	0.141294
583.247100	0.141494
583.458587	0.141740
583.670056	0.141558
583.881506	0.141620
584.092939	0.141760
584.304353	0.141851
584.515749	0.142083
584.727127	0.141877
584.938486	0.141939
585.149828	0.141952
585.361151	0.142198
585.572456	0.142369
585.783742	0.142419
585.995011	0.142347
586.206261	0.142374
586.417493	0.142777
586.628706	0.142810
586.839902	0.142882
587.051079	0.143020
587.262238	0.143106
587.473379	0.143231
587.684502	0.143237
587.895606	0.143250
588.106692	0.143264
588.317760	0.142829
588.528810	0.143011
588.739841	0.143434
588.950855	0.143669
589.161850	0.143809
589.372827	0.143914
589.583785	0.144176
589.794726	0.144321
590.005648	0.144509
590.216552	0.144882
590.427437	0.145069
590.638305	0.145476
590.849154	0.145726
591.059985	0.145463
591.270798	0.145328
591.481592	0.145127
591.692369	0.145252
591.903127	0.145669
592.113867	0.145888
592.324588	0.145848
592.535292	0.145738
592.745977	0.145558
592.956644	0.145617
593.167293	0.145557
593.377923	0.145815
593.588536	0.145711
593.799130	0.145760
594.009706	0.145528
594.220263	0.145775
594.430803	0.145754
594.641324	0.145899
594.851827	0.146337
595.062312	0.146824
595.272778	0.147060
595.483227	0.147485
595.693657	0.147413
595.904069	0.147670
596.114462	0.147722
596.324838	0.147557
596.535195	0.147572
596.745534	0.147663
596.955855	0.147908
597.166157	0.147849
597.376441	0.147651
597.586707	0.147941
597.796955	0.148145
598.007185	0.148420
598.217396	0.148628
598.427589	0.148797
598.637764	0.148840
598.847921	0.148955
599.058060	0.149299
599.268180	0.149616
599.478282	0.149494
599.688366	0.149246
599.898431	0.149170
600.108479	0.149002
600.318508	0.149092
600.528519	0.149014
600.738511	0.148654
600.948486	0.148784
601.158442	0.148748
601.368380	0.149044
601.578300	0.149410
601.788202	0.149547
601.998085	0.149835
602.207950	0.149790
602.417797	0.150137
602.627626	0.150539
602.837436	0.150409
603.047228	0.150462
603.257002	0.150428
603.466758	0.150612
603.676496	0.150762
603.886215	0.150853
604.095916	0.151285
604.305599	0.151249
604.515264	0.151307
604.724910	0.151199
604.934538	0.151619
605.144148	0.151543
605.353740	0.151388
605.563314	0.151199
605.772869	0.151655
605.982406	0.151464
606.191925	0.151454
606.401425	0.151301
606.610908	0.151703
606.820372	0.151815
607.029818	0.152121
607.239246	0.152270
607.448655	0.152532
607.658047	0.152348
607.867420	0.152625
608.076775	0.152770
608.286111	0.153055
608.495430	0.152840
608.704730	0.152816
608.914012	0.152811
609.123275	0.152587
609.332521	0.152628
609.541748	0.152798
609.750957	0.152759
609.960148	0.152897
610.169321	0.152740
610.378475	0.152939
610.587611	0.152839
610.796729	0.152942
611.005829	0.153361
611.214910	0.153548
611.423974	0.153561
611.633019	0.153754
611.842045	0.153564
612.051054	0.153857
612.260044	0.153822
612.469017	0.153792
612.677970	0.153685
612.886906	0.153779
613.095824	0.153963
613.304723	0.154097
613.513604	0.154050
613.722467	0.154374
613.931311	0.154592
614.140138	0.154674
614.348946	0.154916
614.557736	0.154849
614.766507	0.154885
614.975261	0.154888
615.183996	0.154897
615.392713	0.154903
615.601412	0.155057
615.810092	0.155061
616.018754	0.155411
616.227399	0.155523
616.436024	0.155855
616.644632	0.155987
616.853222	0.156018
617.061793	0.156131
617.270346	0.156284
617.478880	0.156262
617.687397	0.156135
617.895895	0.156154
618.104375	0.156345
618.312837	0.156512
618.521281	0.156380
618.729706	0.156357
618.938113	0.156147
619.146502	0.156081
619.354873	0.156219
619.563226	0.156297
619.771560	0.156166
619.979876	0.156189
620.188174	0.156254
620.396453	0.156467
620.604715	0.156805
620.812958	0.157058
621.021183	0.157222
621.229390	0.157241
621.437578	0.157409
621.645748	0.157628
621.853900	0.157378
622.062034	0.157444
622.270150	0.157454
622.478247	0.157324
622.686326	0.157407
622.894387	0.157455
623.102430	0.157353
623.310454	0.157356
623.518461	0.157513
623.726449	0.157768
623.934418	0.157831
624.142370	0.158245
624.350303	0.158412
624.558218	0.158335
624.766115	0.158577
624.973994	0.158762
625.181855	0.158912
625.389697	0.158766
625.597521	0.158860
625.805327	0.158797
626.013114	0.158582
626.220883	0.158523
626.428634	0.158673
626.636367	0.158660
626.844082	0.158726
627.051778	0.158717
627.259457	0.158880
627.467117	0.159116
627.674758	0.159263
627.882382	0.159402
628.089987	0.159655
628.297574	0.160033
628.505143	0.159994
628.712694	0.159945
628.920226	0.160071
629.127740	0.160195
629.335236	0.160051
629.542714	0.160195
629.750174	0.160306
629.957615	0.160382
630.165038	0.160245
630.372443	0.160369
630.579829	0.160396
630.787198	0.160492
630.994548	0.160408
631.201880	0.160366
631.409194	0.160259
631.616489	0.160170
631.823766	0.160137
632.031025	0.160340
632.238266	0.160387
632.445489	0.160703
632.652693	0.160841
632.859879	0.161206
633.067047	0.161519
633.274197	0.161871
633.481329	0.162146
633.688442	0.162156
633.895537	0.162112
634.102614	0.162343
634.309672	0.162438
634.516713	0.162301
634.723735	0.162305
634.930739	0.162355
635.137724	0.162208
635.344692	0.162120
635.551641	0.162226
635.758572	0.162453
635.965485	0.162598
636.172379	0.162656
636.379256	0.162830
636.586114	0.162986
636.792954	0.163273
636.999775	0.163449
637.206579	0.163673
637.413364	0.164126
637.620131	0.163907
637.826880	0.164068
638.033610	0.164190
638.240323	0.164457
638.447017	0.164501
638.653692	0.164623
638.860350	0.164706
639.066990	0.164787
639.273611	0.164649
639.480214	0.165027
639.686798	0.164884
639.893365	0.164910
640.099913	0.164671
640.306443	0.164696
640.512955	0.164655
640.719449	0.164869
640.925924	0.164802
641.132381	0.164636
641.338820	0.164561
641.545241	0.164773
641.751644	0.164964
641.958028	0.165356
642.164394	0.165167
642.370742	0.165004
642.577071	0.165137
642.783383	0.165371
642.989676	0.165714
643.195951	0.165858
643.402207	0.165744
643.608446	0.165834
643.814666	0.165850
644.020868	0.166254
644.227052	0.166562
644.433218	0.166525
644.639365	0.166721
644.845494	0.166547
645.051605	0.166499
645.257698	0.166784
645.463772	0.166692
645.669828	0.166455
645.875866	0.166283
646.081886	0.166264
646.287888	0.166431
646.493871	0.166335
646.699836	0.166553
646.905783	0.166697
647.111712	0.166788
647.317622	0.166910
647.523514	0.167080
647.729388	0.167540
647.935244	0.167602
648.141082	0.167685
648.346901	0.167708
648.552702	0.167879
648.758485	0.168050
648.964250	0.168329
649.169996	0.168490
649.375724	0.168921
649.581434	0.168661
649.787126	0.168811
649.992800	0.168476
650.198455	0.168827
650.404092	0.168967
650.609711	0.168970
650.815311	0.168960
651.020894	0.169099
651.226458	0.169026
651.432004	0.169458
651.637532	0.169549
651.843041	0.169768
652.048532	0.169750
652.254006	0.169686
652.459460	0.169864
652.664897	0.169636
652.870315	0.169573
653.075716	0.169687
653.281097	0.169640
653.486461	0.169915
653.691807	0.170049
653.897134	0.170224
654.102443	0.170322
654.307734	0.170278
654.513006	0.170408
654.718261	0.170718
654.923497	0.170816
655.128715	0.170928
655.333915	0.170833
655.539096	0.171016
655.744259	0.171054
655.949404	0.171120
656.154531	0.171293
656.359640	0.171322
656.564730	0.171198
656.769802	0.171186
656.974856	0.171208
657.179892	0.171353
657.384909	0.171398
657.589908	0.171353
657.794889	0.171451
657.999852	0.171648
658.204797	0.171853
658.409723	0.172034
658.614631	0.172461
658.819521	0.172458
659.024393	0.172446
659.229246	0.172868
659.434081	0.172816
659.638898	0.172938
659.843697	0.172890
660.048478	0.173074
660.253240	0.173153
660.457984	0.173058
660.662710	0.173201
660.867417	0.173340
661.072107	0.173268
661.276778	0.173534
661.481431	0.173554
661.686066	0.173875
661.890682	0.173815
662.095281	0.173808
662.299861	0.173648
662.504422	0.173828
662.708966	0.173928
662.913491	0.173876
663.117999	0.174117
663.322488	0.174276
663.526958	0.174243
663.731411	0.174334
663.935845	0.174379
664.140261	0.174800
664.344659	0.174943
664.549038	0.174986
664.753400	0.175348
664.957743	0.175340
665.162068	0.175545
665.366375	0.175599
665.570663	0.175742
665.774933	0.176058
665.979185	0.175998
666.183419	0.176004
666.387635	0.176080
666.591832	0.176005
666.796011	0.176268
667.000172	0.176362
667.204315	0.176431
667.408439	0.176571
667.612545	0.176567
667.816634	0.176821
668.020703	0.177098
668.224755	0.177136
668.428788	0.177310
668.632803	0.177330
668.836800	0.177450
669.040779	0.177700
669.244739	0.177901
669.448681	0.178102
669.652605	0.178137
669.856511	0.178056
670.060399	0.178243
670.264268	0.178244
670.468119	0.178169
670.671952	0.178394
670.875767	0.178563
671.079563	0.178600
671.283341	0.178681
671.487101	0.178645
671.690843	0.178754
671.894567	0.179109
672.098272	0.179282
672.301959	0.179414
672.505628	0.179267
672.709278	0.179396
672.912911	0.179511
673.116525	0.179583
673.320121	0.179743
673.523699	0.179738
673.727258	0.179751
673.930799	0.179840
674.134322	0.180190
674.337827	0.180260
674.541314	0.180236
674.744782	0.180279
674.948232	0.180412
675.151664	0.180565
675.355078	0.180838
675.558474	0.180740
675.761851	0.180780
675.965210	0.180711
676.168551	0.180882
676.371873	0.181003
676.575178	0.181373
676.778464	0.181447
676.981732	0.181552
677.184981	0.181542
677.388213	0.181859
677.591426	0.182282
677.794621	0.182477
677.997798	0.182648
678.200956	0.182617
678.404097	0.182587
678.607219	0.182809
678.810323	0.183148
679.013408	0.183355
679.216476	0.183446
679.419525	0.183323
679.622556	0.183491
679.825569	0.183820
680.028563	0.183923
680.231540	0.183985
680.434498	0.183887
680.637438	0.183959
680.840359	0.184172
681.043263	0.184229
681.246148	0.184282
681.449015	0.184239
681.651864	0.184064
681.854694	0.184485
682.057506	0.184661
682.260301	0.184899
682.463076	0.184971
682.665834	0.185155
682.868573	0.185241
683.071295	0.185532
683.273998	0.185602
683.476682	0.185804
683.679349	0.185817
683.881997	0.185912
684.084627	0.186007
684.287239	0.186049
684.489833	0.185887
684.692408	0.186023
684.894965	0.185810
685.097504	0.186081
685.300025	0.186175
685.502527	0.186074
685.705012	0.186203
685.907478	0.186364
686.109925	0.186398
686.312355	0.186760
686.514766	0.186829
686.717159	0.187118
686.919534	0.187141
687.121891	0.187318
687.324230	0.187507
687.526550	0.187583
687.728852	0.187627
687.931136	0.187886
688.133401	0.187812
688.335649	0.188048
688.537878	0.187983
688.740089	0.187933
688.942281	0.187815
689.144456	0.187773
689.346612	0.187828
689.548750	0.187803
689.750870	0.187726
689.952971	0.187766
690.155055	0.187812
690.357120	0.188066
690.559167	0.188232
690.761195	0.188499
690.963206	0.188675
691.165198	0.188715
691.367172	0.188928
691.569128	0.188816
691.771065	0.189054
691.972984	0.189055
692.174885	0.189196
692.376768	0.189398
692.578633	0.189480
692.780479	0.189390
692.982308	0.189561
693.184118	0.189419
693.385909	0.189837
693.587683	0.189895
693.789438	0.189973
693.991175	0.189925
694.192894	0.189827
694.394595	0.189745
694.596277	0.189828
694.797941	0.189651
694.999587	0.189903
695.201215	0.189905
695.402824	0.189981
695.604416	0.190037
695.805989	0.190124
696.007543	0.190156
696.209080	0.190226
696.410598	0.190535
696.612099	0.190916
696.813580	0.191028
697.015044	0.191006
697.216490	0.191142
697.417917	0.191186
697.619326	0.191407
697.820717	0.191569
698.022089	0.191712
698.223444	0.191801
698.424780	0.191992
698.626098	0.192182
698.827397	0.192309
699.028679	0.192493
699.229942	0.192644
699.431187	0.192724
699.632414	0.192888
699.833622	0.193053
700.034813	0.193057
700.235985	0.192865
700.437139	0.193034
700.638274	0.193236
700.839392	0.193086
701.040491	0.193161
701.241572	0.193185
701.442635	0.193205
701.643679	0.193395
701.844706	0.193759
702.045714	0.193927
702.246704	0.193621
702.447675	0.193771
702.648629	0.193950
702.849564	0.193856
703.050481	0.193933
703.251380	0.194116
703.452260	0.194232
703.653122	0.193870
703.853966	0.193821
704.054792	0.194019
704.255600	0.194014
704.456389	0.193867
704.657160	0.194198
704.857913	0.194274
705.058648	0.194185
705.259365	0.193814
705.460063	0.193890
705.660743	0.194005
705.861405	0.193886
706.062048	0.193712
706.262674	0.193626
706.463281	0.193341
706.663870	0.193258
706.864441	0.193328
707.064993	0.193491
707.265527	0.193630
707.466043	0.193560
707.666541	0.193884
707.867021	0.194147
708.067482	0.194215
708.267925	0.194376
708.468350	0.194377
708.668757	0.194337
708.869145	0.194222
709.069516	0.194369
709.269868	0.194511
709.470201	0.194388
709.670517	0.194361
709.870814	0.194403
710.071093	0.194259
710.271354	0.194250
710.471597	0.194320
710.671821	0.194524
710.872028	0.194337
711.072216	0.194130
711.272385	0.194107
711.472537	0.193706
711.672670	0.193591
711.872785	0.193585
712.072882	0.193585
712.272961	0.193444
712.473021	0.193240
712.673063	0.193234
712.873087	0.193362
713.073093	0.193181
713.273081	0.193370
713.473050	0.193600
713.673001	0.193845
713.872934	0.194082
714.072849	0.194248
714.272745	0.194451
714.472623	0.194542
714.672483	0.194639
714.872325	0.194877
715.072148	0.194855
715.271954	0.194699
715.471741	0.194537
715.671509	0.194246
715.871260	0.194086
716.070992	0.194259
716.270707	0.194076
716.470403	0.193874
716.670080	0.193740
716.869740	0.193825
717.069381	0.194060
717.269004	0.194041
717.468609	0.194042
717.668195	0.194212
717.867764	0.194049
718.067314	0.193933
718.266846	0.194023
718.466360	0.194119
718.665855	0.194035
718.865332	0.193783
719.064791	0.193711
719.264232	0.193756
719.463655	0.193404
719.663059	0.193127
719.862445	0.193157
720.061813	0.193203
720.261163	0.193043
720.460494	0.192995
720.659807	0.193107
720.859102	0.193240
721.058379	0.193397
721.257638	0.193522
721.456878	0.193700
721.656100	0.193783
721.855304	0.193566
722.054490	0.193669
722.253657	0.193569
722.452806	0.193520
722.651937	0.193452
722.851050	0.193195
723.050145	0.193147
723.249221	0.193059
723.448279	0.193088
723.647319	0.193137
723.846340	0.193015
724.045344	0.192958
724.244329	0.192744
724.443296	0.192808
724.642245	0.192774
724.841175	0.192696
725.040088	0.192898
725.238982	0.192793
725.437857	0.192638
725.636715	0.192498
725.835554	0.192473
726.034376	0.192546
726.233179	0.192324
726.431963	0.191930
726.630730	0.191625
726.829478	0.191053
727.028208	0.190836
727.226920	0.190795
727.425614	0.190636
727.624289	0.190438
727.822946	0.190364
728.021585	0.190064
728.220206	0.190310
728.418808	0.190307
728.617392	0.190437
728.815958	0.190401
729.014506	0.190474
729.213036	0.190357
729.411547	0.190469
729.610040	0.190475
729.808515	0.190672
730.006972	0.190385
730.205410	0.190638
730.403831	0.190572
730.602233	0.190499
730.800616	0.190323
730.998982	0.190542
731.197329	0.190220
731.395658	0.190039
731.593969	0.189943
731.792262	0.189805
731.990536	0.189417
732.188793	0.189432
732.387031	0.189253
732.585250	0.189211
732.783452	0.189149
732.981635	0.189186
733.179800	0.188978
733.377947	0.188965
733.576076	0.189119
733.774186	0.189306
733.972278	0.189008
734.170352	0.189069
734.368408	0.188869
734.566446	0.188804
734.764465	0.188887
734.962466	0.188975
735.160449	0.188653
735.358413	0.188386
735.556360	0.188151
735.754288	0.188130
735.952198	0.188010
736.150090	0.187938
736.347963	0.187534
736.545818	0.187373
736.743655	0.187148
736.941474	0.187041
737.139275	0.186856
737.337057	0.186699
737.534821	0.186611
737.732567	0.186417
737.930295	0.186316
738.128005	0.186379
738.325696	0.186050
738.523369	0.185830
738.721024	0.185741
738.918660	0.185883
739.116279	0.185805
739.313879	0.185453
739.511461	0.185263
739.709024	0.185292
739.906570	0.185094
740.104097	0.185162
740.301606	0.185087
740.499097	0.185100
740.696569	0.185079
740.894024	0.185111
741.091460	0.185434
741.288878	0.185432
741.486277	0.185129
741.683659	0.185071
741.881022	0.184888
742.078367	0.184973
742.275694	0.184659
742.473002	0.184223
742.670293	0.183971
742.867565	0.183698
743.064819	0.183627
743.262054	0.183723
743.459272	0.183623
743.656471	0.183584
743.853652	0.183612
744.050815	0.183721
744.247959	0.183897
744.445085	0.183987
744.642194	0.183963
744.839283	0.183892
745.036355	0.183500
745.233408	0.183192
745.430444	0.183202
745.627461	0.182893
745.824459	0.182883
746.021440	0.182980
746.218402	0.182899
746.415346	0.182588
746.612272	0.182519
746.809180	0.182276
747.006069	0.182467
747.202940	0.182405
747.399793	0.182420
747.596628	0.182272
747.793444	0.182002
747.990243	0.181754
748.187023	0.181751
748.383784	0.181584
748.580528	0.181757
748.777253	0.181627
748.973960	0.181578
749.170649	0.181232
749.367320	0.181089
749.563973	0.181032
749.760607	0.181048
749.957223	0.181214
750.153821	0.181467
750.350400	0.181737
750.546962	0.181568
750.743505	0.181489
750.940030	0.181632
751.136536	0.181693
751.333025	0.181493
751.529495	0.181439
751.725947	0.181247
751.922381	0.181100
752.118796	0.180723
752.315194	0.180729
752.511573	0.180654
752.707934	0.180564
752.904276	0.180317
753.100601	0.180298
753.296907	0.180110
753.493195	0.180018
753.689465	0.179774
753.885716	0.179754
754.081949	0.179610
754.278164	0.179525
754.474361	0.179511
754.670540	0.179539
754.866700	0.179693
755.062843	0.179885
755.258967	0.179760
755.455072	0.179787
755.651160	0.179734
755.847229	0.179947
756.043280	0.179967
756.239313	0.179980
756.435328	0.179765
756.631324	0.179645
756.827302	0.179376
757.023262	0.179282
757.219204	0.179104
757.415127	0.178886
757.611033	0.178404
757.806920	0.178028
758.002788	0.178038
758.198639	0.178049
758.394471	0.177820
758.590286	0.177743
758.786081	0.177730
758.981859	0.177636
759.177619	0.177603
759.373360	0.177745
759.569083	0.177895
759.764788	0.177718
759.960474	0.177673
760.156143	0.177643
760.351793	0.177659
760.547425	0.177676
760.743038	0.177690
760.938634	0.177905
761.134211	0.177622
761.329770	0.177592
761.525311	0.177485
761.720833	0.177228
761.916338	0.177103
762.111824	0.176857
762.307292	0.176710
762.502741	0.176545
762.698173	0.176393
762.893586	0.176597
763.088981	0.176454
763.284358	0.176166
763.479716	0.176498
763.675057	0.176287
763.870379	0.176306
764.065683	0.176229
764.260968	0.176262
764.456236	0.176296
764.651485	0.176238
764.846716	0.176191
765.041929	0.176406
765.237123	0.176233
765.432299	0.176225
765.627457	0.176310
765.822597	0.176407
766.017719	0.176291
766.212822	0.176051
766.407907	0.175965
766.602974	0.175650
766.798023	0.175474
766.993054	0.175230
767.188066	0.175237
767.383060	0.175104
767.578036	0.174926
767.772993	0.174918
767.967933	0.175160
768.162854	0.174982
768.357757	0.175130
768.552642	0.175014
768.747508	0.174978
768.942356	0.174983
769.137186	0.174845
769.331998	0.174938
769.526792	0.174715
769.721567	0.174310
769.916324	0.174213
770.111063	0.174061
770.305784	0.174168
770.500486	0.174136
770.695171	0.174108
770.889837	0.174222
771.084484	0.173926
771.279114	0.174088
771.473725	0.174109
771.668318	0.174260
771.862893	0.174327
772.057450	0.174258
772.251988	0.174396
772.446509	0.174322
772.641011	0.174454
772.835494	0.174527
773.029960	0.174621
773.224407	0.174647
773.418836	0.174786
773.613247	0.174828
773.807640	0.174990
774.002014	0.175071
774.196370	0.175398
774.390708	0.175128
774.585028	0.175191
774.779330	0.175143
774.973613	0.175198
775.167878	0.175178
775.362125	0.175268
775.556354	0.174990
775.750564	0.174892
775.944756	0.174569
776.138930	0.174513
776.333086	0.174462
776.527223	0.174401
776.721343	0.174118
776.915444	0.173972
777.109526	0.173748
777.303591	0.173792
777.497637	0.173667
777.691666	0.173551
777.885676	0.173497
778.079667	0.173522
778.273641	0.173726
778.467596	0.173946
778.661533	0.173786
778.855452	0.174022
779.049352	0.173975
779.243235	0.174309
779.437099	0.174373
779.630945	0.174693
779.824773	0.174801
780.018582	0.174758
780.212373	0.174899
780.406146	0.175078
780.599901	0.174725
780.793638	0.174798
780.987356	0.174428
781.181056	0.174466
781.374738	0.174257
781.568402	0.174041
781.762047	0.173861
781.955674	0.173540
782.149283	0.173571
782.342874	0.173662
782.536447	0.173836
782.730001	0.173849
782.923537	0.173797
783.117055	0.173750
783.310555	0.173832
783.504036	0.173745
783.697499	0.173971
783.890944	0.173950
784.084371	0.173968
784.277780	0.173976
784.471170	0.173804
784.664542	0.173917
784.857896	0.174097
785.051231	0.174235
785.244549	0.174216
785.437848	0.174072
785.631129	0.174159
785.824392	0.174291
786.017636	0.173944
786.210863	0.174306
786.404071	0.174412
786.597260	0.174320
786.790432	0.174197
786.983585	0.174280
787.176721	0.174363
787.369838	0.174238
787.562936	0.174489
787.756017	0.174914
787.949079	0.174871
788.142123	0.174875
788.335149	0.174891
788.528156	0.174966
788.721146	0.175136
788.914117	0.175138
789.107070	0.175321
789.300005	0.175272
789.492921	0.175281
789.685819	0.175338
789.878699	0.175287
790.071561	0.175497
790.264405	0.175730
790.457230	0.175773
790.650037	0.175842
790.842826	0.176027
791.035597	0.175969
791.228349	0.175958
791.421084	0.176025
791.613800	0.175915
791.806497	0.175875
791.999177	0.175660
792.191838	0.175555
792.384481	0.175782
792.577106	0.175653
792.769713	0.175655
792.962301	0.175657
793.154871	0.175826
793.347423	0.176178
793.539957	0.176303
793.732473	0.176429
793.924970	0.176734
794.117449	0.176802
794.309910	0.176948
794.502353	0.176987
794.694777	0.177243
794.887183	0.176952
795.079571	0.176814
795.271941	0.176969
795.464293	0.177040
795.656626	0.177236
795.848941	0.177249
796.041238	0.177315
796.233516	0.177439
796.425777	0.177395
796.618019	0.177924
796.810243	0.178104
797.002449	0.178145
797.194636	0.178129
797.386805	0.178110
797.578956	0.178293
797.771089	0.178153
797.963204	0.178189
798.155300	0.178173
798.347378	0.178032
798.539438	0.178091
798.731480	0.177945
798.923503	0.178205
799.115509	0.178235
799.307496	0.178179
799.499465	0.178639
799.691415	0.178645
799.883348	0.178587
800.075262	0.178741
800.267158	0.178926
800.459035	0.179310
800.650895	0.179403
800.842736	0.179317
801.034559	0.179582
801.226364	0.179278
801.418150	0.179615
801.609919	0.179955
801.801669	0.180172
801.993401	0.180427
802.185114	0.180410
802.376810	0.180620
802.568487	0.180974
802.760146	0.180907
802.951787	0.181487
803.143409	0.181620
803.335014	0.181760
803.526600	0.181763
803.718168	0.181832
803.909717	0.182084
804.101249	0.182168
804.292762	0.182250
804.484257	0.182422
804.675734	0.182492
804.867192	0.182613
805.058632	0.182947
805.250054	0.182996
805.441458	0.183198
805.632844	0.183334
805.824211	0.183371
806.015561	0.183600
806.206891	0.183691
806.398204	0.183728
806.589499	0.183877
806.780775	0.183901
806.972033	0.184303
807.163273	0.184462
807.354495	0.184568
807.545698	0.184735
807.736883	0.184950
807.928050	0.185208
808.119199	0.185381
808.310329	0.185391
808.501441	0.185536
808.692535	0.185614
808.883611	0.185547
809.074669	0.185552
809.265708	0.185791
809.456729	0.185958
809.647732	0.186422
809.838717	0.186643
810.029683	0.187164
810.220632	0.187144
810.411562	0.187372
810.602474	0.187700
810.793367	0.187800
810.984242	0.187739
811.175100	0.187680
811.365938	0.187254
811.556759	0.187127
811.747562	0.187166
811.938346	0.187218
812.129112	0.187193
812.319860	0.187338
812.510589	0.187433
812.701300	0.187497
812.891994	0.187570
813.082668	0.188019
813.273325	0.188353
813.463964	0.188329
813.654584	0.188587
813.845186	0.188848
814.035769	0.188901
814.226335	0.189022
814.416882	0.189322
814.607411	0.189568
814.797922	0.189677
814.988415	0.189964
815.178889	0.190140
815.369345	0.190394
815.559783	0.190449
815.750203	0.190725
815.940605	0.191073
816.130988	0.191419
816.321353	0.191543
816.511700	0.191748
816.702028	0.191901
816.892339	0.192161
817.082631	0.192328
817.272905	0.192334
817.463161	0.192278
817.653398	0.192614
817.843617	0.192953
818.033819	0.193185
818.224001	0.193089
818.414166	0.193122
818.604312	0.193175
818.794440	0.193324
818.984550	0.193509
819.174642	0.193906
819.364716	0.193937
819.554771	0.193914
819.744808	0.194174
819.934827	0.194574
820.124827	0.194545
820.314810	0.194691
820.504774	0.194853
820.694720	0.195326
820.884647	0.195158
821.074557	0.195425
821.264448	0.195479
821.454321	0.195468
821.644176	0.195379
821.834012	0.195722
822.023831	0.195872
822.213631	0.195932
822.403413	0.195825
822.593176	0.196087
822.782922	0.196035
822.972649	0.195945
823.162358	0.196190
823.352049	0.196274
823.541721	0.196433
823.731376	0.196577
823.921012	0.196808
824.110629	0.197353
824.300229	0.197738
824.489811	0.198006
824.679374	0.198227
824.868919	0.198504
825.058445	0.198839
825.247954	0.199020
825.437444	0.199228
825.626916	0.199300
825.816370	0.199329
826.005806	0.199449
826.195223	0.199697
826.384622	0.200185
826.574003	0.200411
826.763366	0.200621
826.952711	0.200667
827.142037	0.200689
827.331345	0.200874
827.520635	0.201021
827.709906	0.201004
827.899160	0.201168
828.088395	0.201292
828.277612	0.201027
828.466810	0.201406
828.655991	0.201639
828.845153	0.201827
829.034297	0.202228
829.223423	0.202191
829.412531	0.202575
829.601620	0.202799
829.790691	0.203147
829.979744	0.203588
830.168779	0.203719
830.357795	0.203929
830.546793	0.204282
830.735773	0.204358
830.924735	0.204728
831.113679	0.204895
831.302604	0.205018
831.491511	0.205175
831.680400	0.205531
831.869271	0.205717
832.058123	0.205902
832.246957	0.206215
832.435773	0.206471
832.624571	0.206735
832.813351	0.207012
833.002112	0.207331
833.190855	0.207460
833.379580	0.207453
833.568287	0.207647
833.756975	0.208193
833.945645	0.208285
834.134297	0.208436
834.322931	0.208628
834.511547	0.208732
834.700144	0.208881
834.888723	0.209339
835.077284	0.209678
835.265826	0.209831
835.454351	0.209916
835.642857	0.210201
835.831345	0.210630
836.019815	0.210793
836.208266	0.211114
836.396699	0.211360
836.585114	0.211616
836.773511	0.212019
836.961890	0.212106
837.150250	0.212404
837.338592	0.212988
837.526916	0.212901
837.715222	0.213229
837.903510	0.213515
838.091779	0.213791
838.280030	0.213707
838.468263	0.213833
838.656477	0.214336
838.844674	0.214539
839.032852	0.214450
839.221012	0.215136
839.409153	0.215144
839.597277	0.215325
839.785382	0.215505
839.973469	0.215893
840.161538	0.216276
840.349589	0.216553
840.537621	0.216568
840.725635	0.216907
840.913631	0.216864
841.101609	0.217260
841.289568	0.217586
841.477509	0.217701
841.665432	0.217982
841.853337	0.217949
842.041224	0.218265
842.229092	0.218710
842.416942	0.219020
842.604774	0.219430
842.792588	0.219720
842.980383	0.219669
843.168160	0.220152
843.355919	0.220386
843.543660	0.220829
843.731382	0.221133
843.919087	0.221289
844.106773	0.221827
844.294441	0.221961
844.482090	0.222406
844.669722	0.222960
844.857335	0.223107
845.044930	0.223217
845.232507	0.223543
845.420065	0.223703
845.607605	0.224286
845.795127	0.224101
845.982631	0.224385
846.170117	0.224471
846.357584	0.224852
846.545033	0.225208
846.732464	0.225452
846.919877	0.225540
847.107272	0.226195
847.294648	0.226103
847.482006	0.226666
847.669346	0.226912
847.856667	0.227368
848.043971	0.227498
848.231256	0.227645
848.418523	0.227906
848.605771	0.228509
848.793002	0.228444
848.980214	0.228643
849.167408	0.228488
849.354584	0.228681
849.541742	0.228690
849.728881	0.228932
849.916002	0.229148
850.103105	0.229347
850.290190	0.229092
850.477256	0.228963
850.664304	0.229415
850.851334	0.230146
851.038346	0.230492
851.225340	0.231073
851.412315	0.231433
851.599272	0.231943
851.786211	0.232242
851.973132	0.232479
852.160034	0.233085
852.346918	0.233098
852.533784	0.232985
852.720632	0.233138
852.907462	0.232740
853.094273	0.232971
853.281066	0.232740
853.467841	0.233354
853.654598	0.234035
853.841336	0.234505
854.028056	0.234833
854.214758	0.235067
854.401442	0.235620
854.588107	0.236192
854.774755	0.236395
854.961384	0.236780
855.147995	0.236676
855.334587	0.236801
855.521162	0.236735
855.707718	0.236930
855.894256	0.237427
856.080775	0.237371
856.267277	0.237815
856.453760	0.237951
856.640225	0.238089
856.826672	0.238242
857.013101	0.238214
857.199511	0.238624
857.385903	0.238914
857.572277	0.239014
857.758633	0.239528
857.944970	0.239777
858.131290	0.240367
858.317591	0.240868
858.503873	0.241129
858.690138	0.241605
858.876384	0.241657
859.062612	0.242101
859.248822	0.242169
859.435014	0.242167
859.621188	0.241965
859.807343	0.241858
859.993480	0.241787
860.179599	0.242123
860.365699	0.242100
860.551781	0.242672
860.737846	0.242476
860.923891	0.242700
861.109919	0.242870
861.295929	0.243576
861.481920	0.243622
861.667893	0.244150
861.853848	0.244223
862.039784	0.244701
862.225702	0.244430
862.411603	0.244767
862.597484	0.244843
862.783348	0.244936
862.969193	0.244804
863.155021	0.245422
863.340830	0.245778
863.526620	0.245748
863.712393	0.245543
863.898147	0.246034
864.083883	0.246585
864.269601	0.247063
864.455301	0.247631
864.640982	0.247828
864.826645	0.247952
865.012290	0.247891
865.197917	0.248483
865.383526	0.248609
865.569116	0.248607
865.754688	0.248662
865.940242	0.248702
866.125777	0.248734
866.311295	0.248922
866.496794	0.248625
866.682275	0.248808
866.867737	0.249084
867.053182	0.249608
867.238608	0.249757
867.424016	0.249837
867.609406	0.250226
867.794778	0.250286
867.980131	0.250553
868.165466	0.250933
868.350783	0.251390
868.536082	0.251477
868.721362	0.251707
868.906625	0.252095
869.091869	0.252197
869.277094	0.252346
869.462302	0.252318
869.647491	0.252478
869.832662	0.252760
870.017815	0.252723
870.202950	0.253046
870.388066	0.252864
870.573165	0.253034
870.758245	0.253298
870.943306	0.253474
871.128350	0.253933
871.313375	0.254097
871.498382	0.254364
871.683371	0.254596
871.868342	0.254528
872.053294	0.255403
872.238229	0.255356
872.423144	0.255455
872.608042	0.255634
872.792922	0.255886
872.977783	0.256007
873.162626	0.256332
873.347451	0.256639
873.532258	0.256723
873.717046	0.256311
873.901816	0.256472
874.086568	0.256631
874.271302	0.256682
874.456017	0.256677
874.640715	0.257096
874.825394	0.256951
875.010055	0.257025
875.194697	0.257663
875.379322	0.257619
875.563928	0.257731
875.748516	0.257781
875.933085	0.257686
876.117637	0.257910
876.302170	0.257762
876.486685	0.257635
876.671182	0.257416
876.855661	0.257108
877.040121	0.257901
877.224563	0.257927
877.408987	0.258127
877.593393	0.258365
877.777780	0.258490
877.962150	0.258566
878.146501	0.258847
878.330833	0.258997
878.515148	0.258893
878.699444	0.259031
878.883722	0.259082
879.067982	0.259185
879.252224	0.259347
879.436447	0.259553
879.620653	0.259907
879.804840	0.260060
879.989008	0.260140
880.173159	0.260657
880.357291	0.260399
880.541405	0.260850
880.725501	0.260957
880.909579	0.261157
881.093638	0.260821
881.277680	0.260648
881.461703	0.260293
881.645707	0.260507
881.829694	0.260124
882.013662	0.260327
882.197612	0.260588
882.381544	0.260490
882.565458	0.260703
882.749353	0.261430
882.933230	0.261571
883.117089	0.262287
883.300930	0.262551
883.484753	0.262801
883.668557	0.263018
883.852343	0.262861
884.036111	0.263206
884.219861	0.263192
884.403592	0.262573
884.587305	0.262497
884.771000	0.262488
884.954677	0.262188
885.138335	0.262879
885.321976	0.262358
885.505598	0.262375
885.689201	0.262064
885.872787	0.261590
886.056354	0.261651
886.239904	0.261808
886.423434	0.261657
886.606947	0.261685
886.790442	0.261082
886.973918	0.260970
887.157376	0.260485
887.340816	0.260627
887.524237	0.261067
887.707641	0.260974
887.891026	0.260816
888.074393	0.260737
888.257741	0.260674
888.441072	0.260690
888.624384	0.261014
888.807678	0.261496
888.990954	0.261412
889.174211	0.261198
889.357451	0.261439
889.540672	0.261016
889.723875	0.260948
889.907059	0.260699
890.090226	0.260672
890.273374	0.260615
890.456504	0.260206
890.639616	0.260362
890.822709	0.260295
891.005785	0.260238
891.188842	0.260493
891.371881	0.260302
891.554901	0.260758
891.737904	0.261051
891.920888	0.261217
892.103854	0.261328
892.286802	0.261105
892.469731	0.261282
892.652643	0.261517
892.835536	0.261573
893.018410	0.261580
893.201267	0.261316
893.384106	0.260967
893.566926	0.260501
893.749728	0.260491
893.932511	0.260269
894.115277	0.259498
894.298024	0.259203
894.480753	0.259056
894.663464	0.258852
894.846157	0.259023
895.028831	0.259052
895.211487	0.259005
895.394125	0.258560
895.576745	0.258734
895.759346	0.259021
895.941930	0.258734
896.124495	0.258102
896.307041	0.258419
896.489570	0.258045
896.672080	0.257799
896.854573	0.257754
897.037046	0.258329
897.219502	0.258294
897.401940	0.258137
897.584359	0.258512
897.766760	0.258936
897.949143	0.258841
898.131507	0.258945
898.313854	0.258879
898.496182	0.259254
898.678492	0.259155
898.860783	0.258814
899.043057	0.259226
899.225312	0.258608
899.407549	0.258680
899.589768	0.258195
899.771968	0.257869
899.954151	0.257653
900.136315	0.257331
900.318461	0.257044
900.500588	0.257061
900.682698	0.256520
900.864789	0.256398
901.046862	0.256150
901.228917	0.256477
901.410953	0.256699
901.592971	0.256522
901.774972	0.256374
901.956953	0.255739
902.138917	0.255785
902.320862	0.256032
902.502790	0.256034
902.684699	0.256072
902.866589	0.255472
903.048462	0.255113
903.230316	0.254604
903.412152	0.254133
903.593970	0.254513
903.775770	0.253882
903.957551	0.253668
904.139314	0.253467
904.321059	0.252978
904.502786	0.252945
904.684494	0.252630
904.866185	0.252672
905.047857	0.252570
905.229510	0.252263
905.411146	0.252289
905.592763	0.251489
905.774363	0.251235
905.955943	0.251159
906.137506	0.251227
906.319051	0.250947
906.500577	0.250917
906.682085	0.250651
906.863575	0.250597
907.045046	0.250279
907.226500	0.249762
907.407935	0.249532
907.589352	0.248814
907.770750	0.248386
907.952131	0.248120
908.133493	0.247723
908.314837	0.247492
908.496163	0.246361
908.677470	0.246399
908.858760	0.246513
909.040031	0.246170
909.221284	0.246346
909.402518	0.246125
909.583735	0.245997
909.764933	0.245774
909.946113	0.245192
910.127275	0.245385
910.308418	0.244696
910.489544	0.244537
910.670651	0.244099
910.851740	0.243306
911.032810	0.242901
911.213863	0.242560
911.394897	0.242114
911.575913	0.241814
911.756911	0.241666
911.937890	0.241623
912.118851	0.241171
912.299794	0.240852
912.480719	0.241064
912.661626	0.240394
912.842514	0.239873
913.023384	0.239502
913.204236	0.239490
913.385070	0.238752
913.565886	0.238122
913.746683	0.237703
913.927462	0.237521
914.108223	0.237231
914.288965	0.237031
914.469690	0.237258
914.650396	0.236948
914.831084	0.236358
915.011754	0.236127
915.192405	0.235923
915.373038	0.235709
915.553653	0.235117
915.734250	0.234670
915.914829	0.234512
916.095389	0.233608
916.275931	0.233126
916.456455	0.233209
916.636961	0.233166
916.817448	0.232783
916.997917	0.232489
917.178368	0.231548
917.358801	0.230989
917.539216	0.230274
917.719612	0.229910
917.899990	0.229434
918.080350	0.228750
918.260692	0.227741
918.441015	0.226846
918.621320	0.226626
918.801607	0.226729
918.981876	0.226347
919.162127	0.226046
919.342359	0.225520
919.522573	0.225283
919.702769	0.224740
919.882947	0.224482
920.063106	0.224747
920.243247	0.224224
920.423370	0.223631
920.603475	0.222912
920.783562	0.222082
920.963630	0.221366
921.143680	0.221083
921.323712	0.220718
921.503725	0.219988
921.683721	0.219485
921.863698	0.218918
922.043657	0.218883
922.223598	0.218748
922.403520	0.218668
922.583424	0.218188
922.763311	0.217190
922.943178	0.216467
923.123028	0.216238
923.302859	0.215497
923.482673	0.214514
923.662467	0.213512
923.842244	0.213112
924.022003	0.212426
924.201743	0.211850
924.381465	0.211506
924.561169	0.211276
924.740854	0.210319
924.920522	0.209887
925.100171	0.209336
925.279802	0.209474
925.459414	0.208952
925.639009	0.209347
925.818585	0.208967
925.998143	0.208982
926.177683	0.208587
926.357205	0.208541
926.536708	0.208429
926.716193	0.207971
926.895660	0.206850
927.075109	0.205816
927.254539	0.204248
927.433951	0.203912
927.613345	0.203088
927.792721	0.201980
927.972079	0.200955
928.151418	0.199962
928.330739	0.199694
928.510042	0.199378
928.689327	0.198741
928.868593	0.198555
929.047841	0.197831
929.227071	0.197194
929.406283	0.197081
929.585476	0.197567
929.764652	0.196407
929.943809	0.195624
930.122948	0.195071
930.302068	0.194469
930.481171	0.193823
930.660255	0.193205
930.839321	0.192046
931.018369	0.190806
931.197398	0.189376
931.376409	0.189226
931.555402	0.188673
931.734377	0.187954
931.913334	0.186958
932.092272	0.186274
932.271192	0.186176
932.450094	0.186006
932.628978	0.186289
932.807844	0.185819
932.986691	0.184868
933.165520	0.184923
933.344331	0.184810
933.523123	0.185302
933.701898	0.185621
933.880654	0.184932
934.059392	0.184291
934.238111	0.183816
934.416813	0.183633
934.595496	0.183477
934.774161	0.182233
934.952808	0.181185
935.131437	0.179766
935.310047	0.177732
935.488639	0.176453
935.667213	0.175934
935.845769	0.174028
936.024306	0.172621
936.202825	0.171364
936.381326	0.171020
936.559809	0.170676
936.738274	0.170087
936.916720	0.170159
937.095148	0.169866
937.273558	0.169268
937.451950	0.168959
937.630323	0.168633
937.808678	0.168692
937.987015	0.168305
938.165334	0.167311
938.343635	0.167877
938.521917	0.166640
938.700181	0.165963
938.878427	0.164928
939.056655	0.164334
939.234864	0.163175
939.413055	0.162720
939.591228	0.161823
939.769383	0.160441
939.947519	0.158979
940.125638	0.158563
940.303738	0.158421
940.481820	0.158174
940.659883	0.157966
940.837929	0.157149
941.015956	0.155917
941.193965	0.154397
941.371955	0.153893
941.549928	0.153157
941.727882	0.152235
941.905818	0.150677
942.083736	0.149199
942.261636	0.148541
942.439517	0.148452
942.617380	0.147846
942.795225	0.147435
942.973052	0.147376
943.150860	0.146135
943.328651	0.145687
943.506423	0.145462
943.684176	0.145206
943.861912	0.143563
944.039629	0.142659
944.217328	0.141502
944.395009	0.140548
944.572672	0.139479
944.750317	0.139546
944.927943	0.138002
945.105551	0.137085
945.283141	0.136405
945.460712	0.136232
945.638265	0.136064
945.815801	0.135414
945.993317	0.135123
946.170816	0.134716
946.348297	0.133906
946.525759	0.134043
946.703203	0.133263
946.880629	0.133405
947.058036	0.133224
947.235425	0.132361
947.412797	0.130880
947.590149	0.130338
947.767484	0.128894
947.944800	0.127445
948.122099	0.126343
948.299379	0.125861
948.476640	0.123823
948.653884	0.121315
948.831109	0.120876
949.008316	0.120673
949.185505	0.119751
949.362676	0.120304
949.539828	0.120209
949.716962	0.118834
949.894078	0.117713
950.071176	0.117983
950.248256	0.117966
950.425317	0.117436
950.602360	0.118344
950.779385	0.116797
950.956391	0.116804
951.133380	0.114596
951.310350	0.115292
951.487302	0.114176
951.664235	0.113625
951.841151	0.114978
952.018048	0.113128
952.194927	0.111263
952.371788	0.111356
952.548631	0.109192
952.725455	0.110186
952.902261	0.110617
953.079049	0.110869
953.255819	0.109007
953.432570	0.107358
953.609303	0.107524
953.786018	0.107018
953.962715	0.107119
954.139394	0.106873
954.316054	0.106300
954.492696	0.103450
954.669320	0.101972
954.845926	0.102428
955.022513	0.102680
955.199083	0.102219
955.375634	0.102383
955.552166	0.100701
955.728681	0.098951
955.905177	0.100660
956.081655	0.100476
956.258115	0.100405
956.434557	0.100340
956.610980	0.097564
956.787385	0.096626
956.963772	0.095239
957.140141	0.094896
957.316492	0.095045
957.492824	0.091937
957.669138	0.090736
957.845434	0.090514
958.021712	0.089025
958.197971	0.089413
958.374212	0.088600
958.550435	0.088436
958.726640	0.089630
958.902826	0.091368
959.078995	0.089281
959.255145	0.089404
959.431277	0.089991
959.607390	0.090183
959.783486	0.091955
959.959563	0.092240
960.135622	0.093708
960.311662	0.092870
960.487685	0.091761
960.663689	0.092426
960.839675	0.094279
961.015643	0.092912
961.191593	0.092872
961.367524	0.091158
961.543437	0.089737
961.719332	0.088494
961.895209	0.088414
962.071067	0.087674
962.246907	0.088887
962.422730	0.087446
962.598533	0.088361
962.774319	0.088135
962.950086	0.087493
963.125835	0.088750
963.301566	0.087373
963.477279	0.086067
963.652973	0.085542
963.828650	0.084983
964.004308	0.084699
964.179947	0.084126
964.355569	0.085508
964.531172	0.087387
964.706757	0.086708
964.882324	0.086631
965.057873	0.086936
965.233403	0.087254
965.408916	0.087789
965.584410	0.088282
965.759885	0.088237
965.935343	0.086906
966.110782	0.086165
966.286203	0.088293
966.461606	0.087917
966.636991	0.087966
966.812357	0.088623
966.987705	0.090219
967.163035	0.090244
967.338347	0.090322
967.513641	0.089369
967.688916	0.086961
967.864173	0.085852
968.039412	0.087147
968.214632	0.085827
968.389835	0.084472
968.565019	0.082491
968.740185	0.084338
968.915333	0.084719
969.090462	0.084894
969.265573	0.088585
969.440667	0.089278
969.615741	0.088606
969.790798	0.091363
969.965836	0.092497
970.140856	0.093522
970.315858	0.090810
970.490842	0.090038
970.665808	0.090273
970.840755	0.086995
971.015684	0.086769
971.190595	0.084752
971.365487	0.082441
971.540362	0.082858
971.715218	0.083128
971.890056	0.083678
972.064875	0.083638
972.239677	0.084198
972.414460	0.084374
972.589225	0.084434
972.763972	0.087784
972.938700	0.088473
973.113411	0.087345
973.288103	0.087276
973.462777	0.089627
973.637432	0.091287
973.812070	0.090731
973.986689	0.089212
974.161290	0.086697
974.335873	0.086221
974.510437	0.086901
974.684984	0.087118
974.859512	0.086240
975.034022	0.083556
975.208513	0.080095
975.382987	0.079647
975.557442	0.081410
975.731879	0.083547
975.906298	0.083911
976.080698	0.083653
976.255080	0.083132
976.429445	0.081688
976.603790	0.083086
976.778118	0.084911
976.952427	0.085601
977.126719	0.085497
977.300992	0.084739
977.475246	0.081513
977.649483	0.082870
977.823701	0.082400
977.997901	0.083964
978.172083	0.082932
978.346247	0.082849
978.520392	0.084534
978.694519	0.085189
978.868628	0.083779
979.042719	0.085311
979.216791	0.083867
979.390845	0.084162
979.564882	0.085573
979.738899	0.085128
979.912899	0.084870
980.086880	0.083116
980.260843	0.083985
980.434788	0.084634
980.608715	0.084816
980.782623	0.085924
980.956514	0.088027
981.130386	0.087143
981.304240	0.088610
981.478075	0.088172
981.651892	0.088111
981.825692	0.086398
981.999472	0.087966
982.173235	0.089693
982.346980	0.087903
982.520706	0.086854
982.694414	0.084449
982.868104	0.084377
983.041775	0.087077
983.215428	0.087085
983.389064	0.086787
983.562680	0.086512
983.736279	0.086016
983.909860	0.086758
984.083422	0.086456
984.256966	0.087841
984.430491	0.086992
984.603999	0.085843
984.777488	0.085668
984.950959	0.085148
985.124412	0.084939
985.297847	0.085379
985.471263	0.086195
985.644661	0.085826
985.818041	0.086889
985.991403	0.086138
986.164747	0.085909
986.338072	0.085566
986.511379	0.085742
986.684668	0.084891
986.857938	0.082657
987.031191	0.084447
987.204425	0.084623
987.377641	0.083590
987.550839	0.083368
987.724018	0.084424
987.897179	0.085867
988.070322	0.086162
988.243447	0.086244
988.416554	0.088283
988.589642	0.086295
988.762712	0.086823
988.935764	0.087312
989.108798	0.087699
989.281813	0.087106
989.454811	0.085827
989.627790	0.086988
989.800751	0.087596
989.973693	0.086577
990.146617	0.086965
990.319524	0.087139
990.492412	0.087544
990.665281	0.088376
990.838133	0.088173
991.010966	0.087807
991.183781	0.087668
991.356578	0.087272
991.529356	0.087194
991.702117	0.086357
991.874859	0.084622
992.047583	0.083365
992.220288	0.083018
992.392976	0.083557
992.565645	0.083804
992.738296	0.084059
992.910929	0.085320
993.083543	0.087356
993.256139	0.086627
993.428718	0.087954
993.601277	0.090817
993.773819	0.091249
993.946342	0.090038
994.118848	0.089413
994.291335	0.090344
994.463803	0.089798
994.636254	0.088660
994.808686	0.090648
994.981100	0.090695
995.153496	0.088893
995.325874	0.089712
995.498233	0.089926
995.670574	0.091974
995.842897	0.089995
996.015202	0.088281
996.187488	0.084949
996.359757	0.083143
996.532007	0.082452
996.704239	0.081996
996.876452	0.081722
997.048648	0.081642
997.220825	0.082308
997.392984	0.084139
997.565124	0.085131
997.737247	0.087672
997.909351	0.089160
998.081437	0.089657
998.253505	0.090083
998.425554	0.089963
998.597586	0.090801
998.769599	0.089263
998.941594	0.086980
999.113571	0.087851
999.285529	0.086783
999.457469	0.086799
999.629391	0.088006
999.801295	0.089327
999.973181	0.089137
1000.145048	0.087187
1000.316897	0.086352
1000.488728	0.087533
1000.660541	0.087687
1000.832335	0.089514
1001.004111	0.089399
1001.175869	0.089515
1001.347609	0.087201
1001.519331	0.087175
1001.691034	0.088968
1001.862719	0.089872
1002.034386	0.089780
1002.206035	0.088863
1002.377665	0.088756
1002.549277	0.088237
1002.720871	0.086231
1002.892447	0.087552
1003.064004	0.087684
1003.235544	0.087213
1003.407065	0.087641
1003.578568	0.087975
1003.750052	0.087197
1003.921519	0.086295
1004.092967	0.086376
1004.264397	0.086597
1004.435809	0.087629
1004.607202	0.088105
1004.778577	0.088938
1004.949934	0.089592
1005.121273	0.089945
1005.292594	0.091148
1005.463896	0.092642
1005.635180	0.094152
1005.806446	0.095741
1005.977694	0.093721
1006.148923	0.093994
1006.320135	0.093781
1006.491328	0.091219
1006.662503	0.091392
1006.833659	0.090122
1007.004798	0.089133
1007.175918	0.086105
1007.347020	0.086056
1007.518103	0.086474
1007.689169	0.086463
1007.860216	0.085200
1008.031245	0.086085
1008.202256	0.086354
1008.373248	0.089030
1008.544223	0.089208
1008.715179	0.090902
1008.886117	0.088751
1009.057036	0.089295
1009.227938	0.088381
1009.398821	0.089724
1009.569686	0.089041
1009.740533	0.088349
1009.911361	0.087630
1010.082172	0.087863
1010.252964	0.086928
1010.423738	0.087157
1010.594493	0.087023
1010.765231	0.088119
1010.935950	0.089012
1011.106651	0.090220
1011.277334	0.091281
1011.447998	0.091611
1011.618645	0.092939
1011.789273	0.093334
1011.959882	0.094697
1012.130474	0.094007
1012.301048	0.092091
1012.471603	0.091129
1012.642140	0.092375
1012.812658	0.091517
1012.983159	0.090766
1013.153641	0.089683
1013.324105	0.089098
1013.494551	0.088834
1013.664979	0.089769
1013.835388	0.091556
1014.005779	0.092265
1014.176152	0.089875
1014.346507	0.089686
1014.516843	0.088219
1014.687162	0.086425
1014.857462	0.088373
1015.027744	0.087150
1015.198007	0.085341
1015.368252	0.086886
1015.538480	0.087139
1015.708689	0.088173
1015.878879	0.086871
1016.049052	0.088679
1016.219206	0.089315
1016.389342	0.087070
1016.559460	0.088111
1016.729559	0.088006
1016.899641	0.083654
1017.069704	0.082832
1017.239749	0.084098
1017.409775	0.085796
1017.579784	0.084385
1017.749774	0.085280
1017.919746	0.085919
1018.089700	0.084879
1018.259635	0.086452
1018.429553	0.088806
1018.599452	0.088537
1018.769333	0.087257
1018.939195	0.086089
1019.109040	0.086120
1019.278866	0.085770
1019.448674	0.086875
1019.618464	0.086944
1019.788235	0.086623
1019.957989	0.085555
1020.127724	0.084345
1020.297441	0.085206
1020.467139	0.086150
1020.636820	0.086638
1020.806482	0.088330
1020.976126	0.088454
1021.145752	0.090025
1021.315359	0.090751
1021.484948	0.090858
1021.654519	0.091599
1021.824072	0.091023
1021.993607	0.091344
1022.163123	0.092743
1022.332621	0.091316
1022.502101	0.091005
1022.671563	0.089337
1022.841007	0.089511
1023.010432	0.088267
1023.179839	0.088604
1023.349228	0.088940
1023.518598	0.086895
1023.687951	0.086396
1023.857285	0.085053
1024.026601	0.084780
1024.195899	0.085839
1024.365178	0.085209
1024.534439	0.085906
1024.703682	0.086251
1024.872907	0.087873
1025.042114	0.089010
1025.211302	0.088980
1025.380472	0.088906
1025.549624	0.090400
1025.718758	0.091369
1025.887873	0.090942
1026.056970	0.091369
1026.226049	0.091156
1026.395110	0.088336
1026.564153	0.087350
1026.733177	0.087578
1026.902183	0.089216
1027.071171	0.088833
1027.240141	0.088972
1027.409092	0.088306
1027.578026	0.089022
1027.746940	0.087122
1027.915837	0.087255
1028.084716	0.089263
1028.253576	0.088124
1028.422418	0.087984
1028.591242	0.086440
1028.760048	0.085804
1028.928835	0.086092
1029.097604	0.086261
1029.266355	0.089065
1029.435088	0.089276
1029.603803	0.087929
1029.772499	0.088555
1029.941177	0.088415
1030.109837	0.089817
1030.278478	0.090500
1030.447102	0.091205
1030.615707	0.090604
1030.784294	0.089653
1030.952863	0.089829
1031.121413	0.090204
1031.289945	0.090583
1031.458460	0.090078
1031.626955	0.088822
1031.795433	0.088038
1031.963892	0.088249
1032.132334	0.088860
1032.300756	0.088216
1032.469161	0.089235
1032.637548	0.089410
1032.805916	0.089455
1032.974266	0.090026
1033.142598	0.089639
1033.310911	0.089504
1033.479207	0.090358
1033.647484	0.089261
1033.815743	0.089534
1033.983983	0.088633
1034.152206	0.089212
1034.320410	0.088077
1034.488596	0.087562
1034.656764	0.087576
1034.824914	0.087382
1034.993045	0.085211
1035.161158	0.085408
1035.329253	0.085729
1035.497330	0.087626
1035.665388	0.087040
1035.833428	0.088372
1036.001450	0.088363
1036.169454	0.088013
1036.337440	0.088726
1036.505407	0.089414
1036.673356	0.088727
1036.841287	0.088254
1037.009200	0.086922
1037.177094	0.087357
1037.344970	0.086548
1037.512828	0.087261
1037.680668	0.088319
1037.848489	0.088205
1038.016293	0.087873
1038.184078	0.089795
1038.351845	0.089661
1038.519593	0.089539
1038.687324	0.089545
1038.855036	0.089873
1039.022730	0.091077
1039.190406	0.090010
1039.358063	0.089957
1039.525702	0.089674
1039.693323	0.089825
1039.860926	0.090302
1040.028511	0.090347
1040.196077	0.089391
1040.363625	0.089973
1040.531155	0.088565
1040.698667	0.089100
1040.866161	0.088438
1041.033636	0.089333
1041.201093	0.088163
1041.368532	0.089291
1041.535952	0.088895
1041.703355	0.088917
1041.870739	0.089186
1042.038105	0.089661
1042.205452	0.089496
1042.372782	0.089522
1042.540093	0.088944
1042.707386	0.088377
1042.874661	0.087807
1043.041918	0.088392
1043.209156	0.089745
1043.376376	0.087758
1043.543578	0.088055
1043.710762	0.089969
1043.877927	0.089830
1044.045074	0.091187
1044.212203	0.091688
1044.379314	0.090159
1044.546407	0.090532
1044.713481	0.088078
1044.880537	0.089238
1045.047575	0.087772
1045.214595	0.086570
1045.381596	0.085905
1045.548579	0.085757
1045.715544	0.085156
1045.882491	0.085545
1046.049420	0.083682
1046.216330	0.084677
1046.383222	0.082097
1046.550096	0.082634
1046.716951	0.082240
1046.883789	0.083452
1047.050608	0.082824
1047.217409	0.083472
1047.384192	0.083813
1047.550956	0.084490
1047.717703	0.085041
1047.884431	0.088442
1048.051140	0.088341
1048.217832	0.088322
1048.384505	0.088750
1048.551161	0.088557
1048.717798	0.089714
1048.884416	0.090415
1049.051017	0.091449
1049.217599	0.091574
1049.384163	0.090589
1049.550709	0.091758
1049.717237	0.092651
1049.883746	0.091507
1050.050237	0.092334
1050.216710	0.091086
1050.383165	0.091686
1050.549601	0.089793
1050.716019	0.089265
1050.882420	0.088804
1051.048801	0.088158
1051.215165	0.087413
1051.381510	0.086342
1051.547837	0.085473
1051.714146	0.086586
1051.880437	0.085729
1052.046709	0.086075
1052.212964	0.085891
1052.379200	0.085997
1052.545417	0.085500
1052.711617	0.085521
1052.877798	0.086491
1053.043961	0.086724
1053.210106	0.085468
1053.376233	0.086583
1053.542341	0.088292
1053.708432	0.087589
1053.874504	0.088635
1054.040557	0.088428
1054.206593	0.087704
1054.372610	0.089059
1054.538609	0.089173
1054.704590	0.088807
1054.870553	0.087500
1055.036497	0.086488
1055.202424	0.087370
1055.368331	0.085679
1055.534221	0.086591
1055.700093	0.087490
1055.865946	0.086719
1056.031781	0.086177
1056.197598	0.086829
1056.363397	0.086447
1056.529177	0.086271
1056.694939	0.087092
1056.860683	0.088706
1057.026409	0.088217
1057.192116	0.089174
1057.357806	0.089379
1057.523477	0.089007
1057.689130	0.088951
1057.854764	0.088479
1058.020381	0.087381
1058.185979	0.086993
1058.351559	0.084634
1058.517120	0.085585
1058.682664	0.084787
1058.848189	0.084900
1059.013696	0.086668
1059.179185	0.087596
1059.344656	0.089283
1059.510108	0.090266
1059.675542	0.089766
1059.840958	0.092411
1060.006356	0.092930
1060.171735	0.092650
1060.337096	0.090973
1060.502439	0.090616
1060.667764	0.090735
1060.833071	0.091791
1060.998359	0.091546
1061.163629	0.092065
1061.328881	0.090772
1061.494115	0.090972
1061.659330	0.091963
1061.824527	0.093657
1061.989706	0.094846
1062.154867	0.094643
1062.320010	0.093724
1062.485134	0.093248
1062.650240	0.094749
1062.815328	0.095944
1062.980398	0.093974
1063.145449	0.091823
1063.310482	0.091556
1063.475497	0.088911
1063.640494	0.087483
1063.805473	0.086279
1063.970433	0.086215
1064.135375	0.084855
1064.300299	0.083498
1064.465204	0.083701
1064.630092	0.085933
1064.794961	0.084121
1064.959812	0.085247
1065.124645	0.087121
1065.289459	0.087820
1065.454256	0.089221
1065.619034	0.089285
1065.783793	0.089454
1065.948535	0.089881
1066.113258	0.090897
1066.277964	0.091997
1066.442651	0.092411
1066.607319	0.093126
1066.771970	0.092955
1066.936602	0.093687
1067.101216	0.093351
1067.265812	0.093188
1067.430389	0.092966
1067.594949	0.091334
1067.759490	0.092540
1067.924013	0.094315
1068.088518	0.093102
1068.253004	0.093353
1068.417472	0.092487
1068.581922	0.092945
1068.746354	0.091101
1068.910768	0.089411
1069.075163	0.089001
1069.239540	0.089557
1069.403899	0.088560
1069.568240	0.087218
1069.732562	0.087061
1069.896866	0.087728
1070.061152	0.087419
1070.225420	0.088925
1070.389670	0.088864
1070.553901	0.089303
1070.718114	0.088307
1070.882309	0.086535
1071.046486	0.088826
1071.210644	0.087812
1071.374784	0.087255
1071.538906	0.086391
1071.703010	0.087758
1071.867096	0.090238
1072.031163	0.089381
1072.195212	0.090293
1072.359243	0.092990
1072.523256	0.091888
1072.687250	0.091503
1072.851226	0.090214
1073.015184	0.089560
1073.179124	0.088506
1073.343045	0.088130
1073.506949	0.088792
1073.670834	0.087172
1073.834701	0.086087
1073.998549	0.085818
1074.162380	0.087122
1074.326192	0.088036
1074.489986	0.090069
1074.653761	0.088300
1074.817519	0.087417
1074.981258	0.086298
1075.144979	0.088071
1075.308682	0.085396
1075.472367	0.084268
1075.636033	0.083913
1075.799681	0.085763
1075.963311	0.087396
1076.126923	0.089199
1076.290516	0.090836
1076.454092	0.091217
1076.617649	0.090677
1076.781187	0.091907
1076.944708	0.093955
1077.108210	0.093713
1077.271695	0.092161
1077.435160	0.092310
1077.598608	0.092565
1077.762038	0.090345
1077.925449	0.093454
1078.088842	0.093490
1078.252217	0.095540
1078.415573	0.094113
1078.578912	0.094957
1078.742232	0.097740
1078.905534	0.095297
1079.068817	0.098077
1079.232083	0.097530
1079.395330	0.095668
1079.558559	0.097656
1079.721770	0.096851
1079.884962	0.098160
1080.048136	0.099864
1080.211293	0.097809
1080.374430	0.099308
1080.537550	0.097831
1080.700651	0.098459
1080.863735	0.099364
1081.026800	0.095132
1081.189846	0.095524
1081.352875	0.094428
1081.515885	0.092768
1081.678877	0.091656
1081.841851	0.089552
1082.004807	0.087505
1082.167744	0.089485
1082.330663	0.089017
1082.493564	0.091471
1082.656447	0.090947
1082.819312	0.092664
1082.982158	0.093768
1083.144986	0.094034
1083.307796	0.096218
1083.470587	0.098875
1083.633361	0.097739
1083.796116	0.095980
1083.958853	0.093064
1084.121571	0.092995
1084.284272	0.091157
1084.446954	0.090409
1084.609618	0.090193
1084.772264	0.089512
1084.934892	0.089901
1085.097501	0.088090
1085.260092	0.089111
1085.422665	0.090486
1085.585220	0.091056
1085.747756	0.094378
1085.910274	0.093585
1086.072774	0.094448
1086.235256	0.092763
1086.397720	0.093336
1086.560165	0.095599
1086.722592	0.094516
1086.885001	0.096566
1087.047392	0.095731
1087.209764	0.092026
1087.372119	0.093250
1087.534455	0.093974
1087.696772	0.094100
1087.859072	0.092322
1088.021353	0.091914
1088.183616	0.093271
1088.345861	0.094754
1088.508088	0.094617
1088.670296	0.095890
1088.832486	0.096753
1088.994658	0.096175
1089.156812	0.098305
1089.318948	0.096957
1089.481065	0.096285
1089.643164	0.096705
1089.805245	0.095215
1089.967308	0.093989
1090.129352	0.093146
1090.291378	0.091023
1090.453386	0.090206
1090.615376	0.090570
1090.777347	0.090819
1090.939301	0.092898
1091.101236	0.094971
1091.263153	0.092496
1091.425051	0.094917
1091.586932	0.093193
1091.748794	0.094800
1091.910638	0.095243
1092.072463	0.095240
1092.234271	0.094832
1092.396060	0.093417
1092.557831	0.091595
1092.719584	0.092717
1092.881319	0.090210
1093.043035	0.091194
1093.204733	0.089534
1093.366413	0.090873
1093.528075	0.089402
1093.689718	0.090429
1093.851343	0.091021
1094.012950	0.089330
1094.174539	0.089123
1094.336110	0.088314
1094.497662	0.090117
1094.659196	0.090469
1094.820712	0.087167
1094.982210	0.087500
1095.143689	0.089023
1095.305151	0.087062
1095.466594	0.089107
1095.628018	0.089433
1095.789425	0.091185
1095.950813	0.089941
1096.112183	0.090798
1096.273535	0.093580
1096.434869	0.091587
1096.596184	0.090856
1096.757482	0.092327
1096.918761	0.091355
1097.080021	0.091533
1097.241264	0.088816
1097.402488	0.087216
1097.563694	0.086992
1097.724882	0.085762
1097.886052	0.085575
1098.047203	0.085256
1098.208336	0.084231
1098.369451	0.084498
1098.530548	0.084099
1098.691627	0.089685
1098.852687	0.091519
1099.013729	0.089441
1099.174753	0.091380
1099.335758	0.093136
1099.496746	0.091534
1099.657715	0.092876
1099.818666	0.093322
1099.979599	0.092019
1100.140513	0.093429
1100.301409	0.092753
1100.462287	0.093950
1100.623147	0.093368
1100.783989	0.095692
1100.944812	0.098850
1101.105617	0.099628
1101.266404	0.097792
1101.427173	0.098564
1101.587923	0.095735
1101.748656	0.098724
1101.909370	0.100671
1102.070066	0.101731
1102.230743	0.099664
1102.391403	0.096635
1102.552044	0.097798
1102.712667	0.098045
1102.873271	0.096292
1103.033858	0.097213
1103.194426	0.095778
1103.354976	0.095881
1103.515508	0.094997
1103.676021	0.095395
1103.836517	0.095347
1103.996994	0.092828
1104.157453	0.094883
1104.317893	0.098842
1104.478316	0.097686
1104.638720	0.095872
1104.799106	0.094373
1104.959474	0.092861
1105.119823	0.092309
1105.280155	0.095494
1105.440468	0.094832
1105.600763	0.094753
1105.761039	0.093121
1105.921298	0.093091
1106.081538	0.094917
1106.241760	0.095004
1106.401964	0.093608
1106.562149	0.093168
1106.722316	0.091058
1106.882465	0.090959
1107.042596	0.087974
1107.202709	0.088027
1107.362803	0.085709
1107.522879	0.084938
1107.682937	0.084022
1107.842977	0.088473
1108.002999	0.086046
1108.163002	0.087434
1108.322987	0.088857
1108.482954	0.092260
1108.642902	0.096075
1108.802833	0.098497
1108.962745	0.096684
1109.122639	0.097832
1109.282515	0.095157
1109.442372	0.097082
1109.602211	0.096614
1109.762032	0.096288
1109.921835	0.094313
1110.081620	0.089869
1110.241386	0.089919
1110.401134	0.095139
1110.560864	0.094507
1110.720576	0.095259
1110.880269	0.097538
1111.039945	0.096570
1111.199602	0.094681
1111.359240	0.095470
1111.518861	0.094153
1111.678463	0.091058
1111.838047	0.090301
1111.997613	0.094775
1112.157161	0.092078
1112.316690	0.093613
1112.476202	0.091589
1112.635695	0.093382
1112.795169	0.090147
1112.954626	0.089492
1113.114064	0.091104
1113.273484	0.086950
1113.432886	0.085631
1113.592270	0.087745
1113.751635	0.083761
1113.910983	0.083789
1114.070312	0.085602
1114.229622	0.086003
1114.388915	0.088182
1114.548189	0.088618
1114.707445	0.089362
1114.866683	0.088716
1115.025903	0.087073
1115.185104	0.092096
1115.344287	0.096834
1115.503452	0.093747
1115.662599	0.096412
1115.821727	0.096773
1115.980838	0.094726
1116.139930	0.095038
1116.299004	0.094830
1116.458059	0.098686
1116.617097	0.093691
1116.776116	0.091657
1116.935117	0.096185
1117.094099	0.094705
1117.253064	0.097256
1117.412010	0.098542
1117.570938	0.099330
1117.729848	0.094738
1117.888740	0.095263
1118.047613	0.095325
1118.206468	0.097133
1118.365305	0.093156
1118.524124	0.091879
1118.682924	0.089388
1118.841707	0.088812
1119.000471	0.090238
1119.159216	0.089694
1119.317944	0.089707
1119.476653	0.091464
1119.635344	0.087915
1119.794017	0.087031
1119.952672	0.085735
1120.111308	0.084639
1120.269927	0.085716
1120.428527	0.085120
1120.587108	0.087722
1120.745672	0.084287
1120.904217	0.084753
1121.062744	0.084492
1121.221253	0.085610
1121.379744	0.090779
1121.538216	0.089453
1121.696671	0.093961
1121.855107	0.089531
1122.013524	0.090873
1122.171924	0.086716
1122.330305	0.087580
1122.488668	0.088456
1122.647013	0.086770
1122.805340	0.082769
1122.963648	0.081789
1123.121938	0.077009
1123.280210	0.083560
1123.438464	0.080007
1123.596700	0.085703
1123.754917	0.082241
1123.913116	0.083511
1124.071297	0.084087
1124.229459	0.085346
1124.387604	0.087280
1124.545730	0.087033
1124.703838	0.086068
1124.861928	0.090152
1125.019999	0.091167
1125.178052	0.089894
1125.336088	0.091467
1125.494104	0.092256
1125.652103	0.093054
1125.810083	0.092284
1125.968045	0.090950
1126.125989	0.091204
1126.283915	0.089877
1126.441823	0.088217
1126.599712	0.094729
1126.757583	0.089194
1126.915436	0.088087
1127.073270	0.085381
1127.231087	0.086356
1127.388885	0.084761
1127.546665	0.084501
1127.704426	0.080264
1127.862170	0.079752
1128.019895	0.077595
1128.177602	0.079527
1128.335291	0.081961
1128.492961	0.084492
1128.650614	0.087130
1128.808248	0.086845
1128.965864	0.085933
1129.123461	0.089058
1129.281041	0.091776
1129.438602	0.090166
1129.596145	0.093403
1129.753670	0.095635
1129.911176	0.098065
1130.068665	0.096893
1130.226135	0.100412
1130.383587	0.101538
1130.541020	0.106215
1130.698436	0.103375
1130.855833	0.103699
1131.013212	0.099546
1131.170573	0.100953
1131.327915	0.101082
1131.485239	0.101848
1131.642545	0.103251
1131.799833	0.099214
1131.957103	0.096293
1132.114354	0.094768
1132.271588	0.092479
1132.428803	0.094466
1132.585999	0.087562
1132.743178	0.083626
1132.900338	0.083804
1133.057480	0.079996
1133.214604	0.080540
1133.371710	0.081218
1133.528797	0.084208
1133.685866	0.080875
1133.842917	0.080675
1133.999950	0.083953
1134.156964	0.083577
1134.313960	0.078212
1134.470938	0.076130
1134.627898	0.077931
1134.784840	0.074840
1134.941763	0.075450
1135.098668	0.079993
1135.255555	0.081802
1135.412424	0.077871
1135.569274	0.081129
1135.726107	0.083117
1135.882921	0.087334
1136.039716	0.086635
1136.196494	0.091491
1136.353253	0.088932
1136.509995	0.092324
1136.666717	0.091103
1136.823422	0.093556
1136.980109	0.090639
1137.136777	0.090645
1137.293427	0.090806
1137.450059	0.087899
1137.606672	0.080668
1137.763267	0.082871
1137.919844	0.080725
1138.076403	0.079094
1138.232944	0.080581
1138.389466	0.080792
1138.545971	0.087897
1138.702457	0.089997
1138.858924	0.092761
1139.015374	0.092423
1139.171805	0.087324
1139.328218	0.086577
1139.484613	0.088025
1139.640990	0.086403
1139.797348	0.091274
1139.953688	0.081285
1140.110010	0.083646
1140.266314	0.083649
1140.422600	0.084342
1140.578867	0.088111
1140.735116	0.083839
1140.891347	0.080565
1141.047559	0.078898
1141.203754	0.074133
1141.359930	0.076286
1141.516088	0.075972
1141.672228	0.077446
1141.828349	0.077134
1141.984452	0.074515
1142.140537	0.079166
1142.296604	0.084110
1142.452653	0.087529
1142.608683	0.087181
1142.764695	0.089820
1142.920689	0.084089
1143.076665	0.084006
1143.232622	0.085536
1143.388562	0.090054
1143.544483	0.091488
1143.700385	0.085318
1143.856270	0.086637
1144.012136	0.087493
1144.167985	0.087446
1144.323814	0.092152
1144.479626	0.097752
1144.635420	0.099750
1144.791195	0.095661
1144.946952	0.091798
1145.102691	0.093045
1145.258411	0.088385
1145.414113	0.087501
1145.569798	0.086582
1145.725463	0.090031
1145.881111	0.083565
1146.036741	0.081890
1146.192352	0.081432
1146.347945	0.081811
1146.503519	0.087386
1146.659076	0.092553
1146.814614	0.095406
1146.970134	0.101285
1147.125636	0.094683
1147.281120	0.097148
1147.436585	0.098177
1147.592032	0.099407
1147.747461	0.100170
1147.902872	0.096082
1148.058265	0.090846
1148.213639	0.091591
1148.368995	0.092142
1148.524333	0.089647
1148.679653	0.090255
1148.834954	0.094984
1148.990237	0.093556
1149.145502	0.092468
1149.300749	0.095937
1149.455977	0.104081
1149.611188	0.098376
1149.766380	0.092298
1149.921553	0.095710
1150.076709	0.086564
1150.231846	0.076890
1150.386966	0.077235
1150.542066	0.079223
1150.697149	0.075065
1150.852214	0.071522
1151.007260	0.074584
1151.162288	0.080514
1151.317298	0.073914
1151.472289	0.082144
1151.627263	0.085429
1151.782218	0.090025
1151.937155	0.087509
1152.092073	0.092446
1152.246974	0.085617
1152.401856	0.084755
1152.556720	0.083197
1152.711566	0.090123
1152.866393	0.086749
1153.021203	0.084476
1153.175994	0.077774
1153.330767	0.078279
1153.485521	0.077269
1153.640258	0.080355
1153.794976	0.079000
1153.949676	0.074965
1154.104358	0.076142
1154.259021	0.075631
1154.413667	0.076073
1154.568294	0.073170
1154.722903	0.073517
1154.877493	0.064364
1155.032066	0.063968
1155.186620	0.064040
1155.341156	0.055610
1155.495674	0.049325
1155.650173	0.049775
1155.804654	0.055731
1155.959118	0.061669
1156.113562	0.065856
1156.267989	0.070472
1156.422397	0.072527
1156.576788	0.077026
1156.731160	0.082060
1156.885513	0.081367
1157.039849	0.081059
1157.194166	0.078958
1157.348465	0.074371
1157.502746	0.064191
1157.657009	0.066219
1157.811253	0.062354
1157.965479	0.062879
1158.119687	0.067299
1158.273877	0.075249
1158.428048	0.074944
1158.582201	0.077352
1158.736337	0.085198
1158.890453	0.095265
1159.044552	0.089580
1159.198632	0.092335
1159.352694	0.088624
1159.506738	0.085585
1159.660764	0.073895
1159.814771	0.069613
1159.968761	0.062980
1160.122732	0.053489
1160.276685	0.051334
1160.430619	0.051065
1160.584535	0.055847
1160.738434	0.063022
1160.892313	0.057952
1161.046175	0.063407
1161.200019	0.065364
1161.353844	0.067356
1161.507651	0.075344
1161.661440	0.075026
1161.815210	0.080478
1161.968962	0.076844
1162.122697	0.064879
1162.276412	0.067808
1162.430110	0.072043
1162.583789	0.065188
1162.737451	0.062105
1162.891094	0.054701
1163.044718	0.054056
1163.198325	0.051893
1163.351913	0.049037
1163.505483	0.052905
1163.659035	0.053932
1163.812569	0.049680
1163.966084	0.052931
1164.119581	0.050369
1164.273060	0.050128
1164.426521	0.051574
1164.579964	0.050365
1164.733388	0.051198
1164.886794	0.049446
1165.040182	0.042349
1165.193551	0.043820
1165.346903	0.050591
1165.500236	0.053371
1165.653551	0.061706
1165.806848	0.056958
1165.960126	0.062473
1166.113386	0.054079
1166.266628	0.053444
1166.419852	0.064822
1166.573058	0.065398
1166.726245	0.060312
1166.879414	0.067359
1167.032565	0.067445
1167.185698	0.063249
1167.338812	0.059900
1167.491909	0.066208
1167.644987	0.068908
1167.798046	0.077353
1167.951088	0.078446
1168.104111	0.081242
1168.257117	0.079805
1168.410103	0.081570
1168.563072	0.083927
1168.716023	0.083908
1168.868955	0.086697
1169.021869	0.080572
1169.174765	0.066288
1169.327642	0.075885
1169.480501	0.075830
1169.633343	0.075371
1169.786165	0.067588
1169.938970	0.069832
1170.091757	0.070537
1170.244525	0.058786
1170.397275	0.065918
1170.550007	0.070518
1170.702720	0.053492
1170.855415	0.057216
1171.008092	0.051842
1171.160751	0.050946
1171.313392	0.049675
1171.466014	0.101562
1171.618619	0.040173
1171.771205	0.040173
1171.923772	0.040173
