sample name	sample
index	194
start time	 02-18-2021  12:03:36 PM


Wavelength (nm)	Absorbance
494.344910	-0.297346
494.563924	-0.297346
494.782919	-0.297346
495.001897	0.375909
495.220856	-0.151258
495.439797	-0.117247
495.658719	-0.076570
495.877624	-0.032153
496.096510	-0.077938
496.315378	-0.055313
496.534227	-0.076862
496.753059	-0.108045
496.971872	-0.128824
497.190667	0.100486
497.409444	0.130450
497.628203	0.136821
497.846943	0.143139
498.065665	0.146385
498.284369	0.149216
498.503055	0.151815
498.721723	0.151884
498.940372	0.153451
499.159003	0.153981
499.377616	0.154017
499.596210	0.154515
499.814787	0.154439
500.033345	0.154219
500.251885	0.152996
500.470406	0.152698
500.688910	0.153045
500.907395	0.152835
501.125862	0.152392
501.344311	0.153421
501.562742	0.154242
501.781154	0.153836
501.999548	0.155816
502.217924	0.156109
502.436282	0.155282
502.654621	0.155027
502.872942	0.154624
503.091245	0.154274
503.309530	0.153770
503.527797	0.153771
503.746045	0.154573
503.964275	0.154040
504.182487	0.155094
504.400681	0.155208
504.618856	0.155379
504.837013	0.157215
505.055152	0.157242
505.273273	0.157737
505.491376	0.157479
505.709460	0.157086
505.927526	0.156689
506.145574	0.156968
506.363604	0.157394
506.581615	0.158318
506.799608	0.157470
507.017583	0.157777
507.235540	0.157547
507.453478	0.157678
507.671399	0.157745
507.889301	0.157987
508.107185	0.157802
508.325050	0.158025
508.542898	0.159281
508.760727	0.160004
508.978538	0.160871
509.196330	0.161102
509.414105	0.161872
509.631861	0.161978
509.849599	0.162480
510.067319	0.162333
510.285021	0.162454
510.502704	0.161913
510.720369	0.161130
510.938016	0.160944
511.155645	0.161517
511.373255	0.161138
511.590848	0.162047
511.808422	0.161254
512.025977	0.161736
512.243515	0.162795
512.461034	0.163347
512.678536	0.163058
512.896018	0.163392
513.113483	0.163690
513.330930	0.163647
513.548358	0.163104
513.765768	0.163017
513.983160	0.162979
514.200533	0.162291
514.417889	0.162350
514.635226	0.163117
514.852545	0.163260
515.069845	0.162885
515.287128	0.163246
515.504392	0.163554
515.721638	0.164735
515.938866	0.165295
516.156075	0.165608
516.373267	0.165204
516.590440	0.166061
516.807594	0.166218
517.024731	0.166967
517.241850	0.167550
517.458950	0.168381
517.676032	0.168643
517.893095	0.168422
518.110141	0.169094
518.327168	0.169976
518.544177	0.170168
518.761168	0.170691
518.978141	0.170205
519.195095	0.170372
519.412031	0.170374
519.628949	0.170142
519.845849	0.171239
520.062731	0.170840
520.279594	0.170471
520.496439	0.170994
520.713266	0.171706
520.930074	0.172897
521.146865	0.173131
521.363637	0.173210
521.580391	0.174233
521.797127	0.174385
522.013844	0.175210
522.230543	0.176044
522.447224	0.175430
522.663887	0.176062
522.880532	0.175763
523.097158	0.175404
523.313766	0.175480
523.530356	0.175153
523.746928	0.174912
523.963481	0.175419
524.180017	0.175897
524.396534	0.177380
524.613032	0.177000
524.829513	0.177323
525.045975	0.178632
525.262420	0.179514
525.478845	0.180139
525.695253	0.180617
525.911643	0.181031
526.128014	0.180941
526.344367	0.180039
526.560702	0.179950
526.777018	0.180163
526.993316	0.180352
527.209597	0.181116
527.425858	0.181059
527.642102	0.180771
527.858328	0.180744
528.074535	0.181123
528.290724	0.181375
528.506894	0.182047
528.723047	0.182029
528.939181	0.182280
529.155297	0.181822
529.371395	0.182323
529.587475	0.183186
529.803536	0.183073
530.019579	0.183822
530.235604	0.185002
530.451611	0.185443
530.667600	0.186055
530.883570	0.186680
531.099522	0.187155
531.315456	0.187959
531.531372	0.188585
531.747269	0.189437
531.963148	0.189097
532.179009	0.189192
532.394852	0.189930
532.610676	0.190505
532.826482	0.190034
533.042271	0.190091
533.258040	0.190050
533.473792	0.189461
533.689525	0.190148
533.905240	0.191428
534.120937	0.191098
534.336616	0.190862
534.552277	0.191095
534.767919	0.191565
534.983543	0.191968
535.199149	0.192144
535.414736	0.192881
535.630306	0.192511
535.845857	0.192036
536.061390	0.192850
536.276904	0.193434
536.492401	0.193763
536.707879	0.194148
536.923339	0.194855
537.138781	0.195353
537.354204	0.196115
537.569610	0.196160
537.784997	0.196089
538.000366	0.196597
538.215716	0.196618
538.431049	0.197209
538.646363	0.197416
538.861659	0.197022
539.076937	0.197315
539.292196	0.196995
539.507438	0.197697
539.722661	0.198950
539.937866	0.199754
540.153052	0.200098
540.368221	0.199863
540.583371	0.200368
540.798503	0.201159
541.013617	0.201527
541.228712	0.202466
541.443789	0.203250
541.658848	0.203383
541.873889	0.203052
542.088912	0.203152
542.303916	0.204126
542.518902	0.204108
542.733870	0.204169
542.948820	0.204400
543.163752	0.204664
543.378665	0.204836
543.593560	0.204624
543.808437	0.204886
544.023295	0.205122
544.238136	0.205237
544.452958	0.205879
544.667762	0.206177
544.882548	0.206829
545.097315	0.207110
545.312064	0.207244
545.526795	0.207541
545.741508	0.207871
545.956203	0.208209
546.170879	0.208336
546.385537	0.208899
546.600177	0.209154
546.814799	0.208861
547.029402	0.208750
547.243988	0.208939
547.458555	0.209516
547.673103	0.209755
547.887634	0.210082
548.102146	0.210944
548.316640	0.211110
548.531116	0.211550
548.745574	0.211823
548.960013	0.211976
549.174435	0.211737
549.388838	0.212050
549.603222	0.212464
549.817589	0.212781
550.031937	0.212516
550.246267	0.212734
550.460579	0.212923
550.674873	0.213101
550.889148	0.214067
551.103405	0.215135
551.317644	0.215507
551.531865	0.215820
551.746068	0.216401
551.960252	0.216674
552.174418	0.216898
552.388566	0.217446
552.602696	0.217948
552.816807	0.218336
553.030900	0.217942
553.244975	0.217909
553.459032	0.217999
553.673070	0.218448
553.887091	0.219116
554.101093	0.218996
554.315077	0.219100
554.529042	0.219240
554.742990	0.219167
554.956919	0.220099
555.170830	0.220302
555.384722	0.220634
555.598597	0.220682
555.812453	0.220513
556.026291	0.220818
556.240111	0.220952
556.453913	0.221757
556.667696	0.221740
556.881461	0.221787
557.095208	0.222184
557.308937	0.221750
557.522647	0.221840
557.736339	0.222173
557.950013	0.222333
558.163669	0.222368
558.377307	0.222311
558.590926	0.222286
558.804527	0.222738
559.018110	0.222968
559.231675	0.223702
559.445221	0.224043
559.658749	0.224491
559.872259	0.224996
560.085751	0.225847
560.299225	0.225966
560.512680	0.226306
560.726117	0.226117
560.939536	0.226582
561.152937	0.227438
561.366319	0.227603
561.579683	0.227646
561.793029	0.227981
562.006357	0.227781
562.219667	0.228057
562.432958	0.228496
562.646231	0.228735
562.859486	0.228477
563.072723	0.228143
563.285941	0.228436
563.499141	0.228568
563.712323	0.228794
563.925487	0.229284
564.138632	0.229146
564.351760	0.229508
564.564869	0.229615
564.777960	0.229965
564.991032	0.230130
565.204087	0.230242
565.417123	0.230057
565.630141	0.230362
565.843140	0.230870
566.056122	0.231510
566.269085	0.231697
566.482030	0.231689
566.694957	0.231860
566.907866	0.232470
567.120756	0.232254
567.333628	0.232614
567.546482	0.232886
567.759318	0.232498
567.972135	0.232417
568.184935	0.232204
568.397716	0.232619
568.610478	0.232885
568.823223	0.232911
569.035949	0.233230
569.248657	0.233780
569.461347	0.233558
569.674019	0.233811
569.886672	0.234215
570.099308	0.235041
570.311925	0.235156
570.524523	0.235568
570.737104	0.235668
570.949666	0.236067
571.162210	0.236105
571.374736	0.236275
571.587244	0.236904
571.799733	0.237029
572.012205	0.236880
572.224658	0.237141
572.437092	0.237293
572.649509	0.237319
572.861907	0.237481
573.074287	0.237534
573.286649	0.238141
573.498993	0.237558
573.711318	0.237920
573.923625	0.238096
574.135914	0.238425
574.348185	0.238580
574.560438	0.238683
574.772672	0.238588
574.984888	0.238725
575.197086	0.238668
575.409266	0.239088
575.621427	0.239169
575.833570	0.239336
576.045695	0.239263
576.257802	0.239486
576.469890	0.239628
576.681961	0.239829
576.894013	0.239909
577.106046	0.240111
577.318062	0.240542
577.530059	0.240338
577.742039	0.240428
577.954000	0.240770
578.165942	0.240161
578.377867	0.240713
578.589773	0.241092
578.801661	0.241710
579.013531	0.242217
579.225382	0.242517
579.437216	0.243156
579.649031	0.243556
579.860828	0.243827
580.072606	0.244830
580.284367	0.244800
580.496109	0.245000
580.707833	0.245018
580.919539	0.245104
581.131227	0.244885
581.342896	0.244870
581.554547	0.244611
581.766180	0.245272
581.977795	0.245738
582.189391	0.246165
582.400969	0.246286
582.612529	0.246476
582.824071	0.246361
583.035595	0.246980
583.247100	0.247324
583.458587	0.247834
583.670056	0.248015
583.881506	0.247568
584.092939	0.247916
584.304353	0.248702
584.515749	0.249090
584.727127	0.249925
584.938486	0.249931
585.149828	0.250253
585.361151	0.250553
585.572456	0.250015
585.783742	0.250347
585.995011	0.250311
586.206261	0.249895
586.417493	0.250277
586.628706	0.250262
586.839902	0.250386
587.051079	0.250869
587.262238	0.251418
587.473379	0.251805
587.684502	0.252080
587.895606	0.252242
588.106692	0.252650
588.317760	0.252359
588.528810	0.252624
588.739841	0.253046
588.950855	0.252883
589.161850	0.252541
589.372827	0.253100
589.583785	0.253470
589.794726	0.253942
590.005648	0.254197
590.216552	0.254590
590.427437	0.254571
590.638305	0.254994
590.849154	0.255046
591.059985	0.255746
591.270798	0.256034
591.481592	0.256204
591.692369	0.256034
591.903127	0.256567
592.113867	0.256597
592.324588	0.256822
592.535292	0.256862
592.745977	0.257116
592.956644	0.257058
593.167293	0.257059
593.377923	0.257432
593.588536	0.258144
593.799130	0.257895
594.009706	0.258153
594.220263	0.258288
594.430803	0.258741
594.641324	0.258946
594.851827	0.259087
595.062312	0.259310
595.272778	0.259314
595.483227	0.258975
595.693657	0.259260
595.904069	0.259644
596.114462	0.259683
596.324838	0.259698
596.535195	0.260213
596.745534	0.260263
596.955855	0.260391
597.166157	0.260310
597.376441	0.260774
597.586707	0.261070
597.796955	0.261428
598.007185	0.261883
598.217396	0.262186
598.427589	0.262409
598.637764	0.262797
598.847921	0.263360
599.058060	0.263917
599.268180	0.263919
599.478282	0.264058
599.688366	0.264017
599.898431	0.264228
600.108479	0.264326
600.318508	0.264390
600.528519	0.264703
600.738511	0.264775
600.948486	0.264825
601.158442	0.265389
601.368380	0.265787
601.578300	0.266164
601.788202	0.266454
601.998085	0.266586
602.207950	0.266988
602.417797	0.267097
602.627626	0.267037
602.837436	0.267533
603.047228	0.267513
603.257002	0.267689
603.466758	0.267636
603.676496	0.268195
603.886215	0.268673
604.095916	0.268635
604.305599	0.268831
604.515264	0.269392
604.724910	0.269582
604.934538	0.269959
605.144148	0.270058
605.353740	0.270056
605.563314	0.269875
605.772869	0.269636
605.982406	0.269949
606.191925	0.270183
606.401425	0.269956
606.610908	0.269670
606.820372	0.269881
607.029818	0.269702
607.239246	0.270166
607.448655	0.270139
607.658047	0.270282
607.867420	0.270290
608.076775	0.270462
608.286111	0.270658
608.495430	0.270842
608.704730	0.270599
608.914012	0.271043
609.123275	0.271171
609.332521	0.271524
609.541748	0.272013
609.750957	0.272062
609.960148	0.272415
610.169321	0.272532
610.378475	0.272627
610.587611	0.273189
610.796729	0.273376
611.005829	0.273361
611.214910	0.273561
611.423974	0.273376
611.633019	0.273763
611.842045	0.273722
612.051054	0.273923
612.260044	0.274178
612.469017	0.274088
612.677970	0.274228
612.886906	0.274653
613.095824	0.274449
613.304723	0.274903
613.513604	0.274864
613.722467	0.274967
613.931311	0.275466
614.140138	0.275733
614.348946	0.276001
614.557736	0.276458
614.766507	0.276770
614.975261	0.277062
615.183996	0.277271
615.392713	0.277712
615.601412	0.278045
615.810092	0.277788
616.018754	0.277929
616.227399	0.277980
616.436024	0.277593
616.644632	0.277694
616.853222	0.278061
617.061793	0.278082
617.270346	0.277967
617.478880	0.278003
617.687397	0.278298
617.895895	0.278595
618.104375	0.278804
618.312837	0.279110
618.521281	0.279180
618.729706	0.279287
618.938113	0.279476
619.146502	0.279568
619.354873	0.279739
619.563226	0.280089
619.771560	0.279977
619.979876	0.280175
620.188174	0.280288
620.396453	0.280460
620.604715	0.280553
620.812958	0.280532
621.021183	0.281284
621.229390	0.281369
621.437578	0.281458
621.645748	0.281795
621.853900	0.282122
622.062034	0.282562
622.270150	0.282791
622.478247	0.283150
622.686326	0.283407
622.894387	0.283314
623.102430	0.283476
623.310454	0.283785
623.518461	0.284084
623.726449	0.284360
623.934418	0.284215
624.142370	0.284461
624.350303	0.284481
624.558218	0.284608
624.766115	0.285058
624.973994	0.285247
625.181855	0.285319
625.389697	0.285619
625.597521	0.285905
625.805327	0.286491
626.013114	0.286575
626.220883	0.286990
626.428634	0.287321
626.636367	0.287330
626.844082	0.287930
627.051778	0.288105
627.259457	0.288263
627.467117	0.288352
627.674758	0.288178
627.882382	0.288427
628.089987	0.288503
628.297574	0.288725
628.505143	0.288478
628.712694	0.288463
628.920226	0.288768
629.127740	0.289068
629.335236	0.288868
629.542714	0.289586
629.750174	0.289473
629.957615	0.289526
630.165038	0.289676
630.372443	0.289965
630.579829	0.289800
630.787198	0.289923
630.994548	0.289802
631.201880	0.290038
631.409194	0.289895
631.616489	0.290592
631.823766	0.290651
632.031025	0.290897
632.238266	0.291299
632.445489	0.291431
632.652693	0.291494
632.859879	0.291647
633.067047	0.292320
633.274197	0.292628
633.481329	0.292358
633.688442	0.292790
633.895537	0.292604
634.102614	0.292844
634.309672	0.293325
634.516713	0.293450
634.723735	0.293844
634.930739	0.293661
635.137724	0.293716
635.344692	0.294232
635.551641	0.294277
635.758572	0.294873
635.965485	0.294827
636.172379	0.295053
636.379256	0.295518
636.586114	0.295739
636.792954	0.295968
636.999775	0.296383
637.206579	0.296573
637.413364	0.296853
637.620131	0.296650
637.826880	0.297029
638.033610	0.296946
638.240323	0.296922
638.447017	0.297089
638.653692	0.297150
638.860350	0.296839
639.066990	0.296625
639.273611	0.296835
639.480214	0.297402
639.686798	0.297463
639.893365	0.297782
640.099913	0.297863
640.306443	0.297944
640.512955	0.298080
640.719449	0.298757
640.925924	0.299002
641.132381	0.299064
641.338820	0.299016
641.545241	0.299392
641.751644	0.299540
641.958028	0.299698
642.164394	0.299845
642.370742	0.300126
642.577071	0.300318
642.783383	0.300914
642.989676	0.301285
643.195951	0.301630
643.402207	0.301712
643.608446	0.302227
643.814666	0.302592
644.020868	0.302806
644.227052	0.303184
644.433218	0.303249
644.639365	0.303224
644.845494	0.303532
645.051605	0.303667
645.257698	0.303909
645.463772	0.303939
645.669828	0.304168
645.875866	0.304251
646.081886	0.304369
646.287888	0.304519
646.493871	0.304804
646.699836	0.304892
646.905783	0.304878
647.111712	0.305232
647.317622	0.305621
647.523514	0.305711
647.729388	0.305810
647.935244	0.305932
648.141082	0.306401
648.346901	0.306838
648.552702	0.307124
648.758485	0.307662
648.964250	0.307655
649.169996	0.307899
649.375724	0.308384
649.581434	0.308927
649.787126	0.308917
649.992800	0.308997
650.198455	0.309179
650.404092	0.309409
650.609711	0.309551
650.815311	0.309773
651.020894	0.309710
651.226458	0.310026
651.432004	0.310162
651.637532	0.310580
651.843041	0.310536
652.048532	0.310470
652.254006	0.310474
652.459460	0.310745
652.664897	0.310677
652.870315	0.310872
653.075716	0.310575
653.281097	0.310741
653.486461	0.310926
653.691807	0.311064
653.897134	0.311184
654.102443	0.311284
654.307734	0.311511
654.513006	0.312004
654.718261	0.312566
654.923497	0.312954
655.128715	0.313358
655.333915	0.313810
655.539096	0.314523
655.744259	0.314698
655.949404	0.315144
656.154531	0.315228
656.359640	0.315308
656.564730	0.315169
656.769802	0.315407
656.974856	0.315480
657.179892	0.315818
657.384909	0.315650
657.589908	0.315950
657.794889	0.316146
657.999852	0.316474
658.204797	0.316791
658.409723	0.317406
658.614631	0.317758
658.819521	0.318028
659.024393	0.318166
659.229246	0.318417
659.434081	0.318722
659.638898	0.318635
659.843697	0.318875
660.048478	0.318936
660.253240	0.319028
660.457984	0.319251
660.662710	0.319508
660.867417	0.319579
661.072107	0.320018
661.276778	0.320372
661.481431	0.320961
661.686066	0.321081
661.890682	0.321645
662.095281	0.321736
662.299861	0.321881
662.504422	0.322186
662.708966	0.322354
662.913491	0.322408
663.117999	0.322526
663.322488	0.322681
663.526958	0.322990
663.731411	0.322936
663.935845	0.323300
664.140261	0.323610
664.344659	0.323564
664.549038	0.323873
664.753400	0.324314
664.957743	0.324652
665.162068	0.324965
665.366375	0.325330
665.570663	0.325792
665.774933	0.326120
665.979185	0.326274
666.183419	0.326739
666.387635	0.327138
666.591832	0.327418
666.796011	0.327461
667.000172	0.327627
667.204315	0.327698
667.408439	0.328097
667.612545	0.328171
667.816634	0.328656
668.020703	0.328909
668.224755	0.329009
668.428788	0.328894
668.632803	0.329456
668.836800	0.329854
669.040779	0.330071
669.244739	0.330182
669.448681	0.330392
669.652605	0.330376
669.856511	0.330645
670.060399	0.330909
670.264268	0.331145
670.468119	0.331295
670.671952	0.331315
670.875767	0.331870
671.079563	0.332326
671.283341	0.332634
671.487101	0.332820
671.690843	0.333015
671.894567	0.333229
672.098272	0.333745
672.301959	0.333804
672.505628	0.334260
672.709278	0.334360
672.912911	0.334117
673.116525	0.334267
673.320121	0.334642
673.523699	0.334946
673.727258	0.335143
673.930799	0.335403
674.134322	0.335838
674.337827	0.336128
674.541314	0.336450
674.744782	0.336775
674.948232	0.336966
675.151664	0.337460
675.355078	0.337549
675.558474	0.338165
675.761851	0.338248
675.965210	0.338410
676.168551	0.338579
676.371873	0.338717
676.575178	0.339248
676.778464	0.339653
676.981732	0.339740
677.184981	0.339990
677.388213	0.340052
677.591426	0.340557
677.794621	0.340768
677.997798	0.341123
678.200956	0.341362
678.404097	0.341511
678.607219	0.341734
678.810323	0.341732
679.013408	0.342030
679.216476	0.342250
679.419525	0.342523
679.622556	0.342696
679.825569	0.342907
680.028563	0.343215
680.231540	0.343371
680.434498	0.343591
680.637438	0.344302
680.840359	0.344648
681.043263	0.344787
681.246148	0.344656
681.449015	0.345057
681.651864	0.345287
681.854694	0.345468
682.057506	0.345928
682.260301	0.346075
682.463076	0.346015
682.665834	0.346127
682.868573	0.346408
683.071295	0.346641
683.273998	0.346852
683.476682	0.346995
683.679349	0.347155
683.881997	0.347234
684.084627	0.347421
684.287239	0.347619
684.489833	0.347822
684.692408	0.347981
684.894965	0.348375
685.097504	0.348655
685.300025	0.348754
685.502527	0.349135
685.705012	0.349193
685.907478	0.349609
686.109925	0.349693
686.312355	0.350009
686.514766	0.350419
686.717159	0.350610
686.919534	0.350647
687.121891	0.351079
687.324230	0.351352
687.526550	0.351659
687.728852	0.351993
687.931136	0.352544
688.133401	0.352826
688.335649	0.352845
688.537878	0.353126
688.740089	0.353241
688.942281	0.353224
689.144456	0.353159
689.346612	0.353379
689.548750	0.353480
689.750870	0.353715
689.952971	0.353782
690.155055	0.353969
690.357120	0.354061
690.559167	0.354401
690.761195	0.354813
690.963206	0.354938
691.165198	0.355213
691.367172	0.355457
691.569128	0.355426
691.771065	0.355735
691.972984	0.355957
692.174885	0.356181
692.376768	0.356437
692.578633	0.356490
692.780479	0.356718
692.982308	0.356892
693.184118	0.357015
693.385909	0.357147
693.587683	0.357303
693.789438	0.357553
693.991175	0.357722
694.192894	0.357966
694.394595	0.358374
694.596277	0.358711
694.797941	0.359032
694.999587	0.359397
695.201215	0.359553
695.402824	0.359664
695.604416	0.360128
695.805989	0.360240
696.007543	0.360137
696.209080	0.360002
696.410598	0.360199
696.612099	0.360444
696.813580	0.360503
697.015044	0.360741
697.216490	0.360754
697.417917	0.360724
697.619326	0.361056
697.820717	0.361368
698.022089	0.361617
698.223444	0.361834
698.424780	0.361690
698.626098	0.361322
698.827397	0.361460
699.028679	0.361836
699.229942	0.361840
699.431187	0.361819
699.632414	0.361988
699.833622	0.362192
700.034813	0.362161
700.235985	0.362214
700.437139	0.362872
700.638274	0.362922
700.839392	0.363051
701.040491	0.363488
701.241572	0.363718
701.442635	0.363713
701.643679	0.363852
701.844706	0.364031
702.045714	0.364232
702.246704	0.364300
702.447675	0.364571
702.648629	0.364560
702.849564	0.364316
703.050481	0.364502
703.251380	0.364885
703.452260	0.364830
703.653122	0.365125
703.853966	0.365414
704.054792	0.365413
704.255600	0.365305
704.456389	0.365487
704.657160	0.365990
704.857913	0.366029
705.058648	0.366272
705.259365	0.366478
705.460063	0.366362
705.660743	0.366171
705.861405	0.366348
706.062048	0.366569
706.262674	0.366792
706.463281	0.366361
706.663870	0.366518
706.864441	0.366300
707.064993	0.366151
707.265527	0.366154
707.466043	0.366369
707.666541	0.366373
707.867021	0.366397
708.067482	0.366442
708.267925	0.366731
708.468350	0.366862
708.668757	0.366867
708.869145	0.367417
709.069516	0.367546
709.269868	0.367757
709.470201	0.367702
709.670517	0.367823
709.870814	0.367869
710.071093	0.367859
710.271354	0.367892
710.471597	0.368203
710.671821	0.368091
710.872028	0.367869
711.072216	0.367695
711.272385	0.367681
711.472537	0.367767
711.672670	0.367603
711.872785	0.367706
712.072882	0.367453
712.272961	0.367353
712.473021	0.367492
712.673063	0.367752
712.873087	0.367944
713.073093	0.368101
713.273081	0.368035
713.473050	0.367864
713.673001	0.367720
713.872934	0.367888
714.072849	0.367735
714.272745	0.367524
714.472623	0.367604
714.672483	0.367450
714.872325	0.367529
715.072148	0.367555
715.271954	0.367805
715.471741	0.367815
715.671509	0.367718
715.871260	0.367632
716.070992	0.367466
716.270707	0.367448
716.470403	0.367338
716.670080	0.367155
716.869740	0.367076
717.069381	0.366981
717.269004	0.366812
717.468609	0.366659
717.668195	0.366675
717.867764	0.366904
718.067314	0.366771
718.266846	0.366900
718.466360	0.367085
718.665855	0.366893
718.865332	0.366787
719.064791	0.366878
719.264232	0.367075
719.463655	0.367116
719.663059	0.366784
719.862445	0.366866
720.061813	0.366573
720.261163	0.366503
720.460494	0.366692
720.659807	0.366682
720.859102	0.366664
721.058379	0.366329
721.257638	0.366219
721.456878	0.366244
721.656100	0.365992
721.855304	0.366147
722.054490	0.365994
722.253657	0.365739
722.452806	0.365512
722.651937	0.365530
722.851050	0.365463
723.050145	0.365481
723.249221	0.365400
723.448279	0.365483
723.647319	0.365461
723.846340	0.365352
724.045344	0.365401
724.244329	0.365286
724.443296	0.365114
724.642245	0.365264
724.841175	0.365079
725.040088	0.365085
725.238982	0.365082
725.437857	0.364741
725.636715	0.364441
725.835554	0.364583
726.034376	0.364639
726.233179	0.364839
726.431963	0.364755
726.630730	0.364772
726.829478	0.364453
727.028208	0.364064
727.226920	0.364011
727.425614	0.363969
727.624289	0.363332
727.822946	0.363264
728.021585	0.362875
728.220206	0.362562
728.418808	0.362370
728.617392	0.362263
728.815958	0.362243
729.014506	0.362092
729.213036	0.362025
729.411547	0.362320
729.610040	0.362164
729.808515	0.362097
730.006972	0.362216
730.205410	0.361915
730.403831	0.361791
730.602233	0.361500
730.800616	0.361329
730.998982	0.361140
731.197329	0.360686
731.395658	0.360402
731.593969	0.359828
731.792262	0.359569
731.990536	0.359644
732.188793	0.359632
732.387031	0.359478
732.585250	0.359469
732.783452	0.359365
732.981635	0.359101
733.179800	0.359312
733.377947	0.359511
733.576076	0.359389
733.774186	0.358964
733.972278	0.358661
734.170352	0.358457
734.368408	0.358088
734.566446	0.357972
734.764465	0.357978
734.962466	0.357487
735.160449	0.357180
735.358413	0.356692
735.556360	0.356614
735.754288	0.356666
735.952198	0.356332
736.150090	0.356383
736.347963	0.355992
736.545818	0.355918
736.743655	0.356130
736.941474	0.355870
737.139275	0.356032
737.337057	0.356034
737.534821	0.355494
737.732567	0.355491
737.930295	0.355072
738.128005	0.354717
738.325696	0.354530
738.523369	0.354250
738.721024	0.354080
738.918660	0.353864
739.116279	0.353508
739.313879	0.353652
739.511461	0.353648
739.709024	0.353639
739.906570	0.353657
740.104097	0.353437
740.301606	0.353073
740.499097	0.353468
740.696569	0.353285
740.894024	0.353156
741.091460	0.352665
741.288878	0.352355
741.486277	0.352367
741.683659	0.352337
741.881022	0.352027
742.078367	0.351855
742.275694	0.351357
742.473002	0.350781
742.670293	0.350522
742.867565	0.350148
743.064819	0.349962
743.262054	0.349523
743.459272	0.349161
743.656471	0.348945
743.853652	0.348883
744.050815	0.348624
744.247959	0.348502
744.445085	0.348096
744.642194	0.348263
744.839283	0.347838
745.036355	0.347551
745.233408	0.347623
745.430444	0.347415
745.627461	0.347074
745.824459	0.346611
746.021440	0.346695
746.218402	0.346743
746.415346	0.346432
746.612272	0.346170
746.809180	0.345974
747.006069	0.345491
747.202940	0.345272
747.399793	0.344823
747.596628	0.344733
747.793444	0.344315
747.990243	0.344119
748.187023	0.343948
748.383784	0.344322
748.580528	0.344150
748.777253	0.343886
748.973960	0.343763
749.170649	0.343836
749.367320	0.343662
749.563973	0.343842
749.760607	0.343411
749.957223	0.343188
750.153821	0.342774
750.350400	0.342562
750.546962	0.342533
750.743505	0.342164
750.940030	0.341729
751.136536	0.341174
751.333025	0.340669
751.529495	0.340289
751.725947	0.340045
751.922381	0.340044
752.118796	0.339993
752.315194	0.339672
752.511573	0.339854
752.707934	0.339585
752.904276	0.339753
753.100601	0.339328
753.296907	0.339602
753.493195	0.339337
753.689465	0.339006
753.885716	0.338484
754.081949	0.338271
754.278164	0.337846
754.474361	0.337665
754.670540	0.337288
754.866700	0.337239
755.062843	0.336968
755.258967	0.336782
755.455072	0.336372
755.651160	0.336190
755.847229	0.336250
756.043280	0.336256
756.239313	0.336304
756.435328	0.336335
756.631324	0.336337
756.827302	0.336149
757.023262	0.336075
757.219204	0.336060
757.415127	0.336105
757.611033	0.335789
757.806920	0.335836
758.002788	0.335608
758.198639	0.335283
758.394471	0.335220
758.590286	0.335266
758.786081	0.335104
758.981859	0.334653
759.177619	0.334558
759.373360	0.334276
759.569083	0.333661
759.764788	0.333487
759.960474	0.333450
760.156143	0.332839
760.351793	0.332328
760.547425	0.332134
760.743038	0.332254
760.938634	0.332059
761.134211	0.331834
761.329770	0.331569
761.525311	0.331241
761.720833	0.330882
761.916338	0.330901
762.111824	0.330657
762.307292	0.330504
762.502741	0.330236
762.698173	0.329795
762.893586	0.329646
763.088981	0.329557
763.284358	0.329542
763.479716	0.329540
763.675057	0.329153
763.870379	0.329228
764.065683	0.328937
764.260968	0.328878
764.456236	0.328973
764.651485	0.328773
764.846716	0.328558
765.041929	0.328474
765.237123	0.328256
765.432299	0.328302
765.627457	0.328158
765.822597	0.328097
766.017719	0.327652
766.212822	0.327561
766.407907	0.327579
766.602974	0.327734
766.798023	0.327312
766.993054	0.327291
767.188066	0.327419
767.383060	0.327240
767.578036	0.327187
767.772993	0.327127
767.967933	0.326762
768.162854	0.326588
768.357757	0.326394
768.552642	0.326419
768.747508	0.326080
768.942356	0.325861
769.137186	0.325870
769.331998	0.325696
769.526792	0.325878
769.721567	0.325874
769.916324	0.325701
770.111063	0.325294
770.305784	0.325057
770.500486	0.324776
770.695171	0.324561
770.889837	0.324138
771.084484	0.323960
771.279114	0.323766
771.473725	0.323708
771.668318	0.323485
771.862893	0.323851
772.057450	0.323827
772.251988	0.324129
772.446509	0.323874
772.641011	0.323984
772.835494	0.324155
773.029960	0.324068
773.224407	0.323615
773.418836	0.323708
773.613247	0.323100
773.807640	0.322865
774.002014	0.322590
774.196370	0.322433
774.390708	0.322313
774.585028	0.321891
774.779330	0.321491
774.973613	0.321549
775.167878	0.321248
775.362125	0.321214
775.556354	0.321244
775.750564	0.321215
775.944756	0.321132
776.138930	0.321105
776.333086	0.320826
776.527223	0.320682
776.721343	0.321013
776.915444	0.321221
777.109526	0.321299
777.303591	0.321274
777.497637	0.321357
777.691666	0.321559
777.885676	0.321286
778.079667	0.321599
778.273641	0.321474
778.467596	0.321133
778.661533	0.320995
778.855452	0.320971
779.049352	0.320931
779.243235	0.320685
779.437099	0.320663
779.630945	0.320599
779.824773	0.320489
780.018582	0.320759
780.212373	0.320663
780.406146	0.320749
780.599901	0.320686
780.793638	0.320762
780.987356	0.320973
781.181056	0.320927
781.374738	0.320997
781.568402	0.321033
781.762047	0.321120
781.955674	0.320773
782.149283	0.320776
782.342874	0.320741
782.536447	0.320477
782.730001	0.320200
782.923537	0.320364
783.117055	0.320467
783.310555	0.320392
783.504036	0.320178
783.697499	0.320354
783.890944	0.320411
784.084371	0.320628
784.277780	0.320612
784.471170	0.320755
784.664542	0.320197
784.857896	0.320154
785.051231	0.320061
785.244549	0.320279
785.437848	0.320237
785.631129	0.320016
785.824392	0.319894
786.017636	0.319959
786.210863	0.319810
786.404071	0.320247
786.597260	0.320026
786.790432	0.320374
786.983585	0.320274
787.176721	0.320634
787.369838	0.320904
787.562936	0.321009
787.756017	0.321090
787.949079	0.321243
788.142123	0.321163
788.335149	0.321040
788.528156	0.320790
788.721146	0.320764
788.914117	0.320788
789.107070	0.320847
789.300005	0.320476
789.492921	0.320776
789.685819	0.320778
789.878699	0.320788
790.071561	0.321014
790.264405	0.321051
790.457230	0.321133
790.650037	0.321170
790.842826	0.321194
791.035597	0.321424
791.228349	0.321409
791.421084	0.321473
791.613800	0.321778
791.806497	0.322087
791.999177	0.322100
792.191838	0.322078
792.384481	0.322154
792.577106	0.321824
792.769713	0.322222
792.962301	0.322252
793.154871	0.322411
793.347423	0.322169
793.539957	0.322452
793.732473	0.322733
793.924970	0.323078
794.117449	0.323256
794.309910	0.323402
794.502353	0.323347
794.694777	0.323570
794.887183	0.323740
795.079571	0.323868
795.271941	0.323687
795.464293	0.323721
795.656626	0.323851
795.848941	0.324146
796.041238	0.324512
796.233516	0.324786
796.425777	0.324663
796.618019	0.324383
796.810243	0.324700
797.002449	0.325082
797.194636	0.325169
797.386805	0.325136
797.578956	0.324932
797.771089	0.325045
797.963204	0.324965
798.155300	0.325081
798.347378	0.325667
798.539438	0.325855
798.731480	0.325577
798.923503	0.325945
799.115509	0.326163
799.307496	0.326464
799.499465	0.326442
799.691415	0.326479
799.883348	0.326962
800.075262	0.326913
800.267158	0.326775
800.459035	0.327393
800.650895	0.327609
800.842736	0.327705
801.034559	0.327853
801.226364	0.328069
801.418150	0.328353
801.609919	0.328558
801.801669	0.328709
801.993401	0.328947
802.185114	0.328727
802.376810	0.328703
802.568487	0.328810
802.760146	0.328890
802.951787	0.329118
803.143409	0.329160
803.335014	0.328871
803.526600	0.329035
803.718168	0.329351
803.909717	0.329742
804.101249	0.329679
804.292762	0.329763
804.484257	0.330035
804.675734	0.330445
804.867192	0.330699
805.058632	0.331168
805.250054	0.331468
805.441458	0.331954
805.632844	0.331971
805.824211	0.332544
806.015561	0.333396
806.206891	0.333661
806.398204	0.333689
806.589499	0.334212
806.780775	0.334707
806.972033	0.334787
807.163273	0.334964
807.354495	0.335475
807.545698	0.335634
807.736883	0.335426
807.928050	0.335603
808.119199	0.335932
808.310329	0.335982
808.501441	0.335841
808.692535	0.336110
808.883611	0.335982
809.074669	0.336206
809.265708	0.336520
809.456729	0.336905
809.647732	0.337201
809.838717	0.337287
810.029683	0.337727
810.220632	0.337874
810.411562	0.338117
810.602474	0.338554
810.793367	0.338616
810.984242	0.338557
811.175100	0.338679
811.365938	0.338951
811.556759	0.339261
811.747562	0.339219
811.938346	0.339958
812.129112	0.340301
812.319860	0.340476
812.510589	0.340706
812.701300	0.341014
812.891994	0.341223
813.082668	0.341439
813.273325	0.341932
813.463964	0.341929
813.654584	0.341846
813.845186	0.341897
814.035769	0.342144
814.226335	0.342451
814.416882	0.342766
814.607411	0.343052
814.797922	0.343298
814.988415	0.343529
815.178889	0.344284
815.369345	0.344801
815.559783	0.345450
815.750203	0.345753
815.940605	0.346104
816.130988	0.346518
816.321353	0.346848
816.511700	0.346937
816.702028	0.347198
816.892339	0.347146
817.082631	0.347102
817.272905	0.347269
817.463161	0.347859
817.653398	0.348316
817.843617	0.348577
818.033819	0.349085
818.224001	0.349526
818.414166	0.349807
818.604312	0.350032
818.794440	0.350534
818.984550	0.350718
819.174642	0.350544
819.364716	0.350887
819.554771	0.351362
819.744808	0.351585
819.934827	0.352192
820.124827	0.352361
820.314810	0.353065
820.504774	0.353577
820.694720	0.354007
820.884647	0.354339
821.074557	0.354637
821.264448	0.355148
821.454321	0.355189
821.644176	0.355499
821.834012	0.356125
822.023831	0.356292
822.213631	0.356340
822.403413	0.356874
822.593176	0.357395
822.782922	0.357610
822.972649	0.357731
823.162358	0.358673
823.352049	0.358667
823.541721	0.358715
823.731376	0.359329
823.921012	0.359807
824.110629	0.360272
824.300229	0.360783
824.489811	0.361259
824.679374	0.361513
824.868919	0.361418
825.058445	0.361895
825.247954	0.362505
825.437444	0.362642
825.626916	0.363061
825.816370	0.363031
826.005806	0.363638
826.195223	0.363862
826.384622	0.364165
826.574003	0.364544
826.763366	0.365038
826.952711	0.365319
827.142037	0.365960
827.331345	0.366437
827.520635	0.366871
827.709906	0.366933
827.899160	0.367614
828.088395	0.368182
828.277612	0.368443
828.466810	0.368850
828.655991	0.369493
828.845153	0.369758
829.034297	0.370051
829.223423	0.370552
829.412531	0.370906
829.601620	0.371301
829.790691	0.371685
829.979744	0.372223
830.168779	0.372595
830.357795	0.372752
830.546793	0.372954
830.735773	0.373382
830.924735	0.373773
831.113679	0.374338
831.302604	0.374502
831.491511	0.375098
831.680400	0.375689
831.869271	0.375929
832.058123	0.376354
832.246957	0.376986
832.435773	0.377434
832.624571	0.378077
832.813351	0.378351
833.002112	0.378759
833.190855	0.379009
833.379580	0.379436
833.568287	0.380118
833.756975	0.380456
833.945645	0.380724
834.134297	0.381029
834.322931	0.381184
834.511547	0.381249
834.700144	0.381293
834.888723	0.381906
835.077284	0.382087
835.265826	0.382388
835.454351	0.382703
835.642857	0.383225
835.831345	0.383855
836.019815	0.384573
836.208266	0.385392
836.396699	0.386136
836.585114	0.386401
836.773511	0.386839
836.961890	0.386889
837.150250	0.387411
837.338592	0.387567
837.526916	0.387720
837.715222	0.387659
837.903510	0.387828
838.091779	0.388543
838.280030	0.388811
838.468263	0.389229
838.656477	0.389826
838.844674	0.390250
839.032852	0.391050
839.221012	0.391684
839.409153	0.392411
839.597277	0.393021
839.785382	0.393109
839.973469	0.393665
840.161538	0.394307
840.349589	0.395056
840.537621	0.395578
840.725635	0.395819
840.913631	0.396280
841.101609	0.396944
841.289568	0.397711
841.477509	0.398387
841.665432	0.399061
841.853337	0.399466
842.041224	0.399831
842.229092	0.400471
842.416942	0.400830
842.604774	0.401180
842.792588	0.401268
842.980383	0.401556
843.168160	0.401795
843.355919	0.401940
843.543660	0.402179
843.731382	0.402754
843.919087	0.402955
844.106773	0.403476
844.294441	0.403922
844.482090	0.404329
844.669722	0.404553
844.857335	0.405038
845.044930	0.405253
845.232507	0.406050
845.420065	0.406272
845.607605	0.406592
845.795127	0.407084
845.982631	0.407260
846.170117	0.407965
846.357584	0.408502
846.545033	0.408873
846.732464	0.409397
846.919877	0.409335
847.107272	0.409657
847.294648	0.410625
847.482006	0.411401
847.669346	0.411624
847.856667	0.412052
848.043971	0.412626
848.231256	0.413148
848.418523	0.413768
848.605771	0.414714
848.793002	0.415444
848.980214	0.415677
849.167408	0.416093
849.354584	0.416936
849.541742	0.417118
849.728881	0.417642
849.916002	0.417840
850.103105	0.418323
850.290190	0.418617
850.477256	0.418856
850.664304	0.419307
850.851334	0.419413
851.038346	0.420010
851.225340	0.420466
851.412315	0.420576
851.599272	0.420987
851.786211	0.421330
851.973132	0.421352
852.160034	0.421885
852.346918	0.421940
852.533784	0.422719
852.720632	0.423117
852.907462	0.423575
853.094273	0.424340
853.281066	0.425100
853.467841	0.425931
853.654598	0.427011
853.841336	0.427194
854.028056	0.427979
854.214758	0.428341
854.401442	0.429166
854.588107	0.429653
854.774755	0.430057
854.961384	0.430653
855.147995	0.430433
855.334587	0.430753
855.521162	0.431643
855.707718	0.431906
855.894256	0.432344
856.080775	0.432856
856.267277	0.432980
856.453760	0.433124
856.640225	0.433612
856.826672	0.433881
857.013101	0.434103
857.199511	0.434115
857.385903	0.434629
857.572277	0.434846
857.758633	0.434273
857.944970	0.435417
858.131290	0.436104
858.317591	0.436074
858.503873	0.436967
858.690138	0.437415
858.876384	0.437896
859.062612	0.438324
859.248822	0.438965
859.435014	0.439763
859.621188	0.440158
859.807343	0.440385
859.993480	0.440844
860.179599	0.441707
860.365699	0.442122
860.551781	0.442268
860.737846	0.442996
860.923891	0.443148
861.109919	0.443413
861.295929	0.443272
861.481920	0.443514
861.667893	0.443829
861.853848	0.443663
862.039784	0.444004
862.225702	0.444751
862.411603	0.444446
862.597484	0.445050
862.783348	0.445229
862.969193	0.445674
863.155021	0.446234
863.340830	0.446768
863.526620	0.447585
863.712393	0.447581
863.898147	0.447924
864.083883	0.448398
864.269601	0.448411
864.455301	0.448953
864.640982	0.449403
864.826645	0.449799
865.012290	0.450700
865.197917	0.450283
865.383526	0.450900
865.569116	0.451244
865.754688	0.451582
865.940242	0.452296
866.125777	0.452019
866.311295	0.452687
866.496794	0.453207
866.682275	0.453178
866.867737	0.453730
867.053182	0.454030
867.238608	0.454312
867.424016	0.455077
867.609406	0.455135
867.794778	0.456077
867.980131	0.455935
868.165466	0.455637
868.350783	0.455739
868.536082	0.456248
868.721362	0.456804
868.906625	0.457294
869.091869	0.457620
869.277094	0.458102
869.462302	0.458388
869.647491	0.459003
869.832662	0.459868
870.017815	0.460067
870.202950	0.460220
870.388066	0.460422
870.573165	0.460881
870.758245	0.460940
870.943306	0.461015
871.128350	0.461349
871.313375	0.461465
871.498382	0.461682
871.683371	0.462230
871.868342	0.462596
872.053294	0.463033
872.238229	0.462970
872.423144	0.463234
872.608042	0.463576
872.792922	0.464118
872.977783	0.464676
873.162626	0.464930
873.347451	0.465372
873.532258	0.465551
873.717046	0.465973
873.901816	0.466212
874.086568	0.466415
874.271302	0.467000
874.456017	0.467132
874.640715	0.467149
874.825394	0.467472
875.010055	0.467663
875.194697	0.468120
875.379322	0.468015
875.563928	0.468149
875.748516	0.468553
875.933085	0.468716
876.117637	0.468859
876.302170	0.468981
876.486685	0.468969
876.671182	0.469142
876.855661	0.469254
877.040121	0.469712
877.224563	0.469757
877.408987	0.470036
877.593393	0.470220
877.777780	0.470256
877.962150	0.470793
878.146501	0.471526
878.330833	0.471147
878.515148	0.471795
878.699444	0.471783
878.883722	0.472874
879.067982	0.472843
879.252224	0.472735
879.436447	0.473466
879.620653	0.473672
879.804840	0.473469
879.989008	0.474202
880.173159	0.473495
880.357291	0.473507
880.541405	0.472885
880.725501	0.473475
880.909579	0.473820
881.093638	0.473912
881.277680	0.473681
881.461703	0.473503
881.645707	0.473303
881.829694	0.473423
882.013662	0.473456
882.197612	0.473930
882.381544	0.472893
882.565458	0.472820
882.749353	0.472155
882.933230	0.472559
883.117089	0.472897
883.300930	0.472924
883.484753	0.472985
883.668557	0.473368
883.852343	0.473648
884.036111	0.474523
884.219861	0.474688
884.403592	0.475048
884.587305	0.474888
884.771000	0.475455
884.954677	0.475659
885.138335	0.475749
885.321976	0.475850
885.505598	0.475123
885.689201	0.475337
885.872787	0.475566
886.056354	0.475889
886.239904	0.475976
886.423434	0.475479
886.606947	0.476040
886.790442	0.476413
886.973918	0.476451
887.157376	0.477295
887.340816	0.476713
887.524237	0.476461
887.707641	0.476805
887.891026	0.476721
888.074393	0.476691
888.257741	0.476122
888.441072	0.476373
888.624384	0.476046
888.807678	0.475392
888.990954	0.475628
889.174211	0.475726
889.357451	0.475384
889.540672	0.475782
889.723875	0.475777
889.907059	0.475845
890.090226	0.474874
890.273374	0.475428
890.456504	0.475453
890.639616	0.475689
890.822709	0.475547
891.005785	0.476063
891.188842	0.475586
891.371881	0.475671
891.554901	0.475727
891.737904	0.476831
891.920888	0.476131
892.103854	0.476043
892.286802	0.476038
892.469731	0.475848
892.652643	0.475496
892.835536	0.475200
893.018410	0.475234
893.201267	0.474768
893.384106	0.474781
893.566926	0.474946
893.749728	0.475445
893.932511	0.474784
894.115277	0.475283
894.298024	0.475135
894.480753	0.475663
894.663464	0.475271
894.846157	0.474864
895.028831	0.474155
895.211487	0.474641
895.394125	0.474238
895.576745	0.473933
895.759346	0.473242
895.941930	0.472584
896.124495	0.471991
896.307041	0.471164
896.489570	0.471385
896.672080	0.471417
896.854573	0.470900
897.037046	0.470932
897.219502	0.470755
897.401940	0.471200
897.584359	0.471152
897.766760	0.471044
897.949143	0.471343
898.131507	0.471295
898.313854	0.471045
898.496182	0.470694
898.678492	0.470440
898.860783	0.470632
899.043057	0.469637
899.225312	0.469211
899.407549	0.468557
899.589768	0.468543
899.771968	0.468113
899.954151	0.467434
900.136315	0.466635
900.318461	0.466292
900.500588	0.465649
900.682698	0.465149
900.864789	0.464816
901.046862	0.464997
901.228917	0.464389
901.410953	0.464124
901.592971	0.464276
901.774972	0.464093
901.956953	0.463351
902.138917	0.463450
902.320862	0.462537
902.502790	0.462125
902.684699	0.461871
902.866589	0.461434
903.048462	0.461078
903.230316	0.460459
903.412152	0.460494
903.593970	0.460207
903.775770	0.459325
903.957551	0.459906
904.139314	0.459255
904.321059	0.458338
904.502786	0.457984
904.684494	0.457334
904.866185	0.457152
905.047857	0.456680
905.229510	0.455891
905.411146	0.455855
905.592763	0.455287
905.774363	0.455072
905.955943	0.455063
906.137506	0.454929
906.319051	0.455287
906.500577	0.454549
906.682085	0.454096
906.863575	0.454215
907.045046	0.453233
907.226500	0.452363
907.407935	0.451809
907.589352	0.450966
907.770750	0.450178
907.952131	0.449283
908.133493	0.448767
908.314837	0.447475
908.496163	0.447257
908.677470	0.447404
908.858760	0.447326
909.040031	0.447302
909.221284	0.446727
909.402518	0.446371
909.583735	0.446091
909.764933	0.445279
909.946113	0.445323
910.127275	0.444566
910.308418	0.444386
910.489544	0.443700
910.670651	0.443029
910.851740	0.443094
911.032810	0.442982
911.213863	0.442147
911.394897	0.442216
911.575913	0.441504
911.756911	0.440382
911.937890	0.439045
912.118851	0.438695
912.299794	0.438248
912.480719	0.437576
912.661626	0.436730
912.842514	0.436394
913.023384	0.435685
913.204236	0.435047
913.385070	0.434815
913.565886	0.434376
913.746683	0.433898
913.927462	0.433500
914.108223	0.432530
914.288965	0.432166
914.469690	0.430616
914.650396	0.430016
914.831084	0.429883
915.011754	0.429248
915.192405	0.429148
915.373038	0.428930
915.553653	0.428420
915.734250	0.427786
915.914829	0.426434
916.095389	0.426559
916.275931	0.425188
916.456455	0.423906
916.636961	0.423189
916.817448	0.421803
916.997917	0.420640
917.178368	0.419984
917.358801	0.419757
917.539216	0.419345
917.719612	0.418666
917.899990	0.418669
918.080350	0.418144
918.260692	0.417494
918.441015	0.416580
918.621320	0.415896
918.801607	0.414612
918.981876	0.413541
919.162127	0.412665
919.342359	0.411024
919.522573	0.410483
919.702769	0.410168
919.882947	0.408898
920.063106	0.408779
920.243247	0.407750
920.423370	0.407256
920.603475	0.406337
920.783562	0.405462
920.963630	0.405551
921.143680	0.404726
921.323712	0.404150
921.503725	0.403641
921.683721	0.402845
921.863698	0.401769
922.043657	0.400175
922.223598	0.400066
922.403520	0.399535
922.583424	0.398540
922.763311	0.397604
922.943178	0.396436
923.123028	0.396021
923.302859	0.395053
923.482673	0.394492
923.662467	0.393876
923.842244	0.392730
924.022003	0.392060
924.201743	0.390699
924.381465	0.390502
924.561169	0.389252
924.740854	0.388627
924.920522	0.387482
925.100171	0.387237
925.279802	0.387199
925.459414	0.385472
925.639009	0.384751
925.818585	0.384212
925.998143	0.383502
926.177683	0.383178
926.357205	0.381914
926.536708	0.381369
926.716193	0.380144
926.895660	0.379418
927.075109	0.378838
927.254539	0.377236
927.433951	0.376547
927.613345	0.374466
927.792721	0.373115
927.972079	0.372567
928.151418	0.371531
928.330739	0.370963
928.510042	0.369539
928.689327	0.368991
928.868593	0.368584
929.047841	0.367829
929.227071	0.367324
929.406283	0.365901
929.585476	0.365251
929.764652	0.363529
929.943809	0.361580
930.122948	0.361139
930.302068	0.359533
930.481171	0.359167
930.660255	0.358033
930.839321	0.356957
931.018369	0.356758
931.197398	0.354784
931.376409	0.354688
931.555402	0.353312
931.734377	0.352442
931.913334	0.351515
932.092272	0.349030
932.271192	0.348384
932.450094	0.346927
932.628978	0.346309
932.807844	0.346342
932.986691	0.345737
933.165520	0.345804
933.344331	0.344030
933.523123	0.344331
933.701898	0.343420
933.880654	0.341520
934.059392	0.341011
934.238111	0.338691
934.416813	0.336171
934.595496	0.334274
934.774161	0.332961
934.952808	0.330766
935.131437	0.328135
935.310047	0.327493
935.488639	0.327237
935.667213	0.325236
935.845769	0.324671
936.024306	0.323391
936.202825	0.322502
936.381326	0.320200
936.559809	0.318646
936.738274	0.317415
936.916720	0.315635
937.095148	0.313918
937.273558	0.313060
937.451950	0.310679
937.630323	0.309767
937.808678	0.308982
937.987015	0.308855
938.165334	0.308526
938.343635	0.308364
938.521917	0.307965
938.700181	0.306651
938.878427	0.305753
939.056655	0.305345
939.234864	0.303956
939.413055	0.301526
939.591228	0.300904
939.769383	0.299906
939.947519	0.299072
940.125638	0.297114
940.303738	0.296344
940.481820	0.295924
940.659883	0.295085
940.837929	0.294589
941.015956	0.294030
941.193965	0.293107
941.371955	0.291565
941.549928	0.289252
941.727882	0.288444
941.905818	0.287181
942.083736	0.284198
942.261636	0.282351
942.439517	0.281212
942.617380	0.279646
942.795225	0.276683
942.973052	0.275985
943.150860	0.274434
943.328651	0.273630
943.506423	0.271878
943.684176	0.272183
943.861912	0.272712
944.039629	0.272138
944.217328	0.271168
944.395009	0.271030
944.572672	0.270268
944.750317	0.270219
944.927943	0.268379
945.105551	0.267662
945.283141	0.266326
945.460712	0.263692
945.638265	0.260360
945.815801	0.259189
945.993317	0.257264
946.170816	0.256582
946.348297	0.255529
946.525759	0.255715
946.703203	0.254959
946.880629	0.253969
947.058036	0.251602
947.235425	0.251523
947.412797	0.250236
947.590149	0.249432
947.767484	0.246620
947.944800	0.244123
948.122099	0.241259
948.299379	0.238575
948.476640	0.236106
948.653884	0.236512
948.831109	0.235190
949.008316	0.234002
949.185505	0.233829
949.362676	0.233795
949.539828	0.232346
949.716962	0.231613
949.894078	0.230849
950.071176	0.229450
950.248256	0.228386
950.425317	0.227634
950.602360	0.225505
950.779385	0.223698
950.956391	0.222095
951.133380	0.220407
951.310350	0.220361
951.487302	0.218821
951.664235	0.217253
951.841151	0.216021
952.018048	0.215387
952.194927	0.213797
952.371788	0.212163
952.548631	0.210674
952.725455	0.210237
952.902261	0.208291
953.079049	0.206711
953.255819	0.205700
953.432570	0.203367
953.609303	0.199922
953.786018	0.200455
953.962715	0.197603
954.139394	0.195579
954.316054	0.195238
954.492696	0.193505
954.669320	0.192632
954.845926	0.192624
955.022513	0.190762
955.199083	0.192588
955.375634	0.190657
955.552166	0.193418
955.728681	0.191942
955.905177	0.191189
956.081655	0.190284
956.258115	0.190592
956.434557	0.186931
956.610980	0.189311
956.787385	0.185691
956.963772	0.183896
957.140141	0.180252
957.316492	0.181005
957.492824	0.180058
957.669138	0.179419
957.845434	0.177248
958.021712	0.176017
958.197971	0.173770
958.374212	0.173088
958.550435	0.174404
958.726640	0.175294
958.902826	0.172011
959.078995	0.170675
959.255145	0.170290
959.431277	0.170506
959.607390	0.172866
959.783486	0.171771
959.959563	0.171010
960.135622	0.167304
960.311662	0.163707
960.487685	0.166155
960.663689	0.164000
960.839675	0.164280
961.015643	0.165893
961.191593	0.162823
961.367524	0.165119
961.543437	0.162332
961.719332	0.164090
961.895209	0.165135
962.071067	0.163503
962.246907	0.163783
962.422730	0.160651
962.598533	0.157931
962.774319	0.160568
962.950086	0.157866
963.125835	0.159866
963.301566	0.158235
963.477279	0.156377
963.652973	0.155959
963.828650	0.156048
964.004308	0.157520
964.179947	0.158231
964.355569	0.155506
964.531172	0.155104
964.706757	0.155626
964.882324	0.156534
965.057873	0.158295
965.233403	0.159114
965.408916	0.158913
965.584410	0.156696
965.759885	0.153629
965.935343	0.154231
966.110782	0.153478
966.286203	0.152731
966.461606	0.151916
966.636991	0.150489
966.812357	0.147757
966.987705	0.148223
967.163035	0.149339
967.338347	0.150939
967.513641	0.149328
967.688916	0.148640
967.864173	0.147976
968.039412	0.148984
968.214632	0.148948
968.389835	0.150280
968.565019	0.148866
968.740185	0.148423
968.915333	0.149005
969.090462	0.150161
969.265573	0.153803
969.440667	0.155731
969.615741	0.153451
969.790798	0.152421
969.965836	0.153132
970.140856	0.154207
970.315858	0.153788
970.490842	0.151800
970.665808	0.151333
970.840755	0.149037
971.015684	0.147863
971.190595	0.147237
971.365487	0.148786
971.540362	0.145685
971.715218	0.143810
971.890056	0.144123
972.064875	0.144434
972.239677	0.144610
972.414460	0.143011
972.589225	0.143210
972.763972	0.146112
972.938700	0.145778
973.113411	0.146035
973.288103	0.146543
973.462777	0.148449
973.637432	0.147818
973.812070	0.148447
973.986689	0.147950
974.161290	0.147662
974.335873	0.145194
974.510437	0.144952
974.684984	0.147741
974.859512	0.146643
975.034022	0.145987
975.208513	0.147021
975.382987	0.145748
975.557442	0.146073
975.731879	0.145576
975.906298	0.147266
976.080698	0.148002
976.255080	0.144515
976.429445	0.145826
976.603790	0.144303
976.778118	0.147931
976.952427	0.151050
977.126719	0.150533
977.300992	0.150137
977.475246	0.150528
977.649483	0.147632
977.823701	0.150222
977.997901	0.150890
978.172083	0.150541
978.346247	0.144992
978.520392	0.141797
978.694519	0.141607
978.868628	0.142003
979.042719	0.140807
979.216791	0.143258
979.390845	0.143439
979.564882	0.143216
979.738899	0.143994
979.912899	0.145208
980.086880	0.144173
980.260843	0.145555
980.434788	0.144626
980.608715	0.145776
980.782623	0.145650
980.956514	0.146126
981.130386	0.144640
981.304240	0.144194
981.478075	0.143954
981.651892	0.144499
981.825692	0.142741
981.999472	0.142422
982.173235	0.140077
982.346980	0.137789
982.520706	0.134598
982.694414	0.135856
982.868104	0.136493
983.041775	0.136120
983.215428	0.136598
983.389064	0.139182
983.562680	0.139917
983.736279	0.140642
983.909860	0.144085
984.083422	0.144861
984.256966	0.145210
984.430491	0.144056
984.603999	0.146220
984.777488	0.147129
984.950959	0.145244
985.124412	0.146462
985.297847	0.147195
985.471263	0.144348
985.644661	0.145007
985.818041	0.145543
985.991403	0.145653
986.164747	0.143187
986.338072	0.143678
986.511379	0.146766
986.684668	0.143972
986.857938	0.143954
987.031191	0.145116
987.204425	0.144958
987.377641	0.144632
987.550839	0.142299
987.724018	0.144483
987.897179	0.144351
988.070322	0.142606
988.243447	0.147084
988.416554	0.147426
988.589642	0.147611
988.762712	0.147487
988.935764	0.146549
989.108798	0.150267
989.281813	0.149541
989.454811	0.149144
989.627790	0.146983
989.800751	0.143903
989.973693	0.142868
990.146617	0.142191
990.319524	0.142378
990.492412	0.142026
990.665281	0.140397
990.838133	0.140222
991.010966	0.139549
991.183781	0.140833
991.356578	0.141499
991.529356	0.143871
991.702117	0.144366
991.874859	0.144354
992.047583	0.142947
992.220288	0.142376
992.392976	0.141130
992.565645	0.139828
992.738296	0.139353
992.910929	0.139001
993.083543	0.136802
993.256139	0.136378
993.428718	0.137085
993.601277	0.139627
993.773819	0.140131
993.946342	0.141759
994.118848	0.143101
994.291335	0.143179
994.463803	0.141708
994.636254	0.141878
994.808686	0.141501
994.981100	0.140151
995.153496	0.139562
995.325874	0.141404
995.498233	0.141405
995.670574	0.140786
995.842897	0.140044
996.015202	0.140354
996.187488	0.141270
996.359757	0.143047
996.532007	0.143935
996.704239	0.143650
996.876452	0.141106
997.048648	0.140800
997.220825	0.141242
997.392984	0.144196
997.565124	0.145468
997.737247	0.143096
997.909351	0.142280
998.081437	0.142711
998.253505	0.143601
998.425554	0.144237
998.597586	0.142361
998.769599	0.143426
998.941594	0.141826
999.113571	0.141237
999.285529	0.143344
999.457469	0.141773
999.629391	0.141246
999.801295	0.140587
999.973181	0.140472
1000.145048	0.140537
1000.316897	0.140582
1000.488728	0.141615
1000.660541	0.144159
1000.832335	0.143063
1001.004111	0.144619
1001.175869	0.146079
1001.347609	0.145547
1001.519331	0.146141
1001.691034	0.147273
1001.862719	0.147440
1002.034386	0.146143
1002.206035	0.144190
1002.377665	0.143318
1002.549277	0.144357
1002.720871	0.142294
1002.892447	0.141558
1003.064004	0.142457
1003.235544	0.142548
1003.407065	0.143395
1003.578568	0.142968
1003.750052	0.143742
1003.921519	0.145170
1004.092967	0.145978
1004.264397	0.148398
1004.435809	0.150234
1004.607202	0.150385
1004.778577	0.152366
1004.949934	0.151966
1005.121273	0.152922
1005.292594	0.152666
1005.463896	0.154490
1005.635180	0.152958
1005.806446	0.151901
1005.977694	0.152034
1006.148923	0.152177
1006.320135	0.150790
1006.491328	0.150492
1006.662503	0.150867
1006.833659	0.151388
1007.004798	0.149815
1007.175918	0.151128
1007.347020	0.150581
1007.518103	0.148400
1007.689169	0.147928
1007.860216	0.147385
1008.031245	0.145026
1008.202256	0.143680
1008.373248	0.144286
1008.544223	0.142973
1008.715179	0.141091
1008.886117	0.142160
1009.057036	0.143825
1009.227938	0.140673
1009.398821	0.141283
1009.569686	0.141232
1009.740533	0.142836
1009.911361	0.141904
1010.082172	0.144631
1010.252964	0.146430
1010.423738	0.146630
1010.594493	0.145243
1010.765231	0.148461
1010.935950	0.147518
1011.106651	0.150175
1011.277334	0.148870
1011.447998	0.148581
1011.618645	0.145531
1011.789273	0.143952
1011.959882	0.143626
1012.130474	0.143458
1012.301048	0.142429
1012.471603	0.142066
1012.642140	0.143381
1012.812658	0.142862
1012.983159	0.142624
1013.153641	0.143798
1013.324105	0.143628
1013.494551	0.142546
1013.664979	0.143227
1013.835388	0.144658
1014.005779	0.144520
1014.176152	0.141953
1014.346507	0.142724
1014.516843	0.141167
1014.687162	0.140657
1014.857462	0.139992
1015.027744	0.138393
1015.198007	0.140283
1015.368252	0.139490
1015.538480	0.139901
1015.708689	0.139703
1015.878879	0.139679
1016.049052	0.139360
1016.219206	0.140446
1016.389342	0.139807
1016.559460	0.140915
1016.729559	0.138972
1016.899641	0.138402
1017.069704	0.139842
1017.239749	0.141383
1017.409775	0.141202
1017.579784	0.142157
1017.749774	0.143241
1017.919746	0.145090
1018.089700	0.146489
1018.259635	0.144419
1018.429553	0.144593
1018.599452	0.146541
1018.769333	0.144852
1018.939195	0.145132
1019.109040	0.145551
1019.278866	0.144661
1019.448674	0.143375
1019.618464	0.142644
1019.788235	0.143691
1019.957989	0.143412
1020.127724	0.139790
1020.297441	0.141412
1020.467139	0.142049
1020.636820	0.141894
1020.806482	0.143155
1020.976126	0.142866
1021.145752	0.141390
1021.315359	0.140731
1021.484948	0.141466
1021.654519	0.141971
1021.824072	0.140690
1021.993607	0.140740
1022.163123	0.142720
1022.332621	0.140526
1022.502101	0.142182
1022.671563	0.143644
1022.841007	0.144880
1023.010432	0.144875
1023.179839	0.145522
1023.349228	0.144866
1023.518598	0.144087
1023.687951	0.141682
1023.857285	0.141202
1024.026601	0.143070
1024.195899	0.143395
1024.365178	0.144215
1024.534439	0.144863
1024.703682	0.143727
1024.872907	0.143981
1025.042114	0.145835
1025.211302	0.148566
1025.380472	0.148709
1025.549624	0.146404
1025.718758	0.147221
1025.887873	0.147060
1026.056970	0.146114
1026.226049	0.146621
1026.395110	0.146004
1026.564153	0.144484
1026.733177	0.141863
1026.902183	0.141455
1027.071171	0.139805
1027.240141	0.137785
1027.409092	0.137037
1027.578026	0.135700
1027.746940	0.138323
1027.915837	0.139381
1028.084716	0.138238
1028.253576	0.139200
1028.422418	0.140049
1028.591242	0.141212
1028.760048	0.140780
1028.928835	0.140336
1029.097604	0.140380
1029.266355	0.138654
1029.435088	0.137669
1029.603803	0.138991
1029.772499	0.140546
1029.941177	0.142043
1030.109837	0.142225
1030.278478	0.143962
1030.447102	0.145366
1030.615707	0.145888
1030.784294	0.143887
1030.952863	0.146205
1031.121413	0.147511
1031.289945	0.145606
1031.458460	0.144359
1031.626955	0.144181
1031.795433	0.146160
1031.963892	0.144657
1032.132334	0.144478
1032.300756	0.145056
1032.469161	0.142855
1032.637548	0.139535
1032.805916	0.139017
1032.974266	0.139994
1033.142598	0.140441
1033.310911	0.138369
1033.479207	0.139175
1033.647484	0.140678
1033.815743	0.139790
1033.983983	0.139726
1034.152206	0.141570
1034.320410	0.142376
1034.488596	0.140410
1034.656764	0.141110
1034.824914	0.141986
1034.993045	0.141883
1035.161158	0.141108
1035.329253	0.139528
1035.497330	0.138082
1035.665388	0.138831
1035.833428	0.139734
1036.001450	0.140750
1036.169454	0.139823
1036.337440	0.138680
1036.505407	0.137906
1036.673356	0.136835
1036.841287	0.139784
1037.009200	0.141133
1037.177094	0.138707
1037.344970	0.137687
1037.512828	0.136817
1037.680668	0.137571
1037.848489	0.139265
1038.016293	0.139335
1038.184078	0.141953
1038.351845	0.141816
1038.519593	0.142644
1038.687324	0.143491
1038.855036	0.144308
1039.022730	0.144985
1039.190406	0.145573
1039.358063	0.145180
1039.525702	0.145479
1039.693323	0.146157
1039.860926	0.145706
1040.028511	0.146881
1040.196077	0.147614
1040.363625	0.146945
1040.531155	0.146266
1040.698667	0.145377
1040.866161	0.143117
1041.033636	0.142526
1041.201093	0.139845
1041.368532	0.141351
1041.535952	0.140110
1041.703355	0.140108
1041.870739	0.140141
1042.038105	0.141274
1042.205452	0.141285
1042.372782	0.141625
1042.540093	0.143278
1042.707386	0.145924
1042.874661	0.143415
1043.041918	0.143720
1043.209156	0.143232
1043.376376	0.142978
1043.543578	0.141892
1043.710762	0.139680
1043.877927	0.139922
1044.045074	0.139065
1044.212203	0.138292
1044.379314	0.139738
1044.546407	0.139682
1044.713481	0.138531
1044.880537	0.139512
1045.047575	0.139386
1045.214595	0.140259
1045.381596	0.138686
1045.548579	0.139028
1045.715544	0.138118
1045.882491	0.138913
1046.049420	0.138457
1046.216330	0.139454
1046.383222	0.137964
1046.550096	0.137220
1046.716951	0.137305
1046.883789	0.138443
1047.050608	0.139390
1047.217409	0.138912
1047.384192	0.138035
1047.550956	0.138219
1047.717703	0.138403
1047.884431	0.139050
1048.051140	0.141129
1048.217832	0.141322
1048.384505	0.141556
1048.551161	0.141056
1048.717798	0.140630
1048.884416	0.139134
1049.051017	0.138696
1049.217599	0.139634
1049.384163	0.139576
1049.550709	0.138485
1049.717237	0.138056
1049.883746	0.140016
1050.050237	0.139623
1050.216710	0.142122
1050.383165	0.143320
1050.549601	0.144652
1050.716019	0.144984
1050.882420	0.145552
1051.048801	0.146714
1051.215165	0.147191
1051.381510	0.146425
1051.547837	0.145764
1051.714146	0.143207
1051.880437	0.144115
1052.046709	0.145079
1052.212964	0.142228
1052.379200	0.141494
1052.545417	0.142703
1052.711617	0.143276
1052.877798	0.144008
1053.043961	0.146862
1053.210106	0.145167
1053.376233	0.143927
1053.542341	0.143190
1053.708432	0.145872
1053.874504	0.146434
1054.040557	0.144927
1054.206593	0.144502
1054.372610	0.142374
1054.538609	0.139426
1054.704590	0.140126
1054.870553	0.142354
1055.036497	0.142565
1055.202424	0.141621
1055.368331	0.139882
1055.534221	0.140204
1055.700093	0.139196
1055.865946	0.139020
1056.031781	0.141379
1056.197598	0.143985
1056.363397	0.143517
1056.529177	0.143872
1056.694939	0.146148
1056.860683	0.148307
1057.026409	0.147172
1057.192116	0.149720
1057.357806	0.149870
1057.523477	0.148070
1057.689130	0.147894
1057.854764	0.147363
1058.020381	0.146770
1058.185979	0.143822
1058.351559	0.141639
1058.517120	0.143023
1058.682664	0.142933
1058.848189	0.142052
1059.013696	0.142737
1059.179185	0.143765
1059.344656	0.144740
1059.510108	0.145069
1059.675542	0.145460
1059.840958	0.145185
1060.006356	0.144866
1060.171735	0.143365
1060.337096	0.146672
1060.502439	0.148245
1060.667764	0.147249
1060.833071	0.145841
1060.998359	0.144881
1061.163629	0.143572
1061.328881	0.143444
1061.494115	0.143557
1061.659330	0.144736
1061.824527	0.140950
1061.989706	0.138689
1062.154867	0.137924
1062.320010	0.139258
1062.485134	0.138597
1062.650240	0.139668
1062.815328	0.139756
1062.980398	0.139509
1063.145449	0.138106
1063.310482	0.143143
1063.475497	0.142490
1063.640494	0.141675
1063.805473	0.140341
1063.970433	0.143091
1064.135375	0.141917
1064.300299	0.144101
1064.465204	0.144493
1064.630092	0.145974
1064.794961	0.142693
1064.959812	0.143400
1065.124645	0.144442
1065.289459	0.145473
1065.454256	0.141879
1065.619034	0.144725
1065.783793	0.144917
1065.948535	0.145222
1066.113258	0.146312
1066.277964	0.148794
1066.442651	0.148004
1066.607319	0.147556
1066.771970	0.148429
1066.936602	0.150438
1067.101216	0.147794
1067.265812	0.147796
1067.430389	0.149532
1067.594949	0.147732
1067.759490	0.145396
1067.924013	0.146340
1068.088518	0.147461
1068.253004	0.145774
1068.417472	0.144363
1068.581922	0.146495
1068.746354	0.146774
1068.910768	0.145986
1069.075163	0.147804
1069.239540	0.148926
1069.403899	0.151290
1069.568240	0.151728
1069.732562	0.153513
1069.896866	0.153574
1070.061152	0.153696
1070.225420	0.151866
1070.389670	0.149933
1070.553901	0.148419
1070.718114	0.145848
1070.882309	0.146793
1071.046486	0.145746
1071.210644	0.142489
1071.374784	0.144762
1071.538906	0.144868
1071.703010	0.145906
1071.867096	0.144400
1072.031163	0.146690
1072.195212	0.147736
1072.359243	0.144236
1072.523256	0.143468
1072.687250	0.144290
1072.851226	0.143055
1073.015184	0.143677
1073.179124	0.142419
1073.343045	0.142783
1073.506949	0.143460
1073.670834	0.144235
1073.834701	0.145799
1073.998549	0.149208
1074.162380	0.149953
1074.326192	0.150077
1074.489986	0.146813
1074.653761	0.149204
1074.817519	0.152588
1074.981258	0.149774
1075.144979	0.150968
1075.308682	0.151719
1075.472367	0.150071
1075.636033	0.152234
1075.799681	0.149082
1075.963311	0.149495
1076.126923	0.150287
1076.290516	0.148158
1076.454092	0.148181
1076.617649	0.149861
1076.781187	0.148916
1076.944708	0.146009
1077.108210	0.144871
1077.271695	0.147419
1077.435160	0.150087
1077.598608	0.149140
1077.762038	0.147187
1077.925449	0.148955
1078.088842	0.146886
1078.252217	0.145639
1078.415573	0.146108
1078.578912	0.145869
1078.742232	0.145783
1078.905534	0.145188
1079.068817	0.144228
1079.232083	0.148693
1079.395330	0.148055
1079.558559	0.148257
1079.721770	0.151854
1079.884962	0.154581
1080.048136	0.154837
1080.211293	0.156524
1080.374430	0.155368
1080.537550	0.155974
1080.700651	0.158493
1080.863735	0.157055
1081.026800	0.159241
1081.189846	0.156860
1081.352875	0.155577
1081.515885	0.156539
1081.678877	0.155124
1081.841851	0.157551
1082.004807	0.158941
1082.167744	0.155551
1082.330663	0.158281
1082.493564	0.153642
1082.656447	0.155456
1082.819312	0.157500
1082.982158	0.155803
1083.144986	0.157406
1083.307796	0.156225
1083.470587	0.152487
1083.633361	0.152850
1083.796116	0.150645
1083.958853	0.154433
1084.121571	0.150972
1084.284272	0.152398
1084.446954	0.154430
1084.609618	0.155977
1084.772264	0.157952
1084.934892	0.161137
1085.097501	0.159164
1085.260092	0.160352
1085.422665	0.160560
1085.585220	0.161546
1085.747756	0.157810
1085.910274	0.158933
1086.072774	0.153783
1086.235256	0.151099
1086.397720	0.150892
1086.560165	0.152949
1086.722592	0.152874
1086.885001	0.149393
1087.047392	0.150208
1087.209764	0.151416
1087.372119	0.146522
1087.534455	0.148314
1087.696772	0.150670
1087.859072	0.152030
1088.021353	0.150814
1088.183616	0.151692
1088.345861	0.155668
1088.508088	0.158079
1088.670296	0.157168
1088.832486	0.162095
1088.994658	0.165628
1089.156812	0.165245
1089.318948	0.166148
1089.481065	0.168740
1089.643164	0.165780
1089.805245	0.162691
1089.967308	0.158761
1090.129352	0.157534
1090.291378	0.154751
1090.453386	0.151822
1090.615376	0.151796
1090.777347	0.149692
1090.939301	0.146855
1091.101236	0.150110
1091.263153	0.153225
1091.425051	0.155830
1091.586932	0.158000
1091.748794	0.159047
1091.910638	0.159536
1092.072463	0.163044
1092.234271	0.163060
1092.396060	0.164422
1092.557831	0.164323
1092.719584	0.163071
1092.881319	0.161565
1093.043035	0.159532
1093.204733	0.160592
1093.366413	0.163185
1093.528075	0.161368
1093.689718	0.161846
1093.851343	0.163318
1094.012950	0.162767
1094.174539	0.161990
1094.336110	0.162150
1094.497662	0.162951
1094.659196	0.163562
1094.820712	0.159209
1094.982210	0.157267
1095.143689	0.157839
1095.305151	0.155423
1095.466594	0.156688
1095.628018	0.158791
1095.789425	0.158535
1095.950813	0.161451
1096.112183	0.161889
1096.273535	0.163571
1096.434869	0.166739
1096.596184	0.165525
1096.757482	0.168568
1096.918761	0.166474
1097.080021	0.166509
1097.241264	0.169760
1097.402488	0.168165
1097.563694	0.162289
1097.724882	0.160861
1097.886052	0.160963
1098.047203	0.163124
1098.208336	0.162721
1098.369451	0.163939
1098.530548	0.164370
1098.691627	0.163485
1098.852687	0.165963
1099.013729	0.169008
1099.174753	0.174762
1099.335758	0.174185
1099.496746	0.169953
1099.657715	0.169349
1099.818666	0.168691
1099.979599	0.167434
1100.140513	0.165382
1100.301409	0.166411
1100.462287	0.169733
1100.623147	0.167191
1100.783989	0.165673
1100.944812	0.170106
1101.105617	0.165819
1101.266404	0.165743
1101.427173	0.163347
1101.587923	0.168162
1101.748656	0.162661
1101.909370	0.161904
1102.070066	0.160879
1102.230743	0.162210
1102.391403	0.161138
1102.552044	0.166176
1102.712667	0.164400
1102.873271	0.165243
1103.033858	0.163959
1103.194426	0.169071
1103.354976	0.168296
1103.515508	0.166234
1103.676021	0.160571
1103.836517	0.161555
1103.996994	0.155611
1104.157453	0.161481
1104.317893	0.159360
1104.478316	0.156755
1104.638720	0.155472
1104.799106	0.155230
1104.959474	0.158726
1105.119823	0.163396
1105.280155	0.161948
1105.440468	0.167906
1105.600763	0.164442
1105.761039	0.167400
1105.921298	0.167990
1106.081538	0.169477
1106.241760	0.171290
1106.401964	0.173773
1106.562149	0.175657
1106.722316	0.176503
1106.882465	0.172720
1107.042596	0.169657
1107.202709	0.170956
1107.362803	0.174249
1107.522879	0.170225
1107.682937	0.171433
1107.842977	0.168433
1108.002999	0.167913
1108.163002	0.168309
1108.322987	0.173600
1108.482954	0.176969
1108.642902	0.173729
1108.802833	0.172418
1108.962745	0.174691
1109.122639	0.170574
1109.282515	0.171313
1109.442372	0.172536
1109.602211	0.170411
1109.762032	0.166129
1109.921835	0.167705
1110.081620	0.171654
1110.241386	0.169828
1110.401134	0.165641
1110.560864	0.166190
1110.720576	0.166303
1110.880269	0.161432
1111.039945	0.160468
1111.199602	0.165011
1111.359240	0.160608
1111.518861	0.162429
1111.678463	0.164804
1111.838047	0.166690
1111.997613	0.167554
1112.157161	0.163583
1112.316690	0.165289
1112.476202	0.166094
1112.635695	0.163772
1112.795169	0.164972
1112.954626	0.162571
1113.114064	0.154193
1113.273484	0.156203
1113.432886	0.155193
1113.592270	0.156530
1113.751635	0.156693
1113.910983	0.159049
1114.070312	0.156283
1114.229622	0.161035
1114.388915	0.160674
1114.548189	0.166463
1114.707445	0.169534
1114.866683	0.167578
1115.025903	0.171775
1115.185104	0.166588
1115.344287	0.160479
1115.503452	0.163237
1115.662599	0.160074
1115.821727	0.164554
1115.980838	0.162163
1116.139930	0.159438
1116.299004	0.159966
1116.458059	0.154859
1116.617097	0.161235
1116.776116	0.164787
1116.935117	0.168996
1117.094099	0.163407
1117.253064	0.161290
1117.412010	0.165988
1117.570938	0.167408
1117.729848	0.167764
1117.888740	0.169903
1118.047613	0.169793
1118.206468	0.172532
1118.365305	0.172491
1118.524124	0.181015
1118.682924	0.181102
1118.841707	0.177207
1119.000471	0.175046
1119.159216	0.176494
1119.317944	0.178652
1119.476653	0.178638
1119.635344	0.176641
1119.794017	0.170814
1119.952672	0.167884
1120.111308	0.166456
1120.269927	0.169127
1120.428527	0.174147
1120.587108	0.174184
1120.745672	0.169350
1120.904217	0.168893
1121.062744	0.166966
1121.221253	0.171697
1121.379744	0.170307
1121.538216	0.169612
1121.696671	0.168635
1121.855107	0.164825
1122.013524	0.158038
1122.171924	0.161615
1122.330305	0.164419
1122.488668	0.174301
1122.647013	0.174415
1122.805340	0.177232
1122.963648	0.174653
1123.121938	0.181811
1123.280210	0.182137
1123.438464	0.189787
1123.596700	0.186318
1123.754917	0.184172
1123.913116	0.177709
1124.071297	0.173328
1124.229459	0.173789
1124.387604	0.178055
1124.545730	0.171844
1124.703838	0.173651
1124.861928	0.177957
1125.019999	0.184099
1125.178052	0.182622
1125.336088	0.181831
1125.494104	0.178202
1125.652103	0.179775
1125.810083	0.177623
1125.968045	0.178046
1126.125989	0.173277
1126.283915	0.167885
1126.441823	0.164680
1126.599712	0.167754
1126.757583	0.166237
1126.915436	0.174934
1127.073270	0.172569
1127.231087	0.172062
1127.388885	0.172761
1127.546665	0.179252
1127.704426	0.179887
1127.862170	0.184512
1128.019895	0.179039
1128.177602	0.184639
1128.335291	0.182223
1128.492961	0.182725
1128.650614	0.178777
1128.808248	0.176311
1128.965864	0.171377
1129.123461	0.173342
1129.281041	0.173131
1129.438602	0.173414
1129.596145	0.172407
1129.753670	0.174451
1129.911176	0.171258
1130.068665	0.184048
1130.226135	0.192067
1130.383587	0.192331
1130.541020	0.190187
1130.698436	0.189735
1130.855833	0.190159
1131.013212	0.190550
1131.170573	0.190812
1131.327915	0.193097
1131.485239	0.177978
1131.642545	0.172439
1131.799833	0.177994
1131.957103	0.183600
1132.114354	0.184029
1132.271588	0.190081
1132.428803	0.186200
1132.585999	0.180541
1132.743178	0.178040
1132.900338	0.191174
1133.057480	0.195601
1133.214604	0.192741
1133.371710	0.189351
1133.528797	0.183009
1133.685866	0.187400
1133.842917	0.191212
1133.999950	0.192171
1134.156964	0.196935
1134.313960	0.191277
1134.470938	0.191230
1134.627898	0.187247
1134.784840	0.182819
1134.941763	0.186260
1135.098668	0.182471
1135.255555	0.178914
1135.412424	0.183582
1135.569274	0.186094
1135.726107	0.184837
1135.882921	0.182407
1136.039716	0.185685
1136.196494	0.191625
1136.353253	0.192529
1136.509995	0.185197
1136.666717	0.193224
1136.823422	0.185974
1136.980109	0.186371
1137.136777	0.190883
1137.293427	0.191375
1137.450059	0.195768
1137.606672	0.198767
1137.763267	0.201843
1137.919844	0.199879
1138.076403	0.191900
1138.232944	0.197512
1138.389466	0.183384
1138.545971	0.178854
1138.702457	0.178241
1138.858924	0.171382
1139.015374	0.167424
1139.171805	0.167379
1139.328218	0.166514
1139.484613	0.166839
1139.640990	0.168542
1139.797348	0.172796
1139.953688	0.175286
1140.110010	0.169665
1140.266314	0.176122
1140.422600	0.178539
1140.578867	0.178694
1140.735116	0.184684
1140.891347	0.189688
1141.047559	0.186826
1141.203754	0.190701
1141.359930	0.188377
1141.516088	0.197888
1141.672228	0.191171
1141.828349	0.183278
1141.984452	0.173476
1142.140537	0.172512
1142.296604	0.171812
1142.452653	0.163162
1142.608683	0.167786
1142.764695	0.172456
1142.920689	0.165806
1143.076665	0.169939
1143.232622	0.171083
1143.388562	0.181914
1143.544483	0.183659
1143.700385	0.183997
1143.856270	0.197417
1144.012136	0.192137
1144.167985	0.194245
1144.323814	0.191316
1144.479626	0.183718
1144.635420	0.185523
1144.791195	0.186985
1144.946952	0.187022
1145.102691	0.185548
1145.258411	0.191055
1145.414113	0.190965
1145.569798	0.191314
1145.725463	0.194960
1145.881111	0.199788
1146.036741	0.200601
1146.192352	0.192930
1146.347945	0.184754
1146.503519	0.182345
1146.659076	0.176792
1146.814614	0.169258
1146.970134	0.161292
1147.125636	0.161308
1147.281120	0.159950
1147.436585	0.163691
1147.592032	0.168386
1147.747461	0.173838
1147.902872	0.174909
1148.058265	0.160037
1148.213639	0.178588
1148.368995	0.178271
1148.524333	0.175441
1148.679653	0.180290
1148.834954	0.180660
1148.990237	0.182980
1149.145502	0.188657
1149.300749	0.188964
1149.455977	0.204112
1149.611188	0.192511
1149.766380	0.187014
1149.921553	0.186130
1150.076709	0.192971
1150.231846	0.182738
1150.386966	0.181911
1150.542066	0.176781
1150.697149	0.174625
1150.852214	0.165708
1151.007260	0.174320
1151.162288	0.177534
1151.317298	0.182742
1151.472289	0.169378
1151.627263	0.172404
1151.782218	0.170658
1151.937155	0.176181
1152.092073	0.181593
1152.246974	0.186597
1152.401856	0.177738
1152.556720	0.177255
1152.711566	0.174171
1152.866393	0.181299
1153.021203	0.181959
1153.175994	0.181322
1153.330767	0.173687
1153.485521	0.166847
1153.640258	0.160946
1153.794976	0.156907
1153.949676	0.154783
1154.104358	0.150408
1154.259021	0.154494
1154.413667	0.149264
1154.568294	0.155370
1154.722903	0.153435
1154.877493	0.150955
1155.032066	0.151243
1155.186620	0.152605
1155.341156	0.163226
1155.495674	0.172991
1155.650173	0.163562
1155.804654	0.165449
1155.959118	0.155929
1156.113562	0.159248
1156.267989	0.152391
1156.422397	0.161831
1156.576788	0.163061
1156.731160	0.164937
1156.885513	0.170078
1157.039849	0.166741
1157.194166	0.176868
1157.348465	0.179685
1157.502746	0.174971
1157.657009	0.189638
1157.811253	0.180988
1157.965479	0.188252
1158.119687	0.171179
1158.273877	0.158025
1158.428048	0.161500
1158.582201	0.156857
1158.736337	0.150934
1158.890453	0.148969
1159.044552	0.153554
1159.198632	0.158216
1159.352694	0.168469
1159.506738	0.171066
1159.660764	0.177703
1159.814771	0.163775
1159.968761	0.167804
1160.122732	0.176476
1160.276685	0.181808
1160.430619	0.177449
1160.584535	0.171356
1160.738434	0.158279
1160.892313	0.170549
1161.046175	0.168277
1161.200019	0.182921
1161.353844	0.183010
1161.507651	0.169468
1161.661440	0.173826
1161.815210	0.179238
1161.968962	0.170905
1162.122697	0.171066
1162.276412	0.159687
1162.430110	0.157607
1162.583789	0.166343
1162.737451	0.146534
1162.891094	0.162205
1163.044718	0.153378
1163.198325	0.158117
1163.351913	0.178174
1163.505483	0.170965
1163.659035	0.175011
1163.812569	0.182467
1163.966084	0.180016
1164.119581	0.186958
1164.273060	0.186334
1164.426521	0.194795
1164.579964	0.185703
1164.733388	0.183742
1164.886794	0.180407
1165.040182	0.182934
1165.193551	0.177872
1165.346903	0.176970
1165.500236	0.188928
1165.653551	0.196551
1165.806848	0.198746
1165.960126	0.202002
1166.113386	0.193464
1166.266628	0.210268
1166.419852	0.219599
1166.573058	0.224582
1166.726245	0.209383
1166.879414	0.208833
1167.032565	0.188785
1167.185698	0.188251
1167.338812	0.191094
1167.491909	0.198953
1167.644987	0.193459
1167.798046	0.198928
1167.951088	0.209073
1168.104111	0.212095
1168.257117	0.208813
1168.410103	0.202409
1168.563072	0.197343
1168.716023	0.191636
1168.868955	0.174667
1169.021869	0.158405
1169.174765	0.151481
1169.327642	0.133895
1169.480501	0.138685
1169.633343	0.145937
1169.786165	0.160093
1169.938970	0.161815
1170.091757	0.155016
1170.244525	0.177064
1170.397275	0.184299
1170.550007	0.174003
1170.702720	0.171565
1170.855415	0.178195
1171.008092	0.187662
1171.160751	0.197990
1171.313392	0.213560
1171.466014	0.237230
1171.618619	0.323310
1171.771205	0.323310
1171.923772	0.323310
