sample name	sample
index	421
start time	 03-08-2021  11:36:03 AM


Wavelength (nm)	Absorbance
494.344910	-0.300474
494.563924	-0.300474
494.782919	-0.300474
495.001897	-0.158839
495.220856	-0.120659
495.439797	-0.073684
495.658719	-0.095233
495.877624	-0.081626
496.096510	-0.070968
496.315378	-0.035724
496.534227	-0.035166
496.753059	-0.044287
496.971872	-0.030143
497.190667	0.133796
497.409444	0.151088
497.628203	0.158179
497.846943	0.162210
498.065665	0.161242
498.284369	0.160097
498.503055	0.160435
498.721723	0.160117
498.940372	0.160725
499.159003	0.160494
499.377616	0.160451
499.596210	0.160770
499.814787	0.160285
500.033345	0.161121
500.251885	0.162361
500.470406	0.163107
500.688910	0.164283
500.907395	0.164826
501.125862	0.164563
501.344311	0.164525
501.562742	0.164991
501.781154	0.165564
501.999548	0.165249
502.217924	0.164070
502.436282	0.163956
502.654621	0.164023
502.872942	0.164007
503.091245	0.164517
503.309530	0.165193
503.527797	0.164895
503.746045	0.164569
503.964275	0.164943
504.182487	0.165837
504.400681	0.165842
504.618856	0.164839
504.837013	0.164286
505.055152	0.164872
505.273273	0.164128
505.491376	0.164295
505.709460	0.164884
505.927526	0.165503
506.145574	0.165235
506.363604	0.165076
506.581615	0.166481
506.799608	0.167224
507.017583	0.166665
507.235540	0.167328
507.453478	0.168131
507.671399	0.167925
507.889301	0.166760
508.107185	0.167642
508.325050	0.167477
508.542898	0.167167
508.760727	0.167103
508.978538	0.167633
509.196330	0.167764
509.414105	0.166950
509.631861	0.166613
509.849599	0.168117
510.067319	0.168004
510.285021	0.169056
510.502704	0.169754
510.720369	0.168663
510.938016	0.169332
511.155645	0.169846
511.373255	0.170928
511.590848	0.170932
511.808422	0.171389
512.025977	0.171340
512.243515	0.171291
512.461034	0.171482
512.678536	0.173543
512.896018	0.173726
513.113483	0.172658
513.330930	0.172359
513.548358	0.172231
513.765768	0.172346
513.983160	0.173271
514.200533	0.173162
514.417889	0.172748
514.635226	0.172563
514.852545	0.172418
515.069845	0.173814
515.287128	0.173361
515.504392	0.174516
515.721638	0.174413
515.938866	0.175730
516.156075	0.176676
516.373267	0.177230
516.590440	0.177569
516.807594	0.177448
517.024731	0.177457
517.241850	0.177970
517.458950	0.177493
517.676032	0.177632
517.893095	0.176383
518.110141	0.176817
518.327168	0.177316
518.544177	0.177112
518.761168	0.177608
518.978141	0.177604
519.195095	0.178131
519.412031	0.179081
519.628949	0.179981
519.845849	0.180388
520.062731	0.180253
520.279594	0.180685
520.496439	0.181739
520.713266	0.182317
520.930074	0.184043
521.146865	0.185038
521.363637	0.185722
521.580391	0.185233
521.797127	0.185505
522.013844	0.185757
522.230543	0.185750
522.447224	0.185647
522.663887	0.185559
522.880532	0.184994
523.097158	0.184742
523.313766	0.185205
523.530356	0.185825
523.746928	0.187052
523.963481	0.187598
524.180017	0.188557
524.396534	0.188412
524.613032	0.189285
524.829513	0.189303
525.045975	0.189692
525.262420	0.189125
525.478845	0.189944
525.695253	0.189970
525.911643	0.189704
526.128014	0.189416
526.344367	0.189713
526.560702	0.189186
526.777018	0.189944
526.993316	0.190541
527.209597	0.190757
527.425858	0.191275
527.642102	0.191142
527.858328	0.192442
528.074535	0.192954
528.290724	0.193887
528.506894	0.194683
528.723047	0.194937
528.939181	0.194896
529.155297	0.194987
529.371395	0.194264
529.587475	0.194644
529.803536	0.194498
530.019579	0.194859
530.235604	0.194675
530.451611	0.195329
530.667600	0.195709
530.883570	0.195812
531.099522	0.197350
531.315456	0.198050
531.531372	0.198309
531.747269	0.198405
531.963148	0.198349
532.179009	0.199036
532.394852	0.199511
532.610676	0.200060
532.826482	0.200556
533.042271	0.200528
533.258040	0.200667
533.473792	0.201741
533.689525	0.202042
533.905240	0.202750
534.120937	0.202719
534.336616	0.202594
534.552277	0.201877
534.767919	0.202209
534.983543	0.202580
535.199149	0.202898
535.414736	0.202572
535.630306	0.202949
535.845857	0.203151
536.061390	0.204167
536.276904	0.204600
536.492401	0.205615
536.707879	0.206677
536.923339	0.206824
537.138781	0.207538
537.354204	0.208479
537.569610	0.208720
537.784997	0.209129
538.000366	0.209705
538.215716	0.210142
538.431049	0.211082
538.646363	0.211364
538.861659	0.211872
539.076937	0.212054
539.292196	0.211480
539.507438	0.212013
539.722661	0.212009
539.937866	0.211737
540.153052	0.211877
540.368221	0.211261
540.583371	0.211546
540.798503	0.211395
541.013617	0.211940
541.228712	0.212863
541.443789	0.212937
541.658848	0.213694
541.873889	0.214561
542.088912	0.215333
542.303916	0.215960
542.518902	0.215871
542.733870	0.216390
542.948820	0.216767
543.163752	0.216824
543.378665	0.217471
543.593560	0.217678
543.808437	0.217505
544.023295	0.217791
544.238136	0.218127
544.452958	0.218604
544.667762	0.219460
544.882548	0.219448
545.097315	0.219399
545.312064	0.219709
545.526795	0.220119
545.741508	0.220709
545.956203	0.221000
546.170879	0.221007
546.385537	0.220965
546.600177	0.221200
546.814799	0.221739
547.029402	0.222108
547.243988	0.222174
547.458555	0.222324
547.673103	0.222654
547.887634	0.222629
548.102146	0.223284
548.316640	0.223747
548.531116	0.223862
548.745574	0.224022
548.960013	0.223932
549.174435	0.224179
549.388838	0.224594
549.603222	0.224414
549.817589	0.224808
550.031937	0.225170
550.246267	0.225441
550.460579	0.225414
550.674873	0.225756
550.889148	0.226363
551.103405	0.226705
551.317644	0.227061
551.531865	0.227103
551.746068	0.227363
551.960252	0.226965
552.174418	0.227270
552.388566	0.226973
552.602696	0.226943
552.816807	0.227407
553.030900	0.227636
553.244975	0.227573
553.459032	0.228119
553.673070	0.228194
553.887091	0.228372
554.101093	0.228831
554.315077	0.229593
554.529042	0.229896
554.742990	0.230258
554.956919	0.230383
555.170830	0.230537
555.384722	0.230564
555.598597	0.231063
555.812453	0.231758
556.026291	0.231925
556.240111	0.231985
556.453913	0.232538
556.667696	0.232765
556.881461	0.232808
557.095208	0.233088
557.308937	0.233638
557.522647	0.233671
557.736339	0.233696
557.950013	0.233624
558.163669	0.234077
558.377307	0.233686
558.590926	0.233600
558.804527	0.234146
559.018110	0.234420
559.231675	0.234693
559.445221	0.234736
559.658749	0.235135
559.872259	0.235393
560.085751	0.235617
560.299225	0.235932
560.512680	0.236560
560.726117	0.236899
560.939536	0.237203
561.152937	0.237442
561.366319	0.237908
561.579683	0.238205
561.793029	0.238406
562.006357	0.238875
562.219667	0.239413
562.432958	0.239183
562.646231	0.239156
562.859486	0.239263
563.072723	0.239568
563.285941	0.239630
563.499141	0.239709
563.712323	0.239878
563.925487	0.239841
564.138632	0.240278
564.351760	0.240751
564.564869	0.240758
564.777960	0.241256
564.991032	0.241251
565.204087	0.241627
565.417123	0.241859
565.630141	0.242310
565.843140	0.242901
566.056122	0.242840
566.269085	0.243055
566.482030	0.243191
566.694957	0.243251
566.907866	0.243555
567.120756	0.243970
567.333628	0.244186
567.546482	0.244254
567.759318	0.243997
567.972135	0.244359
568.184935	0.244532
568.397716	0.244724
568.610478	0.244946
568.823223	0.245226
569.035949	0.245218
569.248657	0.245317
569.461347	0.245232
569.674019	0.245426
569.886672	0.245393
570.099308	0.245605
570.311925	0.246226
570.524523	0.246263
570.737104	0.246124
570.949666	0.246326
571.162210	0.247029
571.374736	0.247455
571.587244	0.247845
571.799733	0.248081
572.012205	0.248159
572.224658	0.248407
572.437092	0.248861
572.649509	0.248948
572.861907	0.249319
573.074287	0.249288
573.286649	0.249566
573.498993	0.250040
573.711318	0.250644
573.923625	0.251082
574.135914	0.251048
574.348185	0.251390
574.560438	0.252201
574.772672	0.251975
574.984888	0.251937
575.197086	0.252258
575.409266	0.252109
575.621427	0.251726
575.833570	0.251833
576.045695	0.251940
576.257802	0.252044
576.469890	0.252275
576.681961	0.252693
576.894013	0.253295
577.106046	0.253506
577.318062	0.253707
577.530059	0.254251
577.742039	0.254301
577.954000	0.254474
578.165942	0.254513
578.377867	0.253994
578.589773	0.254112
578.801661	0.254242
579.013531	0.254100
579.225382	0.254347
579.437216	0.254468
579.649031	0.254983
579.860828	0.255416
580.072606	0.255798
580.284367	0.256337
580.496109	0.256876
580.707833	0.257147
580.919539	0.258215
581.131227	0.258403
581.342896	0.258628
581.554547	0.258864
581.766180	0.259041
581.977795	0.259141
582.189391	0.259503
582.400969	0.259432
582.612529	0.259633
582.824071	0.259420
583.035595	0.259550
583.247100	0.259561
583.458587	0.259512
583.670056	0.259689
583.881506	0.260052
584.092939	0.260368
584.304353	0.260685
584.515749	0.260681
584.727127	0.260960
584.938486	0.261242
585.149828	0.261712
585.361151	0.262072
585.572456	0.262795
585.783742	0.263032
585.995011	0.263277
586.206261	0.263319
586.417493	0.263350
586.628706	0.263298
586.839902	0.263453
587.051079	0.263733
587.262238	0.264216
587.473379	0.264301
587.684502	0.264125
587.895606	0.263905
588.106692	0.264041
588.317760	0.264210
588.528810	0.264570
588.739841	0.264613
588.950855	0.264429
589.161850	0.264209
589.372827	0.263857
589.583785	0.264222
589.794726	0.264777
590.005648	0.264902
590.216552	0.265096
590.427437	0.265078
590.638305	0.265464
590.849154	0.266064
591.059985	0.266682
591.270798	0.266637
591.481592	0.267061
591.692369	0.267007
591.903127	0.267375
592.113867	0.267730
592.324588	0.268045
592.535292	0.268429
592.745977	0.268416
592.956644	0.268277
593.167293	0.269045
593.377923	0.269221
593.588536	0.269781
593.799130	0.270317
594.009706	0.270710
594.220263	0.271138
594.430803	0.271289
594.641324	0.271910
594.851827	0.272150
595.062312	0.272690
595.272778	0.272491
595.483227	0.272474
595.693657	0.272386
595.904069	0.272422
596.114462	0.272452
596.324838	0.272069
596.535195	0.271870
596.745534	0.272098
596.955855	0.272063
597.166157	0.272851
597.376441	0.273285
597.586707	0.273274
597.796955	0.273550
598.007185	0.274021
598.217396	0.274747
598.427589	0.275099
598.637764	0.275122
598.847921	0.274982
599.058060	0.274737
599.268180	0.274743
599.478282	0.275342
599.688366	0.275628
599.898431	0.275700
600.108479	0.275944
600.318508	0.275967
600.528519	0.276265
600.738511	0.277063
600.948486	0.277421
601.158442	0.277447
601.368380	0.277299
601.578300	0.277340
601.788202	0.277384
601.998085	0.277604
602.207950	0.277841
602.417797	0.277981
602.627626	0.278117
602.837436	0.278598
603.047228	0.278796
603.257002	0.279061
603.466758	0.279138
603.676496	0.279244
603.886215	0.279788
604.095916	0.279887
604.305599	0.280125
604.515264	0.280003
604.724910	0.279946
604.934538	0.280230
605.144148	0.280589
605.353740	0.280886
605.563314	0.281132
605.772869	0.281004
605.982406	0.281378
606.191925	0.281944
606.401425	0.282108
606.610908	0.282569
606.820372	0.282819
607.029818	0.282999
607.239246	0.283201
607.448655	0.283251
607.658047	0.283287
607.867420	0.283738
608.076775	0.283383
608.286111	0.283656
608.495430	0.283613
608.704730	0.283687
608.914012	0.283800
609.123275	0.284282
609.332521	0.284563
609.541748	0.284808
609.750957	0.284604
609.960148	0.285196
610.169321	0.285297
610.378475	0.285302
610.587611	0.285493
610.796729	0.285800
611.005829	0.285719
611.214910	0.285666
611.423974	0.285937
611.633019	0.286457
611.842045	0.286320
612.051054	0.286758
612.260044	0.286919
612.469017	0.287442
612.677970	0.287695
612.886906	0.287912
613.095824	0.288289
613.304723	0.288392
613.513604	0.288023
613.722467	0.288183
613.931311	0.288033
614.140138	0.288114
614.348946	0.287992
614.557736	0.287916
614.766507	0.287995
614.975261	0.287906
615.183996	0.288177
615.392713	0.288585
615.601412	0.288710
615.810092	0.288904
616.018754	0.289427
616.227399	0.289589
616.436024	0.289945
616.644632	0.290266
616.853222	0.290805
617.061793	0.290840
617.270346	0.290937
617.478880	0.291532
617.687397	0.291854
617.895895	0.291566
618.104375	0.291574
618.312837	0.291747
618.521281	0.291974
618.729706	0.291855
618.938113	0.291950
619.146502	0.292018
619.354873	0.291816
619.563226	0.291853
619.771560	0.291959
619.979876	0.292342
620.188174	0.292194
620.396453	0.292002
620.604715	0.292350
620.812958	0.292379
621.021183	0.292776
621.229390	0.292966
621.437578	0.293190
621.645748	0.293523
621.853900	0.293582
622.062034	0.293962
622.270150	0.293948
622.478247	0.293884
622.686326	0.294284
622.894387	0.294404
623.102430	0.294566
623.310454	0.294685
623.518461	0.294981
623.726449	0.295379
623.934418	0.295317
624.142370	0.295823
624.350303	0.296364
624.558218	0.296521
624.766115	0.296685
624.973994	0.296805
625.181855	0.297221
625.389697	0.297311
625.597521	0.297272
625.805327	0.297711
626.013114	0.297787
626.220883	0.297717
626.428634	0.297802
626.636367	0.298112
626.844082	0.298540
627.051778	0.298442
627.259457	0.298461
627.467117	0.298678
627.674758	0.298873
627.882382	0.299311
628.089987	0.299581
628.297574	0.299627
628.505143	0.299597
628.712694	0.299739
628.920226	0.299882
629.127740	0.300042
629.335236	0.300435
629.542714	0.300571
629.750174	0.300585
629.957615	0.300750
630.165038	0.301127
630.372443	0.301442
630.579829	0.301628
630.787198	0.301623
630.994548	0.302257
631.201880	0.302158
631.409194	0.301990
631.616489	0.301842
631.823766	0.302147
632.031025	0.302406
632.238266	0.302545
632.445489	0.302517
632.652693	0.303018
632.859879	0.302987
633.067047	0.303033
633.274197	0.303346
633.481329	0.303666
633.688442	0.303380
633.895537	0.303255
634.102614	0.303329
634.309672	0.303872
634.516713	0.304159
634.723735	0.304413
634.930739	0.304879
635.137724	0.305066
635.344692	0.305384
635.551641	0.305918
635.758572	0.306487
635.965485	0.306932
636.172379	0.306878
636.379256	0.307014
636.586114	0.307001
636.792954	0.307184
636.999775	0.307755
637.206579	0.308047
637.413364	0.308127
637.620131	0.308075
637.826880	0.308066
638.033610	0.308465
638.240323	0.308507
638.447017	0.308745
638.653692	0.308617
638.860350	0.308605
639.066990	0.308954
639.273611	0.309389
639.480214	0.309559
639.686798	0.309725
639.893365	0.309745
640.099913	0.310070
640.306443	0.310290
640.512955	0.310736
640.719449	0.310646
640.925924	0.310624
641.132381	0.310517
641.338820	0.310758
641.545241	0.311027
641.751644	0.311376
641.958028	0.311291
642.164394	0.311374
642.370742	0.311601
642.577071	0.312171
642.783383	0.312364
642.989676	0.312945
643.195951	0.313097
643.402207	0.313328
643.608446	0.313456
643.814666	0.313966
644.020868	0.314354
644.227052	0.314608
644.433218	0.314564
644.639365	0.314641
644.845494	0.314710
645.051605	0.315169
645.257698	0.315300
645.463772	0.315391
645.669828	0.315335
645.875866	0.315530
646.081886	0.315639
646.287888	0.315922
646.493871	0.316139
646.699836	0.316251
646.905783	0.316361
647.111712	0.316703
647.317622	0.316699
647.523514	0.316963
647.729388	0.317246
647.935244	0.317154
648.141082	0.317561
648.346901	0.317807
648.552702	0.318186
648.758485	0.318020
648.964250	0.318108
649.169996	0.318506
649.375724	0.318958
649.581434	0.319247
649.787126	0.319636
649.992800	0.319711
650.198455	0.319903
650.404092	0.320073
650.609711	0.320497
650.815311	0.320470
651.020894	0.320583
651.226458	0.320614
651.432004	0.320638
651.637532	0.320979
651.843041	0.321054
652.048532	0.321282
652.254006	0.321521
652.459460	0.321742
652.664897	0.322169
652.870315	0.322334
653.075716	0.322489
653.281097	0.322619
653.486461	0.322777
653.691807	0.323010
653.897134	0.323249
654.102443	0.322931
654.307734	0.322995
654.513006	0.323392
654.718261	0.323909
654.923497	0.324292
655.128715	0.324634
655.333915	0.324997
655.539096	0.325173
655.744259	0.325187
655.949404	0.325785
656.154531	0.326110
656.359640	0.325868
656.564730	0.325920
656.769802	0.326038
656.974856	0.325961
657.179892	0.326111
657.384909	0.326172
657.589908	0.326637
657.794889	0.327036
657.999852	0.327170
658.204797	0.327733
658.409723	0.327824
658.614631	0.327789
658.819521	0.328181
659.024393	0.328355
659.229246	0.329021
659.434081	0.329167
659.638898	0.329293
659.843697	0.329786
660.048478	0.329951
660.253240	0.330246
660.457984	0.330764
660.662710	0.330855
660.867417	0.331009
661.072107	0.330864
661.276778	0.331120
661.481431	0.331207
661.686066	0.331331
661.890682	0.331419
662.095281	0.331810
662.299861	0.331958
662.504422	0.332579
662.708966	0.332620
662.913491	0.332995
663.117999	0.333280
663.322488	0.333648
663.526958	0.333673
663.731411	0.334033
663.935845	0.334122
664.140261	0.334416
664.344659	0.334345
664.549038	0.334976
664.753400	0.335145
664.957743	0.335378
665.162068	0.335652
665.366375	0.336101
665.570663	0.336294
665.774933	0.336570
665.979185	0.336962
666.183419	0.337390
666.387635	0.337449
666.591832	0.337800
666.796011	0.338195
667.000172	0.338460
667.204315	0.338902
667.408439	0.339086
667.612545	0.339278
667.816634	0.339442
668.020703	0.339556
668.224755	0.339829
668.428788	0.339818
668.632803	0.339859
668.836800	0.339991
669.040779	0.340017
669.244739	0.340439
669.448681	0.340673
669.652605	0.340875
669.856511	0.340933
670.060399	0.341131
670.264268	0.341447
670.468119	0.341575
670.671952	0.341621
670.875767	0.341728
671.079563	0.341836
671.283341	0.342123
671.487101	0.342370
671.690843	0.342702
671.894567	0.342860
672.098272	0.343217
672.301959	0.343728
672.505628	0.343898
672.709278	0.344346
672.912911	0.344590
673.116525	0.344614
673.320121	0.344805
673.523699	0.345024
673.727258	0.345181
673.930799	0.345394
674.134322	0.345242
674.337827	0.345754
674.541314	0.346066
674.744782	0.346294
674.948232	0.346677
675.151664	0.346980
675.355078	0.347192
675.558474	0.347567
675.761851	0.347791
675.965210	0.348402
676.168551	0.348525
676.371873	0.348636
676.575178	0.348831
676.778464	0.348928
676.981732	0.349114
677.184981	0.349351
677.388213	0.349847
677.591426	0.349954
677.794621	0.350119
677.997798	0.350256
678.200956	0.350324
678.404097	0.350564
678.607219	0.350838
678.810323	0.350978
679.013408	0.351147
679.216476	0.350925
679.419525	0.351293
679.622556	0.351414
679.825569	0.351675
680.028563	0.351861
680.231540	0.351931
680.434498	0.352242
680.637438	0.352378
680.840359	0.352608
681.043263	0.352781
681.246148	0.352909
681.449015	0.353071
681.651864	0.353122
681.854694	0.353525
682.057506	0.353959
682.260301	0.354178
682.463076	0.354458
682.665834	0.354702
682.868573	0.355198
683.071295	0.355358
683.273998	0.355971
683.476682	0.356408
683.679349	0.356750
683.881997	0.356846
684.084627	0.357132
684.287239	0.357448
684.489833	0.357792
684.692408	0.358071
684.894965	0.358477
685.097504	0.358545
685.300025	0.359075
685.502527	0.358991
685.705012	0.359204
685.907478	0.359318
686.109925	0.359192
686.312355	0.359517
686.514766	0.359694
686.717159	0.359901
686.919534	0.359913
687.121891	0.359901
687.324230	0.360251
687.526550	0.360534
687.728852	0.360560
687.931136	0.361073
688.133401	0.361214
688.335649	0.361536
688.537878	0.361644
688.740089	0.361999
688.942281	0.362262
689.144456	0.362615
689.346612	0.362963
689.548750	0.363344
689.750870	0.363597
689.952971	0.363620
690.155055	0.363720
690.357120	0.364310
690.559167	0.364361
690.761195	0.364518
690.963206	0.364628
691.165198	0.364913
691.367172	0.365334
691.569128	0.365303
691.771065	0.365754
691.972984	0.365725
692.174885	0.365822
692.376768	0.366106
692.578633	0.366258
692.780479	0.366322
692.982308	0.366249
693.184118	0.366310
693.385909	0.366521
693.587683	0.366587
693.789438	0.366982
693.991175	0.366879
694.192894	0.367169
694.394595	0.367343
694.596277	0.367523
694.797941	0.367852
694.999587	0.368001
695.201215	0.368245
695.402824	0.368379
695.604416	0.368371
695.805989	0.368651
696.007543	0.368492
696.209080	0.368659
696.410598	0.368866
696.612099	0.368685
696.813580	0.368779
697.015044	0.368945
697.216490	0.369155
697.417917	0.369283
697.619326	0.369241
697.820717	0.369455
698.022089	0.369460
698.223444	0.369835
698.424780	0.370157
698.626098	0.370403
698.827397	0.370508
699.028679	0.370677
699.229942	0.370941
699.431187	0.371020
699.632414	0.371318
699.833622	0.371495
700.034813	0.371504
700.235985	0.371657
700.437139	0.371860
700.638274	0.372025
700.839392	0.372004
701.040491	0.372284
701.241572	0.372656
701.442635	0.372606
701.643679	0.372727
701.844706	0.373007
702.045714	0.373122
702.246704	0.373183
702.447675	0.373089
702.648629	0.373443
702.849564	0.373255
703.050481	0.373547
703.251380	0.373649
703.452260	0.373843
703.653122	0.373508
703.853966	0.373622
704.054792	0.373572
704.255600	0.373734
704.456389	0.373752
704.657160	0.373867
704.857913	0.373805
705.058648	0.374027
705.259365	0.373974
705.460063	0.374016
705.660743	0.374183
705.861405	0.374421
706.062048	0.374648
706.262674	0.374530
706.463281	0.374568
706.663870	0.374469
706.864441	0.374463
707.064993	0.374571
707.265527	0.374690
707.466043	0.374557
707.666541	0.374527
707.867021	0.374915
708.067482	0.375378
708.267925	0.375591
708.468350	0.375765
708.668757	0.376006
708.869145	0.376339
709.069516	0.376598
709.269868	0.376716
709.470201	0.376757
709.670517	0.376695
709.870814	0.376602
710.071093	0.376833
710.271354	0.377033
710.471597	0.376978
710.671821	0.377071
710.872028	0.377002
711.072216	0.377285
711.272385	0.377404
711.472537	0.377145
711.672670	0.377076
711.872785	0.377117
712.072882	0.376852
712.272961	0.376795
712.473021	0.376579
712.673063	0.376513
712.873087	0.376534
713.073093	0.376278
713.273081	0.376383
713.473050	0.376351
713.673001	0.376017
713.872934	0.376226
714.072849	0.376431
714.272745	0.376431
714.472623	0.376532
714.672483	0.376425
714.872325	0.376619
715.072148	0.376632
715.271954	0.376645
715.471741	0.376840
715.671509	0.376661
715.871260	0.376394
716.070992	0.376140
716.270707	0.375919
716.470403	0.375796
716.670080	0.375676
716.869740	0.375400
717.069381	0.375323
717.269004	0.375223
717.468609	0.375454
717.668195	0.375405
717.867764	0.375221
718.067314	0.375259
718.266846	0.375160
718.466360	0.375190
718.665855	0.375129
718.865332	0.374921
719.064791	0.374723
719.264232	0.374464
719.463655	0.374747
719.663059	0.374783
719.862445	0.374815
720.061813	0.374946
720.261163	0.374833
720.460494	0.374871
720.659807	0.374805
720.859102	0.374797
721.058379	0.374670
721.257638	0.374182
721.456878	0.374328
721.656100	0.374496
721.855304	0.374231
722.054490	0.374364
722.253657	0.374244
722.452806	0.374398
722.651937	0.374445
722.851050	0.374383
723.050145	0.374537
723.249221	0.374490
723.448279	0.374176
723.647319	0.374189
723.846340	0.373947
724.045344	0.374249
724.244329	0.373827
724.443296	0.373613
724.642245	0.373570
724.841175	0.373257
725.040088	0.373099
725.238982	0.373078
725.437857	0.372950
725.636715	0.372881
725.835554	0.372363
726.034376	0.372544
726.233179	0.372583
726.431963	0.372474
726.630730	0.372467
726.829478	0.372454
727.028208	0.372638
727.226920	0.372519
727.425614	0.372486
727.624289	0.372437
727.822946	0.372235
728.021585	0.371904
728.220206	0.371828
728.418808	0.371788
728.617392	0.371871
728.815958	0.371485
729.014506	0.371583
729.213036	0.371487
729.411547	0.371208
729.610040	0.371410
729.808515	0.371405
730.006972	0.371352
730.205410	0.371111
730.403831	0.370610
730.602233	0.370558
730.800616	0.370069
730.998982	0.369956
731.197329	0.369801
731.395658	0.369188
731.593969	0.368932
731.792262	0.368666
731.990536	0.368728
732.188793	0.368669
732.387031	0.367939
732.585250	0.367846
732.783452	0.367587
732.981635	0.367752
733.179800	0.367684
733.377947	0.367521
733.576076	0.367491
733.774186	0.367278
733.972278	0.367075
734.170352	0.367306
734.368408	0.367408
734.566446	0.367112
734.764465	0.366973
734.962466	0.367221
735.160449	0.367223
735.358413	0.367074
735.556360	0.366858
735.754288	0.367052
735.952198	0.367187
736.150090	0.366881
736.347963	0.366967
736.545818	0.366718
736.743655	0.366405
736.941474	0.366353
737.139275	0.366132
737.337057	0.366042
737.534821	0.365731
737.732567	0.365117
737.930295	0.364838
738.128005	0.364861
738.325696	0.364463
738.523369	0.364189
738.721024	0.363968
738.918660	0.363577
739.116279	0.363160
739.313879	0.362742
739.511461	0.362696
739.709024	0.362804
739.906570	0.362429
740.104097	0.362750
740.301606	0.362324
740.499097	0.361834
740.696569	0.361942
740.894024	0.361934
741.091460	0.361979
741.288878	0.361997
741.486277	0.361643
741.683659	0.361646
741.881022	0.361163
742.078367	0.361440
742.275694	0.361201
742.473002	0.361165
742.670293	0.360914
742.867565	0.360783
743.064819	0.360565
743.262054	0.360331
743.459272	0.359975
743.656471	0.360060
743.853652	0.359817
744.050815	0.359838
744.247959	0.359178
744.445085	0.359049
744.642194	0.358691
744.839283	0.358319
745.036355	0.358229
745.233408	0.357573
745.430444	0.357099
745.627461	0.356864
745.824459	0.356653
746.021440	0.356503
746.218402	0.356216
746.415346	0.356036
746.612272	0.355604
746.809180	0.355192
747.006069	0.355171
747.202940	0.354818
747.399793	0.354295
747.596628	0.353940
747.793444	0.353865
747.990243	0.353483
748.187023	0.353217
748.383784	0.353231
748.580528	0.353019
748.777253	0.352893
748.973960	0.352840
749.170649	0.352845
749.367320	0.352755
749.563973	0.352453
749.760607	0.352260
749.957223	0.351960
750.153821	0.351457
750.350400	0.351045
750.546962	0.350683
750.743505	0.350484
750.940030	0.350065
751.136536	0.349839
751.333025	0.349445
751.529495	0.349460
751.725947	0.349563
751.922381	0.349377
752.118796	0.349395
752.315194	0.349295
752.511573	0.349059
752.707934	0.349119
752.904276	0.348896
753.100601	0.348994
753.296907	0.348653
753.493195	0.347999
753.689465	0.347860
753.885716	0.347843
754.081949	0.347698
754.278164	0.347680
754.474361	0.347264
754.670540	0.347287
754.866700	0.347353
755.062843	0.347348
755.258967	0.347240
755.455072	0.347456
755.651160	0.347265
755.847229	0.347190
756.043280	0.346970
756.239313	0.347015
756.435328	0.346599
756.631324	0.346231
756.827302	0.346019
757.023262	0.345987
757.219204	0.345692
757.415127	0.345398
757.611033	0.345087
757.806920	0.344583
758.002788	0.344259
758.198639	0.344426
758.394471	0.344382
758.590286	0.344107
758.786081	0.343853
758.981859	0.343642
759.177619	0.343456
759.373360	0.343468
759.569083	0.343435
759.764788	0.343452
759.960474	0.342892
760.156143	0.342434
760.351793	0.342493
760.547425	0.342247
760.743038	0.342184
760.938634	0.342052
761.134211	0.341653
761.329770	0.341392
761.525311	0.341267
761.720833	0.341438
761.916338	0.341019
762.111824	0.340561
762.307292	0.340344
762.502741	0.340076
762.698173	0.340024
762.893586	0.339759
763.088981	0.339836
763.284358	0.339414
763.479716	0.338919
763.675057	0.339019
763.870379	0.339082
764.065683	0.339222
764.260968	0.339004
764.456236	0.338823
764.651485	0.338615
764.846716	0.338455
765.041929	0.338351
765.237123	0.338359
765.432299	0.337870
765.627457	0.337664
765.822597	0.337283
766.017719	0.336962
766.212822	0.336841
766.407907	0.337034
766.602974	0.337139
766.798023	0.337153
766.993054	0.336937
767.188066	0.337188
767.383060	0.337107
767.578036	0.337219
767.772993	0.337561
767.967933	0.337200
768.162854	0.336986
768.357757	0.336859
768.552642	0.336555
768.747508	0.336590
768.942356	0.336275
769.137186	0.335880
769.331998	0.335432
769.526792	0.335361
769.721567	0.335285
769.916324	0.335236
770.111063	0.334861
770.305784	0.334909
770.500486	0.334906
770.695171	0.335147
770.889837	0.335298
771.084484	0.335567
771.279114	0.335365
771.473725	0.335494
771.668318	0.335442
771.862893	0.335730
772.057450	0.335467
772.251988	0.335113
772.446509	0.335051
772.641011	0.334829
772.835494	0.334742
773.029960	0.334705
773.224407	0.334289
773.418836	0.334193
773.613247	0.333664
773.807640	0.333849
774.002014	0.333896
774.196370	0.333437
774.390708	0.333358
774.585028	0.333056
774.779330	0.332762
774.973613	0.332879
775.167878	0.332486
775.362125	0.332352
775.556354	0.331985
775.750564	0.331796
775.944756	0.332061
776.138930	0.331975
776.333086	0.332080
776.527223	0.332033
776.721343	0.331952
776.915444	0.332039
777.109526	0.332065
777.303591	0.332216
777.497637	0.332214
777.691666	0.332013
777.885676	0.331807
778.079667	0.331629
778.273641	0.331653
778.467596	0.331700
778.661533	0.331624
778.855452	0.331289
779.049352	0.331014
779.243235	0.331033
779.437099	0.330932
779.630945	0.331082
779.824773	0.331106
780.018582	0.331206
780.212373	0.331097
780.406146	0.331173
780.599901	0.331480
780.793638	0.331630
780.987356	0.331460
781.181056	0.331427
781.374738	0.331531
781.568402	0.331615
781.762047	0.331341
781.955674	0.331344
782.149283	0.331106
782.342874	0.330992
782.536447	0.330874
782.730001	0.331099
782.923537	0.330933
783.117055	0.330609
783.310555	0.330678
783.504036	0.330761
783.697499	0.330740
783.890944	0.331011
784.084371	0.331134
784.277780	0.331296
784.471170	0.331481
784.664542	0.331707
784.857896	0.332076
785.051231	0.332158
785.244549	0.332157
785.437848	0.332399
785.631129	0.332339
785.824392	0.332330
786.017636	0.332265
786.210863	0.331992
786.404071	0.332151
786.597260	0.331820
786.790432	0.331541
786.983585	0.331561
787.176721	0.331271
787.369838	0.331495
787.562936	0.331495
787.756017	0.331837
787.949079	0.331965
788.142123	0.331859
788.335149	0.332075
788.528156	0.331990
788.721146	0.331948
788.914117	0.332003
789.107070	0.331883
789.300005	0.331995
789.492921	0.331489
789.685819	0.331545
789.878699	0.331439
790.071561	0.331858
790.264405	0.331994
790.457230	0.332033
790.650037	0.332088
790.842826	0.332191
791.035597	0.332320
791.228349	0.332489
791.421084	0.332485
791.613800	0.332879
791.806497	0.332433
791.999177	0.332888
792.191838	0.333344
792.384481	0.333545
792.577106	0.333305
792.769713	0.333040
792.962301	0.333411
793.154871	0.333544
793.347423	0.333538
793.539957	0.334003
793.732473	0.334011
793.924970	0.333734
794.117449	0.333565
794.309910	0.334110
794.502353	0.334320
794.694777	0.334193
794.887183	0.334465
795.079571	0.334445
795.271941	0.334424
795.464293	0.334292
795.656626	0.334740
795.848941	0.335175
796.041238	0.335173
796.233516	0.335668
796.425777	0.336039
796.618019	0.336101
796.810243	0.336303
797.002449	0.336592
797.194636	0.337063
797.386805	0.336910
797.578956	0.337059
797.771089	0.337230
797.963204	0.337221
798.155300	0.337252
798.347378	0.337507
798.539438	0.337881
798.731480	0.338088
798.923503	0.338071
799.115509	0.338209
799.307496	0.338316
799.499465	0.338497
799.691415	0.338606
799.883348	0.338911
800.075262	0.338872
800.267158	0.338671
800.459035	0.338482
800.650895	0.338532
800.842736	0.338971
801.034559	0.339273
801.226364	0.339446
801.418150	0.339684
801.609919	0.339718
801.801669	0.339814
801.993401	0.340106
802.185114	0.340382
802.376810	0.340619
802.568487	0.340903
802.760146	0.340926
802.951787	0.341333
803.143409	0.341493
803.335014	0.341693
803.526600	0.341831
803.718168	0.342274
803.909717	0.342513
804.101249	0.342892
804.292762	0.342903
804.484257	0.343210
804.675734	0.343168
804.867192	0.343390
805.058632	0.343822
805.250054	0.344281
805.441458	0.344383
805.632844	0.344637
805.824211	0.344702
806.015561	0.344823
806.206891	0.345160
806.398204	0.345541
806.589499	0.345831
806.780775	0.345879
806.972033	0.346127
807.163273	0.346761
807.354495	0.346927
807.545698	0.347259
807.736883	0.347751
807.928050	0.347679
808.119199	0.347721
808.310329	0.347855
808.501441	0.347968
808.692535	0.348174
808.883611	0.347962
809.074669	0.348196
809.265708	0.348283
809.456729	0.348433
809.647732	0.348710
809.838717	0.348893
810.029683	0.349194
810.220632	0.349440
810.411562	0.349511
810.602474	0.349795
810.793367	0.350122
810.984242	0.350536
811.175100	0.350734
811.365938	0.351345
811.556759	0.351682
811.747562	0.352143
811.938346	0.352819
812.129112	0.353172
812.319860	0.353447
812.510589	0.353647
812.701300	0.353818
812.891994	0.353960
813.082668	0.354027
813.273325	0.354228
813.463964	0.354348
813.654584	0.354418
813.845186	0.354801
814.035769	0.355304
814.226335	0.355731
814.416882	0.356232
814.607411	0.356691
814.797922	0.357231
814.988415	0.357653
815.178889	0.357858
815.369345	0.358038
815.559783	0.358319
815.750203	0.358497
815.940605	0.358982
816.130988	0.359228
816.321353	0.359497
816.511700	0.359616
816.702028	0.359883
816.892339	0.360357
817.082631	0.360924
817.272905	0.361281
817.463161	0.361471
817.653398	0.361739
817.843617	0.362078
818.033819	0.362461
818.224001	0.362675
818.414166	0.363288
818.604312	0.363901
818.794440	0.363998
818.984550	0.364269
819.174642	0.364973
819.364716	0.365151
819.554771	0.365087
819.744808	0.365195
819.934827	0.365521
820.124827	0.365809
820.314810	0.365590
820.504774	0.366033
820.694720	0.366273
820.884647	0.366210
821.074557	0.366758
821.264448	0.367398
821.454321	0.367649
821.644176	0.367772
821.834012	0.367973
822.023831	0.368462
822.213631	0.368588
822.403413	0.368862
822.593176	0.369241
822.782922	0.369236
822.972649	0.369722
823.162358	0.370289
823.352049	0.370919
823.541721	0.370958
823.731376	0.371215
823.921012	0.371993
824.110629	0.372760
824.300229	0.373014
824.489811	0.373579
824.679374	0.373485
824.868919	0.373817
825.058445	0.374295
825.247954	0.374831
825.437444	0.375301
825.626916	0.375170
825.816370	0.375030
826.005806	0.375588
826.195223	0.376242
826.384622	0.376706
826.574003	0.377085
826.763366	0.376980
826.952711	0.377571
827.142037	0.377935
827.331345	0.378539
827.520635	0.379552
827.709906	0.379671
827.899160	0.379794
828.088395	0.380504
828.277612	0.381214
828.466810	0.381930
828.655991	0.382207
828.845153	0.382713
829.034297	0.383367
829.223423	0.383579
829.412531	0.384268
829.601620	0.384581
829.790691	0.385008
829.979744	0.385098
830.168779	0.385604
830.357795	0.386187
830.546793	0.386402
830.735773	0.386575
830.924735	0.386954
831.113679	0.387391
831.302604	0.387625
831.491511	0.387790
831.680400	0.388298
831.869271	0.388639
832.058123	0.388825
832.246957	0.389832
832.435773	0.390327
832.624571	0.390534
832.813351	0.390768
833.002112	0.391306
833.190855	0.391939
833.379580	0.392328
833.568287	0.392803
833.756975	0.393217
833.945645	0.393478
834.134297	0.393767
834.322931	0.394159
834.511547	0.394682
834.700144	0.395280
834.888723	0.395621
835.077284	0.395882
835.265826	0.396376
835.454351	0.397154
835.642857	0.397331
835.831345	0.398174
836.019815	0.398788
836.208266	0.399292
836.396699	0.400043
836.585114	0.400687
836.773511	0.400988
836.961890	0.401206
837.150250	0.401369
837.338592	0.401860
837.526916	0.402346
837.715222	0.402744
837.903510	0.403187
838.091779	0.403350
838.280030	0.403646
838.468263	0.404577
838.656477	0.405287
838.844674	0.405719
839.032852	0.406032
839.221012	0.405938
839.409153	0.406371
839.597277	0.406510
839.785382	0.406907
839.973469	0.407356
840.161538	0.407504
840.349589	0.407861
840.537621	0.408066
840.725635	0.408758
840.913631	0.409227
841.101609	0.409765
841.289568	0.410456
841.477509	0.410867
841.665432	0.411364
841.853337	0.412048
842.041224	0.412084
842.229092	0.412809
842.416942	0.413108
842.604774	0.413307
842.792588	0.413630
842.980383	0.414181
843.168160	0.414649
843.355919	0.415186
843.543660	0.415741
843.731382	0.416888
843.919087	0.417145
844.106773	0.417687
844.294441	0.418588
844.482090	0.419262
844.669722	0.420064
844.857335	0.420259
845.044930	0.420346
845.232507	0.420643
845.420065	0.420782
845.607605	0.421501
845.795127	0.422035
845.982631	0.422640
846.170117	0.422957
846.357584	0.422997
846.545033	0.424020
846.732464	0.424798
846.919877	0.425412
847.107272	0.426063
847.294648	0.426532
847.482006	0.426849
847.669346	0.427013
847.856667	0.427474
848.043971	0.427993
848.231256	0.428097
848.418523	0.428678
848.605771	0.429438
848.793002	0.430061
848.980214	0.430709
849.167408	0.431399
849.354584	0.432336
849.541742	0.432945
849.728881	0.433535
849.916002	0.434016
850.103105	0.433842
850.290190	0.433960
850.477256	0.434339
850.664304	0.434936
850.851334	0.435060
851.038346	0.435375
851.225340	0.435602
851.412315	0.436054
851.599272	0.436538
851.786211	0.437474
851.973132	0.438171
852.160034	0.438627
852.346918	0.439013
852.533784	0.439583
852.720632	0.439958
852.907462	0.440662
853.094273	0.441187
853.281066	0.441553
853.467841	0.442160
853.654598	0.442640
853.841336	0.442977
854.028056	0.443165
854.214758	0.443700
854.401442	0.443970
854.588107	0.444714
854.774755	0.445313
854.961384	0.445792
855.147995	0.445847
855.334587	0.445920
855.521162	0.446920
855.707718	0.447067
855.894256	0.447435
856.080775	0.447976
856.267277	0.448117
856.453760	0.448469
856.640225	0.448575
856.826672	0.449119
857.013101	0.449476
857.199511	0.449043
857.385903	0.449427
857.572277	0.449725
857.758633	0.450008
857.944970	0.450423
858.131290	0.450744
858.317591	0.451398
858.503873	0.452114
858.690138	0.452845
858.876384	0.453254
859.062612	0.454044
859.248822	0.454563
859.435014	0.455245
859.621188	0.455582
859.807343	0.456081
859.993480	0.456550
860.179599	0.456880
860.365699	0.456812
860.551781	0.457820
860.737846	0.458312
860.923891	0.458633
861.109919	0.458952
861.295929	0.459636
861.481920	0.460009
861.667893	0.460613
861.853848	0.460795
862.039784	0.461542
862.225702	0.461730
862.411603	0.462144
862.597484	0.462565
862.783348	0.463024
862.969193	0.463180
863.155021	0.463595
863.340830	0.463855
863.526620	0.464913
863.712393	0.464854
863.898147	0.465353
864.083883	0.465395
864.269601	0.465505
864.455301	0.465717
864.640982	0.466166
864.826645	0.466645
865.012290	0.467463
865.197917	0.467348
865.383526	0.467839
865.569116	0.468084
865.754688	0.468530
865.940242	0.469102
866.125777	0.469573
866.311295	0.469454
866.496794	0.469718
866.682275	0.469592
866.867737	0.470090
867.053182	0.470938
867.238608	0.471475
867.424016	0.472199
867.609406	0.472670
867.794778	0.473154
867.980131	0.473836
868.165466	0.473905
868.350783	0.474374
868.536082	0.474830
868.721362	0.474570
868.906625	0.474586
869.091869	0.474501
869.277094	0.475015
869.462302	0.474773
869.647491	0.475066
869.832662	0.476090
870.017815	0.476605
870.202950	0.476397
870.388066	0.477105
870.573165	0.477936
870.758245	0.478341
870.943306	0.478556
871.128350	0.478827
871.313375	0.478779
871.498382	0.478305
871.683371	0.478712
871.868342	0.479153
872.053294	0.479792
872.238229	0.479612
872.423144	0.480018
872.608042	0.480127
872.792922	0.480823
872.977783	0.481140
873.162626	0.481231
873.347451	0.481511
873.532258	0.481756
873.717046	0.481673
873.901816	0.481891
874.086568	0.482270
874.271302	0.482379
874.456017	0.482559
874.640715	0.483380
874.825394	0.484268
875.010055	0.483940
875.194697	0.484107
875.379322	0.484820
875.563928	0.484876
875.748516	0.484230
875.933085	0.484829
876.117637	0.484839
876.302170	0.484803
876.486685	0.484963
876.671182	0.485083
876.855661	0.485143
877.040121	0.485122
877.224563	0.486074
877.408987	0.486793
877.593393	0.486833
877.777780	0.486895
877.962150	0.487334
878.146501	0.486962
878.330833	0.487719
878.515148	0.488034
878.699444	0.488213
878.883722	0.488138
879.067982	0.488524
879.252224	0.488716
879.436447	0.489605
879.620653	0.489537
879.804840	0.489818
879.989008	0.490098
880.173159	0.490583
880.357291	0.490397
880.541405	0.490209
880.725501	0.490564
880.909579	0.490617
881.093638	0.490825
881.277680	0.490545
881.461703	0.490862
881.645707	0.490778
881.829694	0.490620
882.013662	0.491146
882.197612	0.491160
882.381544	0.491532
882.565458	0.492049
882.749353	0.492009
882.933230	0.492745
883.117089	0.493181
883.300930	0.493045
883.484753	0.493205
883.668557	0.492934
883.852343	0.493254
884.036111	0.492780
884.219861	0.492544
884.403592	0.492629
884.587305	0.492194
884.771000	0.491736
884.954677	0.491774
885.138335	0.491581
885.321976	0.491970
885.505598	0.491259
885.689201	0.491658
885.872787	0.491833
886.056354	0.491642
886.239904	0.492184
886.423434	0.492060
886.606947	0.492001
886.790442	0.492249
886.973918	0.492280
887.157376	0.493369
887.340816	0.493260
887.524237	0.493219
887.707641	0.493325
887.891026	0.492965
888.074393	0.493458
888.257741	0.493331
888.441072	0.493485
888.624384	0.492921
888.807678	0.492279
888.990954	0.491973
889.174211	0.492105
889.357451	0.491884
889.540672	0.491768
889.723875	0.490988
889.907059	0.490970
890.090226	0.490317
890.273374	0.490350
890.456504	0.490794
890.639616	0.490857
890.822709	0.490874
891.005785	0.490611
891.188842	0.490763
891.371881	0.491420
891.554901	0.491613
891.737904	0.491771
891.920888	0.491850
892.103854	0.491373
892.286802	0.491602
892.469731	0.491496
892.652643	0.491881
892.835536	0.491882
893.018410	0.491330
893.201267	0.491848
893.384106	0.492026
893.566926	0.491833
893.749728	0.491723
893.932511	0.491099
894.115277	0.490686
894.298024	0.490708
894.480753	0.491019
894.663464	0.491098
894.846157	0.490945
895.028831	0.490696
895.211487	0.490514
895.394125	0.490401
895.576745	0.490251
895.759346	0.490336
895.941930	0.489356
896.124495	0.488843
896.307041	0.488858
896.489570	0.488110
896.672080	0.488016
896.854573	0.488272
897.037046	0.487465
897.219502	0.487454
897.401940	0.486858
897.584359	0.487062
897.766760	0.486836
897.949143	0.486483
898.131507	0.486446
898.313854	0.485798
898.496182	0.484603
898.678492	0.484809
898.860783	0.484362
899.043057	0.483899
899.225312	0.483578
899.407549	0.483301
899.589768	0.483170
899.771968	0.483009
899.954151	0.483067
900.136315	0.483369
900.318461	0.483274
900.500588	0.483605
900.682698	0.483410
900.864789	0.483253
901.046862	0.482792
901.228917	0.482336
901.410953	0.481569
901.592971	0.480833
901.774972	0.480960
901.956953	0.480818
902.138917	0.479821
902.320862	0.479600
902.502790	0.479254
902.684699	0.478316
902.866589	0.477911
903.048462	0.478072
903.230316	0.477583
903.412152	0.476660
903.593970	0.476452
903.775770	0.475689
903.957551	0.475326
904.139314	0.474833
904.321059	0.474313
904.502786	0.473630
904.684494	0.472875
904.866185	0.473068
905.047857	0.472742
905.229510	0.471748
905.411146	0.472088
905.592763	0.471532
905.774363	0.471273
905.955943	0.471374
906.137506	0.471736
906.319051	0.471242
906.500577	0.470959
906.682085	0.470602
906.863575	0.470328
907.045046	0.469862
907.226500	0.469974
907.407935	0.469428
907.589352	0.469130
907.770750	0.467907
907.952131	0.467364
908.133493	0.466200
908.314837	0.465048
908.496163	0.464278
908.677470	0.463391
908.858760	0.462539
909.040031	0.461355
909.221284	0.460304
909.402518	0.460115
909.583735	0.459471
909.764933	0.459730
909.946113	0.459748
910.127275	0.459599
910.308418	0.459721
910.489544	0.458543
910.670651	0.458369
910.851740	0.457734
911.032810	0.456569
911.213863	0.456075
911.394897	0.455346
911.575913	0.454786
911.756911	0.454070
911.937890	0.452955
912.118851	0.453260
912.299794	0.452890
912.480719	0.452930
912.661626	0.452527
912.842514	0.451704
913.023384	0.450859
913.204236	0.450606
913.385070	0.449913
913.565886	0.449658
913.746683	0.448433
913.927462	0.447526
914.108223	0.446933
914.288965	0.446083
914.469690	0.445741
914.650396	0.444678
914.831084	0.443121
915.011754	0.442847
915.192405	0.441634
915.373038	0.441203
915.553653	0.440857
915.734250	0.440353
915.914829	0.440430
916.095389	0.439772
916.275931	0.439953
916.456455	0.440330
916.636961	0.440187
916.817448	0.439559
916.997917	0.439126
917.178368	0.438242
917.358801	0.437817
917.539216	0.436734
917.719612	0.435970
917.899990	0.435157
918.080350	0.434080
918.260692	0.432520
918.441015	0.432069
918.621320	0.431293
918.801607	0.430209
918.981876	0.428464
919.162127	0.427934
919.342359	0.427331
919.522573	0.426097
919.702769	0.424658
919.882947	0.423286
920.063106	0.422471
920.243247	0.421495
920.423370	0.421085
920.603475	0.420744
920.783562	0.419705
920.963630	0.418261
921.143680	0.417842
921.323712	0.417831
921.503725	0.417048
921.683721	0.416272
921.863698	0.415004
922.043657	0.413689
922.223598	0.412459
922.403520	0.411360
922.583424	0.410846
922.763311	0.409354
922.943178	0.408051
923.123028	0.407438
923.302859	0.406415
923.482673	0.405709
923.662467	0.405053
923.842244	0.404487
924.022003	0.403350
924.201743	0.402703
924.381465	0.401805
924.561169	0.400876
924.740854	0.399787
924.920522	0.398833
925.100171	0.398132
925.279802	0.396771
925.459414	0.395970
925.639009	0.395944
925.818585	0.394603
925.998143	0.394523
926.177683	0.392996
926.357205	0.392705
926.536708	0.391700
926.716193	0.390144
926.895660	0.389490
927.075109	0.388426
927.254539	0.386741
927.433951	0.386132
927.613345	0.385218
927.792721	0.385558
927.972079	0.384095
928.151418	0.383429
928.330739	0.382677
928.510042	0.381281
928.689327	0.379603
928.868593	0.378628
929.047841	0.377254
929.227071	0.375317
929.406283	0.373159
929.585476	0.371954
929.764652	0.370293
929.943809	0.369395
930.122948	0.369196
930.302068	0.368671
930.481171	0.367791
930.660255	0.366724
930.839321	0.365428
931.018369	0.364617
931.197398	0.363637
931.376409	0.363031
931.555402	0.362016
931.734377	0.360521
931.913334	0.359370
932.092272	0.358115
932.271192	0.357804
932.450094	0.357647
932.628978	0.357034
932.807844	0.355167
932.986691	0.354476
933.165520	0.353738
933.344331	0.352565
933.523123	0.351367
933.701898	0.351270
933.880654	0.349768
934.059392	0.348950
934.238111	0.348035
934.416813	0.347101
934.595496	0.345764
934.774161	0.344222
934.952808	0.343436
935.131437	0.342918
935.310047	0.340734
935.488639	0.339840
935.667213	0.338686
935.845769	0.335616
936.024306	0.335305
936.202825	0.334076
936.381326	0.332960
936.559809	0.331279
936.738274	0.329993
936.916720	0.328980
937.095148	0.326918
937.273558	0.324740
937.451950	0.325304
937.630323	0.323965
937.808678	0.322706
937.987015	0.321670
938.165334	0.321138
938.343635	0.320175
938.521917	0.320739
938.700181	0.320478
938.878427	0.319498
939.056655	0.317886
939.234864	0.316821
939.413055	0.315542
939.591228	0.315135
939.769383	0.313968
939.947519	0.311697
940.125638	0.309781
940.303738	0.309456
940.481820	0.307837
940.659883	0.306030
940.837929	0.304961
941.015956	0.303676
941.193965	0.301613
941.371955	0.300771
941.549928	0.299852
941.727882	0.298327
941.905818	0.295657
942.083736	0.295231
942.261636	0.294228
942.439517	0.292893
942.617380	0.292784
942.795225	0.291612
942.973052	0.289970
943.150860	0.289511
943.328651	0.287259
943.506423	0.285931
943.684176	0.284650
943.861912	0.284716
944.039629	0.284485
944.217328	0.281544
944.395009	0.280571
944.572672	0.279962
944.750317	0.278052
944.927943	0.278189
945.105551	0.277648
945.283141	0.276661
945.460712	0.274169
945.638265	0.271872
945.815801	0.270717
945.993317	0.269301
946.170816	0.267409
946.348297	0.266807
946.525759	0.264012
946.703203	0.261589
946.880629	0.261098
947.058036	0.260573
947.235425	0.259883
947.412797	0.259035
947.590149	0.259129
947.767484	0.257633
947.944800	0.257057
948.122099	0.255529
948.299379	0.254250
948.476640	0.250599
948.653884	0.248864
948.831109	0.247710
949.008316	0.246400
949.185505	0.243503
949.362676	0.242620
949.539828	0.239757
949.716962	0.240058
949.894078	0.239576
950.071176	0.239326
950.248256	0.238603
950.425317	0.237502
950.602360	0.236250
950.779385	0.236401
950.956391	0.235746
951.133380	0.234248
951.310350	0.232965
951.487302	0.232039
951.664235	0.230211
951.841151	0.227499
952.018048	0.226477
952.194927	0.223267
952.371788	0.219856
952.548631	0.217112
952.725455	0.215078
952.902261	0.213116
953.079049	0.210651
953.255819	0.208777
953.432570	0.209995
953.609303	0.207095
953.786018	0.208085
953.962715	0.208200
954.139394	0.208173
954.316054	0.208234
954.492696	0.206431
954.669320	0.204888
954.845926	0.205314
955.022513	0.203042
955.199083	0.204114
955.375634	0.202686
955.552166	0.202025
955.728681	0.199864
955.905177	0.199316
956.081655	0.196370
956.258115	0.195798
956.434557	0.193241
956.610980	0.190274
956.787385	0.189794
956.963772	0.189628
957.140141	0.189204
957.316492	0.188226
957.492824	0.186286
957.669138	0.188061
957.845434	0.185772
958.021712	0.185395
958.197971	0.186973
958.374212	0.183911
958.550435	0.181843
958.726640	0.178771
958.902826	0.179571
959.078995	0.176483
959.255145	0.177408
959.431277	0.177636
959.607390	0.177155
959.783486	0.175632
959.959563	0.174113
960.135622	0.173634
960.311662	0.173663
960.487685	0.171534
960.663689	0.174889
960.839675	0.170178
961.015643	0.172040
961.191593	0.171756
961.367524	0.172177
961.543437	0.172835
961.719332	0.171454
961.895209	0.171090
962.071067	0.170765
962.246907	0.169840
962.422730	0.170649
962.598533	0.170587
962.774319	0.172754
962.950086	0.171093
963.125835	0.171081
963.301566	0.172284
963.477279	0.171037
963.652973	0.168730
963.828650	0.166332
964.004308	0.167085
964.179947	0.165338
964.355569	0.163692
964.531172	0.162878
964.706757	0.163618
964.882324	0.162662
965.057873	0.164052
965.233403	0.164608
965.408916	0.165463
965.584410	0.167201
965.759885	0.166165
965.935343	0.164858
966.110782	0.166137
966.286203	0.165102
966.461606	0.165841
966.636991	0.165203
966.812357	0.164961
966.987705	0.164385
967.163035	0.160773
967.338347	0.161285
967.513641	0.161310
967.688916	0.159455
967.864173	0.158270
968.039412	0.157729
968.214632	0.155592
968.389835	0.156519
968.565019	0.155899
968.740185	0.154491
968.915333	0.154454
969.090462	0.152350
969.265573	0.154154
969.440667	0.154722
969.615741	0.153482
969.790798	0.155689
969.965836	0.156489
970.140856	0.158916
970.315858	0.162049
970.490842	0.161812
970.665808	0.162972
970.840755	0.162399
971.015684	0.161520
971.190595	0.162310
971.365487	0.158671
971.540362	0.157426
971.715218	0.155782
971.890056	0.156603
972.064875	0.157479
972.239677	0.157321
972.414460	0.156337
972.589225	0.156385
972.763972	0.155787
972.938700	0.157532
973.113411	0.158777
973.288103	0.159167
973.462777	0.158671
973.637432	0.156708
973.812070	0.158408
973.986689	0.157559
974.161290	0.158822
974.335873	0.159714
974.510437	0.159640
974.684984	0.157483
974.859512	0.157187
975.034022	0.155238
975.208513	0.157086
975.382987	0.155638
975.557442	0.155119
975.731879	0.154943
975.906298	0.152776
976.080698	0.154900
976.255080	0.155667
976.429445	0.155484
976.603790	0.155973
976.778118	0.152270
976.952427	0.151768
977.126719	0.151870
977.300992	0.150220
977.475246	0.153463
977.649483	0.153337
977.823701	0.152980
977.997901	0.153341
978.172083	0.154038
978.346247	0.156635
978.520392	0.157910
978.694519	0.158357
978.868628	0.157512
979.042719	0.154814
979.216791	0.154723
979.390845	0.153687
979.564882	0.152787
979.738899	0.150961
979.912899	0.150270
980.086880	0.150415
980.260843	0.151475
980.434788	0.154030
980.608715	0.153081
980.782623	0.151772
980.956514	0.153054
981.130386	0.154695
981.304240	0.155947
981.478075	0.156304
981.651892	0.154716
981.825692	0.153762
981.999472	0.153264
982.173235	0.154921
982.346980	0.154459
982.520706	0.156327
982.694414	0.154962
982.868104	0.154215
983.041775	0.153147
983.215428	0.154686
983.389064	0.155330
983.562680	0.155170
983.736279	0.157569
983.909860	0.156904
984.083422	0.156170
984.256966	0.157232
984.430491	0.156834
984.603999	0.156626
984.777488	0.155433
984.950959	0.156250
985.124412	0.154910
985.297847	0.152513
985.471263	0.154821
985.644661	0.152245
985.818041	0.151910
985.991403	0.153227
986.164747	0.154252
986.338072	0.153430
986.511379	0.152719
986.684668	0.152890
986.857938	0.153518
987.031191	0.151371
987.204425	0.153439
987.377641	0.150992
987.550839	0.150969
987.724018	0.149342
987.897179	0.150922
988.070322	0.150801
988.243447	0.150203
988.416554	0.150375
988.589642	0.149565
988.762712	0.150301
988.935764	0.152843
989.108798	0.151956
989.281813	0.155146
989.454811	0.155965
989.627790	0.155700
989.800751	0.158253
989.973693	0.157705
990.146617	0.159797
990.319524	0.156606
990.492412	0.155630
990.665281	0.156804
990.838133	0.155095
991.010966	0.152886
991.183781	0.152926
991.356578	0.152732
991.529356	0.153257
991.702117	0.155055
991.874859	0.157669
992.047583	0.157087
992.220288	0.157701
992.392976	0.157633
992.565645	0.158420
992.738296	0.156880
992.910929	0.154723
993.083543	0.156589
993.256139	0.153437
993.428718	0.154235
993.601277	0.155260
993.773819	0.153440
993.946342	0.154199
994.118848	0.154864
994.291335	0.156245
994.463803	0.157651
994.636254	0.155169
994.808686	0.155938
994.981100	0.154879
995.153496	0.154317
995.325874	0.154729
995.498233	0.154209
995.670574	0.152946
995.842897	0.152924
996.015202	0.151140
996.187488	0.151300
996.359757	0.151683
996.532007	0.150683
996.704239	0.151832
996.876452	0.152430
997.048648	0.151743
997.220825	0.151993
997.392984	0.152608
997.565124	0.154554
997.737247	0.153679
997.909351	0.154026
998.081437	0.154628
998.253505	0.153567
998.425554	0.151747
998.597586	0.150311
998.769599	0.149927
998.941594	0.149407
999.113571	0.147819
999.285529	0.146777
999.457469	0.145292
999.629391	0.146061
999.801295	0.146637
999.973181	0.147237
1000.145048	0.150013
1000.316897	0.151337
1000.488728	0.151245
1000.660541	0.153871
1000.832335	0.156426
1001.004111	0.158246
1001.175869	0.157172
1001.347609	0.158575
1001.519331	0.160436
1001.691034	0.158876
1001.862719	0.158746
1002.034386	0.160113
1002.206035	0.159793
1002.377665	0.159519
1002.549277	0.158450
1002.720871	0.159204
1002.892447	0.158529
1003.064004	0.158932
1003.235544	0.160661
1003.407065	0.159562
1003.578568	0.158469
1003.750052	0.157179
1003.921519	0.157667
1004.092967	0.158325
1004.264397	0.157736
1004.435809	0.156669
1004.607202	0.153577
1004.778577	0.152209
1004.949934	0.154029
1005.121273	0.154270
1005.292594	0.153419
1005.463896	0.152282
1005.635180	0.152226
1005.806446	0.151707
1005.977694	0.151916
1006.148923	0.153067
1006.320135	0.153359
1006.491328	0.152550
1006.662503	0.153028
1006.833659	0.154534
1007.004798	0.153988
1007.175918	0.155283
1007.347020	0.155485
1007.518103	0.155663
1007.689169	0.155912
1007.860216	0.156544
1008.031245	0.155444
1008.202256	0.155591
1008.373248	0.155968
1008.544223	0.157950
1008.715179	0.157326
1008.886117	0.159641
1009.057036	0.158939
1009.227938	0.161484
1009.398821	0.162101
1009.569686	0.163532
1009.740533	0.162726
1009.911361	0.162242
1010.082172	0.160987
1010.252964	0.158791
1010.423738	0.157584
1010.594493	0.158166
1010.765231	0.155949
1010.935950	0.156666
1011.106651	0.156250
1011.277334	0.156976
1011.447998	0.155726
1011.618645	0.154480
1011.789273	0.154981
1011.959882	0.155039
1012.130474	0.154013
1012.301048	0.154489
1012.471603	0.152309
1012.642140	0.153757
1012.812658	0.152214
1012.983159	0.154637
1013.153641	0.157874
1013.324105	0.158596
1013.494551	0.158105
1013.664979	0.157364
1013.835388	0.156758
1014.005779	0.158749
1014.176152	0.157168
1014.346507	0.157249
1014.516843	0.154524
1014.687162	0.152322
1014.857462	0.152581
1015.027744	0.152374
1015.198007	0.154015
1015.368252	0.154625
1015.538480	0.154290
1015.708689	0.154869
1015.878879	0.155206
1016.049052	0.157290
1016.219206	0.157096
1016.389342	0.155700
1016.559460	0.156722
1016.729559	0.155915
1016.899641	0.154883
1017.069704	0.155112
1017.239749	0.154839
1017.409775	0.156094
1017.579784	0.155181
1017.749774	0.155597
1017.919746	0.156983
1018.089700	0.157469
1018.259635	0.158656
1018.429553	0.159586
1018.599452	0.157870
1018.769333	0.157815
1018.939195	0.154932
1019.109040	0.154393
1019.278866	0.154829
1019.448674	0.154906
1019.618464	0.152267
1019.788235	0.153035
1019.957989	0.152645
1020.127724	0.152625
1020.297441	0.150835
1020.467139	0.153539
1020.636820	0.151925
1020.806482	0.151493
1020.976126	0.151204
1021.145752	0.152785
1021.315359	0.151340
1021.484948	0.151569
1021.654519	0.151877
1021.824072	0.153715
1021.993607	0.153200
1022.163123	0.155375
1022.332621	0.155832
1022.502101	0.155553
1022.671563	0.153154
1022.841007	0.154725
1023.010432	0.154499
1023.179839	0.156076
1023.349228	0.156729
1023.518598	0.157580
1023.687951	0.155913
1023.857285	0.154835
1024.026601	0.154428
1024.195899	0.156062
1024.365178	0.153942
1024.534439	0.153492
1024.703682	0.151832
1024.872907	0.151149
1025.042114	0.150473
1025.211302	0.152350
1025.380472	0.154105
1025.549624	0.155284
1025.718758	0.155474
1025.887873	0.156210
1026.056970	0.157046
1026.226049	0.158192
1026.395110	0.158486
1026.564153	0.159167
1026.733177	0.158188
1026.902183	0.158420
1027.071171	0.157745
1027.240141	0.158884
1027.409092	0.157585
1027.578026	0.158183
1027.746940	0.156799
1027.915837	0.157394
1028.084716	0.156764
1028.253576	0.155648
1028.422418	0.155440
1028.591242	0.155406
1028.760048	0.152451
1028.928835	0.154018
1029.097604	0.153166
1029.266355	0.154371
1029.435088	0.153030
1029.603803	0.154222
1029.772499	0.156616
1029.941177	0.155713
1030.109837	0.156237
1030.278478	0.160236
1030.447102	0.160724
1030.615707	0.160744
1030.784294	0.158688
1030.952863	0.159509
1031.121413	0.158298
1031.289945	0.156333
1031.458460	0.157331
1031.626955	0.156818
1031.795433	0.155564
1031.963892	0.155437
1032.132334	0.152781
1032.300756	0.154168
1032.469161	0.152678
1032.637548	0.152923
1032.805916	0.153354
1032.974266	0.153012
1033.142598	0.153195
1033.310911	0.152519
1033.479207	0.151072
1033.647484	0.154735
1033.815743	0.155493
1033.983983	0.155905
1034.152206	0.156731
1034.320410	0.157531
1034.488596	0.156388
1034.656764	0.155416
1034.824914	0.156694
1034.993045	0.159213
1035.161158	0.157189
1035.329253	0.156667
1035.497330	0.156043
1035.665388	0.155196
1035.833428	0.155103
1036.001450	0.154718
1036.169454	0.156547
1036.337440	0.155029
1036.505407	0.154190
1036.673356	0.154091
1036.841287	0.153945
1037.009200	0.154319
1037.177094	0.154343
1037.344970	0.155078
1037.512828	0.154845
1037.680668	0.153363
1037.848489	0.153747
1038.016293	0.152614
1038.184078	0.153453
1038.351845	0.153757
1038.519593	0.154836
1038.687324	0.153588
1038.855036	0.151444
1039.022730	0.153174
1039.190406	0.153101
1039.358063	0.152784
1039.525702	0.154151
1039.693323	0.154469
1039.860926	0.154579
1040.028511	0.154152
1040.196077	0.154932
1040.363625	0.156869
1040.531155	0.157143
1040.698667	0.158450
1040.866161	0.157568
1041.033636	0.155669
1041.201093	0.156302
1041.368532	0.156100
1041.535952	0.155206
1041.703355	0.154230
1041.870739	0.153408
1042.038105	0.151871
1042.205452	0.150483
1042.372782	0.150435
1042.540093	0.150933
1042.707386	0.152244
1042.874661	0.151758
1043.041918	0.152356
1043.209156	0.154127
1043.376376	0.155836
1043.543578	0.155507
1043.710762	0.154449
1043.877927	0.156977
1044.045074	0.158553
1044.212203	0.157034
1044.379314	0.157238
1044.546407	0.157665
1044.713481	0.157019
1044.880537	0.154936
1045.047575	0.155085
1045.214595	0.156708
1045.381596	0.153591
1045.548579	0.152865
1045.715544	0.151706
1045.882491	0.151115
1046.049420	0.150406
1046.216330	0.150357
1046.383222	0.149346
1046.550096	0.151065
1046.716951	0.149111
1046.883789	0.150572
1047.050608	0.150473
1047.217409	0.150461
1047.384192	0.150350
1047.550956	0.152100
1047.717703	0.153856
1047.884431	0.156997
1048.051140	0.155763
1048.217832	0.158988
1048.384505	0.159580
1048.551161	0.159955
1048.717798	0.159516
1048.884416	0.161270
1049.051017	0.160526
1049.217599	0.157835
1049.384163	0.156795
1049.550709	0.156570
1049.717237	0.156108
1049.883746	0.156938
1050.050237	0.154814
1050.216710	0.154756
1050.383165	0.153042
1050.549601	0.153170
1050.716019	0.154002
1050.882420	0.154726
1051.048801	0.155804
1051.215165	0.154985
1051.381510	0.155069
1051.547837	0.156920
1051.714146	0.159531
1051.880437	0.159770
1052.046709	0.158515
1052.212964	0.159873
1052.379200	0.159022
1052.545417	0.158142
1052.711617	0.160835
1052.877798	0.161073
1053.043961	0.161186
1053.210106	0.158983
1053.376233	0.159482
1053.542341	0.160614
1053.708432	0.157808
1053.874504	0.159361
1054.040557	0.157888
1054.206593	0.155731
1054.372610	0.154315
1054.538609	0.153707
1054.704590	0.154820
1054.870553	0.156203
1055.036497	0.154156
1055.202424	0.155913
1055.368331	0.153010
1055.534221	0.156064
1055.700093	0.156554
1055.865946	0.156279
1056.031781	0.156657
1056.197598	0.156823
1056.363397	0.155254
1056.529177	0.158571
1056.694939	0.157211
1056.860683	0.156256
1057.026409	0.155716
1057.192116	0.155078
1057.357806	0.154167
1057.523477	0.153714
1057.689130	0.153662
1057.854764	0.154376
1058.020381	0.153275
1058.185979	0.153819
1058.351559	0.156731
1058.517120	0.156254
1058.682664	0.156373
1058.848189	0.160128
1059.013696	0.160468
1059.179185	0.160746
1059.344656	0.160590
1059.510108	0.160867
1059.675542	0.160003
1059.840958	0.160540
1060.006356	0.159485
1060.171735	0.158937
1060.337096	0.156994
1060.502439	0.155647
1060.667764	0.154477
1060.833071	0.153757
1060.998359	0.152123
1061.163629	0.153959
1061.328881	0.152770
1061.494115	0.153840
1061.659330	0.154865
1061.824527	0.155035
1061.989706	0.156446
1062.154867	0.156568
1062.320010	0.157650
1062.485134	0.159474
1062.650240	0.159340
1062.815328	0.157764
1062.980398	0.156982
1063.145449	0.157078
1063.310482	0.156467
1063.475497	0.155602
1063.640494	0.155297
1063.805473	0.157523
1063.970433	0.157542
1064.135375	0.158590
1064.300299	0.160910
1064.465204	0.161129
1064.630092	0.160202
1064.794961	0.158808
1064.959812	0.158591
1065.124645	0.159757
1065.289459	0.157597
1065.454256	0.156879
1065.619034	0.154673
1065.783793	0.153277
1065.948535	0.151712
1066.113258	0.150415
1066.277964	0.152041
1066.442651	0.154815
1066.607319	0.156805
1066.771970	0.158292
1066.936602	0.157688
1067.101216	0.160208
1067.265812	0.159530
1067.430389	0.161703
1067.594949	0.163303
1067.759490	0.163530
1067.924013	0.162090
1068.088518	0.158422
1068.253004	0.156080
1068.417472	0.156918
1068.581922	0.157665
1068.746354	0.158910
1068.910768	0.157865
1069.075163	0.157799
1069.239540	0.157749
1069.403899	0.156829
1069.568240	0.159412
1069.732562	0.158870
1069.896866	0.158757
1070.061152	0.157777
1070.225420	0.157339
1070.389670	0.159143
1070.553901	0.157977
1070.718114	0.157301
1070.882309	0.160006
1071.046486	0.157504
1071.210644	0.158020
1071.374784	0.159453
1071.538906	0.158812
1071.703010	0.161247
1071.867096	0.159822
1072.031163	0.160850
1072.195212	0.162365
1072.359243	0.160604
1072.523256	0.163589
1072.687250	0.164022
1072.851226	0.164122
1073.015184	0.162629
1073.179124	0.161139
1073.343045	0.160879
1073.506949	0.159060
1073.670834	0.156323
1073.834701	0.160099
1073.998549	0.155650
1074.162380	0.155354
1074.326192	0.155942
1074.489986	0.158662
1074.653761	0.159835
1074.817519	0.160234
1074.981258	0.164822
1075.144979	0.168520
1075.308682	0.163737
1075.472367	0.165634
1075.636033	0.164326
1075.799681	0.163664
1075.963311	0.164313
1076.126923	0.164288
1076.290516	0.166177
1076.454092	0.163137
1076.617649	0.160305
1076.781187	0.162580
1076.944708	0.163740
1077.108210	0.166458
1077.271695	0.167347
1077.435160	0.164762
1077.598608	0.165437
1077.762038	0.164463
1077.925449	0.166319
1078.088842	0.166179
1078.252217	0.165478
1078.415573	0.167487
1078.578912	0.169010
1078.742232	0.166238
1078.905534	0.166941
1079.068817	0.168327
1079.232083	0.167838
1079.395330	0.168211
1079.558559	0.171535
1079.721770	0.172724
1079.884962	0.171977
1080.048136	0.170181
1080.211293	0.172961
1080.374430	0.173148
1080.537550	0.172625
1080.700651	0.173913
1080.863735	0.173938
1081.026800	0.173078
1081.189846	0.171653
1081.352875	0.171739
1081.515885	0.173577
1081.678877	0.172326
1081.841851	0.173009
1082.004807	0.170597
1082.167744	0.171722
1082.330663	0.172507
1082.493564	0.171516
1082.656447	0.169630
1082.819312	0.170130
1082.982158	0.168281
1083.144986	0.167962
1083.307796	0.169962
1083.470587	0.173325
1083.633361	0.173927
1083.796116	0.174815
1083.958853	0.177334
1084.121571	0.180575
1084.284272	0.179578
1084.446954	0.177419
1084.609618	0.175459
1084.772264	0.171406
1084.934892	0.167416
1085.097501	0.164859
1085.260092	0.163889
1085.422665	0.161260
1085.585220	0.161927
1085.747756	0.162230
1085.910274	0.166919
1086.072774	0.168667
1086.235256	0.173787
1086.397720	0.175007
1086.560165	0.175943
1086.722592	0.174774
1086.885001	0.176822
1087.047392	0.173529
1087.209764	0.172760
1087.372119	0.171767
1087.534455	0.170230
1087.696772	0.166902
1087.859072	0.166464
1088.021353	0.168451
1088.183616	0.167345
1088.345861	0.167176
1088.508088	0.170653
1088.670296	0.171889
1088.832486	0.172917
1088.994658	0.173431
1089.156812	0.173093
1089.318948	0.173456
1089.481065	0.171672
1089.643164	0.173665
1089.805245	0.172988
1089.967308	0.168416
1090.129352	0.169070
1090.291378	0.167036
1090.453386	0.165536
1090.615376	0.166674
1090.777347	0.168245
1090.939301	0.168946
1091.101236	0.167923
1091.263153	0.164957
1091.425051	0.167227
1091.586932	0.169557
1091.748794	0.170032
1091.910638	0.177184
1092.072463	0.176894
1092.234271	0.178533
1092.396060	0.179489
1092.557831	0.180659
1092.719584	0.188456
1092.881319	0.189116
1093.043035	0.186912
1093.204733	0.186341
1093.366413	0.181937
1093.528075	0.179653
1093.689718	0.177049
1093.851343	0.172785
1094.012950	0.173590
1094.174539	0.169602
1094.336110	0.170548
1094.497662	0.170193
1094.659196	0.170167
1094.820712	0.169033
1094.982210	0.173778
1095.143689	0.174290
1095.305151	0.178700
1095.466594	0.181344
1095.628018	0.180284
1095.789425	0.179861
1095.950813	0.179953
1096.112183	0.180093
1096.273535	0.179824
1096.434869	0.176445
1096.596184	0.175917
1096.757482	0.175424
1096.918761	0.171286
1097.080021	0.169837
1097.241264	0.168788
1097.402488	0.165020
1097.563694	0.165364
1097.724882	0.167387
1097.886052	0.171153
1098.047203	0.172414
1098.208336	0.175682
1098.369451	0.176644
1098.530548	0.175998
1098.691627	0.176726
1098.852687	0.180671
1099.013729	0.179750
1099.174753	0.183759
1099.335758	0.181775
1099.496746	0.181637
1099.657715	0.176315
1099.818666	0.174319
1099.979599	0.178419
1100.140513	0.178975
1100.301409	0.178224
1100.462287	0.180179
1100.623147	0.175758
1100.783989	0.176164
1100.944812	0.173380
1101.105617	0.173709
1101.266404	0.174879
1101.427173	0.174217
1101.587923	0.174353
1101.748656	0.178874
1101.909370	0.175029
1102.070066	0.175388
1102.230743	0.174099
1102.391403	0.176784
1102.552044	0.176692
1102.712667	0.181804
1102.873271	0.181558
1103.033858	0.180527
1103.194426	0.172969
1103.354976	0.176604
1103.515508	0.177741
1103.676021	0.178633
1103.836517	0.179934
1103.996994	0.183216
1104.157453	0.177277
1104.317893	0.180144
1104.478316	0.178573
1104.638720	0.179379
1104.799106	0.180017
1104.959474	0.181980
1105.119823	0.182295
1105.280155	0.179971
1105.440468	0.178930
1105.600763	0.183526
1105.761039	0.180583
1105.921298	0.186776
1106.081538	0.189682
1106.241760	0.191205
1106.401964	0.189363
1106.562149	0.190462
1106.722316	0.189157
1106.882465	0.190466
1107.042596	0.189046
1107.202709	0.188934
1107.362803	0.186527
1107.522879	0.185838
1107.682937	0.184676
1107.842977	0.182901
1108.002999	0.183620
1108.163002	0.188135
1108.322987	0.189344
1108.482954	0.187453
1108.642902	0.187679
1108.802833	0.189057
1108.962745	0.189334
1109.122639	0.188596
1109.282515	0.189858
1109.442372	0.190011
1109.602211	0.191459
1109.762032	0.190874
1109.921835	0.188818
1110.081620	0.189830
1110.241386	0.189647
1110.401134	0.186671
1110.560864	0.190382
1110.720576	0.188697
1110.880269	0.187337
1111.039945	0.187109
1111.199602	0.184568
1111.359240	0.186858
1111.518861	0.192287
1111.678463	0.193818
1111.838047	0.193176
1111.997613	0.191345
1112.157161	0.196246
1112.316690	0.194102
1112.476202	0.191204
1112.635695	0.189682
1112.795169	0.194632
1112.954626	0.187355
1113.114064	0.184713
1113.273484	0.192764
1113.432886	0.186344
1113.592270	0.182077
1113.751635	0.181281
1113.910983	0.182700
1114.070312	0.188298
1114.229622	0.186586
1114.388915	0.186216
1114.548189	0.187090
1114.707445	0.185509
1114.866683	0.187750
1115.025903	0.189543
1115.185104	0.193684
1115.344287	0.194370
1115.503452	0.197721
1115.662599	0.195709
1115.821727	0.195614
1115.980838	0.195944
1116.139930	0.199826
1116.299004	0.203056
1116.458059	0.202813
1116.617097	0.199618
1116.776116	0.199346
1116.935117	0.194560
1117.094099	0.196837
1117.253064	0.198130
1117.412010	0.194584
1117.570938	0.195546
1117.729848	0.194464
1117.888740	0.198451
1118.047613	0.198151
1118.206468	0.192909
1118.365305	0.187748
1118.524124	0.186457
1118.682924	0.190340
1118.841707	0.192466
1119.000471	0.189604
1119.159216	0.191575
1119.317944	0.192030
1119.476653	0.192671
1119.635344	0.202028
1119.794017	0.206380
1119.952672	0.202251
1120.111308	0.199652
1120.269927	0.201233
1120.428527	0.199505
1120.587108	0.200637
1120.745672	0.197281
1120.904217	0.197581
1121.062744	0.190860
1121.221253	0.188174
1121.379744	0.190027
1121.538216	0.193184
1121.696671	0.198418
1121.855107	0.198624
1122.013524	0.197003
1122.171924	0.194794
1122.330305	0.192614
1122.488668	0.194743
1122.647013	0.197699
1122.805340	0.202576
1122.963648	0.203311
1123.121938	0.196673
1123.280210	0.198718
1123.438464	0.198962
1123.596700	0.201982
1123.754917	0.209884
1123.913116	0.209213
1124.071297	0.209180
1124.229459	0.207210
1124.387604	0.209970
1124.545730	0.211255
1124.703838	0.209947
1124.861928	0.211546
1125.019999	0.214271
1125.178052	0.218632
1125.336088	0.217418
1125.494104	0.218101
1125.652103	0.213939
1125.810083	0.207601
1125.968045	0.211100
1126.125989	0.208022
1126.283915	0.205660
1126.441823	0.203809
1126.599712	0.189831
1126.757583	0.187809
1126.915436	0.181339
1127.073270	0.183232
1127.231087	0.181971
1127.388885	0.180338
1127.546665	0.180032
1127.704426	0.178251
1127.862170	0.177694
1128.019895	0.185351
1128.177602	0.185677
1128.335291	0.196905
1128.492961	0.198012
1128.650614	0.200763
1128.808248	0.206541
1128.965864	0.209447
1129.123461	0.218117
1129.281041	0.221127
1129.438602	0.218636
1129.596145	0.220761
1129.753670	0.216670
1129.911176	0.213212
1130.068665	0.212439
1130.226135	0.205969
1130.383587	0.202123
1130.541020	0.203158
1130.698436	0.197226
1130.855833	0.206323
1131.013212	0.213014
1131.170573	0.212937
1131.327915	0.220227
1131.485239	0.217261
1131.642545	0.220619
1131.799833	0.223079
1131.957103	0.222410
1132.114354	0.217720
1132.271588	0.208039
1132.428803	0.199309
1132.585999	0.203418
1132.743178	0.203870
1132.900338	0.207165
1133.057480	0.200895
1133.214604	0.198882
1133.371710	0.197456
1133.528797	0.209340
1133.685866	0.213475
1133.842917	0.215578
1133.999950	0.215800
1134.156964	0.216744
1134.313960	0.217202
1134.470938	0.222765
1134.627898	0.235493
1134.784840	0.226940
1134.941763	0.224328
1135.098668	0.222888
1135.255555	0.226037
1135.412424	0.222527
1135.569274	0.216385
1135.726107	0.213592
1135.882921	0.211800
1136.039716	0.201825
1136.196494	0.205666
1136.353253	0.203178
1136.509995	0.204679
1136.666717	0.203809
1136.823422	0.199639
1136.980109	0.199514
1137.136777	0.197574
1137.293427	0.197074
1137.450059	0.200715
1137.606672	0.195968
1137.763267	0.198470
1137.919844	0.196309
1138.076403	0.194576
1138.232944	0.197659
1138.389466	0.205079
1138.545971	0.217743
1138.702457	0.221313
1138.858924	0.222618
1139.015374	0.231309
1139.171805	0.232063
1139.328218	0.224874
1139.484613	0.233125
1139.640990	0.227446
1139.797348	0.222151
1139.953688	0.211435
1140.110010	0.204824
1140.266314	0.204549
1140.422600	0.194792
1140.578867	0.193045
1140.735116	0.206035
1140.891347	0.203175
1141.047559	0.209975
1141.203754	0.202834
1141.359930	0.213930
1141.516088	0.220871
1141.672228	0.211493
1141.828349	0.224645
1141.984452	0.236095
1142.140537	0.231563
1142.296604	0.231365
1142.452653	0.227980
1142.608683	0.230657
1142.764695	0.218954
1142.920689	0.208193
1143.076665	0.212764
1143.232622	0.198680
1143.388562	0.190257
1143.544483	0.189053
1143.700385	0.183321
1143.856270	0.183459
1144.012136	0.195622
1144.167985	0.195384
1144.323814	0.193319
1144.479626	0.185978
1144.635420	0.189734
1144.791195	0.188141
1144.946952	0.189742
1145.102691	0.188479
1145.258411	0.189190
1145.414113	0.180872
1145.569798	0.178627
1145.725463	0.188807
1145.881111	0.197326
1146.036741	0.196619
1146.192352	0.201575
1146.347945	0.197426
1146.503519	0.205307
1146.659076	0.209822
1146.814614	0.218817
1146.970134	0.228105
1147.125636	0.224185
1147.281120	0.219886
1147.436585	0.230107
1147.592032	0.219601
1147.747461	0.221324
1147.902872	0.220617
1148.058265	0.219749
1148.213639	0.210584
1148.368995	0.201982
1148.524333	0.204626
1148.679653	0.211078
1148.834954	0.199492
1148.990237	0.199952
1149.145502	0.202960
1149.300749	0.200677
1149.455977	0.196861
1149.611188	0.207396
1149.766380	0.211203
1149.921553	0.214297
1150.076709	0.216979
1150.231846	0.224250
1150.386966	0.226435
1150.542066	0.222983
1150.697149	0.221274
1150.852214	0.219611
1151.007260	0.218724
1151.162288	0.222956
1151.317298	0.216969
1151.472289	0.210860
1151.627263	0.210380
1151.782218	0.209161
1151.937155	0.209678
1152.092073	0.206919
1152.246974	0.213530
1152.401856	0.212464
1152.556720	0.216244
1152.711566	0.221844
1152.866393	0.223757
1153.021203	0.222024
1153.175994	0.223179
1153.330767	0.222197
1153.485521	0.234038
1153.640258	0.236543
1153.794976	0.220278
1153.949676	0.212726
1154.104358	0.206268
1154.259021	0.213494
1154.413667	0.216265
1154.568294	0.218584
1154.722903	0.221477
1154.877493	0.220286
1155.032066	0.207983
1155.186620	0.219322
1155.341156	0.218143
1155.495674	0.221120
1155.650173	0.208194
1155.804654	0.209407
1155.959118	0.209578
1156.113562	0.213835
1156.267989	0.211964
1156.422397	0.218158
1156.576788	0.212043
1156.731160	0.222321
1156.885513	0.233721
1157.039849	0.236719
1157.194166	0.232961
1157.348465	0.228779
1157.502746	0.221708
1157.657009	0.214684
1157.811253	0.211361
1157.965479	0.199463
1158.119687	0.191245
1158.273877	0.178158
1158.428048	0.181055
1158.582201	0.198612
1158.736337	0.204688
1158.890453	0.197178
1159.044552	0.202064
1159.198632	0.215521
1159.352694	0.228601
1159.506738	0.239901
1159.660764	0.240129
1159.814771	0.244291
1159.968761	0.237418
1160.122732	0.234132
1160.276685	0.238066
1160.430619	0.239725
1160.584535	0.221672
1160.738434	0.223877
1160.892313	0.213582
1161.046175	0.209925
1161.200019	0.210518
1161.353844	0.198126
1161.507651	0.197021
1161.661440	0.191010
1161.815210	0.185604
1161.968962	0.195315
1162.122697	0.197431
1162.276412	0.194248
1162.430110	0.195878
1162.583789	0.181251
1162.737451	0.189363
1162.891094	0.187744
1163.044718	0.198208
1163.198325	0.204396
1163.351913	0.195094
1163.505483	0.203722
1163.659035	0.210571
1163.812569	0.221428
1163.966084	0.215737
1164.119581	0.214243
1164.273060	0.219083
1164.426521	0.213654
1164.579964	0.207320
1164.733388	0.216487
1164.886794	0.214086
1165.040182	0.203527
1165.193551	0.193370
1165.346903	0.195619
1165.500236	0.178281
1165.653551	0.169496
1165.806848	0.178639
1165.960126	0.168856
1166.113386	0.175634
1166.266628	0.163896
1166.419852	0.183162
1166.573058	0.193646
1166.726245	0.198825
1166.879414	0.207330
1167.032565	0.215176
1167.185698	0.217783
1167.338812	0.226613
1167.491909	0.220781
1167.644987	0.214347
1167.798046	0.199004
1167.951088	0.192838
1168.104111	0.201352
1168.257117	0.192253
1168.410103	0.192022
1168.563072	0.183491
1168.716023	0.196281
1168.868955	0.179357
1169.021869	0.192073
1169.174765	0.187975
1169.327642	0.177507
1169.480501	0.168380
1169.633343	0.175034
1169.786165	0.173293
1169.938970	0.178680
1170.091757	0.184990
1170.244525	0.190217
1170.397275	0.189329
1170.550007	0.185543
1170.702720	0.199779
1170.855415	0.201115
1171.008092	0.205523
1171.160751	0.205840
1171.313392	0.202745
1171.466014	0.126742
1171.618619	0.194181
1171.771205	0.194181
1171.923772	0.194181
