sample name	sample
index	772
start time	 03-31-2021  01:15:33 PM
880	0.160976
Peak Time (s)	91.037
Peak Height 	0.161
calc peak height	90,93
Baseline Time (s)	8.537
Baseline Value 	-0.00201
subtract baseline	10,4
Abs	0.139011
Peak Time (s)	91.538
Peak Height 	0.139
calc peak height	90,93
Baseline Time (s)	8.537
Baseline Value 	0.003432
subtract baseline	10,3
PK_550	0.091973
Peak Time (s)	91.037
Peak Height 	0.09197
calc peak height	90,93
Baseline Time (s)	9.537
Baseline Value 	3.4137E-4
subtract baseline	10,2
PK_880	0.148749
Peak Time (s)	90.036
Peak Height 	0.1487
calc peak height	90,93
Baseline Time (s)	8.537
Baseline Value 	7.0872E-4
subtract baseline	10,1


Time (s)	A880-A510	A880-A775	A880-A975	A880	I510	I775	I975	I880	
0.037000	0.000711	-0.000332	-0.001566	0.000333	6795.633402	40938.811284	4065.827518	22385.014508
0.537500	-0.000312	0.001388	-0.000647	0.003548	6759.338250	40808.677274	4060.363420	22242.421561
1.038000	0.001204	-0.000551	-0.004665	0.002288	6783.079999	40749.788998	4053.840709	22298.206298
1.535000	-0.002535	0.000189	-0.004907	0.002604	6748.460337	40786.565299	4052.524166	22284.185263
2.035500	-0.001180	-0.000299	-0.003215	-0.000183	6783.829921	40986.767262	4063.129656	22408.038249
2.536000	0.001195	0.000216	-0.005768	0.000361	6799.569428	40984.181318	4055.785900	22383.789050
3.041500	0.002412	0.000220	-0.001923	-0.001874	6829.426511	41180.037206	4070.251853	22483.533736
3.536000	0.000519	-0.000868	0.002289	-0.000774	6803.525217	40988.640720	4077.737157	22434.392158
4.039000	0.001020	-0.000030	0.000587	-0.000218	6803.045757	41013.153390	4072.299052	22409.557138
4.537000	0.001149	0.000281	0.003199	-0.000108	6803.215920	41030.779029	4078.326419	22404.685130
5.037000	0.001515	0.000686	-0.002268	0.001003	6796.789115	40969.127451	4062.558727	22355.219854
5.538000	-0.001442	-0.000925	-0.002974	-0.000863	6787.410601	40991.376994	4065.322018	22438.334765
6.040500	0.001134	-0.000597	-0.004424	-0.000688	6808.090558	41004.817270	4061.453895	22430.543823
6.535000	-0.001654	-0.000468	0.000319	-0.000187	6779.794831	40972.329036	4071.582443	22408.198999
7.035500	0.000092	0.000497	-0.002023	0.000268	6790.880853	41016.880803	4064.893843	22387.948207
7.535500	0.000169	0.000012	0.002576	0.000156	6792.495916	40984.251339	4076.185818	22392.901555
8.042000	0.000999	-0.001212	-0.000946	-0.001045	6810.003011	40982.276276	4070.606474	22446.478703
8.536500	0.000000	0.001010	0.000000	0.000000	6792.387712	41085.055798	4070.369801	22399.863264
9.036500	0.000589	-0.000274	0.000330	-0.000363	6800.584525	41004.626839	4072.031584	22416.042251
9.537000	-0.000118	0.000000	-0.003890	0.000558	6786.579155	40948.170293	4059.765517	22375.031887
10.037500	-0.000465	0.000637	0.005038	0.000487	6784.212886	41009.895023	4081.334956	22378.187527
10.537500	-0.001468	-0.000006	-0.004305	-0.000444	6783.598294	41035.084492	4061.158093	22419.661885
11.035000	0.001295	0.000210	0.000502	0.000243	6801.445269	40993.985552	4070.990547	22389.054334
11.535500	0.001300	-0.000177	-0.001433	-0.000351	6806.608848	41011.978174	4067.778630	22415.485941
12.035500	0.001476	-0.000203	-0.002088	-0.001103	6814.634757	41075.497184	4068.011997	22449.089101
12.536000	-0.002200	-0.000698	0.000103	-0.000808	6780.436696	41006.417092	4072.554280	22435.892877
13.036500	0.001330	0.000643	0.000154	0.000069	6803.242106	41046.961677	4070.574542	22396.786108
13.536500	0.000969	-0.000579	-0.001921	-0.000393	6804.118859	40980.589734	4066.713855	22417.386825
14.037000	0.000222	-0.000406	0.002417	0.001336	6782.825249	40845.056381	4072.965483	22340.444251
14.537000	-0.000436	-0.000079	0.000138	0.001805	6773.173456	40832.777259	4066.383643	22319.632063
15.034500	-0.001376	0.000179	0.000022	-0.000018	6780.728206	41014.002291	4070.466578	22400.675205
15.535000	0.000829	-0.000558	0.003842	-0.000503	6803.858230	40992.023617	4080.834345	22422.275827
16.035000	0.001573	0.000104	-0.002906	-0.000169	6807.396913	41020.681642	4063.831169	22407.393740
16.537500	0.001135	0.000800	-0.008009	0.000498	6797.867109	41023.231752	4050.181906	22377.694296
17.036000	0.001520	-0.000215	0.004780	-0.002229	6824.768578	41173.005704	4087.303710	22499.432010
17.536500	-0.001211	-0.000115	-0.004486	0.000713	6775.884696	40924.655244	4057.985699	22368.129919
18.036500	0.000460	-0.000335	-0.003702	0.000369	6793.174146	40935.446276	4060.660340	22383.433496
18.537000	-0.001444	0.000199	-0.002704	0.000797	6773.171579	40944.684508	4062.015064	22364.407108
19.037000	-0.001363	-0.000930	-0.007101	-0.000038	6781.013639	40919.032547	4053.581281	22401.572024
19.534500	-0.001118	0.000275	-0.002787	0.001097	6773.386654	40925.138188	4061.102580	22351.046828
20.037500	0.000387	-0.000761	0.000238	0.001117	6786.119163	40833.291660	4068.265866	22350.167148
20.535000	-0.000729	0.000038	-0.004163	0.000742	6779.758071	40935.375652	4058.680378	22366.830765
21.035500	0.000584	-0.000174	-0.004847	0.000525	6792.893951	40935.910982	4057.575633	22376.497716
21.535500	-0.000835	-0.000033	-0.004766	0.000904	6777.472288	40915.139661	4056.870281	22359.648955
22.035500	0.000053	0.000439	-0.008091	0.001456	6780.346378	40908.114018	4047.738446	22335.099162
22.536500	0.000022	-0.000082	-0.000681	0.000980	6784.154485	40904.182752	4066.395745	22356.242625
23.036500	0.000584	0.000080	-0.004683	0.001194	6787.143400	40899.677391	4056.380343	22346.726830
23.536500	-0.000578	-0.000287	0.000952	0.000735	6781.117051	40907.715999	4070.890553	22367.162735
24.037500	-0.000005	-0.000144	-0.000698	0.000570	6787.449485	40934.492857	4067.335720	22374.477623
24.539500	-0.001403	-0.000418	-0.000116	0.000983	6771.928759	40874.779757	4067.740536	22356.132047
25.034500	0.002163	0.001485	-0.006105	0.001953	6794.188749	40955.977674	4051.236094	22313.037159
25.535000	-0.002021	-0.000605	-0.002637	0.000417	6771.477610	40907.704737	4063.075037	22381.277950
26.034500	-0.000931	0.000069	0.000173	0.001019	6775.656182	40914.025584	4068.343862	22354.522767
26.536000	-0.000403	0.000723	-0.004990	0.001324	6777.564089	40944.374361	4055.347724	22340.970270
27.036500	0.000264	0.000154	-0.001486	0.001135	6784.910138	40911.329263	4064.109085	22349.375309
27.536500	0.000520	0.000493	0.000895	-0.000282	6799.290665	41064.496239	4073.194633	22412.425687
28.036500	0.000579	0.000047	0.002618	0.000286	6794.901713	40975.944827	4075.973194	22387.114101
28.537000	0.000445	-0.000381	-0.000148	-0.000251	6798.379573	40985.488774	4070.616836	22411.040083
29.037000	0.002512	0.000914	0.002978	0.000899	6806.281764	40998.128526	4075.365444	22359.858768
29.537000	0.001106	0.000391	-0.003985	0.000301	6799.317889	41004.663845	4060.149074	22386.450314
30.035000	0.000621	-0.000652	-0.008387	-0.000443	6801.539392	40978.510831	4051.504543	22419.588067
30.535000	0.000411	0.000638	0.000734	0.000369	6792.751309	41020.374151	4071.244950	22383.445922
31.038000	-0.001509	-0.000397	-0.004345	0.001902	6763.170320	40796.667593	4055.506021	22315.297386
31.536000	0.000848	0.000089	-0.003749	0.000283	6797.242290	40979.847675	4060.751711	22387.238487
32.036000	0.000099	0.000441	0.000800	0.000228	6791.274836	41015.389380	4071.741119	22389.693757
32.537000	0.001368	0.000635	-0.004137	0.000568	6799.271446	41002.645276	4059.155891	22374.570902
33.037000	0.000437	0.000201	0.001442	-0.000069	6796.742128	41020.342766	4073.997276	22402.920692
33.537000	-0.000331	-0.000338	-0.002084	-0.000914	6797.401978	41047.120778	4067.568484	22440.607266
34.039500	-0.000141	0.000396	-0.003528	0.001482	6778.459617	40902.145250	4058.430865	22333.940578
34.534500	-0.002800	0.000043	-0.004814	0.001411	6756.355165	40877.603996	4055.557869	22337.086771
35.037500	-0.001350	0.000319	-0.005016	0.001719	6766.090261	40874.811984	4054.352819	22323.414524
35.535000	-0.001134	-0.000750	-0.001234	0.000919	6774.768707	40851.370287	4065.221800	22358.943505
36.038000	-0.000842	-0.000082	-0.004128	0.001230	6774.615146	40882.510599	4057.609217	22345.143144
36.536000	0.000460	-0.000692	-0.002809	0.001166	6786.323022	40834.969504	4060.886495	22347.969159
37.036500	-0.000131	0.000005	-0.001681	0.001490	6778.472513	40867.429558	4062.797120	22333.583818
37.536500	-0.000992	-0.000479	0.001731	0.001149	6774.027877	40855.026875	4071.764788	22348.747014
38.036500	-0.000743	-0.000421	-0.002123	0.001139	6776.240832	40860.847730	4062.582464	22349.179602
38.537500	0.001089	-0.000536	-0.004183	0.000930	6793.755140	40869.063603	4058.187427	22358.476685
39.034000	-0.001943	-0.000577	-0.001294	0.001253	6765.004609	40837.448294	4064.284441	22344.115409
39.535000	-0.003133	-0.000957	-0.000546	0.000857	6758.240641	40838.784150	4067.012583	22361.729362
40.035000	-0.000111	-0.000025	-0.000969	0.001567	6777.991522	40858.127203	4064.310813	22330.188202
40.535500	0.002000	0.000448	-0.002863	0.001825	6793.893681	40876.810595	4059.195346	22318.710094
41.035500	0.001199	0.000177	-0.000686	0.001565	6789.235354	40875.837620	4064.988743	22330.244361
41.536500	0.001235	-0.000051	0.000404	0.001552	6789.665355	40857.199876	4067.622501	22330.849071
42.036000	0.000282	0.000222	-0.004731	0.001647	6780.671140	40872.667529	4055.196036	22326.627584
42.537000	0.000501	-0.000389	0.001647	0.001611	6782.847434	40822.621186	4070.454029	22328.200081
43.034500	0.000098	0.000617	-0.000119	0.001939	6776.587037	40881.606729	4065.448092	22313.658740
43.540000	0.000306	0.000014	-0.002379	0.001554	6781.674329	40862.660762	4060.986645	22330.762407
44.040500	0.002778	0.000404	0.000292	-0.003022	6842.596383	41297.100284	4078.342273	22534.990740
44.535000	-0.000446	-0.001139	-0.002205	-0.000963	6796.834621	40981.397656	4067.396656	22442.797556
45.035000	0.000508	0.000022	0.000539	0.000121	6795.711912	40988.147393	4071.371471	22394.453957
45.536000	0.000263	-0.000796	-0.003179	-0.000388	6797.989889	40961.237178	4063.703511	22417.165914
46.038000	-0.002632	-0.000360	-0.000257	-0.000272	6772.143982	40989.114416	4070.404901	22411.965214
46.536000	0.000253	-0.000341	0.001059	-0.000544	6799.251336	41014.609839	4074.219747	22424.134994
47.036500	-0.000371	0.000607	-0.003603	0.000660	6783.527590	40992.160252	4060.203246	22370.464415
47.535500	-0.001899	-0.000669	-0.006368	0.001094	6766.743440	40843.214730	4052.639343	22351.193562
48.037000	0.000258	0.000186	-0.004113	0.001939	6777.959604	40844.058541	4055.966662	22313.664460
48.535000	0.002833	-0.000390	-0.001656	-0.000259	6819.070647	40985.371018	4067.027232	22411.399036
49.038000	-0.001621	-0.000120	-0.002076	0.002517	6756.977761	40767.320227	4059.419227	22288.043917
49.535000	0.001871	0.001121	0.004209	0.001419	6796.274922	40970.831479	4077.078386	22336.754771
50.035500	0.002579	0.000164	0.001498	-0.002222	6833.899112	41205.617681	4079.322684	22499.092999
50.535500	-0.000024	-0.000036	-0.001697	0.010278	6704.842654	40107.123773	4042.064133	21947.325396
51.036000	0.004193	0.005419	0.018537	0.172294	5593.831553	28901.898164	3760.052804	16063.438635
51.536500	-0.052095	-0.008911	-0.000312	0.132042	5501.908956	30489.742499	3796.955218	17327.178182
52.036500	-0.038012	-0.015758	-0.011466	-0.132875	7704.021874	52731.546583	4406.069071	29325.319113
52.536500	-0.036487	-0.073395	-0.016946	-0.286702	9702.050661	65040.235032	4966.538549	40493.086864
53.037000	-0.016809	-0.065476	0.002297	-0.276771	9852.837598	64753.761282	5008.519423	39646.579077
53.534500	-0.009660	-0.029143	0.000017	-0.217627	9086.169810	61598.438334	4747.521166	34987.302977
54.038000	-0.005654	-0.011321	0.002229	-0.157229	8352.117480	56134.360432	4532.108259	30840.866539
54.535500	0.007640	-0.002798	0.007889	-0.147221	8392.316493	55953.220600	4517.138837	30207.746362
55.035500	0.016551	0.001625	0.012431	-0.120965	8183.483815	53361.218385	4444.593298	28614.611877
55.535500	0.019714	0.002508	0.019207	-0.118946	8196.999942	53229.838938	4460.177148	28496.028780
56.036000	0.026931	0.009889	0.023225	-0.088540	7929.803826	50640.546997	4375.841055	26775.464154
56.536500	0.032841	0.014788	0.037427	-0.052627	7604.606041	47363.051723	4310.194795	24892.544605
57.036500	0.039866	0.019335	0.039247	-0.033134	7475.937637	45865.197395	4259.126360	23933.869731
57.537000	0.044907	0.023840	0.046637	-0.008743	7283.410193	43950.515269	4211.921831	22793.337820
58.037000	0.044689	0.026862	0.049969	0.012219	7082.289531	42296.831538	4164.885533	21863.041102
58.534500	0.055732	0.031963	0.057430	0.030410	7016.592842	41132.619415	4137.179799	21091.346090
59.035000	0.054825	0.033939	0.058136	0.042088	6903.527528	40292.105351	4109.548892	20612.716710
59.535500	0.063761	0.038756	0.071993	0.047011	6939.229928	40283.028381	4131.997232	20414.775165
60.035500	0.066206	0.040117	0.074291	0.053523	6903.055826	39844.446947	4121.351617	20156.347408
60.536000	0.070598	0.042841	0.076555	0.066516	6827.654872	38985.535905	4094.708850	19652.173105
61.036000	0.077521	0.048023	0.079049	0.095264	6642.894238	37089.364355	4032.225895	18588.807537
61.537000	0.073483	0.046291	0.083182	0.052963	6973.062513	40418.870763	4145.369026	20178.402224
62.037000	0.091332	0.055573	0.085308	0.107990	6651.862317	36686.495317	4017.406596	18140.113192
62.537000	0.093959	0.057316	0.083275	0.074094	6967.170852	39560.195253	4092.606722	19365.003099
63.034500	0.094146	0.057820	0.084124	0.068541	7019.181400	40072.436500	4108.392970	19574.942326
63.552500	0.101617	0.059413	0.089470	0.064049	7129.810284	40594.322842	4133.112563	19746.752042
64.044000	0.105657	0.060899	0.087783	0.067230	7137.871322	40448.208809	4120.811638	19624.911151
64.538500	0.105206	0.062253	0.089020	0.071665	7092.232142	40184.088443	4112.804911	19456.509057
65.035500	0.102331	0.062844	0.087672	0.081192	6978.647151	39428.542207	4086.016240	19100.521434
65.536500	0.106279	0.064058	0.091630	0.079512	7029.786084	39671.537672	4099.820651	19162.733406
66.036500	0.108103	0.065216	0.095048	0.087217	6976.370014	39124.170684	4089.309217	18879.423887
66.536500	0.113268	0.066772	0.096693	0.085697	7037.151402	39380.268722	4097.059149	18934.900744
67.039500	0.115716	0.067328	0.098520	0.088637	7032.645005	39181.640269	4094.327634	18827.749517
67.535000	0.115333	0.068328	0.100102	0.090599	7011.247836	39101.768998	4093.396593	18756.640719
68.034000	0.115962	0.068396	0.103942	0.092434	7000.272143	38955.482241	4098.316116	18690.385040
68.535500	0.119056	0.070620	0.102737	0.094760	7007.254546	38947.047684	4089.663253	18606.874958
69.035000	0.120938	0.071085	0.101744	0.097160	7002.545624	38787.674926	4081.412573	18521.134611
69.535500	0.121076	0.072031	0.104034	0.098817	6988.773314	38729.166266	4082.947146	18462.207171
70.036000	0.122446	0.072122	0.108423	0.100564	6985.367639	38593.596054	4089.375869	18400.357161
70.537000	0.122357	0.072427	0.110530	0.103172	6961.050775	38405.836819	4088.155568	18308.462945
71.036500	0.124522	0.073841	0.113262	0.106042	6954.725900	38287.624581	4087.818367	18207.964532
71.537000	0.125167	0.074507	0.118392	0.107787	6944.863875	38200.184206	4096.098500	18147.166773
72.039500	0.127470	0.076297	0.115529	0.110808	6938.444037	38100.870987	4081.746227	18042.535187
72.534000	0.129095	0.076581	0.115074	0.112534	6937.541542	37984.773559	4076.474631	17983.071257
73.035000	0.128300	0.076611	0.115417	0.114720	6911.002879	37811.934103	4072.042102	17908.095174
73.535000	0.128165	0.076184	0.113607	0.115626	6901.778321	37705.567500	4065.544042	17877.136224
74.035500	0.128873	0.077273	0.117266	0.119053	6877.793136	37519.625783	4066.097017	17760.595897
74.536000	0.130934	0.078799	0.112976	0.122192	6868.321635	37391.966553	4048.515923	17654.651866
75.035500	0.130940	0.080431	0.122516	0.124979	6844.000472	37300.882372	4064.485119	17561.255275
75.537500	0.132811	0.080189	0.122550	0.126946	6843.167248	37127.297599	4059.888733	17495.684324
76.036500	0.134600	0.081812	0.124004	0.129429	6837.120000	37059.953689	4057.448957	17413.316885
76.539500	0.134277	0.081243	0.124389	0.130714	6823.149661	36915.188824	4055.320302	17370.871677
77.038500	0.135467	0.083427	0.125147	0.133474	6809.568710	36870.408888	4050.605123	17280.172597
77.535000	0.138312	0.083655	0.125037	0.135271	6818.626465	36748.578588	4046.131661	17221.418723
78.035000	0.136341	0.083573	0.124650	0.136110	6794.372548	36677.190252	4043.263399	17194.049804
78.535500	0.137114	0.084496	0.125245	0.137510	6788.979121	36640.339059	4041.385910	17148.533755
79.035000	0.138635	0.085017	0.127471	0.139506	6784.904308	36526.601969	4041.921758	17083.887838
79.536000	0.140234	0.085772	0.127941	0.140945	6786.273663	36473.904477	4039.665980	17037.462507
80.036500	0.134909	0.084795	0.128838	0.145796	6699.940199	36028.946459	4030.514072	16882.128255
80.536500	0.139880	0.086286	0.126972	0.142967	6765.941838	36358.283823	4032.735974	16972.520448
81.039000	0.142341	0.086388	0.136226	0.143692	6780.792487	36310.561122	4052.630100	16949.298808
81.534500	0.142865	0.086730	0.129559	0.144328	6779.830257	36288.005534	4035.568999	16928.937530
82.037000	0.137661	0.085703	0.126694	0.149804	6689.418521	35794.637873	4016.433776	16755.059139
82.535000	0.143037	0.086720	0.130740	0.145463	6771.590607	36200.647302	4035.677859	16892.733993
83.035000	0.144388	0.088331	0.133353	0.147648	6764.456027	36156.918783	4036.669768	16823.254807
83.535500	0.145638	0.088156	0.129975	0.147566	6775.847392	36149.849708	4029.055532	16825.862378
84.035500	0.146273	0.088643	0.133414	0.148320	6774.824736	36129.449543	4035.253591	16801.959439
84.536000	0.145651	0.087807	0.135376	0.148110	6771.308485	36081.921577	4040.297311	16808.631743
85.036000	0.145301	0.088735	0.130219	0.149599	6755.612309	36039.314294	4024.946227	16761.517749
85.537000	0.145901	0.088558	0.134218	0.149450	6761.989903	36037.198294	4034.497304	16766.225609
86.036500	0.146238	0.089642	0.127338	0.151156	6750.342354	35990.021325	4014.827526	16712.474566
86.537500	0.147502	0.088960	0.134127	0.150698	6765.005844	35972.991534	4031.404248	16726.861376
87.034500	0.144077	0.089576	0.129029	0.157689	6677.161223	35493.839075	4003.902565	16508.493014
87.535000	0.145972	0.090383	0.134144	0.152496	6736.708042	35944.623972	4027.303515	16670.366889
88.034500	0.149068	0.090545	0.137526	0.152961	6759.058351	35921.767869	4034.028848	16655.792102
88.536000	0.146953	0.089930	0.130594	0.152928	6741.364246	35877.768371	4018.198498	16656.832202
89.035500	0.144960	0.091052	0.133068	0.159688	6667.867938	35454.843042	4008.489105	16446.681865
89.536000	0.147394	0.089980	0.136966	0.153294	6742.000577	35853.950225	4031.966535	16645.372867
90.036000	0.148749	0.091134	0.137642	0.154895	6739.910353	35820.238875	4029.832700	16595.344178
90.539500	0.148329	0.090389	0.135238	0.155000	6735.462109	35756.231939	4024.072060	16592.079831
91.037000	0.145129	0.091973	0.137068	0.160976	6658.574603	35427.499322	4014.620909	16407.009911
91.537500	0.146234	0.090632	0.139011	0.154880	6718.782854	35783.516058	4033.026284	16595.819002
92.034500	0.147542	0.090545	0.138172	0.154962	6729.128934	35770.803778	4030.900556	16593.261128
92.535000	0.148424	0.090848	0.138001	0.155570	6731.443967	35747.834955	4029.103387	16574.299141
93.040500	0.144686	0.090327	0.134326	0.159576	6666.516815	35409.174196	4011.581577	16450.129980
93.584500	0.147231	0.089821	0.136891	0.155192	6724.561864	35699.140214	4027.422600	16586.094960
94.035500	0.147394	0.091334	0.137137	0.156271	6716.835222	35731.722638	4025.510322	16552.501905
94.536000	0.148646	0.091491	0.142935	0.156301	6727.140787	35741.218647	4038.825913	16551.557374
95.036500	0.149647	0.091278	0.139084	0.156787	6731.491597	35688.681631	4028.795570	16536.460327
95.537000	0.146759	0.091609	0.137049	0.156820	6706.875318	35711.137773	4024.051472	16535.454581
96.042500	0.148400	0.090728	0.134161	0.155833	6729.015196	35719.097444	4019.707078	16566.128792
96.538000	0.147046	0.090357	0.137076	0.156322	6713.466010	35654.512110	4025.252993	16550.904265
