sample name	sample
index	186
start time	 02-18-2021  11:32:29 AM


Wavelength (nm)	Absorbance
494.344910	-0.104880
494.563924	-0.104880
494.782919	-0.104880
495.001897	0.151445
495.220856	0.012019
495.439797	0.023372
495.658719	0.001933
495.877624	0.036352
496.096510	0.018797
496.315378	0.061347
496.534227	-0.002063
496.753059	0.017202
496.971872	0.086895
497.190667	0.144053
497.409444	0.152013
497.628203	0.157536
497.846943	0.155214
498.065665	0.156461
498.284369	0.154522
498.503055	0.154840
498.721723	0.154262
498.940372	0.154261
499.159003	0.154909
499.377616	0.155317
499.596210	0.153338
499.814787	0.154026
500.033345	0.153983
500.251885	0.154926
500.470406	0.155085
500.688910	0.155086
500.907395	0.155253
501.125862	0.154721
501.344311	0.153707
501.562742	0.155425
501.781154	0.155353
501.999548	0.155818
502.217924	0.154884
502.436282	0.156015
502.654621	0.156909
502.872942	0.157129
503.091245	0.158932
503.309530	0.160024
503.527797	0.160335
503.746045	0.160564
503.964275	0.159076
504.182487	0.160499
504.400681	0.160424
504.618856	0.159698
504.837013	0.159423
505.055152	0.158063
505.273273	0.158314
505.491376	0.157106
505.709460	0.156603
505.927526	0.157004
506.145574	0.155578
506.363604	0.155134
506.581615	0.155272
506.799608	0.154958
507.017583	0.154469
507.235540	0.154124
507.453478	0.155615
507.671399	0.156241
507.889301	0.157110
508.107185	0.157926
508.325050	0.158763
508.542898	0.158859
508.760727	0.159784
508.978538	0.160652
509.196330	0.160948
509.414105	0.160222
509.631861	0.160735
509.849599	0.160036
510.067319	0.161006
510.285021	0.160278
510.502704	0.160169
510.720369	0.160755
510.938016	0.160911
511.155645	0.161419
511.373255	0.162442
511.590848	0.162262
511.808422	0.162575
512.025977	0.161870
512.243515	0.162510
512.461034	0.163084
512.678536	0.162479
512.896018	0.162455
513.113483	0.162917
513.330930	0.162440
513.548358	0.162247
513.765768	0.163011
513.983160	0.163393
514.200533	0.163367
514.417889	0.163968
514.635226	0.164207
514.852545	0.164628
515.069845	0.163712
515.287128	0.165012
515.504392	0.165852
515.721638	0.166292
515.938866	0.166408
516.156075	0.166004
516.373267	0.165606
516.590440	0.165970
516.807594	0.165996
517.024731	0.166112
517.241850	0.165627
517.458950	0.165673
517.676032	0.165129
517.893095	0.165588
518.110141	0.166541
518.327168	0.166503
518.544177	0.166973
518.761168	0.166813
518.978141	0.167407
519.195095	0.168068
519.412031	0.168571
519.628949	0.169283
519.845849	0.169326
520.062731	0.169723
520.279594	0.170572
520.496439	0.171047
520.713266	0.172373
520.930074	0.172925
521.146865	0.172944
521.363637	0.173572
521.580391	0.173752
521.797127	0.173974
522.013844	0.173751
522.230543	0.174092
522.447224	0.173949
522.663887	0.173482
522.880532	0.174103
523.097158	0.173953
523.313766	0.173813
523.530356	0.175058
523.746928	0.175241
523.963481	0.175822
524.180017	0.175827
524.396534	0.176368
524.613032	0.177165
524.829513	0.176900
525.045975	0.176872
525.262420	0.176729
525.478845	0.176222
525.695253	0.177198
525.911643	0.177449
526.128014	0.177935
526.344367	0.177610
526.560702	0.177203
526.777018	0.177068
526.993316	0.177766
527.209597	0.178288
527.425858	0.178593
527.642102	0.178332
527.858328	0.178473
528.074535	0.178203
528.290724	0.178916
528.506894	0.179798
528.723047	0.180830
528.939181	0.181284
529.155297	0.181098
529.371395	0.180682
529.587475	0.180574
529.803536	0.180566
530.019579	0.182238
530.235604	0.182417
530.451611	0.182438
530.667600	0.182601
530.883570	0.183055
531.099522	0.184018
531.315456	0.185070
531.531372	0.185608
531.747269	0.185824
531.963148	0.185456
532.179009	0.185922
532.394852	0.185805
532.610676	0.185881
532.826482	0.185674
533.042271	0.185801
533.258040	0.186295
533.473792	0.187469
533.689525	0.187919
533.905240	0.188180
534.120937	0.188289
534.336616	0.189396
534.552277	0.189803
534.767919	0.190752
534.983543	0.190919
535.199149	0.190521
535.414736	0.190282
535.630306	0.191433
535.845857	0.191106
536.061390	0.191477
536.276904	0.191489
536.492401	0.191688
536.707879	0.191078
536.923339	0.191618
537.138781	0.192067
537.354204	0.191887
537.569610	0.191430
537.784997	0.192284
538.000366	0.192359
538.215716	0.192618
538.431049	0.193206
538.646363	0.193540
538.861659	0.193651
539.076937	0.194136
539.292196	0.194915
539.507438	0.195931
539.722661	0.195639
539.937866	0.196141
540.153052	0.196377
540.368221	0.196366
540.583371	0.197397
540.798503	0.197976
541.013617	0.198456
541.228712	0.198702
541.443789	0.198217
541.658848	0.198984
541.873889	0.199264
542.088912	0.199902
542.303916	0.199956
542.518902	0.200017
542.733870	0.200028
542.948820	0.199836
543.163752	0.200182
543.378665	0.200734
543.593560	0.201184
543.808437	0.201641
544.023295	0.201437
544.238136	0.202418
544.452958	0.201993
544.667762	0.202727
544.882548	0.203616
545.097315	0.204033
545.312064	0.204400
545.526795	0.204395
545.741508	0.204566
545.956203	0.205555
546.170879	0.205374
546.385537	0.206690
546.600177	0.206461
546.814799	0.206527
547.029402	0.206754
547.243988	0.207230
547.458555	0.207885
547.673103	0.208049
547.887634	0.208207
548.102146	0.208940
548.316640	0.208586
548.531116	0.208935
548.745574	0.209398
548.960013	0.209522
549.174435	0.209389
549.388838	0.209499
549.603222	0.209780
549.817589	0.209613
550.031937	0.210156
550.246267	0.210448
550.460579	0.211046
550.674873	0.211154
550.889148	0.211001
551.103405	0.211026
551.317644	0.211131
551.531865	0.211402
551.746068	0.211524
551.960252	0.211275
552.174418	0.211465
552.388566	0.211203
552.602696	0.210828
552.816807	0.211867
553.030900	0.212838
553.244975	0.213036
553.459032	0.213799
553.673070	0.213815
553.887091	0.213909
554.101093	0.214672
554.315077	0.214719
554.529042	0.215706
554.742990	0.215289
554.956919	0.214941
555.170830	0.215162
555.384722	0.215081
555.598597	0.215891
555.812453	0.215966
556.026291	0.215793
556.240111	0.216483
556.453913	0.216715
556.667696	0.216923
556.881461	0.216967
557.095208	0.217348
557.308937	0.217640
557.522647	0.217907
557.736339	0.218112
557.950013	0.218830
558.163669	0.218864
558.377307	0.219196
558.590926	0.219513
558.804527	0.219999
559.018110	0.220588
559.231675	0.220332
559.445221	0.220282
559.658749	0.220787
559.872259	0.220331
560.085751	0.220657
560.299225	0.220473
560.512680	0.220797
560.726117	0.221190
560.939536	0.221058
561.152937	0.221722
561.366319	0.222146
561.579683	0.222396
561.793029	0.222974
562.006357	0.223177
562.219667	0.223541
562.432958	0.223771
562.646231	0.224009
562.859486	0.224065
563.072723	0.224059
563.285941	0.224546
563.499141	0.224426
563.712323	0.224673
563.925487	0.224595
564.138632	0.224602
564.351760	0.225054
564.564869	0.225136
564.777960	0.225688
564.991032	0.225791
565.204087	0.225250
565.417123	0.225410
565.630141	0.225580
565.843140	0.226223
566.056122	0.226269
566.269085	0.226113
566.482030	0.226499
566.694957	0.226411
566.907866	0.226768
567.120756	0.227409
567.333628	0.227938
567.546482	0.228020
567.759318	0.228059
567.972135	0.228308
568.184935	0.228774
568.397716	0.228774
568.610478	0.229388
568.823223	0.229030
569.035949	0.228984
569.248657	0.229337
569.461347	0.229110
569.674019	0.229096
569.886672	0.229250
570.099308	0.229220
570.311925	0.229305
570.524523	0.228780
570.737104	0.229481
570.949666	0.230115
571.162210	0.229998
571.374736	0.230513
571.587244	0.231067
571.799733	0.231315
572.012205	0.231220
572.224658	0.231661
572.437092	0.232027
572.649509	0.232170
572.861907	0.232384
573.074287	0.232728
573.286649	0.233039
573.498993	0.233213
573.711318	0.234081
573.923625	0.234478
574.135914	0.234176
574.348185	0.234313
574.560438	0.234586
574.772672	0.234882
574.984888	0.235301
575.197086	0.235323
575.409266	0.235404
575.621427	0.235071
575.833570	0.235498
576.045695	0.235985
576.257802	0.236367
576.469890	0.236340
576.681961	0.235972
576.894013	0.235925
577.106046	0.236351
577.318062	0.236347
577.530059	0.236441
577.742039	0.236390
577.954000	0.236471
578.165942	0.236303
578.377867	0.236848
578.589773	0.237149
578.801661	0.237223
579.013531	0.237614
579.225382	0.238263
579.437216	0.238663
579.649031	0.239006
579.860828	0.239582
580.072606	0.239992
580.284367	0.240095
580.496109	0.240247
580.707833	0.240610
580.919539	0.240857
581.131227	0.240601
581.342896	0.240841
581.554547	0.241139
581.766180	0.241255
581.977795	0.241685
582.189391	0.241506
582.400969	0.241578
582.612529	0.241539
582.824071	0.241220
583.035595	0.241652
583.247100	0.241764
583.458587	0.241792
583.670056	0.241624
583.881506	0.241718
584.092939	0.242011
584.304353	0.242610
584.515749	0.242717
584.727127	0.242889
584.938486	0.243016
585.149828	0.242874
585.361151	0.243181
585.572456	0.243605
585.783742	0.243938
585.995011	0.244571
586.206261	0.244581
586.417493	0.244879
586.628706	0.245487
586.839902	0.245709
587.051079	0.246162
587.262238	0.246311
587.473379	0.246565
587.684502	0.246510
587.895606	0.246804
588.106692	0.246638
588.317760	0.246923
588.528810	0.246858
588.739841	0.247191
588.950855	0.247375
589.161850	0.247603
589.372827	0.248051
589.583785	0.248441
589.794726	0.248635
590.005648	0.249066
590.216552	0.249320
590.427437	0.249690
590.638305	0.249656
590.849154	0.249916
591.059985	0.250034
591.270798	0.250156
591.481592	0.250417
591.692369	0.250183
591.903127	0.250592
592.113867	0.250883
592.324588	0.250863
592.535292	0.250984
592.745977	0.251168
592.956644	0.251202
593.167293	0.251311
593.377923	0.251408
593.588536	0.251680
593.799130	0.251604
594.009706	0.252090
594.220263	0.252471
594.430803	0.252627
594.641324	0.252837
594.851827	0.253052
595.062312	0.253268
595.272778	0.253537
595.483227	0.253489
595.693657	0.254113
595.904069	0.254095
596.114462	0.254518
596.324838	0.255166
596.535195	0.255340
596.745534	0.255714
596.955855	0.255627
597.166157	0.255589
597.376441	0.256231
597.586707	0.256137
597.796955	0.255994
598.007185	0.256330
598.217396	0.256533
598.427589	0.256994
598.637764	0.257365
598.847921	0.257784
599.058060	0.258171
599.268180	0.258022
599.478282	0.258233
599.688366	0.258407
599.898431	0.258073
600.108479	0.257859
600.318508	0.257786
600.528519	0.258115
600.738511	0.258241
600.948486	0.258164
601.158442	0.258433
601.368380	0.258711
601.578300	0.258886
601.788202	0.259556
601.998085	0.260040
602.207950	0.260321
602.417797	0.260271
602.627626	0.260457
602.837436	0.261200
603.047228	0.261283
603.257002	0.261545
603.466758	0.262112
603.676496	0.261882
603.886215	0.261770
604.095916	0.262353
604.305599	0.262383
604.515264	0.262747
604.724910	0.262722
604.934538	0.263121
605.144148	0.263332
605.353740	0.263025
605.563314	0.263266
605.772869	0.263851
605.982406	0.263592
606.191925	0.264000
606.401425	0.264145
606.610908	0.264269
606.820372	0.264386
607.029818	0.264694
607.239246	0.265256
607.448655	0.265440
607.658047	0.265330
607.867420	0.265647
608.076775	0.265730
608.286111	0.265715
608.495430	0.265855
608.704730	0.266287
608.914012	0.266108
609.123275	0.266099
609.332521	0.266282
609.541748	0.266684
609.750957	0.266459
609.960148	0.266441
610.169321	0.266787
610.378475	0.266737
610.587611	0.266691
610.796729	0.266912
611.005829	0.267359
611.214910	0.267886
611.423974	0.268119
611.633019	0.268623
611.842045	0.269215
612.051054	0.269334
612.260044	0.269706
612.469017	0.269919
612.677970	0.270242
612.886906	0.270161
613.095824	0.270064
613.304723	0.269968
613.513604	0.270024
613.722467	0.269933
613.931311	0.269937
614.140138	0.270373
614.348946	0.270344
614.557736	0.270293
614.766507	0.270266
614.975261	0.270431
615.183996	0.270626
615.392713	0.270832
615.601412	0.271181
615.810092	0.271616
616.018754	0.271482
616.227399	0.271821
616.436024	0.272181
616.644632	0.272692
616.853222	0.272864
617.061793	0.273213
617.270346	0.273023
617.478880	0.272857
617.687397	0.272748
617.895895	0.273100
618.104375	0.273074
618.312837	0.273036
618.521281	0.273458
618.729706	0.273691
618.938113	0.273483
619.146502	0.273817
619.354873	0.274199
619.563226	0.274600
619.771560	0.274561
619.979876	0.274981
620.188174	0.275136
620.396453	0.274917
620.604715	0.274829
620.812958	0.275101
621.021183	0.275252
621.229390	0.275257
621.437578	0.275127
621.645748	0.275192
621.853900	0.275429
622.062034	0.275630
622.270150	0.275826
622.478247	0.276300
622.686326	0.276587
622.894387	0.276763
623.102430	0.277094
623.310454	0.277303
623.518461	0.277780
623.726449	0.277835
623.934418	0.278328
624.142370	0.278586
624.350303	0.278695
624.558218	0.278846
624.766115	0.279272
624.973994	0.279481
625.181855	0.280009
625.389697	0.279999
625.597521	0.280112
625.805327	0.280061
626.013114	0.280204
626.220883	0.280402
626.428634	0.280462
626.636367	0.280665
626.844082	0.280758
627.051778	0.280615
627.259457	0.280845
627.467117	0.281006
627.674758	0.281097
627.882382	0.281379
628.089987	0.281638
628.297574	0.282074
628.505143	0.282182
628.712694	0.282350
628.920226	0.282750
629.127740	0.283246
629.335236	0.283504
629.542714	0.283724
629.750174	0.283630
629.957615	0.283386
630.165038	0.283570
630.372443	0.283457
630.579829	0.283566
630.787198	0.283479
630.994548	0.283400
631.201880	0.283708
631.409194	0.283873
631.616489	0.284154
631.823766	0.284515
632.031025	0.284321
632.238266	0.284845
632.445489	0.285110
632.652693	0.285269
632.859879	0.285728
633.067047	0.285855
633.274197	0.285978
633.481329	0.286611
633.688442	0.287047
633.895537	0.287536
634.102614	0.287644
634.309672	0.287938
634.516713	0.288289
634.723735	0.288080
634.930739	0.287920
635.137724	0.288236
635.344692	0.288060
635.551641	0.288093
635.758572	0.288139
635.965485	0.288276
636.172379	0.288272
636.379256	0.288689
636.586114	0.288727
636.792954	0.289141
636.999775	0.289209
637.206579	0.289470
637.413364	0.289594
637.620131	0.289705
637.826880	0.289893
638.033610	0.290016
638.240323	0.290087
638.447017	0.290441
638.653692	0.290977
638.860350	0.291187
639.066990	0.290981
639.273611	0.291103
639.480214	0.291718
639.686798	0.291901
639.893365	0.292067
640.099913	0.292023
640.306443	0.292296
640.512955	0.292272
640.719449	0.292426
640.925924	0.292976
641.132381	0.293201
641.338820	0.293118
641.545241	0.293282
641.751644	0.293488
641.958028	0.293679
642.164394	0.294034
642.370742	0.293795
642.577071	0.294135
642.783383	0.294168
642.989676	0.294213
643.195951	0.294310
643.402207	0.294673
643.608446	0.295130
643.814666	0.295470
644.020868	0.295405
644.227052	0.295953
644.433218	0.296222
644.639365	0.296478
644.845494	0.296880
645.051605	0.297365
645.257698	0.297481
645.463772	0.297642
645.669828	0.297653
645.875866	0.297809
646.081886	0.298115
646.287888	0.298143
646.493871	0.298524
646.699836	0.298568
646.905783	0.298413
647.111712	0.298529
647.317622	0.298650
647.523514	0.299156
647.729388	0.299274
647.935244	0.299387
648.141082	0.299668
648.346901	0.299571
648.552702	0.299958
648.758485	0.300222
648.964250	0.300471
649.169996	0.300713
649.375724	0.300438
649.581434	0.300828
649.787126	0.301150
649.992800	0.301514
650.198455	0.302026
650.404092	0.302002
650.609711	0.302404
650.815311	0.302631
651.020894	0.302756
651.226458	0.303488
651.432004	0.303647
651.637532	0.303522
651.843041	0.303595
652.048532	0.303676
652.254006	0.304139
652.459460	0.304093
652.664897	0.304435
652.870315	0.304541
653.075716	0.304629
653.281097	0.304556
653.486461	0.304933
653.691807	0.305135
653.897134	0.305101
654.102443	0.305129
654.307734	0.305534
654.513006	0.305658
654.718261	0.306200
654.923497	0.306424
655.128715	0.307041
655.333915	0.307308
655.539096	0.307652
655.744259	0.308088
655.949404	0.308366
656.154531	0.308432
656.359640	0.308418
656.564730	0.308588
656.769802	0.308906
656.974856	0.309089
657.179892	0.309331
657.384909	0.309215
657.589908	0.309412
657.794889	0.309485
657.999852	0.309845
658.204797	0.310236
658.409723	0.310232
658.614631	0.310223
658.819521	0.310315
659.024393	0.310486
659.229246	0.310815
659.434081	0.310933
659.638898	0.311539
659.843697	0.312044
660.048478	0.312255
660.253240	0.312348
660.457984	0.312699
660.662710	0.313031
660.867417	0.313346
661.072107	0.313491
661.276778	0.313915
661.481431	0.314016
661.686066	0.314067
661.890682	0.314328
662.095281	0.314814
662.299861	0.315274
662.504422	0.315594
662.708966	0.315478
662.913491	0.315666
663.117999	0.315760
663.322488	0.315707
663.526958	0.315802
663.731411	0.316125
663.935845	0.315949
664.140261	0.315971
664.344659	0.316027
664.549038	0.316520
664.753400	0.316955
664.957743	0.317150
665.162068	0.317468
665.366375	0.317719
665.570663	0.317818
665.774933	0.318546
665.979185	0.318787
666.183419	0.318991
666.387635	0.319267
666.591832	0.319381
666.796011	0.319622
667.000172	0.319993
667.204315	0.320101
667.408439	0.320273
667.612545	0.320320
667.816634	0.320538
668.020703	0.320806
668.224755	0.320884
668.428788	0.321296
668.632803	0.321430
668.836800	0.321766
669.040779	0.322292
669.244739	0.322471
669.448681	0.322743
669.652605	0.322841
669.856511	0.323016
670.060399	0.323161
670.264268	0.323246
670.468119	0.323842
670.671952	0.323656
670.875767	0.323764
671.079563	0.323944
671.283341	0.324318
671.487101	0.324692
671.690843	0.325108
671.894567	0.325496
672.098272	0.325945
672.301959	0.326173
672.505628	0.326383
672.709278	0.326465
672.912911	0.326995
673.116525	0.327116
673.320121	0.327248
673.523699	0.327567
673.727258	0.328096
673.930799	0.328339
674.134322	0.328471
674.337827	0.329239
674.541314	0.329946
674.744782	0.330239
674.948232	0.330409
675.151664	0.330705
675.355078	0.330721
675.558474	0.330659
675.761851	0.330883
675.965210	0.331238
676.168551	0.331260
676.371873	0.331227
676.575178	0.331335
676.778464	0.331785
676.981732	0.332192
677.184981	0.332575
677.388213	0.332659
677.591426	0.332820
677.794621	0.332968
677.997798	0.333259
678.200956	0.333337
678.404097	0.333495
678.607219	0.333487
678.810323	0.333562
679.013408	0.333747
679.216476	0.334320
679.419525	0.334365
679.622556	0.334492
679.825569	0.334599
680.028563	0.334956
680.231540	0.335221
680.434498	0.335267
680.637438	0.335246
680.840359	0.335568
681.043263	0.335621
681.246148	0.336114
681.449015	0.336357
681.651864	0.336477
681.854694	0.336735
682.057506	0.336733
682.260301	0.337395
682.463076	0.337943
682.665834	0.338016
682.868573	0.338499
683.071295	0.338839
683.273998	0.338977
683.476682	0.339509
683.679349	0.339694
683.881997	0.340286
684.084627	0.340408
684.287239	0.340502
684.489833	0.340836
684.692408	0.340833
684.894965	0.340739
685.097504	0.341033
685.300025	0.341103
685.502527	0.341175
685.705012	0.341017
685.907478	0.341330
686.109925	0.341832
686.312355	0.342069
686.514766	0.342505
686.717159	0.342780
686.919534	0.343047
687.121891	0.343454
687.324230	0.343765
687.526550	0.344308
687.728852	0.344367
687.931136	0.344457
688.133401	0.344617
688.335649	0.344477
688.537878	0.344764
688.740089	0.345053
688.942281	0.345162
689.144456	0.345502
689.346612	0.345744
689.548750	0.345943
689.750870	0.346268
689.952971	0.346376
690.155055	0.346757
690.357120	0.347210
690.559167	0.347213
690.761195	0.347265
690.963206	0.347436
691.165198	0.347496
691.367172	0.347714
691.569128	0.347502
691.771065	0.347996
691.972984	0.348031
692.174885	0.348023
692.376768	0.348347
692.578633	0.348584
692.780479	0.348600
692.982308	0.348876
693.184118	0.349045
693.385909	0.349527
693.587683	0.349404
693.789438	0.349630
693.991175	0.349594
694.192894	0.349701
694.394595	0.350190
694.596277	0.350334
694.797941	0.350431
694.999587	0.350981
695.201215	0.351078
695.402824	0.351440
695.604416	0.351706
695.805989	0.352041
696.007543	0.352380
696.209080	0.352504
696.410598	0.352863
696.612099	0.352990
696.813580	0.352819
697.015044	0.352862
697.216490	0.353089
697.417917	0.353291
697.619326	0.353485
697.820717	0.353579
698.022089	0.353574
698.223444	0.353693
698.424780	0.353903
698.626098	0.354191
698.827397	0.354267
699.028679	0.354219
699.229942	0.354181
699.431187	0.354282
699.632414	0.354345
699.833622	0.354446
700.034813	0.354551
700.235985	0.354381
700.437139	0.354362
700.638274	0.354647
700.839392	0.354899
701.040491	0.355213
701.241572	0.355061
701.442635	0.355162
701.643679	0.355077
701.844706	0.355456
702.045714	0.355944
702.246704	0.356231
702.447675	0.356429
702.648629	0.356350
702.849564	0.356413
703.050481	0.356888
703.251380	0.357011
703.452260	0.357216
703.653122	0.357109
703.853966	0.357028
704.054792	0.356980
704.255600	0.356791
704.456389	0.356901
704.657160	0.356998
704.857913	0.356768
705.058648	0.356777
705.259365	0.356902
705.460063	0.356972
705.660743	0.357320
705.861405	0.357339
706.062048	0.357483
706.262674	0.357524
706.463281	0.357405
706.663870	0.357685
706.864441	0.357666
707.064993	0.357626
707.265527	0.357493
707.466043	0.357544
707.666541	0.357636
707.867021	0.357784
708.067482	0.357853
708.267925	0.358063
708.468350	0.358197
708.668757	0.358362
708.869145	0.358594
709.069516	0.358706
709.269868	0.358815
709.470201	0.358771
709.670517	0.358734
709.870814	0.358863
710.071093	0.358852
710.271354	0.358797
710.471597	0.358666
710.671821	0.358736
710.872028	0.358828
711.072216	0.358956
711.272385	0.359098
711.472537	0.359226
711.672670	0.359091
711.872785	0.359267
712.072882	0.359141
712.272961	0.359255
712.473021	0.359228
712.673063	0.359245
712.873087	0.358657
713.073093	0.358553
713.273081	0.358499
713.473050	0.358528
713.673001	0.358439
713.872934	0.358470
714.072849	0.358576
714.272745	0.358601
714.472623	0.358253
714.672483	0.358483
714.872325	0.358544
715.072148	0.358498
715.271954	0.358762
715.471741	0.358534
715.671509	0.358435
715.871260	0.358049
716.070992	0.357916
716.270707	0.358317
716.470403	0.358358
716.670080	0.358386
716.869740	0.358230
717.069381	0.358042
717.269004	0.358209
717.468609	0.358263
717.668195	0.358532
717.867764	0.358681
718.067314	0.358556
718.266846	0.358588
718.466360	0.358476
718.665855	0.358668
718.865332	0.358544
719.064791	0.358313
719.264232	0.358036
719.463655	0.357918
719.663059	0.357448
719.862445	0.357236
720.061813	0.357164
720.261163	0.357058
720.460494	0.356802
720.659807	0.356833
720.859102	0.356883
721.058379	0.357275
721.257638	0.357092
721.456878	0.357428
721.656100	0.357538
721.855304	0.357399
722.054490	0.357512
722.253657	0.357639
722.452806	0.357349
722.651937	0.357278
722.851050	0.357048
723.050145	0.357086
723.249221	0.356770
723.448279	0.356559
723.647319	0.356322
723.846340	0.356256
724.045344	0.355987
724.244329	0.355785
724.443296	0.355589
724.642245	0.355460
724.841175	0.355466
725.040088	0.355269
725.238982	0.355273
725.437857	0.355111
725.636715	0.355065
725.835554	0.355110
726.034376	0.355188
726.233179	0.355154
726.431963	0.355297
726.630730	0.355223
726.829478	0.355227
727.028208	0.355189
727.226920	0.355434
727.425614	0.354975
727.624289	0.354548
727.822946	0.354751
728.021585	0.354740
728.220206	0.354408
728.418808	0.354271
728.617392	0.354586
728.815958	0.354259
729.014506	0.354058
729.213036	0.354175
729.411547	0.354225
729.610040	0.353863
729.808515	0.353801
730.006972	0.353632
730.205410	0.353324
730.403831	0.352808
730.602233	0.352818
730.800616	0.352374
730.998982	0.352068
731.197329	0.352265
731.395658	0.352054
731.593969	0.351818
731.792262	0.351576
731.990536	0.351466
732.188793	0.351402
732.387031	0.351308
732.585250	0.351354
732.783452	0.351234
732.981635	0.350843
733.179800	0.350643
733.377947	0.350552
733.576076	0.350556
733.774186	0.350553
733.972278	0.350266
734.170352	0.349962
734.368408	0.349699
734.566446	0.349338
734.764465	0.349199
734.962466	0.348933
735.160449	0.348918
735.358413	0.348610
735.556360	0.348471
735.754288	0.348127
735.952198	0.347875
736.150090	0.347675
736.347963	0.347735
736.545818	0.347441
736.743655	0.347348
736.941474	0.346802
737.139275	0.346646
737.337057	0.346174
737.534821	0.346274
737.732567	0.346212
737.930295	0.346160
738.128005	0.346275
738.325696	0.346177
738.523369	0.346095
738.721024	0.345930
738.918660	0.345587
739.116279	0.345576
739.313879	0.345450
739.511461	0.345189
739.709024	0.345288
739.906570	0.344578
740.104097	0.344355
740.301606	0.344281
740.499097	0.344091
740.696569	0.344159
740.894024	0.343978
741.091460	0.343567
741.288878	0.343299
741.486277	0.342839
741.683659	0.342770
741.881022	0.342342
742.078367	0.341785
742.275694	0.341751
742.473002	0.341612
742.670293	0.341571
742.867565	0.341229
743.064819	0.341154
743.262054	0.340681
743.459272	0.340616
743.656471	0.340459
743.853652	0.340595
744.050815	0.340316
744.247959	0.340134
744.445085	0.339769
744.642194	0.339707
744.839283	0.339516
745.036355	0.339697
745.233408	0.339417
745.430444	0.339544
745.627461	0.339178
745.824459	0.338913
746.021440	0.338492
746.218402	0.338192
746.415346	0.338091
746.612272	0.337964
746.809180	0.337611
747.006069	0.337342
747.202940	0.336921
747.399793	0.337055
747.596628	0.336925
747.793444	0.336704
747.990243	0.336721
748.187023	0.336543
748.383784	0.336172
748.580528	0.336137
748.777253	0.336134
748.973960	0.335902
749.170649	0.335715
749.367320	0.335551
749.563973	0.335421
749.760607	0.335027
749.957223	0.335064
750.153821	0.335170
750.350400	0.334852
750.546962	0.334528
750.743505	0.334607
750.940030	0.334328
751.136536	0.334069
751.333025	0.333938
751.529495	0.333921
751.725947	0.333540
751.922381	0.333319
752.118796	0.332978
752.315194	0.332890
752.511573	0.332595
752.707934	0.332190
752.904276	0.331772
753.100601	0.331656
753.296907	0.331470
753.493195	0.330968
753.689465	0.330531
753.885716	0.330628
754.081949	0.330249
754.278164	0.329818
754.474361	0.329520
754.670540	0.329454
754.866700	0.329307
755.062843	0.329056
755.258967	0.328994
755.455072	0.329061
755.651160	0.328890
755.847229	0.329081
756.043280	0.328995
756.239313	0.329122
756.435328	0.328918
756.631324	0.328832
756.827302	0.328709
757.023262	0.328824
757.219204	0.328382
757.415127	0.327960
757.611033	0.327517
757.806920	0.327281
758.002788	0.326971
758.198639	0.327056
758.394471	0.326566
758.590286	0.326144
758.786081	0.325704
758.981859	0.325325
759.177619	0.325221
759.373360	0.324781
759.569083	0.324822
759.764788	0.324630
759.960474	0.324510
760.156143	0.324507
760.351793	0.324683
760.547425	0.324722
760.743038	0.324509
760.938634	0.324538
761.134211	0.324729
761.329770	0.324469
761.525311	0.324138
761.720833	0.323721
761.916338	0.323636
762.111824	0.323238
762.307292	0.322956
762.502741	0.323250
762.698173	0.322924
762.893586	0.322778
763.088981	0.322515
763.284358	0.322449
763.479716	0.322398
763.675057	0.321893
763.870379	0.321663
764.065683	0.321488
764.260968	0.321339
764.456236	0.321124
764.651485	0.320859
764.846716	0.320763
765.041929	0.320614
765.237123	0.320666
765.432299	0.320521
765.627457	0.320441
765.822597	0.320382
766.017719	0.320211
766.212822	0.320282
766.407907	0.320455
766.602974	0.320640
766.798023	0.320653
766.993054	0.320264
767.188066	0.320587
767.383060	0.320584
767.578036	0.320399
767.772993	0.320314
767.967933	0.320043
768.162854	0.319409
768.357757	0.319161
768.552642	0.318957
768.747508	0.318960
768.942356	0.318539
769.137186	0.318505
769.331998	0.318653
769.526792	0.318565
769.721567	0.318235
769.916324	0.318375
770.111063	0.317909
770.305784	0.317669
770.500486	0.317599
770.695171	0.317783
770.889837	0.317686
771.084484	0.317156
771.279114	0.317082
771.473725	0.317254
771.668318	0.317102
771.862893	0.317297
772.057450	0.317624
772.251988	0.317150
772.446509	0.316898
772.641011	0.316569
772.835494	0.316819
773.029960	0.316729
773.224407	0.316555
773.418836	0.316570
773.613247	0.316494
773.807640	0.316191
774.002014	0.316338
774.196370	0.316184
774.390708	0.316116
774.585028	0.315812
774.779330	0.315591
774.973613	0.315417
775.167878	0.315205
775.362125	0.315182
775.556354	0.314913
775.750564	0.314887
775.944756	0.314821
776.138930	0.314831
776.333086	0.314987
776.527223	0.314847
776.721343	0.315049
776.915444	0.315094
777.109526	0.314866
777.303591	0.315195
777.497637	0.315264
777.691666	0.315492
777.885676	0.315465
778.079667	0.315325
778.273641	0.315504
778.467596	0.315384
778.661533	0.315447
778.855452	0.315753
779.049352	0.315461
779.243235	0.315342
779.437099	0.315196
779.630945	0.315323
779.824773	0.315379
780.018582	0.315081
780.212373	0.314722
780.406146	0.314579
780.599901	0.314279
780.793638	0.314219
780.987356	0.314484
781.181056	0.314363
781.374738	0.314331
781.568402	0.314210
781.762047	0.314397
781.955674	0.314597
782.149283	0.314711
782.342874	0.314927
782.536447	0.315338
782.730001	0.314996
782.923537	0.314770
783.117055	0.314774
783.310555	0.314601
783.504036	0.314580
783.697499	0.314659
783.890944	0.314677
784.084371	0.314374
784.277780	0.313966
784.471170	0.313972
784.664542	0.313993
784.857896	0.314077
785.051231	0.314265
785.244549	0.314204
785.437848	0.314269
785.631129	0.314103
785.824392	0.314299
786.017636	0.314402
786.210863	0.314341
786.404071	0.314707
786.597260	0.314688
786.790432	0.314511
786.983585	0.314851
787.176721	0.314773
787.369838	0.314929
787.562936	0.314807
787.756017	0.314791
787.949079	0.314975
788.142123	0.314532
788.335149	0.314542
788.528156	0.314901
788.721146	0.314618
788.914117	0.314564
789.107070	0.314519
789.300005	0.314667
789.492921	0.314915
789.685819	0.314896
789.878699	0.315098
790.071561	0.315195
790.264405	0.314949
790.457230	0.315131
790.650037	0.315576
790.842826	0.315837
791.035597	0.315968
791.228349	0.315893
791.421084	0.315757
791.613800	0.316107
791.806497	0.315914
791.999177	0.316269
792.191838	0.316300
792.384481	0.316310
792.577106	0.316091
792.769713	0.316340
792.962301	0.316259
793.154871	0.316576
793.347423	0.316446
793.539957	0.316650
793.732473	0.316622
793.924970	0.316759
794.117449	0.316515
794.309910	0.316548
794.502353	0.316325
794.694777	0.316489
794.887183	0.316588
795.079571	0.316804
795.271941	0.316906
795.464293	0.317363
795.656626	0.317441
795.848941	0.317862
796.041238	0.318221
796.233516	0.318245
796.425777	0.318666
796.618019	0.318801
796.810243	0.319077
797.002449	0.319236
797.194636	0.319071
797.386805	0.319377
797.578956	0.319440
797.771089	0.319564
797.963204	0.320066
798.155300	0.320210
798.347378	0.320591
798.539438	0.320538
798.731480	0.320771
798.923503	0.321031
799.115509	0.321119
799.307496	0.321204
799.499465	0.321689
799.691415	0.321804
799.883348	0.321596
800.075262	0.321430
800.267158	0.321669
800.459035	0.321806
800.650895	0.321997
800.842736	0.321962
801.034559	0.322502
801.226364	0.322572
801.418150	0.322562
801.609919	0.322981
801.801669	0.323374
801.993401	0.323931
802.185114	0.324049
802.376810	0.324098
802.568487	0.324423
802.760146	0.324231
802.951787	0.324397
803.143409	0.324704
803.335014	0.324950
803.526600	0.325007
803.718168	0.324683
803.909717	0.324988
804.101249	0.325333
804.292762	0.325648
804.484257	0.325890
804.675734	0.326002
804.867192	0.326215
805.058632	0.326352
805.250054	0.326481
805.441458	0.326853
805.632844	0.327441
805.824211	0.327668
806.015561	0.327903
806.206891	0.328498
806.398204	0.328670
806.589499	0.328812
806.780775	0.328947
806.972033	0.329300
807.163273	0.329872
807.354495	0.329815
807.545698	0.329917
807.736883	0.329849
807.928050	0.329964
808.119199	0.330069
808.310329	0.330839
808.501441	0.331339
808.692535	0.331800
808.883611	0.331548
809.074669	0.331678
809.265708	0.331924
809.456729	0.332490
809.647732	0.332807
809.838717	0.333241
810.029683	0.333133
810.220632	0.333741
810.411562	0.333747
810.602474	0.334296
810.793367	0.334752
810.984242	0.335005
811.175100	0.335390
811.365938	0.335350
811.556759	0.335627
811.747562	0.336209
811.938346	0.336172
812.129112	0.336910
812.319860	0.337348
812.510589	0.337487
812.701300	0.338056
812.891994	0.337975
813.082668	0.338403
813.273325	0.338883
813.463964	0.338893
813.654584	0.339183
813.845186	0.339082
814.035769	0.339129
814.226335	0.339425
814.416882	0.339350
814.607411	0.339721
814.797922	0.340160
814.988415	0.340469
815.178889	0.340807
815.369345	0.341212
815.559783	0.341597
815.750203	0.341672
815.940605	0.342066
816.130988	0.342488
816.321353	0.342707
816.511700	0.342840
816.702028	0.343096
816.892339	0.343105
817.082631	0.343268
817.272905	0.343419
817.463161	0.344081
817.653398	0.344429
817.843617	0.344479
818.033819	0.344726
818.224001	0.344961
818.414166	0.345087
818.604312	0.345995
818.794440	0.346049
818.984550	0.346661
819.174642	0.347080
819.364716	0.347289
819.554771	0.347901
819.744808	0.348264
819.934827	0.348753
820.124827	0.349099
820.314810	0.349183
820.504774	0.349500
820.694720	0.349481
820.884647	0.349841
821.074557	0.350196
821.264448	0.350769
821.454321	0.351294
821.644176	0.351506
821.834012	0.351999
822.023831	0.352294
822.213631	0.352852
822.403413	0.353200
822.593176	0.353387
822.782922	0.353812
822.972649	0.353934
823.162358	0.354317
823.352049	0.354927
823.541721	0.355332
823.731376	0.355593
823.921012	0.356321
824.110629	0.357131
824.300229	0.357389
824.489811	0.357714
824.679374	0.358126
824.868919	0.358619
825.058445	0.359000
825.247954	0.359379
825.437444	0.359944
825.626916	0.360201
825.816370	0.360502
826.005806	0.360628
826.195223	0.361050
826.384622	0.361488
826.574003	0.361590
826.763366	0.361905
826.952711	0.362073
827.142037	0.362308
827.331345	0.362550
827.520635	0.362978
827.709906	0.364001
827.899160	0.364534
828.088395	0.365042
828.277612	0.365625
828.466810	0.366173
828.655991	0.366897
828.845153	0.367478
829.034297	0.367940
829.223423	0.368271
829.412531	0.368608
829.601620	0.368902
829.790691	0.368955
829.979744	0.369509
830.168779	0.369968
830.357795	0.370379
830.546793	0.370801
830.735773	0.371130
830.924735	0.371912
831.113679	0.372310
831.302604	0.372723
831.491511	0.373162
831.680400	0.373305
831.869271	0.373134
832.058123	0.373451
832.246957	0.373940
832.435773	0.374408
832.624571	0.374355
832.813351	0.374746
833.002112	0.374953
833.190855	0.375675
833.379580	0.376392
833.568287	0.377011
833.756975	0.376942
833.945645	0.377284
834.134297	0.377458
834.322931	0.377808
834.511547	0.378193
834.700144	0.378872
834.888723	0.379312
835.077284	0.379730
835.265826	0.380462
835.454351	0.381180
835.642857	0.381091
835.831345	0.381768
836.019815	0.381987
836.208266	0.382114
836.396699	0.382259
836.585114	0.382755
836.773511	0.382989
836.961890	0.383189
837.150250	0.383378
837.338592	0.384294
837.526916	0.384835
837.715222	0.385615
837.903510	0.386194
838.091779	0.386983
838.280030	0.387276
838.468263	0.387756
838.656477	0.388487
838.844674	0.389113
839.032852	0.389372
839.221012	0.389281
839.409153	0.389563
839.597277	0.390206
839.785382	0.390419
839.973469	0.390989
840.161538	0.391489
840.349589	0.391738
840.537621	0.392288
840.725635	0.392659
840.913631	0.393267
841.101609	0.393946
841.289568	0.394168
841.477509	0.394666
841.665432	0.394750
841.853337	0.395186
842.041224	0.395686
842.229092	0.396112
842.416942	0.396831
842.604774	0.397804
842.792588	0.398321
842.980383	0.398768
843.168160	0.399182
843.355919	0.399835
843.543660	0.400097
843.731382	0.400705
843.919087	0.401190
844.106773	0.401328
844.294441	0.401213
844.482090	0.401639
844.669722	0.402274
844.857335	0.402604
845.044930	0.402951
845.232507	0.403792
845.420065	0.404270
845.607605	0.404634
845.795127	0.405440
845.982631	0.405894
846.170117	0.406186
846.357584	0.406487
846.545033	0.407446
846.732464	0.407907
846.919877	0.407932
847.107272	0.408174
847.294648	0.408588
847.482006	0.408770
847.669346	0.409371
847.856667	0.409566
848.043971	0.410095
848.231256	0.410044
848.418523	0.410445
848.605771	0.411609
848.793002	0.412024
848.980214	0.412498
849.167408	0.412976
849.354584	0.413557
849.541742	0.414343
849.728881	0.414853
849.916002	0.415150
850.103105	0.415826
850.290190	0.416167
850.477256	0.416599
850.664304	0.417017
850.851334	0.417557
851.038346	0.417754
851.225340	0.418123
851.412315	0.418325
851.599272	0.418889
851.786211	0.419095
851.973132	0.419016
852.160034	0.419357
852.346918	0.419820
852.533784	0.420180
852.720632	0.421176
852.907462	0.421802
853.094273	0.422366
853.281066	0.423427
853.467841	0.424329
853.654598	0.424965
853.841336	0.425492
854.028056	0.426420
854.214758	0.426981
854.401442	0.427381
854.588107	0.427854
854.774755	0.428269
854.961384	0.428068
855.147995	0.428327
855.334587	0.428618
855.521162	0.429464
855.707718	0.429447
855.894256	0.429827
856.080775	0.430152
856.267277	0.430436
856.453760	0.431094
856.640225	0.431653
856.826672	0.432108
857.013101	0.432939
857.199511	0.432840
857.385903	0.433409
857.572277	0.433682
857.758633	0.433968
857.944970	0.434187
858.131290	0.434328
858.317591	0.434664
858.503873	0.434789
858.690138	0.434604
858.876384	0.434926
859.062612	0.435158
859.248822	0.435933
859.435014	0.436305
859.621188	0.436732
859.807343	0.437647
859.993480	0.438222
860.179599	0.438579
860.365699	0.439403
860.551781	0.440086
860.737846	0.440631
860.923891	0.440871
861.109919	0.441518
861.295929	0.442005
861.481920	0.441653
861.667893	0.442010
861.853848	0.442908
862.039784	0.443161
862.225702	0.443541
862.411603	0.443888
862.597484	0.444306
862.783348	0.444501
862.969193	0.445312
863.155021	0.446209
863.340830	0.446724
863.526620	0.447165
863.712393	0.447853
863.898147	0.448032
864.083883	0.448326
864.269601	0.448678
864.455301	0.449295
864.640982	0.449691
864.826645	0.449890
865.012290	0.450396
865.197917	0.450446
865.383526	0.450661
865.569116	0.451445
865.754688	0.452230
865.940242	0.452312
866.125777	0.452338
866.311295	0.451957
866.496794	0.452551
866.682275	0.452949
866.867737	0.453570
867.053182	0.454106
867.238608	0.454199
867.424016	0.454332
867.609406	0.455025
867.794778	0.455254
867.980131	0.456343
868.165466	0.456654
868.350783	0.456865
868.536082	0.456876
868.721362	0.457379
868.906625	0.457742
869.091869	0.457935
869.277094	0.457913
869.462302	0.458365
869.647491	0.458623
869.832662	0.458887
870.017815	0.459105
870.202950	0.459494
870.388066	0.459502
870.573165	0.459643
870.758245	0.459585
870.943306	0.460459
871.128350	0.460959
871.313375	0.460933
871.498382	0.461023
871.683371	0.461358
871.868342	0.461850
872.053294	0.461966
872.238229	0.462373
872.423144	0.463217
872.608042	0.462699
872.792922	0.462916
872.977783	0.463197
873.162626	0.463322
873.347451	0.463361
873.532258	0.463275
873.717046	0.463643
873.901816	0.464295
874.086568	0.464289
874.271302	0.465625
874.456017	0.465803
874.640715	0.465948
874.825394	0.466703
875.010055	0.467148
875.194697	0.467601
875.379322	0.467061
875.563928	0.467110
875.748516	0.467166
875.933085	0.467179
876.117637	0.467346
876.302170	0.467519
876.486685	0.467714
876.671182	0.467545
876.855661	0.467005
877.040121	0.467666
877.224563	0.467690
877.408987	0.467926
877.593393	0.467746
877.777780	0.467248
877.962150	0.467523
878.146501	0.467477
878.330833	0.468050
878.515148	0.468916
878.699444	0.468988
878.883722	0.469388
879.067982	0.469876
879.252224	0.469821
879.436447	0.471118
879.620653	0.471369
879.804840	0.471399
879.989008	0.471554
880.173159	0.471451
880.357291	0.472023
880.541405	0.471478
880.725501	0.471693
880.909579	0.471995
881.093638	0.471676
881.277680	0.471467
881.461703	0.471717
881.645707	0.471883
881.829694	0.471802
882.013662	0.471793
882.197612	0.472623
882.381544	0.472454
882.565458	0.472642
882.749353	0.472633
882.933230	0.473257
883.117089	0.473574
883.300930	0.473771
883.484753	0.474466
883.668557	0.475171
883.852343	0.475336
884.036111	0.474906
884.219861	0.474876
884.403592	0.475109
884.587305	0.475187
884.771000	0.475313
884.954677	0.475441
885.138335	0.475396
885.321976	0.474927
885.505598	0.474615
885.689201	0.475361
885.872787	0.476111
886.056354	0.476659
886.239904	0.476659
886.423434	0.476844
886.606947	0.476816
886.790442	0.476951
886.973918	0.477227
887.157376	0.477263
887.340816	0.477689
887.524237	0.476981
887.707641	0.476734
887.891026	0.476567
888.074393	0.476286
888.257741	0.475887
888.441072	0.475534
888.624384	0.474928
888.807678	0.474870
888.990954	0.474329
889.174211	0.474723
889.357451	0.474438
889.540672	0.474543
889.723875	0.474220
889.907059	0.474116
890.090226	0.474496
890.273374	0.474759
890.456504	0.475151
890.639616	0.475369
890.822709	0.474963
891.005785	0.474871
891.188842	0.474692
891.371881	0.474747
891.554901	0.474785
891.737904	0.474460
891.920888	0.474484
892.103854	0.473657
892.286802	0.473724
892.469731	0.473443
892.652643	0.472868
892.835536	0.472758
893.018410	0.472741
893.201267	0.472865
893.384106	0.473012
893.566926	0.472955
893.749728	0.473040
893.932511	0.472754
894.115277	0.472775
894.298024	0.472701
894.480753	0.472467
894.663464	0.472079
894.846157	0.472199
895.028831	0.471802
895.211487	0.471427
895.394125	0.471102
895.576745	0.470217
895.759346	0.469992
895.941930	0.469925
896.124495	0.469474
896.307041	0.470193
896.489570	0.469520
896.672080	0.469498
896.854573	0.469520
897.037046	0.469291
897.219502	0.469584
897.401940	0.469627
897.584359	0.469769
897.766760	0.469965
897.949143	0.469354
898.131507	0.468757
898.313854	0.467996
898.496182	0.467795
898.678492	0.467930
898.860783	0.467814
899.043057	0.467247
899.225312	0.467354
899.407549	0.466869
899.589768	0.467101
899.771968	0.467578
899.954151	0.467222
900.136315	0.466695
900.318461	0.466409
900.500588	0.466462
900.682698	0.466129
900.864789	0.465243
901.046862	0.465278
901.228917	0.464392
901.410953	0.463838
901.592971	0.464271
901.774972	0.464257
901.956953	0.463865
902.138917	0.463237
902.320862	0.463314
902.502790	0.463303
902.684699	0.462897
902.866589	0.462476
903.048462	0.462219
903.230316	0.461735
903.412152	0.461108
903.593970	0.460442
903.775770	0.459875
903.957551	0.459942
904.139314	0.459526
904.321059	0.459026
904.502786	0.458595
904.684494	0.458107
904.866185	0.457379
905.047857	0.456418
905.229510	0.456557
905.411146	0.455905
905.592763	0.454675
905.774363	0.454132
905.955943	0.453316
906.137506	0.452247
906.319051	0.451987
906.500577	0.451733
906.682085	0.451561
906.863575	0.450870
907.045046	0.450279
907.226500	0.449868
907.407935	0.449585
907.589352	0.449812
907.770750	0.450115
907.952131	0.449674
908.133493	0.449106
908.314837	0.449255
908.496163	0.449115
908.677470	0.448676
908.858760	0.448451
909.040031	0.447582
909.221284	0.447022
909.402518	0.445464
909.583735	0.444096
909.764933	0.444188
909.946113	0.443495
910.127275	0.443193
910.308418	0.442642
910.489544	0.442731
910.670651	0.442013
910.851740	0.441622
911.032810	0.441763
911.213863	0.442134
911.394897	0.441083
911.575913	0.440372
911.756911	0.439235
911.937890	0.438687
912.118851	0.437161
912.299794	0.436869
912.480719	0.435970
912.661626	0.436246
912.842514	0.435393
913.023384	0.434808
913.204236	0.434553
913.385070	0.434246
913.565886	0.433878
913.746683	0.433622
913.927462	0.433598
914.108223	0.433013
914.288965	0.431870
914.469690	0.431770
914.650396	0.430791
914.831084	0.429534
915.011754	0.428905
915.192405	0.428114
915.373038	0.426858
915.553653	0.425734
915.734250	0.425337
915.914829	0.424520
916.095389	0.423912
916.275931	0.423974
916.456455	0.423397
916.636961	0.423035
916.817448	0.422482
916.997917	0.422464
917.178368	0.421482
917.358801	0.420257
917.539216	0.419614
917.719612	0.418247
917.899990	0.417333
918.080350	0.416950
918.260692	0.415791
918.441015	0.414704
918.621320	0.414217
918.801607	0.414453
918.981876	0.414074
919.162127	0.413162
919.342359	0.412679
919.522573	0.412053
919.702769	0.411714
919.882947	0.411044
920.063106	0.411549
920.243247	0.410351
920.423370	0.409072
920.603475	0.408218
920.783562	0.406956
920.963630	0.406247
921.143680	0.405077
921.323712	0.402927
921.503725	0.401643
921.683721	0.399958
921.863698	0.399504
922.043657	0.398744
922.223598	0.398035
922.403520	0.397618
922.583424	0.396391
922.763311	0.396119
922.943178	0.396007
923.123028	0.396127
923.302859	0.395937
923.482673	0.394376
923.662467	0.393220
923.842244	0.392447
924.022003	0.391912
924.201743	0.391831
924.381465	0.390129
924.561169	0.389468
924.740854	0.388023
924.920522	0.386702
925.100171	0.385828
925.279802	0.385345
925.459414	0.384294
925.639009	0.383480
925.818585	0.381953
925.998143	0.381128
926.177683	0.379609
926.357205	0.378389
926.536708	0.377652
926.716193	0.377414
926.895660	0.376049
927.075109	0.375034
927.254539	0.374249
927.433951	0.373648
927.613345	0.372835
927.792721	0.372337
927.972079	0.371708
928.151418	0.370651
928.330739	0.370160
928.510042	0.370434
928.689327	0.369292
928.868593	0.367339
929.047841	0.366168
929.227071	0.364545
929.406283	0.363564
929.585476	0.361470
929.764652	0.360962
929.943809	0.359383
930.122948	0.356951
930.302068	0.356068
930.481171	0.355870
930.660255	0.354811
930.839321	0.354645
931.018369	0.353917
931.197398	0.354676
931.376409	0.352814
931.555402	0.351714
931.734377	0.351719
931.913334	0.351073
932.092272	0.349934
932.271192	0.348723
932.450094	0.347817
932.628978	0.346730
932.807844	0.344478
932.986691	0.343481
933.165520	0.342732
933.344331	0.341599
933.523123	0.339972
933.701898	0.338925
933.880654	0.337780
934.059392	0.336064
934.238111	0.335574
934.416813	0.335352
934.595496	0.335322
934.774161	0.333917
934.952808	0.333152
935.131437	0.331605
935.310047	0.330625
935.488639	0.329434
935.667213	0.327884
935.845769	0.327082
936.024306	0.326025
936.202825	0.323671
936.381326	0.322192
936.559809	0.320879
936.738274	0.321013
936.916720	0.319480
937.095148	0.318078
937.273558	0.317815
937.451950	0.315537
937.630323	0.313831
937.808678	0.313491
937.987015	0.312943
938.165334	0.311925
938.343635	0.310218
938.521917	0.309287
938.700181	0.309091
938.878427	0.308692
939.056655	0.307803
939.234864	0.306693
939.413055	0.304718
939.591228	0.303579
939.769383	0.301325
939.947519	0.301589
940.125638	0.301210
940.303738	0.299849
940.481820	0.298249
940.659883	0.297008
940.837929	0.296532
941.015956	0.297435
941.193965	0.296255
941.371955	0.295294
941.549928	0.293459
941.727882	0.291910
941.905818	0.289984
942.083736	0.288968
942.261636	0.287221
942.439517	0.286247
942.617380	0.284157
942.795225	0.283207
942.973052	0.281426
943.150860	0.279035
943.328651	0.277463
943.506423	0.276481
943.684176	0.273603
943.861912	0.272847
944.039629	0.270340
944.217328	0.268519
944.395009	0.267701
944.572672	0.267032
944.750317	0.265676
944.927943	0.264911
945.105551	0.265815
945.283141	0.266412
945.460712	0.265813
945.638265	0.265887
945.815801	0.264856
945.993317	0.262192
946.170816	0.260050
946.348297	0.261297
946.525759	0.259105
946.703203	0.255660
946.880629	0.253887
947.058036	0.250663
947.235425	0.250021
947.412797	0.249164
947.590149	0.248509
947.767484	0.247828
947.944800	0.243765
948.122099	0.243802
948.299379	0.243337
948.476640	0.242404
948.653884	0.242249
948.831109	0.238660
949.008316	0.236795
949.185505	0.235264
949.362676	0.234474
949.539828	0.234561
949.716962	0.232264
949.894078	0.230289
950.071176	0.230817
950.248256	0.230467
950.425317	0.230697
950.602360	0.229056
950.779385	0.227149
950.956391	0.226590
951.133380	0.225208
951.310350	0.224233
951.487302	0.224205
951.664235	0.220473
951.841151	0.217273
952.018048	0.215437
952.194927	0.213928
952.371788	0.214938
952.548631	0.213151
952.725455	0.212384
952.902261	0.210414
953.079049	0.207220
953.255819	0.206719
953.432570	0.205597
953.609303	0.205079
953.786018	0.203399
953.962715	0.200633
954.139394	0.199770
954.316054	0.198250
954.492696	0.199475
954.669320	0.199767
954.845926	0.198293
955.022513	0.198312
955.199083	0.195069
955.375634	0.193650
955.552166	0.192310
955.728681	0.190581
955.905177	0.188833
956.081655	0.186320
956.258115	0.185426
956.434557	0.185138
956.610980	0.184576
956.787385	0.186220
956.963772	0.186485
957.140141	0.185959
957.316492	0.184904
957.492824	0.183987
957.669138	0.182718
957.845434	0.180252
958.021712	0.179718
958.197971	0.178016
958.374212	0.176807
958.550435	0.176762
958.726640	0.176383
958.902826	0.175506
959.078995	0.178162
959.255145	0.177139
959.431277	0.177989
959.607390	0.175545
959.783486	0.175523
959.959563	0.173035
960.135622	0.172151
960.311662	0.170910
960.487685	0.171080
960.663689	0.167890
960.839675	0.168551
961.015643	0.167199
961.191593	0.166058
961.367524	0.167193
961.543437	0.166393
961.719332	0.165650
961.895209	0.168173
962.071067	0.166282
962.246907	0.164231
962.422730	0.162271
962.598533	0.160549
962.774319	0.161337
962.950086	0.157878
963.125835	0.159590
963.301566	0.159275
963.477279	0.155381
963.652973	0.154730
963.828650	0.154424
964.004308	0.154529
964.179947	0.155793
964.355569	0.155047
964.531172	0.155842
964.706757	0.152561
964.882324	0.152176
965.057873	0.153631
965.233403	0.155104
965.408916	0.155200
965.584410	0.155885
965.759885	0.155981
965.935343	0.154093
966.110782	0.154388
966.286203	0.155573
966.461606	0.154332
966.636991	0.151881
966.812357	0.151300
966.987705	0.153217
967.163035	0.152825
967.338347	0.152414
967.513641	0.156781
967.688916	0.158246
967.864173	0.159391
968.039412	0.159715
968.214632	0.160918
968.389835	0.161413
968.565019	0.158787
968.740185	0.156843
968.915333	0.157205
969.090462	0.152605
969.265573	0.150980
969.440667	0.150659
969.615741	0.149274
969.790798	0.147657
969.965836	0.145891
970.140856	0.147548
970.315858	0.149538
970.490842	0.147608
970.665808	0.148299
970.840755	0.148326
971.015684	0.148175
971.190595	0.148791
971.365487	0.151427
971.540362	0.152008
971.715218	0.151087
971.890056	0.148693
972.064875	0.149558
972.239677	0.151433
972.414460	0.151781
972.589225	0.151588
972.763972	0.153703
972.938700	0.152482
973.113411	0.153338
973.288103	0.153634
973.462777	0.153718
973.637432	0.153729
973.812070	0.152882
973.986689	0.151260
974.161290	0.150184
974.335873	0.146209
974.510437	0.147104
974.684984	0.143931
974.859512	0.143776
975.034022	0.144419
975.208513	0.146484
975.382987	0.145995
975.557442	0.146540
975.731879	0.145946
975.906298	0.150196
976.080698	0.148548
976.255080	0.149769
976.429445	0.150506
976.603790	0.149541
976.778118	0.146380
976.952427	0.146468
977.126719	0.146197
977.300992	0.146979
977.475246	0.144611
977.649483	0.143651
977.823701	0.143576
977.997901	0.142937
978.172083	0.143736
978.346247	0.143929
978.520392	0.145606
978.694519	0.147702
978.868628	0.148714
979.042719	0.149673
979.216791	0.150028
979.390845	0.150169
979.564882	0.148411
979.738899	0.147990
979.912899	0.147736
980.086880	0.147796
980.260843	0.146515
980.434788	0.145212
980.608715	0.143240
980.782623	0.146036
980.956514	0.148116
981.130386	0.149639
981.304240	0.152210
981.478075	0.153833
981.651892	0.150244
981.825692	0.150001
981.999472	0.148926
982.173235	0.149553
982.346980	0.148418
982.520706	0.146918
982.694414	0.146818
982.868104	0.146231
983.041775	0.147300
983.215428	0.149741
983.389064	0.149573
983.562680	0.152741
983.736279	0.152878
983.909860	0.151180
984.083422	0.151470
984.256966	0.151628
984.430491	0.150176
984.603999	0.148109
984.777488	0.149564
984.950959	0.147680
985.124412	0.146214
985.297847	0.145311
985.471263	0.145655
985.644661	0.145789
985.818041	0.146062
985.991403	0.145416
986.164747	0.147781
986.338072	0.145953
986.511379	0.148146
986.684668	0.148465
986.857938	0.150477
987.031191	0.151557
987.204425	0.151739
987.377641	0.150853
987.550839	0.150169
987.724018	0.147849
987.897179	0.148977
988.070322	0.147369
988.243447	0.146251
988.416554	0.144654
988.589642	0.143877
988.762712	0.142972
988.935764	0.144232
989.108798	0.145224
989.281813	0.144192
989.454811	0.143412
989.627790	0.146403
989.800751	0.148393
989.973693	0.149285
990.146617	0.150690
990.319524	0.151044
990.492412	0.149290
990.665281	0.149527
990.838133	0.150373
991.010966	0.150230
991.183781	0.146489
991.356578	0.146882
991.529356	0.146633
991.702117	0.146520
991.874859	0.145881
992.047583	0.145733
992.220288	0.145017
992.392976	0.145038
992.565645	0.146508
992.738296	0.148291
992.910929	0.145151
993.083543	0.145290
993.256139	0.143898
993.428718	0.144418
993.601277	0.144689
993.773819	0.146814
993.946342	0.146665
994.118848	0.145262
994.291335	0.145319
994.463803	0.146249
994.636254	0.146854
994.808686	0.148779
994.981100	0.147929
995.153496	0.150866
995.325874	0.148958
995.498233	0.149317
995.670574	0.150228
995.842897	0.151239
996.015202	0.152799
996.187488	0.152290
996.359757	0.150748
996.532007	0.152414
996.704239	0.149316
996.876452	0.148976
997.048648	0.150182
997.220825	0.149757
997.392984	0.146322
997.565124	0.146216
997.737247	0.145459
997.909351	0.145088
998.081437	0.145676
998.253505	0.144915
998.425554	0.144942
998.597586	0.143319
998.769599	0.142354
998.941594	0.142205
999.113571	0.142056
999.285529	0.142662
999.457469	0.143157
999.629391	0.141146
999.801295	0.142277
999.973181	0.142189
1000.145048	0.143955
1000.316897	0.142606
1000.488728	0.146752
1000.660541	0.146618
1000.832335	0.146927
1001.004111	0.147668
1001.175869	0.148306
1001.347609	0.148035
1001.519331	0.149639
1001.691034	0.149603
1001.862719	0.154156
1002.034386	0.151260
1002.206035	0.152142
1002.377665	0.153993
1002.549277	0.153478
1002.720871	0.153895
1002.892447	0.154158
1003.064004	0.155479
1003.235544	0.153111
1003.407065	0.151524
1003.578568	0.154724
1003.750052	0.152728
1003.921519	0.150682
1004.092967	0.150254
1004.264397	0.150386
1004.435809	0.152412
1004.607202	0.148777
1004.778577	0.150546
1004.949934	0.150930
1005.121273	0.147665
1005.292594	0.148391
1005.463896	0.149167
1005.635180	0.151686
1005.806446	0.150842
1005.977694	0.148881
1006.148923	0.149783
1006.320135	0.149571
1006.491328	0.149330
1006.662503	0.150719
1006.833659	0.151142
1007.004798	0.150384
1007.175918	0.149142
1007.347020	0.150444
1007.518103	0.150746
1007.689169	0.149923
1007.860216	0.148779
1008.031245	0.147689
1008.202256	0.148175
1008.373248	0.149282
1008.544223	0.150780
1008.715179	0.149675
1008.886117	0.148557
1009.057036	0.150012
1009.227938	0.151608
1009.398821	0.152659
1009.569686	0.151721
1009.740533	0.148946
1009.911361	0.148093
1010.082172	0.146822
1010.252964	0.147614
1010.423738	0.147704
1010.594493	0.147034
1010.765231	0.148095
1010.935950	0.147597
1011.106651	0.149061
1011.277334	0.150211
1011.447998	0.149900
1011.618645	0.149117
1011.789273	0.149267
1011.959882	0.150838
1012.130474	0.150294
1012.301048	0.150896
1012.471603	0.153220
1012.642140	0.153025
1012.812658	0.153117
1012.983159	0.153633
1013.153641	0.154207
1013.324105	0.153018
1013.494551	0.151741
1013.664979	0.152194
1013.835388	0.151750
1014.005779	0.151144
1014.176152	0.150938
1014.346507	0.151078
1014.516843	0.149614
1014.687162	0.149380
1014.857462	0.150338
1015.027744	0.150377
1015.198007	0.148224
1015.368252	0.145845
1015.538480	0.144238
1015.708689	0.142796
1015.878879	0.143493
1016.049052	0.143398
1016.219206	0.144102
1016.389342	0.142831
1016.559460	0.144144
1016.729559	0.144655
1016.899641	0.147006
1017.069704	0.147370
1017.239749	0.147195
1017.409775	0.146594
1017.579784	0.145701
1017.749774	0.145254
1017.919746	0.145651
1018.089700	0.144352
1018.259635	0.146919
1018.429553	0.144595
1018.599452	0.143780
1018.769333	0.145166
1018.939195	0.145515
1019.109040	0.147198
1019.278866	0.146786
1019.448674	0.147462
1019.618464	0.147075
1019.788235	0.145900
1019.957989	0.146941
1020.127724	0.147979
1020.297441	0.150056
1020.467139	0.150655
1020.636820	0.151348
1020.806482	0.152493
1020.976126	0.151689
1021.145752	0.152185
1021.315359	0.151140
1021.484948	0.152233
1021.654519	0.152393
1021.824072	0.150523
1021.993607	0.151793
1022.163123	0.150384
1022.332621	0.148567
1022.502101	0.150156
1022.671563	0.148897
1022.841007	0.149836
1023.010432	0.149854
1023.179839	0.150658
1023.349228	0.150249
1023.518598	0.149382
1023.687951	0.150051
1023.857285	0.151860
1024.026601	0.151375
1024.195899	0.152119
1024.365178	0.151486
1024.534439	0.150969
1024.703682	0.150355
1024.872907	0.149585
1025.042114	0.147990
1025.211302	0.147432
1025.380472	0.146146
1025.549624	0.145313
1025.718758	0.145766
1025.887873	0.146568
1026.056970	0.147478
1026.226049	0.146882
1026.395110	0.148017
1026.564153	0.147602
1026.733177	0.147230
1026.902183	0.147914
1027.071171	0.147345
1027.240141	0.146719
1027.409092	0.144119
1027.578026	0.140755
1027.746940	0.142252
1027.915837	0.141481
1028.084716	0.141294
1028.253576	0.140264
1028.422418	0.139898
1028.591242	0.139439
1028.760048	0.137935
1028.928835	0.139938
1029.097604	0.141696
1029.266355	0.140632
1029.435088	0.141533
1029.603803	0.141661
1029.772499	0.142542
1029.941177	0.141289
1030.109837	0.141191
1030.278478	0.142828
1030.447102	0.142256
1030.615707	0.143440
1030.784294	0.142960
1030.952863	0.143259
1031.121413	0.144834
1031.289945	0.146894
1031.458460	0.149514
1031.626955	0.149772
1031.795433	0.148896
1031.963892	0.148476
1032.132334	0.147276
1032.300756	0.145549
1032.469161	0.145444
1032.637548	0.145542
1032.805916	0.143508
1032.974266	0.143477
1033.142598	0.142354
1033.310911	0.144165
1033.479207	0.145606
1033.647484	0.147099
1033.815743	0.149623
1033.983983	0.149041
1034.152206	0.148097
1034.320410	0.146810
1034.488596	0.146207
1034.656764	0.146703
1034.824914	0.146531
1034.993045	0.145040
1035.161158	0.141722
1035.329253	0.140251
1035.497330	0.139187
1035.665388	0.138597
1035.833428	0.139672
1036.001450	0.138311
1036.169454	0.140529
1036.337440	0.138254
1036.505407	0.138595
1036.673356	0.140972
1036.841287	0.139869
1037.009200	0.141664
1037.177094	0.144147
1037.344970	0.146628
1037.512828	0.147944
1037.680668	0.145992
1037.848489	0.145860
1038.016293	0.146419
1038.184078	0.147312
1038.351845	0.149065
1038.519593	0.148642
1038.687324	0.146127
1038.855036	0.142116
1039.022730	0.142092
1039.190406	0.142254
1039.358063	0.143874
1039.525702	0.143367
1039.693323	0.141586
1039.860926	0.141671
1040.028511	0.139689
1040.196077	0.139794
1040.363625	0.143435
1040.531155	0.143071
1040.698667	0.142615
1040.866161	0.141948
1041.033636	0.141455
1041.201093	0.142556
1041.368532	0.143168
1041.535952	0.144236
1041.703355	0.144446
1041.870739	0.144964
1042.038105	0.145260
1042.205452	0.147561
1042.372782	0.148010
1042.540093	0.149138
1042.707386	0.150070
1042.874661	0.149284
1043.041918	0.149273
1043.209156	0.149226
1043.376376	0.146466
1043.543578	0.146247
1043.710762	0.145904
1043.877927	0.144268
1044.045074	0.145841
1044.212203	0.144259
1044.379314	0.145349
1044.546407	0.144710
1044.713481	0.144653
1044.880537	0.145567
1045.047575	0.145263
1045.214595	0.146781
1045.381596	0.146876
1045.548579	0.144334
1045.715544	0.145358
1045.882491	0.144707
1046.049420	0.144238
1046.216330	0.144809
1046.383222	0.144687
1046.550096	0.144277
1046.716951	0.140525
1046.883789	0.142994
1047.050608	0.142638
1047.217409	0.141364
1047.384192	0.142593
1047.550956	0.144316
1047.717703	0.145049
1047.884431	0.146163
1048.051140	0.148139
1048.217832	0.150102
1048.384505	0.149472
1048.551161	0.150939
1048.717798	0.150700
1048.884416	0.149060
1049.051017	0.147807
1049.217599	0.146723
1049.384163	0.146966
1049.550709	0.144844
1049.717237	0.144906
1049.883746	0.143197
1050.050237	0.140926
1050.216710	0.140547
1050.383165	0.141062
1050.549601	0.140102
1050.716019	0.138677
1050.882420	0.138532
1051.048801	0.139231
1051.215165	0.140972
1051.381510	0.142736
1051.547837	0.143739
1051.714146	0.143979
1051.880437	0.143334
1052.046709	0.144645
1052.212964	0.145011
1052.379200	0.144504
1052.545417	0.143999
1052.711617	0.141794
1052.877798	0.142454
1053.043961	0.142588
1053.210106	0.144498
1053.376233	0.143085
1053.542341	0.143876
1053.708432	0.146676
1053.874504	0.145494
1054.040557	0.146989
1054.206593	0.148622
1054.372610	0.147236
1054.538609	0.147190
1054.704590	0.143023
1054.870553	0.143643
1055.036497	0.143100
1055.202424	0.141815
1055.368331	0.143950
1055.534221	0.142647
1055.700093	0.142207
1055.865946	0.143284
1056.031781	0.143725
1056.197598	0.148881
1056.363397	0.149863
1056.529177	0.150186
1056.694939	0.149493
1056.860683	0.147258
1057.026409	0.148508
1057.192116	0.148263
1057.357806	0.147830
1057.523477	0.149105
1057.689130	0.145506
1057.854764	0.147513
1058.020381	0.146933
1058.185979	0.146073
1058.351559	0.148918
1058.517120	0.148729
1058.682664	0.147410
1058.848189	0.147831
1059.013696	0.146786
1059.179185	0.148012
1059.344656	0.145823
1059.510108	0.147368
1059.675542	0.149696
1059.840958	0.145136
1060.006356	0.143830
1060.171735	0.144432
1060.337096	0.143449
1060.502439	0.144282
1060.667764	0.143835
1060.833071	0.143035
1060.998359	0.142748
1061.163629	0.143162
1061.328881	0.144897
1061.494115	0.144469
1061.659330	0.145646
1061.824527	0.145927
1061.989706	0.148484
1062.154867	0.150263
1062.320010	0.151417
1062.485134	0.148165
1062.650240	0.146236
1062.815328	0.146224
1062.980398	0.146698
1063.145449	0.144605
1063.310482	0.146357
1063.475497	0.143147
1063.640494	0.141068
1063.805473	0.141914
1063.970433	0.144554
1064.135375	0.142968
1064.300299	0.144513
1064.465204	0.146189
1064.630092	0.145153
1064.794961	0.143935
1064.959812	0.146700
1065.124645	0.147231
1065.289459	0.145991
1065.454256	0.145480
1065.619034	0.146996
1065.783793	0.143426
1065.948535	0.144499
1066.113258	0.144712
1066.277964	0.144031
1066.442651	0.141302
1066.607319	0.141581
1066.771970	0.140625
1066.936602	0.141582
1067.101216	0.144021
1067.265812	0.147937
1067.430389	0.145908
1067.594949	0.145487
1067.759490	0.145899
1067.924013	0.145159
1068.088518	0.144697
1068.253004	0.145566
1068.417472	0.145479
1068.581922	0.144918
1068.746354	0.144946
1068.910768	0.146159
1069.075163	0.146018
1069.239540	0.148166
1069.403899	0.148888
1069.568240	0.150052
1069.732562	0.149642
1069.896866	0.148642
1070.061152	0.149337
1070.225420	0.148924
1070.389670	0.147442
1070.553901	0.150058
1070.718114	0.147091
1070.882309	0.147097
1071.046486	0.148504
1071.210644	0.149600
1071.374784	0.149772
1071.538906	0.148837
1071.703010	0.149350
1071.867096	0.149553
1072.031163	0.147671
1072.195212	0.150421
1072.359243	0.152127
1072.523256	0.148908
1072.687250	0.148553
1072.851226	0.150186
1073.015184	0.149768
1073.179124	0.147737
1073.343045	0.151930
1073.506949	0.152045
1073.670834	0.151530
1073.834701	0.150645
1073.998549	0.152941
1074.162380	0.153065
1074.326192	0.151936
1074.489986	0.151391
1074.653761	0.150776
1074.817519	0.146382
1074.981258	0.149860
1075.144979	0.148375
1075.308682	0.145527
1075.472367	0.145742
1075.636033	0.147373
1075.799681	0.147212
1075.963311	0.148268
1076.126923	0.152554
1076.290516	0.153667
1076.454092	0.154367
1076.617649	0.154073
1076.781187	0.154515
1076.944708	0.154969
1077.108210	0.152652
1077.271695	0.153193
1077.435160	0.151271
1077.598608	0.148687
1077.762038	0.147221
1077.925449	0.145831
1078.088842	0.149198
1078.252217	0.151796
1078.415573	0.148348
1078.578912	0.151351
1078.742232	0.154444
1078.905534	0.160156
1079.068817	0.161958
1079.232083	0.162535
1079.395330	0.162401
1079.558559	0.162004
1079.721770	0.163019
1079.884962	0.166140
1080.048136	0.166796
1080.211293	0.165451
1080.374430	0.163033
1080.537550	0.162165
1080.700651	0.161883
1080.863735	0.163306
1081.026800	0.164275
1081.189846	0.165590
1081.352875	0.167189
1081.515885	0.165569
1081.678877	0.164461
1081.841851	0.163545
1082.004807	0.162580
1082.167744	0.163770
1082.330663	0.164128
1082.493564	0.160169
1082.656447	0.158153
1082.819312	0.158363
1082.982158	0.159042
1083.144986	0.158822
1083.307796	0.159225
1083.470587	0.160519
1083.633361	0.161474
1083.796116	0.160184
1083.958853	0.161317
1084.121571	0.159171
1084.284272	0.155642
1084.446954	0.155998
1084.609618	0.154279
1084.772264	0.157070
1084.934892	0.158848
1085.097501	0.161329
1085.260092	0.160830
1085.422665	0.161850
1085.585220	0.163439
1085.747756	0.164031
1085.910274	0.163696
1086.072774	0.165320
1086.235256	0.160152
1086.397720	0.161140
1086.560165	0.158832
1086.722592	0.158524
1086.885001	0.156653
1087.047392	0.160199
1087.209764	0.160971
1087.372119	0.158949
1087.534455	0.161106
1087.696772	0.161134
1087.859072	0.157084
1088.021353	0.159444
1088.183616	0.160649
1088.345861	0.162394
1088.508088	0.157992
1088.670296	0.157153
1088.832486	0.159074
1088.994658	0.159055
1089.156812	0.161877
1089.318948	0.165221
1089.481065	0.161845
1089.643164	0.159016
1089.805245	0.160454
1089.967308	0.162674
1090.129352	0.164443
1090.291378	0.163209
1090.453386	0.161856
1090.615376	0.161962
1090.777347	0.159066
1090.939301	0.161281
1091.101236	0.160983
1091.263153	0.159942
1091.425051	0.160312
1091.586932	0.162041
1091.748794	0.165246
1091.910638	0.164751
1092.072463	0.164801
1092.234271	0.168735
1092.396060	0.168482
1092.557831	0.173249
1092.719584	0.169718
1092.881319	0.169521
1093.043035	0.170626
1093.204733	0.167772
1093.366413	0.170443
1093.528075	0.167591
1093.689718	0.170224
1093.851343	0.174111
1094.012950	0.170938
1094.174539	0.175263
1094.336110	0.176973
1094.497662	0.177425
1094.659196	0.179786
1094.820712	0.176795
1094.982210	0.176520
1095.143689	0.170587
1095.305151	0.165817
1095.466594	0.167930
1095.628018	0.169150
1095.789425	0.166400
1095.950813	0.160982
1096.112183	0.159714
1096.273535	0.157741
1096.434869	0.159729
1096.596184	0.156958
1096.757482	0.156307
1096.918761	0.158507
1097.080021	0.155095
1097.241264	0.152470
1097.402488	0.155613
1097.563694	0.159010
1097.724882	0.162493
1097.886052	0.161741
1098.047203	0.166152
1098.208336	0.164589
1098.369451	0.160335
1098.530548	0.164787
1098.691627	0.168745
1098.852687	0.168050
1099.013729	0.164357
1099.174753	0.165785
1099.335758	0.166347
1099.496746	0.162619
1099.657715	0.168455
1099.818666	0.170870
1099.979599	0.170370
1100.140513	0.168320
1100.301409	0.169691
1100.462287	0.171629
1100.623147	0.172860
1100.783989	0.174048
1100.944812	0.177090
1101.105617	0.175287
1101.266404	0.175037
1101.427173	0.173723
1101.587923	0.175988
1101.748656	0.175733
1101.909370	0.175883
1102.070066	0.176240
1102.230743	0.173700
1102.391403	0.172792
1102.552044	0.174377
1102.712667	0.173354
1102.873271	0.174036
1103.033858	0.173710
1103.194426	0.173208
1103.354976	0.168119
1103.515508	0.169276
1103.676021	0.171361
1103.836517	0.171380
1103.996994	0.165948
1104.157453	0.164621
1104.317893	0.162369
1104.478316	0.163333
1104.638720	0.165721
1104.799106	0.169635
1104.959474	0.164874
1105.119823	0.165921
1105.280155	0.167096
1105.440468	0.169763
1105.600763	0.173394
1105.761039	0.173110
1105.921298	0.171168
1106.081538	0.168002
1106.241760	0.166353
1106.401964	0.167620
1106.562149	0.164773
1106.722316	0.164878
1106.882465	0.168677
1107.042596	0.166739
1107.202709	0.169225
1107.362803	0.171929
1107.522879	0.171508
1107.682937	0.173492
1107.842977	0.167864
1108.002999	0.174307
1108.163002	0.174973
1108.322987	0.177014
1108.482954	0.176027
1108.642902	0.174327
1108.802833	0.175160
1108.962745	0.176568
1109.122639	0.177791
1109.282515	0.181435
1109.442372	0.180633
1109.602211	0.181748
1109.762032	0.175793
1109.921835	0.177256
1110.081620	0.180914
1110.241386	0.181713
1110.401134	0.181418
1110.560864	0.177155
1110.720576	0.179139
1110.880269	0.176470
1111.039945	0.174039
1111.199602	0.172795
1111.359240	0.175254
1111.518861	0.171615
1111.678463	0.168807
1111.838047	0.166719
1111.997613	0.171475
1112.157161	0.171437
1112.316690	0.170171
1112.476202	0.173676
1112.635695	0.178970
1112.795169	0.176359
1112.954626	0.177166
1113.114064	0.175303
1113.273484	0.179044
1113.432886	0.175405
1113.592270	0.179387
1113.751635	0.186942
1113.910983	0.187487
1114.070312	0.181056
1114.229622	0.180358
1114.388915	0.181493
1114.548189	0.188338
1114.707445	0.185991
1114.866683	0.186932
1115.025903	0.185560
1115.185104	0.180590
1115.344287	0.176515
1115.503452	0.176367
1115.662599	0.177799
1115.821727	0.179720
1115.980838	0.176648
1116.139930	0.180146
1116.299004	0.184510
1116.458059	0.179428
1116.617097	0.180676
1116.776116	0.178597
1116.935117	0.181391
1117.094099	0.181369
1117.253064	0.182465
1117.412010	0.182470
1117.570938	0.181185
1117.729848	0.177891
1117.888740	0.182514
1118.047613	0.177566
1118.206468	0.186858
1118.365305	0.189137
1118.524124	0.186388
1118.682924	0.182010
1118.841707	0.175616
1119.000471	0.173681
1119.159216	0.170286
1119.317944	0.170288
1119.476653	0.174914
1119.635344	0.168788
1119.794017	0.164855
1119.952672	0.163587
1120.111308	0.164017
1120.269927	0.168748
1120.428527	0.174405
1120.587108	0.176251
1120.745672	0.173497
1120.904217	0.172778
1121.062744	0.174812
1121.221253	0.175806
1121.379744	0.184526
1121.538216	0.188299
1121.696671	0.191815
1121.855107	0.181307
1122.013524	0.191836
1122.171924	0.194943
1122.330305	0.196379
1122.488668	0.194624
1122.647013	0.195672
1122.805340	0.193682
1122.963648	0.188091
1123.121938	0.188668
1123.280210	0.194587
1123.438464	0.183623
1123.596700	0.190328
1123.754917	0.189098
1123.913116	0.186745
1124.071297	0.188862
1124.229459	0.186361
1124.387604	0.186208
1124.545730	0.183142
1124.703838	0.185514
1124.861928	0.189545
1125.019999	0.177334
1125.178052	0.180062
1125.336088	0.182085
1125.494104	0.180877
1125.652103	0.184813
1125.810083	0.193254
1125.968045	0.197613
1126.125989	0.197982
1126.283915	0.197245
1126.441823	0.202352
1126.599712	0.197901
1126.757583	0.198186
1126.915436	0.198166
1127.073270	0.194332
1127.231087	0.186451
1127.388885	0.179506
1127.546665	0.178080
1127.704426	0.179495
1127.862170	0.176973
1128.019895	0.182770
1128.177602	0.181873
1128.335291	0.182588
1128.492961	0.182674
1128.650614	0.190817
1128.808248	0.192030
1128.965864	0.189492
1129.123461	0.188423
1129.281041	0.193926
1129.438602	0.189352
1129.596145	0.190860
1129.753670	0.189140
1129.911176	0.192343
1130.068665	0.188094
1130.226135	0.190986
1130.383587	0.191161
1130.541020	0.189555
1130.698436	0.181437
1130.855833	0.179097
1131.013212	0.180940
1131.170573	0.179830
1131.327915	0.177209
1131.485239	0.176408
1131.642545	0.183862
1131.799833	0.189281
1131.957103	0.187012
1132.114354	0.202513
1132.271588	0.209849
1132.428803	0.206732
1132.585999	0.205543
1132.743178	0.204952
1132.900338	0.197722
1133.057480	0.192678
1133.214604	0.192893
1133.371710	0.200283
1133.528797	0.185668
1133.685866	0.173760
1133.842917	0.174809
1133.999950	0.175862
1134.156964	0.180154
1134.313960	0.188701
1134.470938	0.187491
1134.627898	0.184681
1134.784840	0.181496
1134.941763	0.179820
1135.098668	0.187215
1135.255555	0.188531
1135.412424	0.187101
1135.569274	0.187782
1135.726107	0.185675
1135.882921	0.192204
1136.039716	0.198793
1136.196494	0.202717
1136.353253	0.217864
1136.509995	0.223063
1136.666717	0.220733
1136.823422	0.222576
1136.980109	0.217257
1137.136777	0.226564
1137.293427	0.216928
1137.450059	0.205740
1137.606672	0.200254
1137.763267	0.191796
1137.919844	0.192186
1138.076403	0.199878
1138.232944	0.200125
1138.389466	0.205884
1138.545971	0.202391
1138.702457	0.205965
1138.858924	0.199838
1139.015374	0.201272
1139.171805	0.200072
1139.328218	0.195599
1139.484613	0.189947
1139.640990	0.190363
1139.797348	0.189785
1139.953688	0.183713
1140.110010	0.183573
1140.266314	0.192109
1140.422600	0.183657
1140.578867	0.184968
1140.735116	0.188514
1140.891347	0.194476
1141.047559	0.199189
1141.203754	0.193873
1141.359930	0.204873
1141.516088	0.194306
1141.672228	0.191125
1141.828349	0.198836
1141.984452	0.201876
1142.140537	0.199564
1142.296604	0.199011
1142.452653	0.191381
1142.608683	0.195514
1142.764695	0.181383
1142.920689	0.184042
1143.076665	0.192503
1143.232622	0.196639
1143.388562	0.195435
1143.544483	0.194611
1143.700385	0.190325
1143.856270	0.195320
1144.012136	0.193638
1144.167985	0.194356
1144.323814	0.199923
1144.479626	0.197441
1144.635420	0.195071
1144.791195	0.189846
1144.946952	0.186149
1145.102691	0.190061
1145.258411	0.187389
1145.414113	0.188284
1145.569798	0.187977
1145.725463	0.187239
1145.881111	0.187966
1146.036741	0.183067
1146.192352	0.178444
1146.347945	0.189113
1146.503519	0.195988
1146.659076	0.195788
1146.814614	0.189931
1146.970134	0.188583
1147.125636	0.188619
1147.281120	0.180125
1147.436585	0.184080
1147.592032	0.191640
1147.747461	0.180908
1147.902872	0.166955
1148.058265	0.165861
1148.213639	0.170879
1148.368995	0.168929
1148.524333	0.170844
1148.679653	0.178625
1148.834954	0.180949
1148.990237	0.179324
1149.145502	0.178029
1149.300749	0.181296
1149.455977	0.184765
1149.611188	0.175867
1149.766380	0.184901
1149.921553	0.178887
1150.076709	0.176860
1150.231846	0.179476
1150.386966	0.178752
1150.542066	0.177892
1150.697149	0.181359
1150.852214	0.173478
1151.007260	0.176057
1151.162288	0.176678
1151.317298	0.179114
1151.472289	0.181459
1151.627263	0.175797
1151.782218	0.172961
1151.937155	0.175804
1152.092073	0.169513
1152.246974	0.183025
1152.401856	0.192544
1152.556720	0.198560
1152.711566	0.204231
1152.866393	0.208356
1153.021203	0.203227
1153.175994	0.209364
1153.330767	0.210904
1153.485521	0.207665
1153.640258	0.205876
1153.794976	0.196831
1153.949676	0.196891
1154.104358	0.190239
1154.259021	0.184863
1154.413667	0.188110
1154.568294	0.194388
1154.722903	0.192713
1154.877493	0.202401
1155.032066	0.190063
1155.186620	0.186045
1155.341156	0.171458
1155.495674	0.170255
1155.650173	0.167320
1155.804654	0.156699
1155.959118	0.148090
1156.113562	0.151197
1156.267989	0.135381
1156.422397	0.152539
1156.576788	0.155476
1156.731160	0.160836
1156.885513	0.165616
1157.039849	0.168822
1157.194166	0.185018
1157.348465	0.183534
1157.502746	0.180859
1157.657009	0.190279
1157.811253	0.172262
1157.965479	0.174906
1158.119687	0.172784
1158.273877	0.169472
1158.428048	0.166412
1158.582201	0.152627
1158.736337	0.154543
1158.890453	0.156227
1159.044552	0.164374
1159.198632	0.169862
1159.352694	0.165087
1159.506738	0.165493
1159.660764	0.167518
1159.814771	0.156078
1159.968761	0.164095
1160.122732	0.164207
1160.276685	0.158734
1160.430619	0.155210
1160.584535	0.151699
1160.738434	0.163491
1160.892313	0.166030
1161.046175	0.164584
1161.200019	0.175976
1161.353844	0.167762
1161.507651	0.163138
1161.661440	0.160012
1161.815210	0.158146
1161.968962	0.154948
1162.122697	0.158407
1162.276412	0.146465
1162.430110	0.139687
1162.583789	0.142203
1162.737451	0.160209
1162.891094	0.163600
1163.044718	0.168222
1163.198325	0.162145
1163.351913	0.174166
1163.505483	0.169508
1163.659035	0.176920
1163.812569	0.174850
1163.966084	0.170745
1164.119581	0.166745
1164.273060	0.160259
1164.426521	0.158566
1164.579964	0.168550
1164.733388	0.167705
1164.886794	0.165140
1165.040182	0.165579
1165.193551	0.168967
1165.346903	0.169395
1165.500236	0.146346
1165.653551	0.165016
1165.806848	0.158459
1165.960126	0.148541
1166.113386	0.142779
1166.266628	0.136637
1166.419852	0.136890
1166.573058	0.142281
1166.726245	0.151865
1166.879414	0.175787
1167.032565	0.153550
1167.185698	0.164674
1167.338812	0.160946
1167.491909	0.162684
1167.644987	0.175406
1167.798046	0.185073
1167.951088	0.187363
1168.104111	0.178820
1168.257117	0.169983
1168.410103	0.176091
1168.563072	0.177095
1168.716023	0.184584
1168.868955	0.193129
1169.021869	0.186475
1169.174765	0.180736
1169.327642	0.172099
1169.480501	0.173268
1169.633343	0.178351
1169.786165	0.183974
1169.938970	0.177451
1170.091757	0.192761
1170.244525	0.167560
1170.397275	0.160418
1170.550007	0.156811
1170.702720	0.149341
1170.855415	0.146218
1171.008092	0.136859
1171.160751	0.132816
1171.313392	0.132630
1171.466014	0.173387
1171.618619	0.122665
1171.771205	0.122665
1171.923772	0.122665
