sample name	sample
index	893
start time	 04-08-2021  03:06:49 PM
880	0.463387
Peak Time (s)	100.535
Peak Height 	0.4634
calc peak height	100,103
Baseline Time (s)	11.036
Baseline Value 	-0.006515
subtract baseline	10,4
Abs	0.315376
Peak Time (s)	101.535
Peak Height 	0.3154
calc peak height	100,103
Baseline Time (s)	11.036
Baseline Value 	0.004308
subtract baseline	10,3
PK_550	0.182734
Peak Time (s)	102.035
Peak Height 	0.1827
calc peak height	100,103
Baseline Time (s)	11.036
Baseline Value 	4.1315E-4
subtract baseline	10,2
PK_880	0.306329
Peak Time (s)	102.035
Peak Height 	0.3063
calc peak height	100,103
Baseline Time (s)	8.536
Baseline Value 	0.003082
subtract baseline	10,1


Time (s)	A880-A510	A880-A775	A880-A975	A880	I510	I775	I975	I880	
0.034500	-0.001655	-0.000157	0.000348	0.002301	6874.122039	42448.827436	3947.658845	22767.649836
0.534500	-0.003025	-0.000313	-0.005438	0.004717	6839.908711	42215.680772	3928.243314	22657.599227
1.035500	-0.004790	-0.000504	0.000472	0.004609	6825.029751	42208.238837	3942.452902	22662.524995
1.535500	-0.001720	-0.000257	-0.001036	0.001582	6880.069532	42505.095492	3946.070548	22800.522036
2.036500	-0.001461	0.000382	0.000683	0.001597	6882.285056	42561.980013	3950.142723	22799.820168
2.536500	0.000070	0.000160	-0.002431	0.002204	6890.698821	42486.483310	3941.270092	22772.083963
3.036500	0.000557	-0.000684	-0.001408	0.000247	6913.037569	42587.810722	3948.369602	22861.674333
3.536500	0.000122	0.000092	0.000121	0.000588	6905.935351	42627.582248	3951.215021	22846.062334
4.037500	0.000651	0.000925	0.003825	0.001369	6903.631928	42632.368641	3958.246983	22810.266990
4.534500	-0.000410	-0.000158	0.000319	0.000579	6901.146634	42605.523319	3951.712395	22846.458046
5.038000	-0.001346	-0.000915	0.000495	0.000183	6896.222439	42572.701794	3953.086278	22864.657126
5.534500	-0.000049	0.000485	0.001184	0.000800	6902.430266	42644.118109	3953.257727	22836.326407
6.035500	0.000794	-0.000184	-0.002787	0.000811	6910.049889	42582.070599	3943.736997	22835.851590
6.535500	-0.001343	-0.000727	-0.002194	-0.000019	6898.095365	42608.275671	3947.128265	22873.920245
7.039000	-0.000238	0.000853	0.000502	0.000952	6899.314124	42663.820949	3951.254767	22829.351310
7.536000	-0.000204	-0.000093	0.001224	-0.000113	6909.365334	42674.689123	3955.549345	22878.218979
8.036500	0.002163	0.000267	-0.005847	0.000538	6925.113883	42648.141002	3937.120747	22848.341151
8.536000	0.000000	-0.000295	0.000401	-0.000117	6911.278479	42656.698626	3953.581398	22878.431496
9.037000	-0.000650	-0.000018	-0.003141	0.000073	6903.581482	42664.612043	3944.649103	22869.681947
9.537500	0.000860	0.000288	0.006559	-0.000145	6919.418374	42712.466983	3968.553211	22879.693859
10.035000	-0.000086	0.000517	0.000963	0.000208	6907.510887	42701.215016	3954.150450	22863.507807
10.535000	0.000412	-0.000094	-0.001123	-0.000112	6915.010991	42674.571441	3949.912076	22878.199420
11.035500	0.000673	0.000000	0.000000	0.000000	6916.371354	42672.901086	3952.335775	22873.036021
11.539000	-0.001896	0.000243	-0.002985	0.000194	6891.096461	42677.350379	3944.733262	22864.121781
12.036000	-0.001910	0.000460	0.000775	0.002891	6866.469262	42451.286652	3947.269591	22740.744521
12.536000	-0.001590	0.000371	-0.003585	0.000283	6893.089104	42680.939107	3943.094322	22860.063182
13.037000	-0.000458	0.000431	0.000011	-0.001578	6920.477839	42856.967258	3956.156870	22945.622716
13.536000	0.000835	-0.000291	-0.002439	0.000034	6917.542582	42643.187066	3946.414427	22871.452640
14.034500	-0.000764	-0.000291	0.000917	0.002286	6882.362232	42438.047116	3949.055037	22768.357004
14.537500	-0.000651	0.000056	-0.000505	0.002417	6882.202742	42457.698667	3945.347466	22762.376043
15.035500	-0.000752	-0.000173	-0.006956	0.000563	6898.176790	42605.651842	3934.443112	22847.211232
15.536000	-0.001105	-0.000248	-0.002993	0.000229	6897.999513	42629.325608	3944.631305	22862.525914
16.036000	-0.003639	0.000063	-0.001642	0.002515	6854.225749	42449.371172	3942.404221	22757.882779
16.536000	-0.001484	-0.000902	0.001175	-0.000055	6897.138373	42595.540722	3955.294495	22875.582591
17.036500	0.000651	-0.000038	-0.000087	0.000144	6914.850612	42656.281014	3951.781973	22866.444065
17.536500	0.001296	0.000585	-0.001007	0.000407	6918.355697	42689.184150	3948.947296	22854.349187
18.037000	0.000071	0.000556	0.001375	0.000034	6910.540366	42720.614521	3955.558589	22871.473697
18.537000	-0.002488	-0.000551	-0.004261	0.000676	6881.317886	42560.852368	3940.551831	22842.005781
19.034500	-0.001292	0.000347	-0.000372	0.001416	6885.476348	42575.344135	3948.052610	22808.128377
19.535000	-0.000483	0.000056	0.001747	0.001593	6891.235496	42532.634862	3952.706473	22800.034251
20.035000	-0.002177	0.000910	-0.002777	0.002547	6867.159301	42523.484998	3939.633717	22756.408495
20.535000	0.001956	0.000571	0.001111	0.002224	6907.752742	42522.065041	3949.667881	22771.182416
21.036000	-0.001742	0.000282	0.000021	0.001586	6879.830395	42553.906798	3948.585910	22800.337763
21.535500	-0.001020	0.000025	0.000932	0.001439	6887.738514	42543.900104	3951.121102	22807.079226
22.036000	-0.000401	0.000304	0.002604	0.002525	6883.489041	42470.313937	3952.524128	22757.410330
22.536000	-0.000721	0.000473	-0.001950	0.002178	6883.728574	42517.333910	3942.472595	22773.254941
23.037000	-0.001302	-0.000057	-0.002723	0.001366	6885.840538	42543.087055	3942.568700	22810.430779
23.537500	-0.001053	-0.000019	-0.002869	0.001234	6889.297795	42558.517116	3942.533221	22816.428764
24.037500	-0.002135	0.000318	-0.002106	0.002749	6865.712177	42451.289252	3940.747483	22747.190560
24.534500	-0.000502	0.000910	-0.004554	0.002092	6886.512048	42564.969250	3936.505114	22777.207477
25.036000	-0.003356	0.000412	-0.002070	0.001348	6867.342655	42587.422646	3944.163004	22811.209894
25.538500	-0.003404	0.000067	-0.004125	0.001466	6865.844937	42545.282176	3939.003280	22805.846038
26.036000	-0.002155	-0.000015	-0.001646	0.001250	6879.125386	42557.362225	3945.405701	22815.698438
26.535500	-0.001523	0.000055	-0.002913	0.002982	6869.150610	42406.213269	3938.282074	22736.589573
27.036000	-0.000662	0.000171	-0.003457	0.001644	6889.126743	42538.430759	3940.161595	22797.673039
27.536500	0.000132	0.000073	-0.004523	0.001629	6896.506044	42530.838713	3937.671330	22798.355721
28.037000	0.000716	0.000090	-0.001861	-0.001189	6927.686038	42789.935343	3950.723206	22927.699294
28.534500	-0.000357	0.001554	0.002516	0.001157	6896.351297	42709.148868	3955.600814	22819.957915
29.034500	-0.000417	-0.000143	-0.004308	-0.000115	6907.434452	42670.299926	3942.318652	22878.304406
29.535500	0.000407	0.000629	0.003091	0.000523	6909.138846	42682.594869	3958.519185	22849.039864
30.035000	-0.000560	0.000888	0.005669	0.000375	6901.653367	42719.865431	3965.121457	22855.841275
30.535000	-0.002690	-0.000244	-0.003822	0.004498	6844.898521	42241.794327	3932.555777	22667.575410
31.036000	-0.001403	0.000914	0.000184	0.000728	6890.729405	42689.879443	3951.031023	22839.628300
31.547500	-0.001033	0.000331	-0.000401	0.000117	6899.673126	42692.414373	3951.091202	22867.644372
32.036500	-0.002091	0.000450	0.000269	0.002668	6866.847089	42470.714227	3946.593468	22750.919473
32.554500	-0.000595	0.000352	-0.005975	0.004090	6867.510200	42332.648892	3928.454733	22686.101617
33.040000	0.000160	0.000948	0.000465	0.000427	6907.764649	42720.580866	3952.426767	22853.455370
33.537500	0.000767	0.000641	0.002698	0.000198	6915.422811	42713.451328	3958.356222	22863.968006
34.037500	-0.002624	-0.000266	-0.001382	0.002596	6862.669209	42412.146386	3942.831881	22754.181025
34.538000	-0.001139	0.000361	0.000710	0.004272	6860.940358	42317.000128	3943.820398	22677.830375
35.035500	0.000439	0.001278	0.001563	-0.001203	6925.273028	42900.436864	3958.997176	22928.372918
35.535500	-0.001153	0.000392	0.001264	0.002264	6879.021974	42502.083770	3949.936416	22769.328847
36.036000	-0.002554	-0.000398	-0.001857	0.002500	6864.169447	42408.842335	3941.930361	22758.574603
36.536000	-0.002413	0.000138	-0.002626	0.003575	6855.720207	42359.890677	3937.555911	22709.543060
37.037000	-0.001588	0.000014	-0.001440	0.002005	6877.418966	42491.338917	3944.099296	22781.177908
37.536500	0.000364	0.000861	0.000031	0.002272	6892.753077	42544.034028	3946.968229	22768.957231
38.037000	-0.001958	-0.000344	-0.001147	0.003197	6863.260925	42350.504769	3941.962447	22726.781303
38.535000	-0.001251	0.000262	-0.000805	0.002021	6880.342069	42512.355383	3945.574068	22780.432482
39.035000	-0.001249	0.000290	-0.001122	0.001869	6881.742206	42528.800881	3945.180751	22787.388922
39.534500	-0.000992	0.000385	-0.003431	0.001893	6883.854170	42535.220641	3939.634388	22786.284306
40.035500	-0.002027	0.000875	-0.000867	0.003915	6856.135040	42395.893297	3940.918932	22694.051506
40.536000	-0.001321	0.000431	-0.002015	0.001761	6882.065831	42551.485852	3943.309494	22792.314538
41.036500	-0.001539	-0.000200	-0.002022	0.001908	6878.747609	42480.670128	3942.945337	22785.601746
41.537500	-0.001275	0.000241	-0.002234	0.002209	6878.411384	42493.350656	3941.725999	22771.851381
42.037000	-0.001384	0.001026	0.006267	0.002812	6871.948660	42509.900488	3960.662264	22744.318971
42.534500	-0.001351	0.000268	0.000458	0.002495	6875.128489	42469.807610	3947.458391	22758.798523
43.034500	0.000026	0.000155	0.002531	0.001847	6893.562041	42518.571767	3953.980206	22788.419399
43.538000	-0.000361	0.000327	0.003143	0.002154	6887.230990	42506.220482	3954.713340	22774.365820
44.035500	-0.003150	-0.000609	-0.002306	0.002377	6859.894035	42400.899748	3941.155449	22764.192371
44.536000	0.000462	0.000538	0.000104	0.002189	6894.416857	42522.263877	3947.343524	22772.789352
45.036000	-0.001141	-0.000866	0.002895	0.000923	6891.338908	42509.714929	3957.081749	22830.708883
45.535500	-0.000056	0.000162	0.001936	-0.000011	6909.789506	42688.758481	3957.021793	22873.560628
46.040500	-0.003676	-0.000482	0.003825	0.002929	6850.157655	42362.306862	3954.488391	22739.002102
46.559000	-0.004226	-0.000342	0.000222	0.005128	6825.433814	42176.002942	3940.627709	22638.964039
47.037000	0.000099	0.000802	0.000067	0.000460	6906.900051	42704.158787	3951.393682	22851.929020
47.537500	-0.001017	0.000704	0.001605	0.000390	6897.332746	42701.623783	3955.257382	22855.136306
48.035000	0.000278	0.000408	-0.001943	0.003327	6882.371027	42406.965637	3939.763165	22720.850819
48.538000	-0.003503	0.000086	-0.003053	0.006180	6822.487785	42119.663896	3930.409460	22591.275474
49.035500	-0.001174	0.000600	0.003360	0.002125	6880.098238	42533.742384	3955.304789	22775.690421
49.536000	-0.002316	-0.000302	-0.005550	0.001830	6872.397980	42478.490882	3934.770603	22789.166755
50.035500	-0.002872	-0.000142	-0.000609	0.002696	6859.517444	42414.223202	3944.432882	22749.600439
50.536500	-0.003968	-0.000338	-0.004229	0.005910	6820.737886	42105.835653	3928.281856	22603.499642
51.037000	0.001204	0.000557	-0.001122	0.000647	6915.315051	42664.702113	3948.099656	22843.360850
51.536500	0.001611	0.000658	0.003626	-0.001940	6942.870688	42911.186752	3965.782931	22962.342882
52.037500	-0.003442	-0.000069	-0.000524	0.002946	6852.114279	42398.216666	3944.040838	22738.214288
52.536000	-0.001222	-0.000400	-0.000992	0.004357	6859.415761	42240.397936	3939.575104	22673.951030
53.037500	-0.060178	-0.016617	0.015221	0.292185	4699.215589	22469.221721	3460.811764	13106.815500
53.535000	-0.075687	-0.021502	-0.011454	0.040735	5974.675756	37372.026683	3834.299941	21087.518208
54.035500	-0.048996	-0.022167	-0.011779	-0.113046	7542.418192	51914.281275	4226.085149	28802.344176
54.536000	-0.035378	-0.048037	0.000692	-0.227778	9127.781510	63027.020508	4673.989743	36625.095552
55.036000	-0.019611	-0.065890	0.009782	-0.257287	9808.608239	64660.725897	4837.958473	38994.161362
55.536000	-0.006743	-0.044874	0.016320	-0.227493	9545.753100	63426.348792	4737.426133	36602.993391
56.037000	0.003469	-0.016649	0.021095	-0.167450	8828.788782	59155.496962	4519.049152	32255.125094
56.534500	0.006578	-0.001931	0.025692	-0.082154	7812.052269	50728.014929	4246.177629	27025.974001
57.037000	0.023717	0.000051	0.040600	-0.114758	8404.301650	54686.882206	4400.662984	28904.562569
57.535000	0.045350	0.012066	0.056687	-0.093140	8404.472998	53555.851980	4381.796744	27643.252697
58.037500	0.072368	0.030278	0.075340	-0.018398	7834.964599	47381.797701	4203.465894	23736.034768
58.535500	0.085368	0.042456	0.086709	0.037022	7378.673690	43172.824703	4078.689234	21243.427306
59.036000	0.104050	0.051923	0.110988	0.063095	7303.641323	41664.548303	4073.873165	20176.341278
59.536000	0.115353	0.059278	0.122459	0.092820	7122.070697	39721.950083	4025.964421	19035.450658
60.036000	0.128798	0.067504	0.139591	0.126333	6932.849271	37643.102818	3984.648723	17839.392406
60.536500	0.137275	0.077191	0.152224	0.163469	6677.342503	35519.445698	3925.691510	16617.527199
61.037000	0.146634	0.082837	0.165365	0.199995	6450.212985	33285.442552	3872.441592	15513.456320
61.540000	0.152771	0.088019	0.181135	0.238739	6195.716324	31030.843848	3822.845829	14439.498371
62.037500	0.155838	0.092611	0.176907	0.291262	5844.413188	28098.694762	3711.011066	13128.464047
62.534500	0.160713	0.095427	0.193701	0.298499	5828.617454	27844.196785	3728.836493	12959.933602
63.035500	0.163562	0.099456	0.187916	0.305890	5798.472765	27652.328652	3704.362661	12790.679384
63.551500	0.169853	0.102770	0.194703	0.306232	5838.010544	27821.829559	3716.241195	12782.918580
64.038500	0.179579	0.105528	0.193667	0.306706	5900.589610	27952.884632	3713.442201	12772.169148
64.536500	0.182241	0.107011	0.200836	0.306483	5920.380906	28051.196056	3727.236697	12777.232562
65.036500	0.186527	0.110754	0.199901	0.310132	5924.761460	28056.624788	3718.653773	12694.834741
65.536500	0.190076	0.112842	0.210159	0.313621	5925.177578	27975.868580	3731.359825	12616.709968
66.036500	0.191161	0.114619	0.206889	0.322151	5874.302485	27590.000220	3709.340418	12428.308436
66.540000	0.200641	0.117199	0.218508	0.322789	5934.819983	27700.373236	3729.810741	12414.366336
67.037500	0.198216	0.117858	0.219673	0.326417	5893.263127	27531.897526	3725.176260	12335.479801
67.535000	0.203120	0.121419	0.223609	0.331802	5889.982356	27428.912814	3722.459841	12219.575047
68.035500	0.203884	0.123461	0.223297	0.339506	5843.089091	27112.126468	3707.599676	12056.248975
68.535500	0.210642	0.124062	0.225656	0.338558	5895.203347	27198.401313	3713.697051	12076.184425
69.036000	0.215513	0.126112	0.221749	0.341045	5911.514560	27174.002132	3701.948499	12023.962169
69.536500	0.216400	0.128416	0.228574	0.344632	5893.047113	27102.607973	3707.874803	11949.156100
70.036500	0.214695	0.128474	0.232670	0.350086	5844.634735	26804.611332	3705.384987	11836.607779
70.539500	0.217281	0.130375	0.232428	0.353171	5841.287708	26739.750185	3699.314568	11773.573371
71.037000	0.223583	0.132924	0.241744	0.352145	5890.797003	26936.248978	3718.339192	11794.488943
71.540000	0.225632	0.135186	0.239360	0.355286	5883.372395	26887.767190	3708.118981	11730.612188
72.035000	0.226302	0.134892	0.242617	0.360933	5849.732205	26562.808551	3703.738834	11616.916893
72.535000	0.230996	0.138125	0.240796	0.365505	5850.554807	26490.150534	3692.138440	11525.947296
73.035500	0.232837	0.138532	0.247936	0.364223	5871.621138	26581.832394	3707.455493	11551.362479
73.535500	0.238183	0.139594	0.249611	0.366691	5891.166183	26505.495908	3706.000396	11502.512413
74.036000	0.238172	0.140756	0.250469	0.375196	5833.699459	26110.884034	3692.105751	11336.262076
74.536500	0.243321	0.143167	0.254531	0.377808	5850.703180	26100.163882	3694.721039	11285.853201
75.036500	0.247130	0.144495	0.258313	0.380926	5855.347871	26005.067337	3695.921510	11226.086393
75.537000	0.251194	0.146412	0.257601	0.386060	5848.154495	25835.061569	3685.412641	11128.593785
76.039500	0.252436	0.148396	0.267042	0.395370	5794.480265	25452.592897	3685.645854	10954.717227
76.537500	0.252632	0.148020	0.261391	0.396734	5786.788950	25362.672470	3673.217202	10929.560196
77.035000	0.255947	0.149968	0.267641	0.399490	5790.467558	25321.096609	3679.383106	10878.962534
77.535500	0.257993	0.151211	0.264343	0.404700	5769.716255	25117.844197	3664.454412	10784.166445
78.035500	0.260002	0.153144	0.273951	0.414523	5719.109895	24719.108227	3664.081149	10608.523883
78.536000	0.259379	0.153096	0.266980	0.415893	5706.349174	24648.224258	3649.734815	10584.339993
79.036000	0.262700	0.154331	0.277559	0.417136	5719.660700	24647.819116	3665.811150	10562.468878
79.536000	0.266760	0.157704	0.276000	0.423172	5706.999884	24515.250281	3652.706686	10457.117643
80.036500	0.268657	0.158668	0.273541	0.431443	5666.565983	24155.801446	3634.578848	10315.128029
80.537000	0.266709	0.157451	0.281438	0.431435	5654.378054	24096.914414	3647.890531	10315.264415
81.037500	0.271444	0.159363	0.279642	0.432450	5677.796870	24140.588531	3643.128790	10298.024125
81.534500	0.274226	0.160079	0.284480	0.435478	5676.239219	24028.164573	3646.190964	10246.827467
82.035500	0.275559	0.161909	0.290333	0.438798	5663.712990	23956.038371	3650.498383	10191.114202
82.535500	0.277637	0.162730	0.289435	0.441837	5657.679082	23849.158923	3643.814965	10140.493108
83.035500	0.277099	0.164307	0.289569	0.444683	5636.519665	23788.221809	3639.246000	10093.392801
83.536000	0.278034	0.164380	0.287081	0.445101	5639.736403	23771.695305	3634.381922	10086.495615
84.036500	0.281639	0.165916	0.289355	0.449308	5635.985264	23644.124918	3631.163395	10017.507711
84.536500	0.279754	0.165548	0.287834	0.449940	5620.366857	23596.620335	3627.598199	10007.212045
85.037000	0.286106	0.168722	0.289654	0.453008	5640.770867	23601.617631	3625.538589	9957.385738
85.537000	0.283108	0.166130	0.299703	0.451897	5629.028652	23531.426172	3644.167038	9975.389897
86.034500	0.285137	0.169871	0.294066	0.454516	5625.364324	23584.583444	3630.338735	9933.026175
86.535500	0.286404	0.169965	0.299448	0.456274	5622.316564	23505.731621	3636.375259	9904.734354
87.035500	0.288961	0.169829	0.296752	0.455636	5642.185678	23529.512798	3632.941181	9914.987455
87.535500	0.288834	0.170854	0.298068	0.456895	5633.547105	23518.420006	3633.037200	9894.771712
88.036000	0.289312	0.169784	0.295802	0.456297	5640.252326	23496.148086	3630.265335	9904.375492
88.536000	0.290100	0.172160	0.305834	0.459804	5623.351275	23442.736167	3641.169019	9848.282401
89.036500	0.290046	0.173157	0.306692	0.458508	5631.051484	23551.085853	3644.805135	9868.950529
89.537000	0.290934	0.171376	0.297589	0.457808	5640.946514	23499.977692	3630.722740	9880.152766
90.039500	0.287290	0.171423	0.294936	0.463294	5584.588714	23244.465669	3617.340204	9792.914343
90.537000	0.292660	0.175136	0.306370	0.461446	5629.042339	23505.701390	3639.309260	9822.174340
91.040500	0.294485	0.175247	0.307834	0.460025	5649.279299	23578.308357	3644.170945	9844.764050
91.535000	0.293954	0.174555	0.306149	0.460070	5645.677621	23543.324671	3641.250836	9844.038597
92.035000	0.290360	0.174683	0.299149	0.464814	5594.070048	23325.827155	3621.739286	9768.933736
92.535500	0.295894	0.175891	0.298584	0.461050	5651.683762	23560.220959	3627.004135	9828.467840
93.036000	0.294129	0.175284	0.306953	0.460128	5646.404370	23575.127060	3642.509386	9843.113405
93.536500	0.295521	0.176983	0.308290	0.461077	5649.179297	23610.759256	3643.164163	9828.031189
94.036500	0.296616	0.177662	0.310474	0.466195	5624.122739	23400.889016	3638.228253	9747.227915
94.539500	0.295855	0.175995	0.308272	0.460146	5657.103029	23608.035798	3644.707240	9842.828513
95.037500	0.299456	0.178835	0.312507	0.461764	5669.579009	23666.176743	3649.147498	9817.124193
95.534500	0.301105	0.178442	0.304632	0.461393	5682.343732	23665.159109	3636.484584	9823.013349
96.035000	0.295825	0.177574	0.306259	0.465648	5622.610099	23422.464909	3632.101493	9755.811483
96.535500	0.299577	0.176849	0.302493	0.460222	5680.082159	23645.083702	3634.867058	9841.625197
97.035500	0.301582	0.178705	0.308786	0.461219	5686.464298	23685.985070	3643.762377	9825.773819
97.536000	0.299494	0.177329	0.311941	0.460198	5679.707791	23669.047986	3650.852177	9841.999250
98.036000	0.295852	0.177792	0.308865	0.465330	5624.746718	23447.719784	3636.980754	9760.810641
98.536500	0.302059	0.180455	0.310344	0.462937	5678.607613	23687.546806	3643.492568	9798.560958
99.037500	0.303100	0.179665	0.309811	0.461314	5695.506983	23727.272665	3645.334975	9824.260942
99.537000	0.302711	0.180513	0.313501	0.461614	5691.123663	23753.490426	3651.097422	9819.502819
100.037500	0.303992	0.180807	0.311925	0.461819	5697.977208	23757.768167	3648.065819	9816.260369
100.535000	0.304485	0.181366	0.308897	0.463387	5691.130827	23709.528300	3640.293957	9791.439821
101.035000	0.305393	0.182177	0.311021	0.463262	5697.708921	23754.276284	3644.086873	9793.418854
101.535500	0.304187	0.180940	0.315376	0.462126	5697.260391	23749.432487	3653.429973	9811.397175
102.035500	0.306329	0.182734	0.315237	0.462716	5707.157645	23807.097152	3652.181580	9802.045888
102.536000	0.304262	0.181872	0.310792	0.463341	5690.008959	23735.897087	3643.566432	9792.164915
103.036500	0.303313	0.181638	0.313659	0.462685	5688.148336	23756.106491	3649.543225	9802.544717
103.536500	0.305333	0.181823	0.313188	0.462386	5702.906541	23779.257377	3649.249902	9807.272488
104.039500	0.305078	0.182740	0.315202	0.463048	5697.062757	23791.509345	3651.555119	9796.802623
104.562000	0.307023	0.181885	0.316377	0.461834	5717.249321	23808.688552	3655.645421	9816.014369
105.037500	0.305990	0.182762	0.307661	0.462024	5709.415907	23841.725044	3640.508010	9813.009586
105.535000	0.308978	0.184168	0.320565	0.463742	5717.555159	23826.745756	3659.570642	9785.838237
106.035500	0.302033	0.181520	0.313027	0.466305	5657.224821	23577.917699	3642.334322	9745.488925
106.562500	0.308655	0.184096	0.316660	0.464098	5713.199211	23806.140493	3652.252053	9780.214992
107.036000	0.307519	0.180975	0.318559	0.461628	5721.755767	23774.938108	3659.756740	9819.283954
