sample name	sample
index	875
start time	 04-08-2021  01:44:56 PM


Wavelength (nm)	Absorbance
494.344910	-0.008706
494.563924	-0.008706
494.782919	-0.008706
495.001897	-0.041400
495.220856	-0.013458
495.439797	-0.014217
495.658719	-0.011703
495.877624	-0.012322
496.096510	-0.008227
496.315378	-0.000127
496.534227	-0.002116
496.753059	0.004633
496.971872	-0.000179
497.190667	0.068694
497.409444	0.115361
497.628203	0.133937
497.846943	0.147046
498.065665	0.153683
498.284369	0.160167
498.503055	0.165171
498.721723	0.166602
498.940372	0.168385
499.159003	0.170047
499.377616	0.170248
499.596210	0.170451
499.814787	0.169782
500.033345	0.170103
500.251885	0.169438
500.470406	0.169906
500.688910	0.170892
500.907395	0.172011
501.125862	0.171565
501.344311	0.171941
501.562742	0.172905
501.781154	0.173423
501.999548	0.173980
502.217924	0.174330
502.436282	0.173685
502.654621	0.172858
502.872942	0.172426
503.091245	0.173654
503.309530	0.174057
503.527797	0.174847
503.746045	0.175226
503.964275	0.175434
504.182487	0.175301
504.400681	0.176438
504.618856	0.177933
504.837013	0.178534
505.055152	0.177961
505.273273	0.178376
505.491376	0.178321
505.709460	0.178848
505.927526	0.179224
506.145574	0.180450
506.363604	0.179705
506.581615	0.178879
506.799608	0.178941
507.017583	0.180460
507.235540	0.180571
507.453478	0.180533
507.671399	0.180500
507.889301	0.180470
508.107185	0.180315
508.325050	0.181365
508.542898	0.181935
508.760727	0.182513
508.978538	0.182326
509.196330	0.182106
509.414105	0.181601
509.631861	0.182363
509.849599	0.183276
510.067319	0.183524
510.285021	0.183691
510.502704	0.185207
510.720369	0.185673
510.938016	0.186140
511.155645	0.186322
511.373255	0.187808
511.590848	0.188156
511.808422	0.188394
512.025977	0.189739
512.243515	0.189948
512.461034	0.189708
512.678536	0.189793
512.896018	0.189816
513.113483	0.190302
513.330930	0.190320
513.548358	0.190831
513.765768	0.191487
513.983160	0.190856
514.200533	0.191010
514.417889	0.191123
514.635226	0.191033
514.852545	0.191211
515.069845	0.191891
515.287128	0.191910
515.504392	0.192354
515.721638	0.191805
515.938866	0.191874
516.156075	0.191505
516.373267	0.192247
516.590440	0.193342
516.807594	0.193884
517.024731	0.194131
517.241850	0.194655
517.458950	0.194514
517.676032	0.195609
517.893095	0.196207
518.110141	0.197660
518.327168	0.198354
518.544177	0.197950
518.761168	0.198009
518.978141	0.199071
519.195095	0.199642
519.412031	0.200182
519.628949	0.200724
519.845849	0.200611
520.062731	0.201381
520.279594	0.200879
520.496439	0.202094
520.713266	0.203029
520.930074	0.203592
521.146865	0.203705
521.363637	0.203800
521.580391	0.203385
521.797127	0.204225
522.013844	0.204204
522.230543	0.204734
522.447224	0.205264
522.663887	0.205087
522.880532	0.204740
523.097158	0.205137
523.313766	0.205348
523.530356	0.205972
523.746928	0.206236
523.963481	0.206790
524.180017	0.207115
524.396534	0.207462
524.613032	0.208361
524.829513	0.208056
525.045975	0.207920
525.262420	0.209569
525.478845	0.210351
525.695253	0.210490
525.911643	0.210401
526.128014	0.211356
526.344367	0.211741
526.560702	0.212417
526.777018	0.213816
526.993316	0.214924
527.209597	0.214112
527.425858	0.214220
527.642102	0.214066
527.858328	0.214785
528.074535	0.215418
528.290724	0.215647
528.506894	0.215852
528.723047	0.215665
528.939181	0.216573
529.155297	0.216942
529.371395	0.216701
529.587475	0.217701
529.803536	0.217782
530.019579	0.217921
530.235604	0.218653
530.451611	0.218402
530.667600	0.219365
530.883570	0.219242
531.099522	0.219890
531.315456	0.220098
531.531372	0.220454
531.747269	0.220912
531.963148	0.221206
532.179009	0.221209
532.394852	0.221691
532.610676	0.221686
532.826482	0.221566
533.042271	0.221745
533.258040	0.222561
533.473792	0.223927
533.689525	0.225111
533.905240	0.225109
534.120937	0.225187
534.336616	0.225866
534.552277	0.225887
534.767919	0.226480
534.983543	0.227329
535.199149	0.228258
535.414736	0.227862
535.630306	0.227226
535.845857	0.227899
536.061390	0.228857
536.276904	0.228777
536.492401	0.230009
536.707879	0.230683
536.923339	0.230934
537.138781	0.231447
537.354204	0.231729
537.569610	0.233053
537.784997	0.233088
538.000366	0.233221
538.215716	0.234442
538.431049	0.234393
538.646363	0.234501
538.861659	0.234946
539.076937	0.235284
539.292196	0.235910
539.507438	0.236139
539.722661	0.237219
539.937866	0.237574
540.153052	0.237618
540.368221	0.238411
540.583371	0.239155
540.798503	0.239412
541.013617	0.239757
541.228712	0.239374
541.443789	0.239636
541.658848	0.239715
541.873889	0.240133
542.088912	0.240373
542.303916	0.239710
542.518902	0.240522
542.733870	0.240598
542.948820	0.241264
543.163752	0.241701
543.378665	0.242334
543.593560	0.242300
543.808437	0.242723
544.023295	0.243632
544.238136	0.245308
544.452958	0.245305
544.667762	0.245693
544.882548	0.245605
545.097315	0.247054
545.312064	0.247025
545.526795	0.247847
545.741508	0.248307
545.956203	0.248408
546.170879	0.248272
546.385537	0.248663
546.600177	0.249342
546.814799	0.249585
547.029402	0.249286
547.243988	0.250111
547.458555	0.250206
547.673103	0.250214
547.887634	0.250572
548.102146	0.251284
548.316640	0.251286
548.531116	0.251223
548.745574	0.251937
548.960013	0.252272
549.174435	0.252229
549.388838	0.252832
549.603222	0.253085
549.817589	0.253441
550.031937	0.253119
550.246267	0.253353
550.460579	0.253730
550.674873	0.253798
550.889148	0.254352
551.103405	0.254902
551.317644	0.254716
551.531865	0.255064
551.746068	0.255228
551.960252	0.256124
552.174418	0.256456
552.388566	0.257104
552.602696	0.257911
552.816807	0.258039
553.030900	0.257818
553.244975	0.258578
553.459032	0.259023
553.673070	0.259014
553.887091	0.259042
554.101093	0.259412
554.315077	0.259630
554.529042	0.259475
554.742990	0.260178
554.956919	0.260843
555.170830	0.260581
555.384722	0.260804
555.598597	0.261091
555.812453	0.261240
556.026291	0.261378
556.240111	0.261386
556.453913	0.261398
556.667696	0.261066
556.881461	0.261223
557.095208	0.261568
557.308937	0.261552
557.522647	0.262240
557.736339	0.262411
557.950013	0.263128
558.163669	0.263590
558.377307	0.264391
558.590926	0.264744
558.804527	0.264523
559.018110	0.265079
559.231675	0.265913
559.445221	0.266273
559.658749	0.266776
559.872259	0.266789
560.085751	0.266939
560.299225	0.266840
560.512680	0.267228
560.726117	0.267970
560.939536	0.268033
561.152937	0.267892
561.366319	0.267998
561.579683	0.268020
561.793029	0.267742
562.006357	0.268391
562.219667	0.268871
562.432958	0.269088
562.646231	0.268783
562.859486	0.269025
563.072723	0.268933
563.285941	0.268763
563.499141	0.269273
563.712323	0.269802
563.925487	0.270097
564.138632	0.270033
564.351760	0.269975
564.564869	0.270700
564.777960	0.270844
564.991032	0.271407
565.204087	0.271753
565.417123	0.271821
565.630141	0.272188
565.843140	0.271671
566.056122	0.272213
566.269085	0.272581
566.482030	0.272499
566.694957	0.273350
566.907866	0.273488
567.120756	0.273610
567.333628	0.273738
567.546482	0.273864
567.759318	0.274709
567.972135	0.274790
568.184935	0.275355
568.397716	0.275909
568.610478	0.275308
568.823223	0.275625
569.035949	0.276099
569.248657	0.276086
569.461347	0.276025
569.674019	0.275601
569.886672	0.275442
570.099308	0.275633
570.311925	0.275457
570.524523	0.276195
570.737104	0.276738
570.949666	0.277072
571.162210	0.277490
571.374736	0.277889
571.587244	0.278425
571.799733	0.278668
572.012205	0.278706
572.224658	0.279143
572.437092	0.278894
572.649509	0.278926
572.861907	0.279224
573.074287	0.279474
573.286649	0.279707
573.498993	0.280286
573.711318	0.280850
573.923625	0.281141
574.135914	0.281402
574.348185	0.281874
574.560438	0.282064
574.772672	0.282150
574.984888	0.282309
575.197086	0.282775
575.409266	0.282666
575.621427	0.282456
575.833570	0.282509
576.045695	0.282462
576.257802	0.282444
576.469890	0.282502
576.681961	0.282262
576.894013	0.282247
577.106046	0.282440
577.318062	0.282672
577.530059	0.282980
577.742039	0.282927
577.954000	0.283264
578.165942	0.283722
578.377867	0.283801
578.589773	0.283807
578.801661	0.284323
579.013531	0.284167
579.225382	0.284227
579.437216	0.284567
579.649031	0.285164
579.860828	0.285100
580.072606	0.285735
580.284367	0.286100
580.496109	0.286657
580.707833	0.286735
580.919539	0.286925
581.131227	0.287121
581.342896	0.287239
581.554547	0.287231
581.766180	0.287698
581.977795	0.287529
582.189391	0.287341
582.400969	0.287402
582.612529	0.287593
582.824071	0.287962
583.035595	0.288524
583.247100	0.288408
583.458587	0.288626
583.670056	0.288743
583.881506	0.288481
584.092939	0.288762
584.304353	0.288875
584.515749	0.288915
584.727127	0.289056
584.938486	0.288959
585.149828	0.289277
585.361151	0.289347
585.572456	0.289809
585.783742	0.290202
585.995011	0.290796
586.206261	0.291630
586.417493	0.291883
586.628706	0.292257
586.839902	0.292121
587.051079	0.292338
587.262238	0.292785
587.473379	0.293044
587.684502	0.293180
587.895606	0.293445
588.106692	0.293038
588.317760	0.293232
588.528810	0.293544
588.739841	0.293914
588.950855	0.294619
589.161850	0.294671
589.372827	0.294533
589.583785	0.295267
589.794726	0.295194
590.005648	0.295646
590.216552	0.295673
590.427437	0.296189
590.638305	0.296230
590.849154	0.296061
591.059985	0.296263
591.270798	0.296649
591.481592	0.296668
591.692369	0.296722
591.903127	0.296739
592.113867	0.297019
592.324588	0.296973
592.535292	0.297607
592.745977	0.297525
592.956644	0.297852
593.167293	0.298382
593.377923	0.298345
593.588536	0.298568
593.799130	0.298724
594.009706	0.299382
594.220263	0.299187
594.430803	0.299513
594.641324	0.299867
594.851827	0.299922
595.062312	0.299927
595.272778	0.300535
595.483227	0.300719
595.693657	0.300976
595.904069	0.300993
596.114462	0.301262
596.324838	0.300952
596.535195	0.301287
596.745534	0.301449
596.955855	0.301400
597.166157	0.301125
597.376441	0.301546
597.586707	0.301686
597.796955	0.301732
598.007185	0.302080
598.217396	0.302767
598.427589	0.302930
598.637764	0.303072
598.847921	0.303447
599.058060	0.303737
599.268180	0.304088
599.478282	0.304281
599.688366	0.304372
599.898431	0.304272
600.108479	0.304307
600.318508	0.304798
600.528519	0.305186
600.738511	0.305358
600.948486	0.305206
601.158442	0.305288
601.368380	0.305703
601.578300	0.305791
601.788202	0.306273
601.998085	0.306381
602.207950	0.305921
602.417797	0.306391
602.627626	0.306669
602.837436	0.307244
603.047228	0.307460
603.257002	0.307862
603.466758	0.307972
603.676496	0.307935
603.886215	0.307915
604.095916	0.308360
604.305599	0.308541
604.515264	0.308449
604.724910	0.308753
604.934538	0.308500
605.144148	0.308561
605.353740	0.308910
605.563314	0.309361
605.772869	0.309641
605.982406	0.309946
606.191925	0.310102
606.401425	0.310315
606.610908	0.310136
606.820372	0.310278
607.029818	0.310287
607.239246	0.310473
607.448655	0.310754
607.658047	0.311026
607.867420	0.311101
608.076775	0.310720
608.286111	0.310931
608.495430	0.311225
608.704730	0.311657
608.914012	0.311746
609.123275	0.311894
609.332521	0.311747
609.541748	0.311901
609.750957	0.312257
609.960148	0.312790
610.169321	0.312799
610.378475	0.312914
610.587611	0.313455
610.796729	0.313731
611.005829	0.314242
611.214910	0.314335
611.423974	0.314802
611.633019	0.314947
611.842045	0.315013
612.051054	0.314727
612.260044	0.314837
612.469017	0.314303
612.677970	0.314659
612.886906	0.314168
613.095824	0.314662
613.304723	0.314484
613.513604	0.314250
613.722467	0.314462
613.931311	0.315122
614.140138	0.315412
614.348946	0.315923
614.557736	0.315870
614.766507	0.316274
614.975261	0.315962
615.183996	0.316379
615.392713	0.316827
615.601412	0.317012
615.810092	0.317245
616.018754	0.317550
616.227399	0.317870
616.436024	0.318453
616.644632	0.318498
616.853222	0.318850
617.061793	0.318542
617.270346	0.318771
617.478880	0.319007
617.687397	0.319096
617.895895	0.319115
618.104375	0.319271
618.312837	0.319008
618.521281	0.319436
618.729706	0.319883
618.938113	0.320346
619.146502	0.320521
619.354873	0.320530
619.563226	0.320670
619.771560	0.321056
619.979876	0.320990
620.188174	0.321107
620.396453	0.321166
620.604715	0.321347
620.812958	0.321413
621.021183	0.321604
621.229390	0.321712
621.437578	0.322043
621.645748	0.322028
621.853900	0.322198
622.062034	0.322459
622.270150	0.322884
622.478247	0.322744
622.686326	0.323115
622.894387	0.323214
623.102430	0.323417
623.310454	0.323361
623.518461	0.323677
623.726449	0.324017
623.934418	0.323907
624.142370	0.324242
624.350303	0.324510
624.558218	0.324354
624.766115	0.324497
624.973994	0.324942
625.181855	0.325288
625.389697	0.325388
625.597521	0.325502
625.805327	0.326030
626.013114	0.326157
626.220883	0.326289
626.428634	0.326529
626.636367	0.326686
626.844082	0.326599
627.051778	0.326733
627.259457	0.326844
627.467117	0.327089
627.674758	0.327016
627.882382	0.327172
628.089987	0.327383
628.297574	0.327799
628.505143	0.328028
628.712694	0.328637
628.920226	0.328349
629.127740	0.328595
629.335236	0.328703
629.542714	0.328939
629.750174	0.329022
629.957615	0.329214
630.165038	0.329204
630.372443	0.329487
630.579829	0.329368
630.787198	0.330013
630.994548	0.330049
631.201880	0.330328
631.409194	0.330653
631.616489	0.330799
631.823766	0.330994
632.031025	0.331071
632.238266	0.331310
632.445489	0.331377
632.652693	0.331393
632.859879	0.331669
633.067047	0.331465
633.274197	0.331350
633.481329	0.331539
633.688442	0.332060
633.895537	0.332317
634.102614	0.332250
634.309672	0.332430
634.516713	0.332850
634.723735	0.333089
634.930739	0.333598
635.137724	0.334282
635.344692	0.334749
635.551641	0.334685
635.758572	0.334788
635.965485	0.335134
636.172379	0.335600
636.379256	0.335582
636.586114	0.335784
636.792954	0.335988
636.999775	0.336047
637.206579	0.336125
637.413364	0.336431
637.620131	0.336860
637.826880	0.336811
638.033610	0.336738
638.240323	0.337171
638.447017	0.337121
638.653692	0.337429
638.860350	0.337393
639.066990	0.337435
639.273611	0.337436
639.480214	0.337707
639.686798	0.338023
639.893365	0.338244
640.099913	0.338425
640.306443	0.338804
640.512955	0.338882
640.719449	0.339455
640.925924	0.339583
641.132381	0.339628
641.338820	0.339715
641.545241	0.339940
641.751644	0.339976
641.958028	0.340098
642.164394	0.340268
642.370742	0.340172
642.577071	0.340142
642.783383	0.340208
642.989676	0.340442
643.195951	0.340732
643.402207	0.340786
643.608446	0.341285
643.814666	0.341617
644.020868	0.341816
644.227052	0.342050
644.433218	0.342275
644.639365	0.342592
644.845494	0.343284
645.051605	0.343376
645.257698	0.343727
645.463772	0.343784
645.669828	0.343930
645.875866	0.344066
646.081886	0.344330
646.287888	0.344389
646.493871	0.344447
646.699836	0.344376
646.905783	0.344521
647.111712	0.344645
647.317622	0.344819
647.523514	0.344785
647.729388	0.344973
647.935244	0.345276
648.141082	0.345711
648.346901	0.345798
648.552702	0.345883
648.758485	0.346114
648.964250	0.346357
649.169996	0.346707
649.375724	0.347192
649.581434	0.347291
649.787126	0.347508
649.992800	0.347372
650.198455	0.348000
650.404092	0.348376
650.609711	0.348419
650.815311	0.348576
651.020894	0.348626
651.226458	0.348868
651.432004	0.349028
651.637532	0.349167
651.843041	0.349613
652.048532	0.349768
652.254006	0.349663
652.459460	0.350069
652.664897	0.350696
652.870315	0.351213
653.075716	0.351254
653.281097	0.351724
653.486461	0.352206
653.691807	0.352576
653.897134	0.352694
654.102443	0.353143
654.307734	0.353114
654.513006	0.352820
654.718261	0.352998
654.923497	0.353377
655.128715	0.353523
655.333915	0.353392
655.539096	0.353713
655.744259	0.354071
655.949404	0.354320
656.154531	0.354809
656.359640	0.355339
656.564730	0.355461
656.769802	0.355716
656.974856	0.355879
657.179892	0.356508
657.384909	0.356545
657.589908	0.356616
657.794889	0.356662
657.999852	0.356823
658.204797	0.357182
658.409723	0.357421
658.614631	0.357406
658.819521	0.358004
659.024393	0.358087
659.229246	0.358231
659.434081	0.358450
659.638898	0.359034
659.843697	0.359451
660.048478	0.359426
660.253240	0.359562
660.457984	0.359961
660.662710	0.360048
660.867417	0.360340
661.072107	0.360634
661.276778	0.360910
661.481431	0.360837
661.686066	0.360893
661.890682	0.361338
662.095281	0.361460
662.299861	0.361519
662.504422	0.361722
662.708966	0.361699
662.913491	0.361912
663.117999	0.362291
663.322488	0.362516
663.526958	0.362719
663.731411	0.362947
663.935845	0.363585
664.140261	0.363908
664.344659	0.364266
664.549038	0.364951
664.753400	0.365095
664.957743	0.365255
665.162068	0.365702
665.366375	0.366073
665.570663	0.366030
665.774933	0.366179
665.979185	0.366500
666.183419	0.366552
666.387635	0.366619
666.591832	0.367043
666.796011	0.367320
667.000172	0.367394
667.204315	0.367553
667.408439	0.368008
667.612545	0.368096
667.816634	0.368384
668.020703	0.368604
668.224755	0.368752
668.428788	0.368778
668.632803	0.368828
668.836800	0.369355
669.040779	0.369784
669.244739	0.370154
669.448681	0.370426
669.652605	0.370672
669.856511	0.370932
670.060399	0.371452
670.264268	0.371878
670.468119	0.372175
670.671952	0.372249
670.875767	0.372467
671.079563	0.372757
671.283341	0.372874
671.487101	0.372973
671.690843	0.373491
671.894567	0.373465
672.098272	0.373775
672.301959	0.374066
672.505628	0.374288
672.709278	0.374417
672.912911	0.374395
673.116525	0.374758
673.320121	0.375018
673.523699	0.375218
673.727258	0.375488
673.930799	0.375698
674.134322	0.375959
674.337827	0.376146
674.541314	0.376430
674.744782	0.376600
674.948232	0.376765
675.151664	0.377129
675.355078	0.377150
675.558474	0.377480
675.761851	0.377690
675.965210	0.377974
676.168551	0.378387
676.371873	0.378871
676.575178	0.379291
676.778464	0.379700
676.981732	0.380035
677.184981	0.380315
677.388213	0.380434
677.591426	0.380704
677.794621	0.380897
677.997798	0.380976
678.200956	0.380935
678.404097	0.381208
678.607219	0.381259
678.810323	0.381307
679.013408	0.381371
679.216476	0.381659
679.419525	0.381832
679.622556	0.382076
679.825569	0.382264
680.028563	0.382767
680.231540	0.382982
680.434498	0.383393
680.637438	0.383657
680.840359	0.384432
681.043263	0.384898
681.246148	0.385162
681.449015	0.385517
681.651864	0.385910
681.854694	0.386094
682.057506	0.386207
682.260301	0.386356
682.463076	0.386799
682.665834	0.386794
682.868573	0.386854
683.071295	0.387093
683.273998	0.387350
683.476682	0.387336
683.679349	0.387544
683.881997	0.387826
684.084627	0.388239
684.287239	0.388264
684.489833	0.388605
684.692408	0.389093
684.894965	0.389465
685.097504	0.389956
685.300025	0.390368
685.502527	0.390715
685.705012	0.390925
685.907478	0.390950
686.109925	0.391333
686.312355	0.391467
686.514766	0.391463
686.717159	0.391631
686.919534	0.391645
687.121891	0.392000
687.324230	0.392117
687.526550	0.392498
687.728852	0.392707
687.931136	0.392944
688.133401	0.392951
688.335649	0.393241
688.537878	0.393404
688.740089	0.393618
688.942281	0.393971
689.144456	0.394170
689.346612	0.394284
689.548750	0.394757
689.750870	0.394740
689.952971	0.394945
690.155055	0.395258
690.357120	0.395625
690.559167	0.395816
690.761195	0.395659
690.963206	0.395944
691.165198	0.396248
691.367172	0.396093
691.569128	0.396434
691.771065	0.396808
691.972984	0.396845
692.174885	0.397106
692.376768	0.397259
692.578633	0.397627
692.780479	0.397411
692.982308	0.397409
693.184118	0.397815
693.385909	0.398019
693.587683	0.398108
693.789438	0.398190
693.991175	0.397968
694.192894	0.398269
694.394595	0.398490
694.596277	0.398856
694.797941	0.399140
694.999587	0.399610
695.201215	0.399871
695.402824	0.400328
695.604416	0.400993
695.805989	0.401300
696.007543	0.401414
696.209080	0.401540
696.410598	0.401842
696.612099	0.402045
696.813580	0.401862
697.015044	0.402010
697.216490	0.402121
697.417917	0.402072
697.619326	0.402190
697.820717	0.402060
698.022089	0.402036
698.223444	0.402083
698.424780	0.402172
698.626098	0.402297
698.827397	0.402190
699.028679	0.402153
699.229942	0.402002
699.431187	0.402143
699.632414	0.402519
699.833622	0.402861
700.034813	0.402805
700.235985	0.403026
700.437139	0.403202
700.638274	0.403595
700.839392	0.403880
701.040491	0.404061
701.241572	0.404222
701.442635	0.404344
701.643679	0.404445
701.844706	0.404635
702.045714	0.404707
702.246704	0.404862
702.447675	0.404827
702.648629	0.404940
702.849564	0.405121
703.050481	0.405424
703.251380	0.405279
703.452260	0.405511
703.653122	0.405769
703.853966	0.405980
704.054792	0.405820
704.255600	0.406072
704.456389	0.405915
704.657160	0.406192
704.857913	0.406074
705.058648	0.406337
705.259365	0.406208
705.460063	0.405994
705.660743	0.405829
705.861405	0.405933
706.062048	0.405648
706.262674	0.405622
706.463281	0.405290
706.663870	0.405243
706.864441	0.405058
707.064993	0.405019
707.265527	0.405150
707.466043	0.405354
707.666541	0.405517
707.867021	0.405606
708.067482	0.405752
708.267925	0.405830
708.468350	0.406250
708.668757	0.406395
708.869145	0.406523
709.069516	0.406828
709.269868	0.406434
709.470201	0.406494
709.670517	0.406642
709.870814	0.406713
710.071093	0.406803
710.271354	0.406531
710.471597	0.406642
710.671821	0.406630
710.872028	0.406601
711.072216	0.407161
711.272385	0.407274
711.472537	0.407314
711.672670	0.407229
711.872785	0.407483
712.072882	0.407334
712.272961	0.407341
712.473021	0.407451
712.673063	0.407460
712.873087	0.407345
713.073093	0.407353
713.273081	0.407481
713.473050	0.407586
713.673001	0.407153
713.872934	0.407446
714.072849	0.407278
714.272745	0.407285
714.472623	0.406975
714.672483	0.406694
714.872325	0.406442
715.072148	0.406388
715.271954	0.406167
715.471741	0.406280
715.671509	0.406279
715.871260	0.406407
716.070992	0.406271
716.270707	0.406427
716.470403	0.406636
716.670080	0.406813
716.869740	0.406634
717.069381	0.406661
717.269004	0.406419
717.468609	0.405991
717.668195	0.405904
717.867764	0.405909
718.067314	0.405863
718.266846	0.405753
718.466360	0.405471
718.665855	0.405319
718.865332	0.405290
719.064791	0.405400
719.264232	0.405593
719.463655	0.405457
719.663059	0.405276
719.862445	0.405157
720.061813	0.404752
720.261163	0.404785
720.460494	0.404826
720.659807	0.405039
720.859102	0.405084
721.058379	0.404984
721.257638	0.405050
721.456878	0.404909
721.656100	0.404761
721.855304	0.405088
722.054490	0.404989
722.253657	0.404830
722.452806	0.404485
722.651937	0.404368
722.851050	0.404119
723.050145	0.404066
723.249221	0.403896
723.448279	0.403546
723.647319	0.403240
723.846340	0.402907
724.045344	0.402517
724.244329	0.402435
724.443296	0.402247
724.642245	0.402004
724.841175	0.401704
725.040088	0.401695
725.238982	0.401903
725.437857	0.401476
725.636715	0.401305
725.835554	0.401670
726.034376	0.401456
726.233179	0.401224
726.431963	0.401022
726.630730	0.400783
726.829478	0.400423
727.028208	0.400079
727.226920	0.400205
727.425614	0.400176
727.624289	0.400007
727.822946	0.399840
728.021585	0.399656
728.220206	0.399785
728.418808	0.399479
728.617392	0.399148
728.815958	0.399118
729.014506	0.399043
729.213036	0.398731
729.411547	0.398239
729.610040	0.398217
729.808515	0.397984
730.006972	0.398052
730.205410	0.398200
730.403831	0.398233
730.602233	0.397898
730.800616	0.397515
730.998982	0.397287
731.197329	0.396787
731.395658	0.396429
731.593969	0.396139
731.792262	0.395433
731.990536	0.394938
732.188793	0.394871
732.387031	0.394735
732.585250	0.394418
732.783452	0.394343
732.981635	0.394502
733.179800	0.394258
733.377947	0.394122
733.576076	0.393884
733.774186	0.393844
733.972278	0.393561
734.170352	0.393425
734.368408	0.393144
734.566446	0.392766
734.764465	0.392218
734.962466	0.392221
735.160449	0.392084
735.358413	0.392036
735.556360	0.391590
735.754288	0.391414
735.952198	0.391044
736.150090	0.390948
736.347963	0.390819
736.545818	0.390705
736.743655	0.389805
736.941474	0.389428
737.139275	0.389227
737.337057	0.389276
737.534821	0.389000
737.732567	0.388848
737.930295	0.388596
738.128005	0.388250
738.325696	0.388110
738.523369	0.388402
738.721024	0.388090
738.918660	0.387598
739.116279	0.387076
739.313879	0.386867
739.511461	0.386661
739.709024	0.386593
739.906570	0.386654
740.104097	0.386439
740.301606	0.385927
740.499097	0.385922
740.696569	0.385765
740.894024	0.385946
741.091460	0.385675
741.288878	0.385352
741.486277	0.385014
741.683659	0.384822
741.881022	0.384949
742.078367	0.384603
742.275694	0.384114
742.473002	0.384013
742.670293	0.383246
742.867565	0.383150
743.064819	0.382961
743.262054	0.383057
743.459272	0.382579
743.656471	0.381863
743.853652	0.381821
744.050815	0.381660
744.247959	0.381467
744.445085	0.381309
744.642194	0.380722
744.839283	0.380430
745.036355	0.379793
745.233408	0.379650
745.430444	0.379398
745.627461	0.379254
745.824459	0.379038
746.021440	0.378573
746.218402	0.378623
746.415346	0.378396
746.612272	0.377962
746.809180	0.378024
747.006069	0.377835
747.202940	0.377415
747.399793	0.377100
747.596628	0.376874
747.793444	0.376616
747.990243	0.376001
748.187023	0.375553
748.383784	0.375744
748.580528	0.375076
748.777253	0.374886
748.973960	0.374960
749.170649	0.374601
749.367320	0.374341
749.563973	0.374278
749.760607	0.374248
749.957223	0.374312
750.153821	0.373858
750.350400	0.373665
750.546962	0.373198
750.743505	0.372876
750.940030	0.372702
751.136536	0.372510
751.333025	0.372265
751.529495	0.372205
751.725947	0.372138
751.922381	0.371761
752.118796	0.371654
752.315194	0.371365
752.511573	0.371202
752.707934	0.371195
752.904276	0.370768
753.100601	0.370451
753.296907	0.370223
753.493195	0.369910
753.689465	0.369966
753.885716	0.369477
754.081949	0.369260
754.278164	0.368988
754.474361	0.368529
754.670540	0.368389
754.866700	0.367938
755.062843	0.367809
755.258967	0.367599
755.455072	0.367100
755.651160	0.366987
755.847229	0.366835
756.043280	0.366649
756.239313	0.366456
756.435328	0.366393
756.631324	0.366286
756.827302	0.365706
757.023262	0.365318
757.219204	0.365197
757.415127	0.365164
757.611033	0.364997
757.806920	0.364585
758.002788	0.364243
758.198639	0.364071
758.394471	0.363977
758.590286	0.363665
758.786081	0.363616
758.981859	0.363355
759.177619	0.363086
759.373360	0.362603
759.569083	0.362375
759.764788	0.362321
759.960474	0.361960
760.156143	0.361578
760.351793	0.361734
760.547425	0.361588
760.743038	0.361438
760.938634	0.361291
761.134211	0.361505
761.329770	0.361549
761.525311	0.361674
761.720833	0.361605
761.916338	0.361738
762.111824	0.361468
762.307292	0.361129
762.502741	0.361181
762.698173	0.361044
762.893586	0.360762
763.088981	0.360238
763.284358	0.359764
763.479716	0.359311
763.675057	0.358968
763.870379	0.358598
764.065683	0.358388
764.260968	0.357942
764.456236	0.357513
764.651485	0.357532
764.846716	0.357624
765.041929	0.357684
765.237123	0.357377
765.432299	0.357533
765.627457	0.357694
765.822597	0.357693
766.017719	0.357434
766.212822	0.357720
766.407907	0.357534
766.602974	0.357435
766.798023	0.356978
766.993054	0.357219
767.188066	0.356966
767.383060	0.356503
767.578036	0.356229
767.772993	0.356258
767.967933	0.355957
768.162854	0.355923
768.357757	0.355977
768.552642	0.356085
768.747508	0.355963
768.942356	0.355568
769.137186	0.355640
769.331998	0.355819
769.526792	0.355524
769.721567	0.355372
769.916324	0.355091
770.111063	0.354865
770.305784	0.354761
770.500486	0.354544
770.695171	0.354516
770.889837	0.354390
771.084484	0.354165
771.279114	0.354150
771.473725	0.354056
771.668318	0.353858
771.862893	0.353935
772.057450	0.353710
772.251988	0.353845
772.446509	0.353815
772.641011	0.354008
772.835494	0.353969
773.029960	0.354231
773.224407	0.354089
773.418836	0.354224
773.613247	0.353995
773.807640	0.353872
774.002014	0.353600
774.196370	0.353625
774.390708	0.353281
774.585028	0.352903
774.779330	0.352776
774.973613	0.352811
775.167878	0.352511
775.362125	0.352457
775.556354	0.352223
775.750564	0.352412
775.944756	0.352264
776.138930	0.351947
776.333086	0.352077
776.527223	0.351946
776.721343	0.351830
776.915444	0.352141
777.109526	0.352226
777.303591	0.352336
777.497637	0.352124
777.691666	0.352093
777.885676	0.352368
778.079667	0.352589
778.273641	0.352404
778.467596	0.352422
778.661533	0.352481
778.855452	0.352439
779.049352	0.352757
779.243235	0.352848
779.437099	0.352826
779.630945	0.352908
779.824773	0.352680
780.018582	0.352703
780.212373	0.352640
780.406146	0.352426
780.599901	0.352397
780.793638	0.352252
780.987356	0.352254
781.181056	0.352334
781.374738	0.352501
781.568402	0.352628
781.762047	0.352587
781.955674	0.352956
782.149283	0.353099
782.342874	0.353165
782.536447	0.353287
782.730001	0.353410
782.923537	0.353596
783.117055	0.353308
783.310555	0.353371
783.504036	0.353359
783.697499	0.352936
783.890944	0.353135
784.084371	0.353025
784.277780	0.353112
784.471170	0.353085
784.664542	0.353049
784.857896	0.353186
785.051231	0.353134
785.244549	0.353130
785.437848	0.353609
785.631129	0.353374
785.824392	0.353599
786.017636	0.353378
786.210863	0.353493
786.404071	0.353730
786.597260	0.353738
786.790432	0.353769
786.983585	0.354073
787.176721	0.354126
787.369838	0.354248
787.562936	0.354292
787.756017	0.354820
787.949079	0.354892
788.142123	0.354796
788.335149	0.355015
788.528156	0.355175
788.721146	0.355233
788.914117	0.355067
789.107070	0.355082
789.300005	0.355240
789.492921	0.355191
789.685819	0.355395
789.878699	0.355579
790.071561	0.355628
790.264405	0.355873
790.457230	0.355942
790.650037	0.356318
790.842826	0.356488
791.035597	0.356403
791.228349	0.356409
791.421084	0.356433
791.613800	0.356634
791.806497	0.356744
791.999177	0.356654
792.191838	0.357009
792.384481	0.357025
792.577106	0.357154
792.769713	0.357587
792.962301	0.357709
793.154871	0.357849
793.347423	0.357719
793.539957	0.357661
793.732473	0.358041
793.924970	0.358160
794.117449	0.358245
794.309910	0.358293
794.502353	0.358223
794.694777	0.358562
794.887183	0.358956
795.079571	0.359314
795.271941	0.359502
795.464293	0.359416
795.656626	0.359775
795.848941	0.360031
796.041238	0.360188
796.233516	0.360348
796.425777	0.360245
796.618019	0.360145
796.810243	0.360151
797.002449	0.360755
797.194636	0.361260
797.386805	0.361362
797.578956	0.361319
797.771089	0.361431
797.963204	0.361620
798.155300	0.361867
798.347378	0.362320
798.539438	0.362806
798.731480	0.362968
798.923503	0.362956
799.115509	0.363336
799.307496	0.363937
799.499465	0.364395
799.691415	0.364698
799.883348	0.365293
800.075262	0.365530
800.267158	0.365725
800.459035	0.366037
800.650895	0.366532
800.842736	0.366379
801.034559	0.366558
801.226364	0.367091
801.418150	0.367567
801.609919	0.367737
801.801669	0.367691
801.993401	0.367911
802.185114	0.368364
802.376810	0.368452
802.568487	0.368792
802.760146	0.369001
802.951787	0.368900
803.143409	0.369088
803.335014	0.369177
803.526600	0.369613
803.718168	0.369869
803.909717	0.369646
804.101249	0.370128
804.292762	0.370338
804.484257	0.370438
804.675734	0.370870
804.867192	0.371128
805.058632	0.371520
805.250054	0.371984
805.441458	0.372144
805.632844	0.372461
805.824211	0.372700
806.015561	0.373527
806.206891	0.374147
806.398204	0.374776
806.589499	0.375265
806.780775	0.375618
806.972033	0.375686
807.163273	0.375941
807.354495	0.376288
807.545698	0.376738
807.736883	0.376559
807.928050	0.376731
808.119199	0.376747
808.310329	0.377208
808.501441	0.377513
808.692535	0.377832
808.883611	0.378741
809.074669	0.379298
809.265708	0.379288
809.456729	0.379835
809.647732	0.380279
809.838717	0.380774
810.029683	0.380641
810.220632	0.381172
810.411562	0.381816
810.602474	0.381832
810.793367	0.382320
810.984242	0.382820
811.175100	0.383357
811.365938	0.383887
811.556759	0.384226
811.747562	0.384719
811.938346	0.384857
812.129112	0.385121
812.319860	0.385603
812.510589	0.385751
812.701300	0.386046
812.891994	0.386103
813.082668	0.386158
813.273325	0.386401
813.463964	0.386909
813.654584	0.387389
813.845186	0.387769
814.035769	0.387922
814.226335	0.388707
814.416882	0.389305
814.607411	0.389850
814.797922	0.390497
814.988415	0.391061
815.178889	0.391130
815.369345	0.391610
815.559783	0.391906
815.750203	0.392615
815.940605	0.392696
816.130988	0.393155
816.321353	0.393591
816.511700	0.393982
816.702028	0.394324
816.892339	0.394941
817.082631	0.395200
817.272905	0.395712
817.463161	0.395949
817.653398	0.396502
817.843617	0.396649
818.033819	0.397180
818.224001	0.397937
818.414166	0.398396
818.604312	0.398888
818.794440	0.399600
818.984550	0.400161
819.174642	0.400788
819.364716	0.401276
819.554771	0.401682
819.744808	0.402138
819.934827	0.401868
820.124827	0.402271
820.314810	0.402931
820.504774	0.403259
820.694720	0.403351
820.884647	0.403995
821.074557	0.404236
821.264448	0.404853
821.454321	0.405350
821.644176	0.405647
821.834012	0.406273
822.023831	0.406976
822.213631	0.407514
822.403413	0.408107
822.593176	0.408136
822.782922	0.409105
822.972649	0.409871
823.162358	0.410350
823.352049	0.411314
823.541721	0.411634
823.731376	0.411678
823.921012	0.412190
824.110629	0.412800
824.300229	0.413237
824.489811	0.413408
824.679374	0.413838
824.868919	0.413885
825.058445	0.414326
825.247954	0.414846
825.437444	0.415637
825.626916	0.415925
825.816370	0.416704
826.005806	0.417337
826.195223	0.417843
826.384622	0.418106
826.574003	0.419092
826.763366	0.420074
826.952711	0.421050
827.142037	0.421104
827.331345	0.421535
827.520635	0.421898
827.709906	0.422685
827.899160	0.423078
828.088395	0.423791
828.277612	0.424305
828.466810	0.424440
828.655991	0.424408
828.845153	0.425102
829.034297	0.425853
829.223423	0.426692
829.412531	0.426766
829.601620	0.427122
829.790691	0.427370
829.979744	0.427380
830.168779	0.428331
830.357795	0.428605
830.546793	0.429487
830.735773	0.429705
830.924735	0.429986
831.113679	0.430641
831.302604	0.431377
831.491511	0.432107
831.680400	0.433003
831.869271	0.433079
832.058123	0.433853
832.246957	0.433644
832.435773	0.434441
832.624571	0.434965
832.813351	0.435759
833.002112	0.436322
833.190855	0.436885
833.379580	0.437505
833.568287	0.438118
833.756975	0.438646
833.945645	0.439503
834.134297	0.439575
834.322931	0.440111
834.511547	0.440481
834.700144	0.440922
834.888723	0.441329
835.077284	0.441635
835.265826	0.441982
835.454351	0.442617
835.642857	0.443051
835.831345	0.444121
836.019815	0.444485
836.208266	0.444956
836.396699	0.445571
836.585114	0.446107
836.773511	0.446669
836.961890	0.447739
837.150250	0.448466
837.338592	0.449791
837.526916	0.449798
837.715222	0.450200
837.903510	0.451199
838.091779	0.451776
838.280030	0.452375
838.468263	0.453104
838.656477	0.453252
838.844674	0.453601
839.032852	0.453406
839.221012	0.454369
839.409153	0.455089
839.597277	0.455558
839.785382	0.456091
839.973469	0.457126
840.161538	0.457683
840.349589	0.458351
840.537621	0.459217
840.725635	0.460197
840.913631	0.460944
841.101609	0.461573
841.289568	0.461981
841.477509	0.462790
841.665432	0.462833
841.853337	0.463476
842.041224	0.464291
842.229092	0.464752
842.416942	0.465231
842.604774	0.465667
842.792588	0.466166
842.980383	0.466623
843.168160	0.467460
843.355919	0.468312
843.543660	0.469286
843.731382	0.469724
843.919087	0.470482
844.106773	0.470944
844.294441	0.471760
844.482090	0.472453
844.669722	0.473321
844.857335	0.473747
845.044930	0.474277
845.232507	0.474232
845.420065	0.474853
845.607605	0.475240
845.795127	0.475913
845.982631	0.476417
846.170117	0.476927
846.357584	0.477260
846.545033	0.477726
846.732464	0.478375
846.919877	0.479277
847.107272	0.479742
847.294648	0.480003
847.482006	0.480588
847.669346	0.481163
847.856667	0.481371
848.043971	0.481993
848.231256	0.482675
848.418523	0.483386
848.605771	0.483966
848.793002	0.484694
848.980214	0.485508
849.167408	0.486128
849.354584	0.486727
849.541742	0.487725
849.728881	0.488512
849.916002	0.489043
850.103105	0.489445
850.290190	0.490167
850.477256	0.490821
850.664304	0.491568
850.851334	0.492020
851.038346	0.492364
851.225340	0.493131
851.412315	0.493590
851.599272	0.493786
851.786211	0.494272
851.973132	0.494638
852.160034	0.494877
852.346918	0.495437
852.533784	0.495787
852.720632	0.496552
852.907462	0.496957
853.094273	0.497523
853.281066	0.498161
853.467841	0.498797
853.654598	0.499116
853.841336	0.499819
854.028056	0.499979
854.214758	0.500934
854.401442	0.501620
854.588107	0.502120
854.774755	0.502223
854.961384	0.502356
855.147995	0.503177
855.334587	0.503984
855.521162	0.504758
855.707718	0.505687
855.894256	0.506166
856.080775	0.506702
856.267277	0.507329
856.453760	0.508524
856.640225	0.509654
856.826672	0.509750
857.013101	0.510515
857.199511	0.511132
857.385903	0.511500
857.572277	0.512070
857.758633	0.512688
857.944970	0.512941
858.131290	0.513135
858.317591	0.513537
858.503873	0.514363
858.690138	0.514447
858.876384	0.514443
859.062612	0.514982
859.248822	0.515241
859.435014	0.515320
859.621188	0.516060
859.807343	0.516916
859.993480	0.517549
860.179599	0.517746
860.365699	0.518236
860.551781	0.519355
860.737846	0.519434
860.923891	0.519581
861.109919	0.520278
861.295929	0.520878
861.481920	0.521377
861.667893	0.521919
861.853848	0.522304
862.039784	0.523449
862.225702	0.523849
862.411603	0.525053
862.597484	0.526360
862.783348	0.527032
862.969193	0.527688
863.155021	0.528244
863.340830	0.528784
863.526620	0.529434
863.712393	0.529591
863.898147	0.529808
864.083883	0.530086
864.269601	0.529907
864.455301	0.530374
864.640982	0.530853
864.826645	0.530556
865.012290	0.530920
865.197917	0.531652
865.383526	0.532446
865.569116	0.532926
865.754688	0.533173
865.940242	0.534443
866.125777	0.535043
866.311295	0.535199
866.496794	0.536476
866.682275	0.537166
866.867737	0.537701
867.053182	0.537647
867.238608	0.538308
867.424016	0.539019
867.609406	0.539087
867.794778	0.539306
867.980131	0.539798
868.165466	0.540291
868.350783	0.540547
868.536082	0.541123
868.721362	0.541855
868.906625	0.541886
869.091869	0.542224
869.277094	0.542963
869.462302	0.543250
869.647491	0.543788
869.832662	0.544016
870.017815	0.544310
870.202950	0.543854
870.388066	0.544046
870.573165	0.545005
870.758245	0.545698
870.943306	0.545018
871.128350	0.545175
871.313375	0.545472
871.498382	0.546056
871.683371	0.546464
871.868342	0.547508
872.053294	0.547808
872.238229	0.547493
872.423144	0.547587
872.608042	0.548477
872.792922	0.549355
872.977783	0.549779
873.162626	0.549453
873.347451	0.549921
873.532258	0.550230
873.717046	0.550406
873.901816	0.551299
874.086568	0.551535
874.271302	0.552261
874.456017	0.552100
874.640715	0.552090
874.825394	0.552532
875.010055	0.552911
875.194697	0.553041
875.379322	0.553274
875.563928	0.552659
875.748516	0.553057
875.933085	0.553442
876.117637	0.553834
876.302170	0.554688
876.486685	0.555688
876.671182	0.555825
876.855661	0.555701
877.040121	0.555926
877.224563	0.556548
877.408987	0.556412
877.593393	0.556809
877.777780	0.557303
877.962150	0.556920
878.146501	0.556215
878.330833	0.556305
878.515148	0.556859
878.699444	0.557219
878.883722	0.557528
879.067982	0.557893
879.252224	0.557804
879.436447	0.557644
879.620653	0.557683
879.804840	0.557877
879.989008	0.558340
880.173159	0.558700
880.357291	0.558894
880.541405	0.559325
880.725501	0.559689
880.909579	0.559879
881.093638	0.560636
881.277680	0.561309
881.461703	0.561982
881.645707	0.562019
881.829694	0.562552
882.013662	0.562903
882.197612	0.562830
882.381544	0.563059
882.565458	0.562795
882.749353	0.561925
882.933230	0.562276
883.117089	0.562019
883.300930	0.562234
883.484753	0.561823
883.668557	0.562117
883.852343	0.561906
884.036111	0.561980
884.219861	0.561780
884.403592	0.562732
884.587305	0.562645
884.771000	0.562746
884.954677	0.562118
885.138335	0.562088
885.321976	0.561832
885.505598	0.561784
885.689201	0.561507
885.872787	0.562017
886.056354	0.561917
886.239904	0.562010
886.423434	0.562221
886.606947	0.562733
886.790442	0.562835
886.973918	0.562895
887.157376	0.563502
887.340816	0.563507
887.524237	0.563555
887.707641	0.563784
887.891026	0.563181
888.074393	0.563262
888.257741	0.563525
888.441072	0.563547
888.624384	0.563474
888.807678	0.563858
888.990954	0.564360
889.174211	0.564440
889.357451	0.564234
889.540672	0.564188
889.723875	0.564346
889.907059	0.563703
890.090226	0.563559
890.273374	0.563535
890.456504	0.563278
890.639616	0.563061
890.822709	0.562866
891.005785	0.562866
891.188842	0.563281
891.371881	0.562624
891.554901	0.562759
891.737904	0.562801
891.920888	0.562949
892.103854	0.563000
892.286802	0.562254
892.469731	0.561994
892.652643	0.561592
892.835536	0.562086
893.018410	0.562644
893.201267	0.562721
893.384106	0.562631
893.566926	0.561994
893.749728	0.561841
893.932511	0.561999
894.115277	0.561459
894.298024	0.560914
894.480753	0.559621
894.663464	0.558744
894.846157	0.558883
895.028831	0.558589
895.211487	0.558370
895.394125	0.557703
895.576745	0.557794
895.759346	0.558654
895.941930	0.558808
896.124495	0.559012
896.307041	0.558904
896.489570	0.558440
896.672080	0.558261
896.854573	0.558431
897.037046	0.557937
897.219502	0.557442
897.401940	0.556923
897.584359	0.556826
897.766760	0.556763
897.949143	0.556190
898.131507	0.556533
898.313854	0.556543
898.496182	0.556229
898.678492	0.556367
898.860783	0.556712
899.043057	0.555256
899.225312	0.555120
899.407549	0.553933
899.589768	0.554154
899.771968	0.552788
899.954151	0.552788
900.136315	0.552005
900.318461	0.551782
900.500588	0.551528
900.682698	0.551553
900.864789	0.550834
901.046862	0.551302
901.228917	0.550559
901.410953	0.550315
901.592971	0.549199
901.774972	0.548700
901.956953	0.548825
902.138917	0.547595
902.320862	0.547340
902.502790	0.547339
902.684699	0.546854
902.866589	0.546659
903.048462	0.547083
903.230316	0.546603
903.412152	0.546063
903.593970	0.544832
903.775770	0.544693
903.957551	0.544771
904.139314	0.543881
904.321059	0.543223
904.502786	0.542672
904.684494	0.541558
904.866185	0.541362
905.047857	0.541163
905.229510	0.540877
905.411146	0.540530
905.592763	0.539750
905.774363	0.539528
905.955943	0.538712
906.137506	0.538370
906.319051	0.537546
906.500577	0.536932
906.682085	0.536644
906.863575	0.536274
907.045046	0.536070
907.226500	0.535730
907.407935	0.535126
907.589352	0.535061
907.770750	0.535131
907.952131	0.535036
908.133493	0.534144
908.314837	0.533805
908.496163	0.532932
908.677470	0.531648
908.858760	0.530505
909.040031	0.530133
909.221284	0.529435
909.402518	0.528553
909.583735	0.527504
909.764933	0.527181
909.946113	0.526381
910.127275	0.525482
910.308418	0.524769
910.489544	0.524615
910.670651	0.523310
910.851740	0.522749
911.032810	0.521670
911.213863	0.520977
911.394897	0.520632
911.575913	0.519611
911.756911	0.519685
911.937890	0.519739
912.118851	0.519562
912.299794	0.519099
912.480719	0.518437
912.661626	0.518625
912.842514	0.518567
913.023384	0.518026
913.204236	0.518094
913.385070	0.517316
913.565886	0.516133
913.746683	0.514556
913.927462	0.513612
914.108223	0.513346
914.288965	0.511418
914.469690	0.509728
914.650396	0.508144
914.831084	0.507291
915.011754	0.506094
915.192405	0.505077
915.373038	0.505318
915.553653	0.505042
915.734250	0.504239
915.914829	0.503617
916.095389	0.503373
916.275931	0.503416
916.456455	0.502408
916.636961	0.500296
916.817448	0.499022
916.997917	0.497574
917.178368	0.496476
917.358801	0.494535
917.539216	0.493262
917.719612	0.491789
917.899990	0.490487
918.080350	0.489343
918.260692	0.489070
918.441015	0.488977
918.621320	0.487535
918.801607	0.486350
918.981876	0.485812
919.162127	0.485876
919.342359	0.485504
919.522573	0.483843
919.702769	0.482888
919.882947	0.481988
920.063106	0.480743
920.243247	0.480178
920.423370	0.479551
920.603475	0.478507
920.783562	0.476524
920.963630	0.475437
921.143680	0.474903
921.323712	0.474487
921.503725	0.474726
921.683721	0.474160
921.863698	0.473401
922.043657	0.471815
922.223598	0.471672
922.403520	0.471028
922.583424	0.469936
922.763311	0.469296
922.943178	0.467156
923.123028	0.465214
923.302859	0.464279
923.482673	0.462619
923.662467	0.462225
923.842244	0.460940
924.022003	0.460569
924.201743	0.460002
924.381465	0.458493
924.561169	0.457548
924.740854	0.456488
924.920522	0.454905
925.100171	0.454225
925.279802	0.452933
925.459414	0.451951
925.639009	0.450349
925.818585	0.448715
925.998143	0.447684
926.177683	0.447642
926.357205	0.447316
926.536708	0.445389
926.716193	0.443874
926.895660	0.443239
927.075109	0.441648
927.254539	0.440365
927.433951	0.439523
927.613345	0.437777
927.792721	0.436927
927.972079	0.434268
928.151418	0.433884
928.330739	0.432875
928.510042	0.431073
928.689327	0.429620
928.868593	0.428446
929.047841	0.427207
929.227071	0.426595
929.406283	0.423711
929.585476	0.423337
929.764652	0.422336
929.943809	0.422038
930.122948	0.421341
930.302068	0.419574
930.481171	0.418433
930.660255	0.416803
930.839321	0.415801
931.018369	0.414861
931.197398	0.413677
931.376409	0.412324
931.555402	0.410286
931.734377	0.408416
931.913334	0.407233
932.092272	0.405983
932.271192	0.405577
932.450094	0.404475
932.628978	0.403481
932.807844	0.402219
932.986691	0.401191
933.165520	0.399267
933.344331	0.398988
933.523123	0.398999
933.701898	0.397739
933.880654	0.395416
934.059392	0.394145
934.238111	0.392036
934.416813	0.389802
934.595496	0.387952
934.774161	0.386676
934.952808	0.384884
935.131437	0.382399
935.310047	0.380785
935.488639	0.379112
935.667213	0.377607
935.845769	0.377571
936.024306	0.377330
936.202825	0.376137
936.381326	0.375159
936.559809	0.372845
936.738274	0.370921
936.916720	0.369522
937.095148	0.369501
937.273558	0.366858
937.451950	0.365131
937.630323	0.363383
937.808678	0.361306
937.987015	0.360178
938.165334	0.359771
938.343635	0.358899
938.521917	0.357855
938.700181	0.355710
938.878427	0.355110
939.056655	0.353625
939.234864	0.352155
939.413055	0.351367
939.591228	0.350740
939.769383	0.348228
939.947519	0.347522
940.125638	0.346124
940.303738	0.345160
940.481820	0.344057
940.659883	0.341486
940.837929	0.338884
941.015956	0.336758
941.193965	0.335377
941.371955	0.335030
941.549928	0.332467
941.727882	0.330623
941.905818	0.327331
942.083736	0.325246
942.261636	0.325055
942.439517	0.323825
942.617380	0.321987
942.795225	0.319383
942.973052	0.316614
943.150860	0.315094
943.328651	0.313731
943.506423	0.312917
943.684176	0.311171
943.861912	0.308544
944.039629	0.307867
944.217328	0.306448
944.395009	0.304225
944.572672	0.303322
944.750317	0.300633
944.927943	0.297886
945.105551	0.296018
945.283141	0.294588
945.460712	0.293069
945.638265	0.291303
945.815801	0.288996
945.993317	0.287233
946.170816	0.283580
946.348297	0.283224
946.525759	0.281143
946.703203	0.280336
946.880629	0.278011
947.058036	0.276053
947.235425	0.273299
947.412797	0.271674
947.590149	0.270641
947.767484	0.271028
947.944800	0.267299
948.122099	0.266255
948.299379	0.264019
948.476640	0.263358
948.653884	0.261491
948.831109	0.259626
949.008316	0.258299
949.185505	0.255326
949.362676	0.251529
949.539828	0.251520
949.716962	0.250106
949.894078	0.247995
950.071176	0.245766
950.248256	0.243987
950.425317	0.242296
950.602360	0.240603
950.779385	0.238923
950.956391	0.238585
951.133380	0.238333
951.310350	0.236719
951.487302	0.235666
951.664235	0.233097
951.841151	0.231838
952.018048	0.231526
952.194927	0.230002
952.371788	0.232040
952.548631	0.229848
952.725455	0.226675
952.902261	0.224997
953.079049	0.222442
953.255819	0.220289
953.432570	0.218582
953.609303	0.216918
953.786018	0.216891
953.962715	0.210891
954.139394	0.210319
954.316054	0.210925
954.492696	0.211533
954.669320	0.211286
954.845926	0.210424
955.022513	0.208778
955.199083	0.205861
955.375634	0.203095
955.552166	0.202523
955.728681	0.200519
955.905177	0.198054
956.081655	0.193317
956.258115	0.192027
956.434557	0.191518
956.610980	0.190847
956.787385	0.189641
956.963772	0.189642
957.140141	0.188090
957.316492	0.186617
957.492824	0.184071
957.669138	0.183690
957.845434	0.182971
958.021712	0.182902
958.197971	0.181493
958.374212	0.181645
958.550435	0.178836
958.726640	0.179407
958.902826	0.179001
959.078995	0.178114
959.255145	0.176347
959.431277	0.173631
959.607390	0.171470
959.783486	0.171336
959.959563	0.168725
960.135622	0.167728
960.311662	0.164178
960.487685	0.162006
960.663689	0.160968
960.839675	0.158841
961.015643	0.157978
961.191593	0.157206
961.367524	0.155287
961.543437	0.156074
961.719332	0.156747
961.895209	0.156820
962.071067	0.156826
962.246907	0.157810
962.422730	0.158460
962.598533	0.158711
962.774319	0.157851
962.950086	0.157781
963.125835	0.156627
963.301566	0.155221
963.477279	0.155089
963.652973	0.154327
963.828650	0.153027
964.004308	0.153114
964.179947	0.151713
964.355569	0.148621
964.531172	0.148748
964.706757	0.147602
964.882324	0.146922
965.057873	0.147819
965.233403	0.147961
965.408916	0.147108
965.584410	0.146764
965.759885	0.147443
965.935343	0.149609
966.110782	0.148401
966.286203	0.148841
966.461606	0.151295
966.636991	0.150302
966.812357	0.149916
966.987705	0.150281
967.163035	0.149149
967.338347	0.147127
967.513641	0.148150
967.688916	0.147397
967.864173	0.146364
968.039412	0.143961
968.214632	0.144330
968.389835	0.143755
968.565019	0.144575
968.740185	0.144477
968.915333	0.146644
969.090462	0.145693
969.265573	0.145455
969.440667	0.145121
969.615741	0.145982
969.790798	0.144864
969.965836	0.145168
970.140856	0.144438
970.315858	0.144340
970.490842	0.142977
970.665808	0.141889
970.840755	0.142574
971.015684	0.143659
971.190595	0.142601
971.365487	0.142991
971.540362	0.142828
971.715218	0.142563
971.890056	0.141604
972.064875	0.141477
972.239677	0.141634
972.414460	0.141800
972.589225	0.141673
972.763972	0.142339
972.938700	0.141400
973.113411	0.139895
973.288103	0.137857
973.462777	0.139168
973.637432	0.137469
973.812070	0.135960
973.986689	0.133402
974.161290	0.133108
974.335873	0.132002
974.510437	0.131418
974.684984	0.133115
974.859512	0.133487
975.034022	0.135277
975.208513	0.136498
975.382987	0.138681
975.557442	0.141526
975.731879	0.142594
975.906298	0.144094
976.080698	0.146612
976.255080	0.145797
976.429445	0.146145
976.603790	0.144628
976.778118	0.144154
976.952427	0.143818
977.126719	0.143660
977.300992	0.144360
977.475246	0.142689
977.649483	0.139626
977.823701	0.138969
977.997901	0.139284
978.172083	0.140704
978.346247	0.141748
978.520392	0.140915
978.694519	0.140551
978.868628	0.139126
979.042719	0.139006
979.216791	0.142578
979.390845	0.143069
979.564882	0.144266
979.738899	0.142212
979.912899	0.140422
980.086880	0.139675
980.260843	0.141830
980.434788	0.141983
980.608715	0.140277
980.782623	0.139487
980.956514	0.140137
981.130386	0.137479
981.304240	0.138317
981.478075	0.138843
981.651892	0.140006
981.825692	0.139152
981.999472	0.137860
982.173235	0.139995
982.346980	0.139849
982.520706	0.139729
982.694414	0.140403
982.868104	0.140202
983.041775	0.141603
983.215428	0.142326
983.389064	0.140837
983.562680	0.141925
983.736279	0.140966
983.909860	0.141013
984.083422	0.140001
984.256966	0.141739
984.430491	0.142141
984.603999	0.140192
984.777488	0.140709
984.950959	0.139205
985.124412	0.139053
985.297847	0.141060
985.471263	0.140832
985.644661	0.142190
985.818041	0.142972
985.991403	0.143915
986.164747	0.146566
986.338072	0.144581
986.511379	0.145888
986.684668	0.146386
986.857938	0.145726
987.031191	0.145869
987.204425	0.146518
987.377641	0.144069
987.550839	0.143249
987.724018	0.144259
987.897179	0.145428
988.070322	0.145551
988.243447	0.146158
988.416554	0.147040
988.589642	0.147849
988.762712	0.147380
988.935764	0.147721
989.108798	0.147836
989.281813	0.145510
989.454811	0.144833
989.627790	0.148192
989.800751	0.147249
989.973693	0.147354
990.146617	0.146590
990.319524	0.145279
990.492412	0.147451
990.665281	0.147019
990.838133	0.147341
991.010966	0.148091
991.183781	0.146552
991.356578	0.146953
991.529356	0.145958
991.702117	0.147236
991.874859	0.149646
992.047583	0.148143
992.220288	0.148411
992.392976	0.147948
992.565645	0.148946
992.738296	0.146888
992.910929	0.147003
993.083543	0.146707
993.256139	0.146314
993.428718	0.144708
993.601277	0.144400
993.773819	0.145695
993.946342	0.146965
994.118848	0.147357
994.291335	0.148428
994.463803	0.147695
994.636254	0.149370
994.808686	0.147512
994.981100	0.148680
995.153496	0.150264
995.325874	0.149591
995.498233	0.149893
995.670574	0.148582
995.842897	0.148698
996.015202	0.150616
996.187488	0.150810
996.359757	0.153137
996.532007	0.154093
996.704239	0.154415
996.876452	0.155748
997.048648	0.155723
997.220825	0.156995
997.392984	0.158132
997.565124	0.156933
997.737247	0.156812
997.909351	0.156592
998.081437	0.155921
998.253505	0.154628
998.425554	0.154190
998.597586	0.154348
998.769599	0.151315
998.941594	0.151697
999.113571	0.152404
999.285529	0.149781
999.457469	0.149651
999.629391	0.149290
999.801295	0.149876
999.973181	0.147299
1000.145048	0.146874
1000.316897	0.149478
1000.488728	0.147730
1000.660541	0.147937
1000.832335	0.149806
1001.004111	0.149098
1001.175869	0.148107
1001.347609	0.148643
1001.519331	0.150453
1001.691034	0.151094
1001.862719	0.150981
1002.034386	0.152184
1002.206035	0.151355
1002.377665	0.151534
1002.549277	0.152370
1002.720871	0.153390
1002.892447	0.152250
1003.064004	0.153293
1003.235544	0.152345
1003.407065	0.152749
1003.578568	0.150849
1003.750052	0.152769
1003.921519	0.151253
1004.092967	0.151403
1004.264397	0.150977
1004.435809	0.151425
1004.607202	0.149508
1004.778577	0.148828
1004.949934	0.147609
1005.121273	0.149823
1005.292594	0.148192
1005.463896	0.150039
1005.635180	0.148337
1005.806446	0.149412
1005.977694	0.150069
1006.148923	0.151053
1006.320135	0.153128
1006.491328	0.153319
1006.662503	0.153527
1006.833659	0.152856
1007.004798	0.153331
1007.175918	0.157312
1007.347020	0.157146
1007.518103	0.156012
1007.689169	0.156641
1007.860216	0.157530
1008.031245	0.159063
1008.202256	0.158432
1008.373248	0.159157
1008.544223	0.158220
1008.715179	0.155126
1008.886117	0.154456
1009.057036	0.155625
1009.227938	0.154389
1009.398821	0.153310
1009.569686	0.152896
1009.740533	0.150986
1009.911361	0.150814
1010.082172	0.150931
1010.252964	0.151746
1010.423738	0.149899
1010.594493	0.148610
1010.765231	0.149236
1010.935950	0.149130
1011.106651	0.148269
1011.277334	0.150157
1011.447998	0.151816
1011.618645	0.151241
1011.789273	0.151087
1011.959882	0.151668
1012.130474	0.152833
1012.301048	0.153328
1012.471603	0.151853
1012.642140	0.153158
1012.812658	0.154439
1012.983159	0.154266
1013.153641	0.154565
1013.324105	0.152062
1013.494551	0.153510
1013.664979	0.152156
1013.835388	0.151753
1014.005779	0.152485
1014.176152	0.151081
1014.346507	0.148421
1014.516843	0.148544
1014.687162	0.149567
1014.857462	0.149592
1015.027744	0.147403
1015.198007	0.148849
1015.368252	0.149850
1015.538480	0.150371
1015.708689	0.149333
1015.878879	0.149388
1016.049052	0.149209
1016.219206	0.148353
1016.389342	0.149412
1016.559460	0.152167
1016.729559	0.152207
1016.899641	0.152449
1017.069704	0.150217
1017.239749	0.151237
1017.409775	0.151215
1017.579784	0.151308
1017.749774	0.151095
1017.919746	0.153284
1018.089700	0.153925
1018.259635	0.152877
1018.429553	0.151164
1018.599452	0.154381
1018.769333	0.154004
1018.939195	0.154890
1019.109040	0.153907
1019.278866	0.152959
1019.448674	0.151696
1019.618464	0.150665
1019.788235	0.151011
1019.957989	0.150852
1020.127724	0.149745
1020.297441	0.150738
1020.467139	0.150503
1020.636820	0.150200
1020.806482	0.150647
1020.976126	0.151552
1021.145752	0.152574
1021.315359	0.153432
1021.484948	0.152568
1021.654519	0.152099
1021.824072	0.152013
1021.993607	0.153056
1022.163123	0.154513
1022.332621	0.155355
1022.502101	0.154934
1022.671563	0.154188
1022.841007	0.152677
1023.010432	0.154238
1023.179839	0.155930
1023.349228	0.155775
1023.518598	0.152943
1023.687951	0.152487
1023.857285	0.152907
1024.026601	0.151997
1024.195899	0.153522
1024.365178	0.153553
1024.534439	0.155100
1024.703682	0.154246
1024.872907	0.155302
1025.042114	0.157373
1025.211302	0.157765
1025.380472	0.157797
1025.549624	0.158226
1025.718758	0.155242
1025.887873	0.156235
1026.056970	0.156639
1026.226049	0.155857
1026.395110	0.154433
1026.564153	0.154724
1026.733177	0.154562
1026.902183	0.152621
1027.071171	0.153304
1027.240141	0.155822
1027.409092	0.155708
1027.578026	0.153267
1027.746940	0.154180
1027.915837	0.151997
1028.084716	0.152838
1028.253576	0.152271
1028.422418	0.151221
1028.591242	0.149463
1028.760048	0.147640
1028.928835	0.148037
1029.097604	0.149945
1029.266355	0.149260
1029.435088	0.151754
1029.603803	0.150707
1029.772499	0.149305
1029.941177	0.151443
1030.109837	0.153784
1030.278478	0.154135
1030.447102	0.154385
1030.615707	0.153948
1030.784294	0.154556
1030.952863	0.154187
1031.121413	0.154854
1031.289945	0.156130
1031.458460	0.155591
1031.626955	0.154196
1031.795433	0.154659
1031.963892	0.153290
1032.132334	0.152700
1032.300756	0.152157
1032.469161	0.151024
1032.637548	0.150749
1032.805916	0.150181
1032.974266	0.151880
1033.142598	0.152021
1033.310911	0.152544
1033.479207	0.152896
1033.647484	0.153294
1033.815743	0.153439
1033.983983	0.155784
1034.152206	0.154666
1034.320410	0.155462
1034.488596	0.154044
1034.656764	0.153213
1034.824914	0.152990
1034.993045	0.153140
1035.161158	0.151501
1035.329253	0.151533
1035.497330	0.150146
1035.665388	0.150845
1035.833428	0.149944
1036.001450	0.150034
1036.169454	0.151771
1036.337440	0.150416
1036.505407	0.149582
1036.673356	0.150071
1036.841287	0.150305
1037.009200	0.150892
1037.177094	0.151120
1037.344970	0.153474
1037.512828	0.152944
1037.680668	0.152332
1037.848489	0.153262
1038.016293	0.153387
1038.184078	0.153880
1038.351845	0.153687
1038.519593	0.153927
1038.687324	0.153670
1038.855036	0.150180
1039.022730	0.149933
1039.190406	0.148344
1039.358063	0.147145
1039.525702	0.146698
1039.693323	0.144442
1039.860926	0.144346
1040.028511	0.144268
1040.196077	0.143577
1040.363625	0.144669
1040.531155	0.145754
1040.698667	0.147292
1040.866161	0.146985
1041.033636	0.148250
1041.201093	0.151096
1041.368532	0.150280
1041.535952	0.149694
1041.703355	0.149685
1041.870739	0.148463
1042.038105	0.148861
1042.205452	0.149308
1042.372782	0.150964
1042.540093	0.151204
1042.707386	0.150479
1042.874661	0.151187
1043.041918	0.151415
1043.209156	0.151192
1043.376376	0.152319
1043.543578	0.149603
1043.710762	0.150315
1043.877927	0.150596
1044.045074	0.151355
1044.212203	0.149305
1044.379314	0.149665
1044.546407	0.148281
1044.713481	0.149185
1044.880537	0.150464
1045.047575	0.152935
1045.214595	0.151620
1045.381596	0.151955
1045.548579	0.151127
1045.715544	0.151941
1045.882491	0.150854
1046.049420	0.151365
1046.216330	0.152430
1046.383222	0.152085
1046.550096	0.152626
1046.716951	0.151830
1046.883789	0.151945
1047.050608	0.150730
1047.217409	0.151179
1047.384192	0.151407
1047.550956	0.151247
1047.717703	0.151039
1047.884431	0.149803
1048.051140	0.149533
1048.217832	0.150638
1048.384505	0.149519
1048.551161	0.148977
1048.717798	0.148940
1048.884416	0.150782
1049.051017	0.151422
1049.217599	0.150715
1049.384163	0.151371
1049.550709	0.150779
1049.717237	0.151107
1049.883746	0.151464
1050.050237	0.151722
1050.216710	0.153409
1050.383165	0.150885
1050.549601	0.152903
1050.716019	0.151861
1050.882420	0.152870
1051.048801	0.152817
1051.215165	0.151128
1051.381510	0.150294
1051.547837	0.151034
1051.714146	0.150637
1051.880437	0.151442
1052.046709	0.150355
1052.212964	0.151888
1052.379200	0.151359
1052.545417	0.152237
1052.711617	0.152119
1052.877798	0.152579
1053.043961	0.155375
1053.210106	0.153960
1053.376233	0.155151
1053.542341	0.154344
1053.708432	0.153479
1053.874504	0.152474
1054.040557	0.151830
1054.206593	0.153562
1054.372610	0.152850
1054.538609	0.149148
1054.704590	0.150226
1054.870553	0.148764
1055.036497	0.149173
1055.202424	0.148846
1055.368331	0.150799
1055.534221	0.152446
1055.700093	0.151591
1055.865946	0.152675
1056.031781	0.153519
1056.197598	0.153701
1056.363397	0.156579
1056.529177	0.156536
1056.694939	0.157907
1056.860683	0.155541
1057.026409	0.154184
1057.192116	0.153480
1057.357806	0.150111
1057.523477	0.151059
1057.689130	0.149934
1057.854764	0.149275
1058.020381	0.149568
1058.185979	0.148282
1058.351559	0.150891
1058.517120	0.149664
1058.682664	0.149117
1058.848189	0.153841
1059.013696	0.154339
1059.179185	0.155899
1059.344656	0.155462
1059.510108	0.155987
1059.675542	0.156578
1059.840958	0.154567
1060.006356	0.155200
1060.171735	0.156761
1060.337096	0.154594
1060.502439	0.154646
1060.667764	0.154063
1060.833071	0.153581
1060.998359	0.154331
1061.163629	0.155162
1061.328881	0.155066
1061.494115	0.155393
1061.659330	0.154637
1061.824527	0.156417
1061.989706	0.156125
1062.154867	0.156659
1062.320010	0.156379
1062.485134	0.157201
1062.650240	0.155330
1062.815328	0.155573
1062.980398	0.155866
1063.145449	0.155879
1063.310482	0.155697
1063.475497	0.154089
1063.640494	0.152975
1063.805473	0.153589
1063.970433	0.149860
1064.135375	0.149983
1064.300299	0.149316
1064.465204	0.148940
1064.630092	0.149717
1064.794961	0.149517
1064.959812	0.151288
1065.124645	0.151919
1065.289459	0.151085
1065.454256	0.151908
1065.619034	0.151869
1065.783793	0.151806
1065.948535	0.150730
1066.113258	0.152411
1066.277964	0.151140
1066.442651	0.150116
1066.607319	0.149546
1066.771970	0.151137
1066.936602	0.151602
1067.101216	0.152869
1067.265812	0.153972
1067.430389	0.154974
1067.594949	0.152259
1067.759490	0.153615
1067.924013	0.153391
1068.088518	0.152682
1068.253004	0.151253
1068.417472	0.152192
1068.581922	0.152815
1068.746354	0.151372
1068.910768	0.148533
1069.075163	0.147937
1069.239540	0.144910
1069.403899	0.145376
1069.568240	0.145652
1069.732562	0.145900
1069.896866	0.145459
1070.061152	0.144642
1070.225420	0.146444
1070.389670	0.149767
1070.553901	0.152305
1070.718114	0.152725
1070.882309	0.151607
1071.046486	0.151223
1071.210644	0.151303
1071.374784	0.152127
1071.538906	0.153251
1071.703010	0.151459
1071.867096	0.150918
1072.031163	0.150295
1072.195212	0.152623
1072.359243	0.153508
1072.523256	0.153107
1072.687250	0.151779
1072.851226	0.151630
1073.015184	0.150939
1073.179124	0.152522
1073.343045	0.152898
1073.506949	0.153521
1073.670834	0.152974
1073.834701	0.155118
1073.998549	0.156844
1074.162380	0.158922
1074.326192	0.158544
1074.489986	0.156955
1074.653761	0.158736
1074.817519	0.158900
1074.981258	0.157227
1075.144979	0.158332
1075.308682	0.154684
1075.472367	0.154761
1075.636033	0.154464
1075.799681	0.155928
1075.963311	0.158322
1076.126923	0.157226
1076.290516	0.155538
1076.454092	0.156844
1076.617649	0.152335
1076.781187	0.155356
1076.944708	0.156456
1077.108210	0.154584
1077.271695	0.153899
1077.435160	0.152576
1077.598608	0.151255
1077.762038	0.152758
1077.925449	0.150882
1078.088842	0.155380
1078.252217	0.153323
1078.415573	0.151599
1078.578912	0.152242
1078.742232	0.149592
1078.905534	0.152182
1079.068817	0.155308
1079.232083	0.155928
1079.395330	0.157949
1079.558559	0.158736
1079.721770	0.160132
1079.884962	0.161559
1080.048136	0.161914
1080.211293	0.163159
1080.374430	0.160680
1080.537550	0.156025
1080.700651	0.155367
1080.863735	0.154664
1081.026800	0.153784
1081.189846	0.153367
1081.352875	0.150503
1081.515885	0.151305
1081.678877	0.152225
1081.841851	0.152429
1082.004807	0.155515
1082.167744	0.157008
1082.330663	0.156964
1082.493564	0.157368
1082.656447	0.157610
1082.819312	0.159467
1082.982158	0.157524
1083.144986	0.156807
1083.307796	0.156824
1083.470587	0.155028
1083.633361	0.154175
1083.796116	0.153418
1083.958853	0.151653
1084.121571	0.151529
1084.284272	0.152393
1084.446954	0.153514
1084.609618	0.152705
1084.772264	0.151481
1084.934892	0.154271
1085.097501	0.154128
1085.260092	0.156640
1085.422665	0.158133
1085.585220	0.156978
1085.747756	0.155976
1085.910274	0.154354
1086.072774	0.154608
1086.235256	0.153156
1086.397720	0.151140
1086.560165	0.150175
1086.722592	0.148885
1086.885001	0.147903
1087.047392	0.150366
1087.209764	0.153220
1087.372119	0.156176
1087.534455	0.156654
1087.696772	0.161213
1087.859072	0.161801
1088.021353	0.161626
1088.183616	0.161516
1088.345861	0.160660
1088.508088	0.158962
1088.670296	0.155328
1088.832486	0.153583
1088.994658	0.153833
1089.156812	0.151537
1089.318948	0.151959
1089.481065	0.153760
1089.643164	0.153510
1089.805245	0.154768
1089.967308	0.155682
1090.129352	0.156982
1090.291378	0.157094
1090.453386	0.157890
1090.615376	0.157479
1090.777347	0.156688
1090.939301	0.154147
1091.101236	0.154817
1091.263153	0.154954
1091.425051	0.153520
1091.586932	0.153065
1091.748794	0.153897
1091.910638	0.153818
1092.072463	0.153411
1092.234271	0.153945
1092.396060	0.157539
1092.557831	0.158259
1092.719584	0.157136
1092.881319	0.156642
1093.043035	0.155301
1093.204733	0.155700
1093.366413	0.155343
1093.528075	0.157301
1093.689718	0.158380
1093.851343	0.155378
1094.012950	0.152593
1094.174539	0.154013
1094.336110	0.154871
1094.497662	0.157333
1094.659196	0.157921
1094.820712	0.158674
1094.982210	0.158638
1095.143689	0.156083
1095.305151	0.157932
1095.466594	0.158771
1095.628018	0.157409
1095.789425	0.158020
1095.950813	0.156468
1096.112183	0.152190
1096.273535	0.152075
1096.434869	0.151707
1096.596184	0.151939
1096.757482	0.150778
1096.918761	0.149170
1097.080021	0.150555
1097.241264	0.150540
1097.402488	0.151973
1097.563694	0.155513
1097.724882	0.151417
1097.886052	0.151135
1098.047203	0.153652
1098.208336	0.153440
1098.369451	0.153358
1098.530548	0.151579
1098.691627	0.151481
1098.852687	0.150418
1099.013729	0.149350
1099.174753	0.152405
1099.335758	0.152858
1099.496746	0.150513
1099.657715	0.151751
1099.818666	0.153640
1099.979599	0.153273
1100.140513	0.151887
1100.301409	0.151784
1100.462287	0.152369
1100.623147	0.154100
1100.783989	0.154254
1100.944812	0.154930
1101.105617	0.155956
1101.266404	0.156895
1101.427173	0.158100
1101.587923	0.160407
1101.748656	0.161771
1101.909370	0.161355
1102.070066	0.159388
1102.230743	0.159523
1102.391403	0.157960
1102.552044	0.154179
1102.712667	0.152740
1102.873271	0.151417
1103.033858	0.151387
1103.194426	0.149647
1103.354976	0.148551
1103.515508	0.147038
1103.676021	0.146951
1103.836517	0.150692
1103.996994	0.155385
1104.157453	0.155174
1104.317893	0.155820
1104.478316	0.153138
1104.638720	0.156190
1104.799106	0.155284
1104.959474	0.155520
1105.119823	0.154765
1105.280155	0.154662
1105.440468	0.149858
1105.600763	0.150576
1105.761039	0.151597
1105.921298	0.151440
1106.081538	0.149611
1106.241760	0.152837
1106.401964	0.152123
1106.562149	0.151675
1106.722316	0.147292
1106.882465	0.148759
1107.042596	0.150045
1107.202709	0.152067
1107.362803	0.152872
1107.522879	0.151919
1107.682937	0.149087
1107.842977	0.151577
1108.002999	0.150800
1108.163002	0.150039
1108.322987	0.152132
1108.482954	0.150396
1108.642902	0.149569
1108.802833	0.153225
1108.962745	0.150080
1109.122639	0.150284
1109.282515	0.151056
1109.442372	0.152526
1109.602211	0.156728
1109.762032	0.156070
1109.921835	0.156149
1110.081620	0.156658
1110.241386	0.154642
1110.401134	0.158929
1110.560864	0.161539
1110.720576	0.156688
1110.880269	0.156250
1111.039945	0.154764
1111.199602	0.152198
1111.359240	0.152716
1111.518861	0.148505
1111.678463	0.147597
1111.838047	0.146059
1111.997613	0.143118
1112.157161	0.148494
1112.316690	0.151492
1112.476202	0.151312
1112.635695	0.154511
1112.795169	0.153665
1112.954626	0.154248
1113.114064	0.156285
1113.273484	0.154828
1113.432886	0.153694
1113.592270	0.151510
1113.751635	0.147009
1113.910983	0.148510
1114.070312	0.146345
1114.229622	0.146971
1114.388915	0.148090
1114.548189	0.148904
1114.707445	0.149315
1114.866683	0.154742
1115.025903	0.156148
1115.185104	0.155797
1115.344287	0.153071
1115.503452	0.152520
1115.662599	0.153561
1115.821727	0.154452
1115.980838	0.151659
1116.139930	0.152473
1116.299004	0.147991
1116.458059	0.145855
1116.617097	0.147382
1116.776116	0.148256
1116.935117	0.147870
1117.094099	0.147509
1117.253064	0.148072
1117.412010	0.144127
1117.570938	0.144363
1117.729848	0.143413
1117.888740	0.145603
1118.047613	0.144338
1118.206468	0.145416
1118.365305	0.146652
1118.524124	0.147102
1118.682924	0.144053
1118.841707	0.148824
1119.000471	0.150313
1119.159216	0.154090
1119.317944	0.152181
1119.476653	0.152719
1119.635344	0.152310
1119.794017	0.152677
1119.952672	0.152510
1120.111308	0.154649
1120.269927	0.150966
1120.428527	0.149620
1120.587108	0.148028
1120.745672	0.148279
1120.904217	0.151780
1121.062744	0.151008
1121.221253	0.153171
1121.379744	0.151119
1121.538216	0.145953
1121.696671	0.150373
1121.855107	0.150933
1122.013524	0.151866
1122.171924	0.154034
1122.330305	0.152900
1122.488668	0.151464
1122.647013	0.151678
1122.805340	0.150737
1122.963648	0.153312
1123.121938	0.149058
1123.280210	0.147441
1123.438464	0.144016
1123.596700	0.142084
1123.754917	0.140716
1123.913116	0.139244
1124.071297	0.134894
1124.229459	0.134037
1124.387604	0.135309
1124.545730	0.138674
1124.703838	0.142908
1124.861928	0.148233
1125.019999	0.149026
1125.178052	0.144966
1125.336088	0.145692
1125.494104	0.146925
1125.652103	0.148552
1125.810083	0.145003
1125.968045	0.143728
1126.125989	0.140357
1126.283915	0.135642
1126.441823	0.132683
1126.599712	0.135705
1126.757583	0.140908
1126.915436	0.140918
1127.073270	0.139797
1127.231087	0.143371
1127.388885	0.144070
1127.546665	0.141220
1127.704426	0.142300
1127.862170	0.144701
1128.019895	0.145947
1128.177602	0.142334
1128.335291	0.143527
1128.492961	0.146170
1128.650614	0.145618
1128.808248	0.141670
1128.965864	0.148402
1129.123461	0.147722
1129.281041	0.146522
1129.438602	0.147287
1129.596145	0.146182
1129.753670	0.147491
1129.911176	0.143943
1130.068665	0.145272
1130.226135	0.145309
1130.383587	0.140344
1130.541020	0.141099
1130.698436	0.142066
1130.855833	0.143743
1131.013212	0.142836
1131.170573	0.141023
1131.327915	0.145279
1131.485239	0.144204
1131.642545	0.150164
1131.799833	0.150338
1131.957103	0.150987
1132.114354	0.151836
1132.271588	0.142895
1132.428803	0.143210
1132.585999	0.141096
1132.743178	0.140063
1132.900338	0.138843
1133.057480	0.134879
1133.214604	0.135652
1133.371710	0.135015
1133.528797	0.134772
1133.685866	0.138947
1133.842917	0.139306
1133.999950	0.141202
1134.156964	0.139281
1134.313960	0.140211
1134.470938	0.140654
1134.627898	0.138697
1134.784840	0.139378
1134.941763	0.140474
1135.098668	0.140302
1135.255555	0.141303
1135.412424	0.136652
1135.569274	0.137641
1135.726107	0.137687
1135.882921	0.141539
1136.039716	0.143430
1136.196494	0.142023
1136.353253	0.138085
1136.509995	0.140063
1136.666717	0.142303
1136.823422	0.147471
1136.980109	0.149826
1137.136777	0.147892
1137.293427	0.142194
1137.450059	0.143414
1137.606672	0.145196
1137.763267	0.145974
1137.919844	0.141966
1138.076403	0.142620
1138.232944	0.140814
1138.389466	0.140294
1138.545971	0.142948
1138.702457	0.144097
1138.858924	0.143558
1139.015374	0.143483
1139.171805	0.143387
1139.328218	0.144901
1139.484613	0.138736
1139.640990	0.133624
1139.797348	0.129352
1139.953688	0.128845
1140.110010	0.126378
1140.266314	0.123841
1140.422600	0.124153
1140.578867	0.126674
1140.735116	0.126853
1140.891347	0.134853
1141.047559	0.136485
1141.203754	0.136171
1141.359930	0.135844
1141.516088	0.137336
1141.672228	0.137144
1141.828349	0.133309
1141.984452	0.132707
1142.140537	0.133071
1142.296604	0.128056
1142.452653	0.132134
1142.608683	0.133360
1142.764695	0.133135
1142.920689	0.133637
1143.076665	0.138597
1143.232622	0.137242
1143.388562	0.132515
1143.544483	0.134036
1143.700385	0.133419
1143.856270	0.134666
1144.012136	0.135515
1144.167985	0.136545
1144.323814	0.132455
1144.479626	0.130462
1144.635420	0.133924
1144.791195	0.133993
1144.946952	0.135665
1145.102691	0.133330
1145.258411	0.132175
1145.414113	0.130230
1145.569798	0.127359
1145.725463	0.132417
1145.881111	0.128819
1146.036741	0.128327
1146.192352	0.129051
1146.347945	0.124616
1146.503519	0.126999
1146.659076	0.122891
1146.814614	0.124994
1146.970134	0.126613
1147.125636	0.124271
1147.281120	0.125607
1147.436585	0.126273
1147.592032	0.125511
1147.747461	0.126648
1147.902872	0.125285
1148.058265	0.130242
1148.213639	0.129556
1148.368995	0.125071
1148.524333	0.124881
1148.679653	0.123285
1148.834954	0.123843
1148.990237	0.121254
1149.145502	0.122169
1149.300749	0.121100
1149.455977	0.122284
1149.611188	0.120688
1149.766380	0.122474
1149.921553	0.122791
1150.076709	0.123918
1150.231846	0.122371
1150.386966	0.127058
1150.542066	0.120959
1150.697149	0.124714
1150.852214	0.119216
1151.007260	0.119774
1151.162288	0.122325
1151.317298	0.121672
1151.472289	0.124462
1151.627263	0.127291
1151.782218	0.130494
1151.937155	0.133862
1152.092073	0.129644
1152.246974	0.129769
1152.401856	0.131971
1152.556720	0.129285
1152.711566	0.131547
1152.866393	0.128480
1153.021203	0.125331
1153.175994	0.119254
1153.330767	0.124943
1153.485521	0.129432
1153.640258	0.129686
1153.794976	0.126436
1153.949676	0.128198
1154.104358	0.125055
1154.259021	0.122559
1154.413667	0.123971
1154.568294	0.125966
1154.722903	0.125604
1154.877493	0.125085
1155.032066	0.127808
1155.186620	0.132418
1155.341156	0.129662
1155.495674	0.131886
1155.650173	0.133842
1155.804654	0.129825
1155.959118	0.127582
1156.113562	0.120601
1156.267989	0.117092
1156.422397	0.119842
1156.576788	0.115205
1156.731160	0.121648
1156.885513	0.120972
1157.039849	0.119686
1157.194166	0.121436
1157.348465	0.129593
1157.502746	0.130987
1157.657009	0.130818
1157.811253	0.126809
1157.965479	0.127490
1158.119687	0.121977
1158.273877	0.122287
1158.428048	0.123541
1158.582201	0.122745
1158.736337	0.116383
1158.890453	0.116517
1159.044552	0.119141
1159.198632	0.121314
1159.352694	0.122912
1159.506738	0.124361
1159.660764	0.127828
1159.814771	0.129182
1159.968761	0.128834
1160.122732	0.129143
1160.276685	0.132959
1160.430619	0.134836
1160.584535	0.124799
1160.738434	0.120451
1160.892313	0.119119
1161.046175	0.112789
1161.200019	0.115254
1161.353844	0.118491
1161.507651	0.112916
1161.661440	0.111754
1161.815210	0.104346
1161.968962	0.110605
1162.122697	0.112763
1162.276412	0.114327
1162.430110	0.116250
1162.583789	0.110183
1162.737451	0.108036
1162.891094	0.114294
1163.044718	0.111885
1163.198325	0.110890
1163.351913	0.111848
1163.505483	0.114193
1163.659035	0.113130
1163.812569	0.116991
1163.966084	0.113419
1164.119581	0.112660
1164.273060	0.105843
1164.426521	0.108773
1164.579964	0.107829
1164.733388	0.105602
1164.886794	0.102093
1165.040182	0.099952
1165.193551	0.094337
1165.346903	0.099032
1165.500236	0.098866
1165.653551	0.105740
1165.806848	0.096372
1165.960126	0.098208
1166.113386	0.098078
1166.266628	0.095178
1166.419852	0.093568
1166.573058	0.093602
1166.726245	0.092558
1166.879414	0.090079
1167.032565	0.091071
1167.185698	0.091723
1167.338812	0.094703
1167.491909	0.090675
1167.644987	0.093971
1167.798046	0.096443
1167.951088	0.097648
1168.104111	0.101154
1168.257117	0.101536
1168.410103	0.095819
1168.563072	0.098756
1168.716023	0.100274
1168.868955	0.104568
1169.021869	0.098069
1169.174765	0.097087
1169.327642	0.097053
1169.480501	0.095862
1169.633343	0.096511
1169.786165	0.097538
1169.938970	0.102461
1170.091757	0.106397
1170.244525	0.102584
1170.397275	0.107336
1170.550007	0.107972
1170.702720	0.106736
1170.855415	0.102680
1171.008092	0.106591
1171.160751	0.110765
1171.313392	0.109894
1171.466014	0.083977
1171.618619	0.128795
1171.771205	0.128795
1171.923772	0.128795
