sample name	sample
index	1030
start time	 04-19-2021  12:34:55 PM
880	0.528593
Peak Time (s)	102.538
Peak Height 	0.5286
calc peak height	100,103
Baseline Time (s)	10.537
Baseline Value 	-0.005918
subtract baseline	10,4
Abs	0.356614
Peak Time (s)	100.536
Peak Height 	0.3566
calc peak height	100,103
Baseline Time (s)	9.036
Baseline Value 	4.004E-5
subtract baseline	10,3
PK_550	0.199060
Peak Time (s)	102.538
Peak Height 	0.1991
calc peak height	100,103
Baseline Time (s)	10.036
Baseline Value 	4.9909E-4
subtract baseline	10,2
PK_880	0.327392
Peak Time (s)	101.537
Peak Height 	0.3274
calc peak height	100,103
Baseline Time (s)	11.537
Baseline Value 	0.003456
subtract baseline	10,1


Time (s)	A880-A510	A880-A775	A880-A975	A880	I510	I775	I975	I880	
0.036000	-0.002460	-0.001049	-0.000825	0.002079	6571.348280	45993.828154	3977.980333	24343.527756
0.536000	-0.002594	-0.001550	-0.003557	0.003619	6556.778963	45791.378555	3966.040862	24267.212843
1.036500	-0.003808	-0.000654	0.003563	0.003665	6545.843192	45875.636075	3985.876237	24264.934988
1.539000	-0.005837	-0.000894	-0.002314	0.006346	6505.249011	45586.971874	3961.920436	24132.709813
2.040000	-0.001397	-0.000521	-0.000616	0.000628	6593.349518	46191.097588	3982.652597	24415.714072
2.537000	-0.001376	-0.000577	0.003208	0.000756	6592.412239	46172.647877	3993.116538	24409.334633
3.037500	-0.000367	-0.000039	0.003967	-0.001569	6621.770001	46459.487675	4001.917783	24525.446008
3.535000	-0.003150	-0.000597	0.003426	0.003041	6556.965727	45943.120245	3987.250928	24295.801561
4.038000	0.001403	0.000291	0.000416	0.000763	6616.810182	46258.737985	3985.182918	24408.994659
4.536000	-0.002429	-0.000478	0.000695	-0.000392	6593.249120	46297.362512	3989.243147	24466.601292
5.039000	-0.001166	-0.000414	0.003523	0.000152	6599.552205	46249.293850	3995.731068	24439.414958
5.536500	-0.001001	0.000411	-0.000390	0.001097	6592.707159	46237.268037	3981.965733	24392.337694
6.036500	-0.002785	-0.001152	-0.000853	-0.001096	6596.295497	46300.412430	3986.850175	24501.769188
6.537000	-0.001637	-0.000894	0.004760	-0.000787	6603.667880	46295.213387	4001.948596	24486.296370
7.037500	0.000429	0.000090	0.002124	-0.000008	6615.006132	46315.752073	3992.205551	24447.395711
7.537500	-0.001165	-0.000485	-0.004853	-0.000392	6604.348679	46296.629462	3973.614525	24466.576385
8.035500	-0.000214	0.000192	0.002716	0.000524	6604.654518	46272.695977	3992.375502	24420.875095
8.535500	-0.001986	-0.000070	-0.003312	-0.000540	6598.433845	46353.107633	3978.349913	24473.975854
9.035500	0.001268	0.000682	0.000000	0.000304	6619.668116	46343.848600	3985.305222	24431.868603
9.536000	0.000493	0.000794	0.002971	0.000606	6610.164696	46324.823677	3992.869124	24416.798570
10.036000	-0.000582	0.000000	0.003715	0.000121	6604.960949	46293.843529	3996.366910	24440.974432
10.536500	-0.001568	-0.000184	0.001225	0.000000	6597.362176	46287.490602	3989.633159	24447.009658
11.039500	0.000223	0.000175	-0.001542	-0.000140	6614.356015	46337.513142	3982.203834	24453.981022
11.537000	0.000000	-0.000460	-0.000253	-0.000271	6613.545173	46287.007677	3986.214109	24460.529275
12.040000	-0.001463	-0.000349	0.002665	-0.000324	6601.126507	46303.425544	3994.644277	24463.177273
12.534500	0.000064	0.000505	0.000373	0.000284	6609.212546	46328.123170	3986.414029	24432.839094
13.035500	-0.001428	-0.000651	0.001627	-0.001005	6607.423713	46341.394365	3993.627443	24497.202855
13.535500	-0.002715	-0.000507	0.003610	-0.000442	6591.176534	46299.488253	3997.675949	24469.084477
14.036000	-0.003133	0.000184	0.003016	0.002075	6565.514278	46116.964078	3988.826918	24343.706347
14.536000	-0.003095	-0.000278	0.001324	0.001581	6570.151657	46120.191903	3985.434911	24368.261403
15.037000	-0.002519	0.000394	0.002109	0.000981	6580.422142	46247.186144	3989.354727	24398.101441
15.536500	-0.002300	-0.000860	0.002686	-0.000963	6599.381450	46316.237361	3996.523418	24495.098565
16.037500	-0.001699	-0.000577	-0.002852	-0.000954	6604.592213	46343.687265	3980.805766	24494.640437
16.540000	0.000346	0.000077	0.002546	-0.000538	6618.964836	46367.615714	3994.915136	24473.887662
17.034500	-0.001202	0.000073	0.001664	-0.001586	6614.545348	46472.370868	3995.388307	24526.287454
17.535000	-0.004164	-0.001146	-0.000040	-0.000007	6574.680633	46192.000378	3986.070374	24447.360913
18.034500	-0.002945	-0.000709	0.001143	0.000913	6577.295575	46143.880776	3986.814714	24401.517310
18.535500	-0.000798	-0.000125	-0.002037	0.001371	6592.083278	46156.435511	3976.565945	24378.717306
19.036000	-0.002500	-0.000569	0.001453	0.000665	6583.363625	46182.599584	3988.394749	24413.875846
19.536000	0.001747	-0.000024	0.004627	0.001295	6615.147736	46174.087151	3995.621227	24382.495734
20.036500	-0.003711	-0.000279	0.003705	0.001203	6568.075909	46157.769096	3993.257261	24387.065405
20.537000	-0.001903	-0.000132	0.002532	0.000574	6589.385873	46235.405072	3991.712910	24418.413356
21.040000	-0.003106	0.000028	-0.000296	0.001228	6573.140967	46185.927971	3981.860850	24385.822534
21.537500	-0.002997	-0.000150	0.000170	0.000624	6579.364406	46228.461718	3984.879973	24415.877532
22.037000	-0.002036	-0.000007	-0.000854	0.000758	6586.605808	46229.456427	3981.613884	24409.242798
22.535000	-0.002150	-0.000247	0.004162	0.001132	6582.329803	46168.047594	3994.761641	24390.591693
23.035000	-0.001023	0.000089	0.004091	0.000898	6594.253643	46225.027843	3995.225139	24402.241381
23.535000	-0.000780	0.000075	-0.000462	0.001004	6595.458172	46213.049217	3982.025465	24396.978777
24.036000	-0.001276	0.000039	0.004050	0.000883	6592.170138	46221.566173	3995.152703	24403.004434
24.536500	-0.000996	0.000317	0.004387	0.001209	6591.766866	46216.699835	3995.183051	24386.776780
25.036500	-0.001841	-0.000753	0.001333	0.000210	6593.115272	46209.640647	3989.342023	24436.519371
25.540000	-0.003417	-0.000024	0.002448	0.001000	6572.408437	46203.547403	3990.265335	24397.162660
26.037000	-0.000986	-0.000329	0.000119	0.000746	6595.916682	46198.447366	3984.390861	24409.804072
26.537500	-0.001318	-0.000172	0.003859	0.001029	6590.520093	46185.865165	3994.191383	24395.711595
27.035000	0.001571	0.000898	0.003885	-0.001434	6637.743951	46540.140739	4001.297192	24518.697511
27.535000	-0.001172	0.000188	0.004936	-0.001081	6610.350373	46433.218499	4003.295195	24501.010459
28.035500	-0.001066	-0.000175	0.002302	-0.000520	6606.344484	46340.537444	3994.168248	24472.956306
28.536000	-0.001235	0.000118	0.002494	-0.000463	6604.356535	46364.143259	3994.552700	24470.125807
29.036000	-0.001401	0.000023	0.002428	0.000222	6596.875947	46285.963785	3992.416901	24435.919954
29.536500	-0.001510	-0.000529	0.004159	-0.000451	6601.834481	46298.175414	3999.267637	24469.527926
30.039500	-0.001977	-0.000304	0.001905	-0.000141	6594.999068	46289.643774	3991.961150	24454.032010
30.537000	-0.001530	-0.000592	0.003284	0.001640	6583.310709	46083.017399	3990.821460	24365.340032
31.037500	-0.003250	-0.000824	-0.002567	0.001422	6570.190640	46081.589313	3974.936025	24376.173028
31.537000	0.001241	0.000402	0.003877	0.000710	6615.835502	46275.087023	3995.149467	24411.606111
32.035000	0.000623	-0.000355	0.004861	-0.000178	6618.230083	46288.243647	4000.494412	24455.901581
32.535000	-0.002406	-0.000267	0.010106	-0.000209	6591.840139	46300.158516	4015.679900	24457.446856
33.035500	-0.001551	-0.000574	-0.000556	0.000764	6590.802265	46172.132523	3982.434034	24408.904901
33.536000	-0.002850	-0.000204	0.002105	0.002538	6563.946153	46032.182872	3984.938878	24320.746373
34.036500	-0.001275	-0.000740	0.002257	0.001995	6582.433264	46032.898417	3986.903675	24347.682376
34.539500	0.000681	-0.000109	0.002318	0.002321	6596.732070	46063.343894	3986.154222	24331.527570
35.037000	-0.002309	0.000433	0.003751	0.003359	6561.516245	46013.947359	3987.273771	24280.080130
35.537000	-0.003479	-0.000937	0.000796	0.001991	6563.234622	46013.719300	3982.787604	24347.885324
36.037500	-0.001946	0.000540	0.003784	0.002611	6571.194718	46099.058597	3989.485379	24317.125661
36.535000	-0.002724	-0.001012	0.001789	0.001656	6572.744266	46039.677946	3986.540637	24364.558809
37.035000	-0.002006	-0.000197	-0.000915	0.002623	6570.564563	46024.519634	3976.201186	24316.556024
37.535500	-0.002076	-0.000051	0.005898	0.002355	6572.298207	46065.681270	3996.223640	24329.838241
38.035500	-0.000603	-0.000386	0.001362	0.001193	6595.352289	46148.061964	3986.639805	24387.562608
38.536500	-0.002277	-0.000680	0.007463	0.001107	6581.438524	46127.310454	4004.267859	24391.826957
39.039500	-0.002443	-0.000305	-0.002315	0.000978	6581.114947	46177.690894	3976.888429	24398.274830
39.537000	-0.001814	-0.000135	0.001787	0.000771	6588.436193	46215.387289	3989.040593	24408.594799
40.037000	-0.000317	-0.000666	0.003155	0.000194	6606.657240	46219.906602	3994.563889	24437.336781
40.537500	-0.002165	-0.000746	0.004877	0.000561	6587.206614	46175.292689	3998.428552	24419.058828
41.035000	-0.003531	-0.000895	0.001553	0.000530	6575.521911	46163.515060	3989.060354	24420.598055
41.535000	-0.000805	0.000275	-0.000543	0.001258	6593.009983	46207.628835	3981.082925	24384.341001
42.035500	-0.003888	-0.000231	0.004364	0.000820	6569.876748	46200.867599	3996.224622	24406.126957
42.536000	-0.002197	-0.000247	0.001094	0.001448	6579.157928	46136.564891	3985.162020	24374.876104
43.036000	-0.001694	-0.000655	0.002334	0.000946	6587.947889	46145.903776	3990.093955	24399.846815
43.541500	0.003298	0.000530	0.006634	-0.003162	6668.534359	46677.256281	4014.178601	24605.344935
44.036500	-0.000531	-0.000860	0.004184	-0.001182	6616.902478	46338.174506	4001.430926	24506.058383
44.536500	-0.001685	-0.000192	0.002647	-0.000828	6603.603797	46369.695496	3996.027249	24488.356713
45.037500	-0.002767	0.000406	0.000239	0.005361	6540.166260	45812.627108	3971.766489	24181.182067
45.534500	-0.001659	0.000018	0.002172	-0.000477	6600.748285	46355.534640	3993.676415	24470.820580
46.036500	-0.000886	0.000157	0.003841	-0.000564	6608.319241	46378.244056	3998.683178	24475.157968
46.539000	0.000103	-0.000821	0.004114	-0.001220	6622.844783	46345.932685	4001.340933	24507.984594
47.035500	-0.001377	-0.000312	0.005605	0.003975	6564.262564	45878.712489	3990.780509	24249.577322
47.540500	-0.000806	0.000516	0.000633	0.001908	6587.303801	46166.844362	3982.563413	24352.038439
48.039000	-0.001784	-0.000632	0.004093	-0.001052	6604.704222	46347.954825	4000.797115	24499.537503
48.536000	-0.001786	-0.000507	0.004275	-0.001121	6605.298606	46367.436672	4001.516892	24503.004086
49.036000	-0.003447	-0.000165	0.001155	0.004154	6544.730069	45875.568216	3977.712624	24240.719990
49.537000	0.000083	-0.000606	0.004096	-0.003328	6641.346864	46579.399108	4007.338003	24613.715863
50.037500	-0.000905	-0.000491	0.007422	0.010255	6514.029782	45243.048499	3978.178756	23941.358635
50.534500	0.030756	-0.010186	0.052945	0.277122	4953.616052	25258.587157	3491.013186	14225.995670
51.035000	0.001908	-0.010169	-0.015333	0.171186	5375.306617	31459.696068	3557.398828	17388.323552
51.535500	-0.030317	-0.033749	-0.062750	-0.140540	7717.287253	58429.718579	4227.053837	32726.511150
52.035500	-0.015839	-0.125484	-0.039311	-0.284491	9889.671303	65535.000000	4917.810499	44496.001953
52.538500	-0.013420	-0.110401	-0.031907	-0.269408	9685.418294	65535.000000	4879.956835	43072.038153
53.036000	-0.012904	-0.112003	-0.030811	-0.271010	9719.165798	65535.000000	4893.183464	43220.972994
53.536500	-0.008991	-0.081876	-0.026140	-0.240827	9312.017870	65526.814614	4771.372152	40505.680723
54.036500	-0.009914	-0.072147	-0.026202	-0.229553	9131.185752	65304.200710	4719.500918	39538.923003
54.537000	-0.007562	-0.060086	-0.021646	-0.213774	8937.910956	64771.533499	4669.466532	38227.312397
55.034500	-0.007756	-0.049500	-0.016970	-0.197988	8715.544610	64034.052230	4621.193389	36961.946721
55.534500	0.004170	-0.035780	-0.006589	-0.175494	8572.909573	62809.674458	4569.947051	35236.525791
56.035000	0.011034	-0.015575	0.002819	-0.132753	8113.792551	59775.886422	4436.088595	32194.327962
56.535500	0.019836	-0.000362	0.014644	-0.069303	7483.440706	53788.018894	4248.028144	28195.936136
57.038500	0.029514	0.008319	0.024397	-0.031964	7193.363190	50532.950356	4156.334093	26101.934802
57.536000	0.044363	0.014960	0.039790	-0.011542	7137.128960	49042.541956	4140.239184	25030.607620
58.036500	0.062726	0.025658	0.059556	0.034938	6864.138567	45386.557763	4057.784058	22772.123999
58.536500	0.080707	0.035534	0.080023	0.074749	6664.034929	42550.936806	4001.164888	21020.830117
59.037000	0.095341	0.047729	0.102301	0.129313	6323.079998	38857.527729	3912.110242	18867.059424
59.537500	0.116460	0.056450	0.121587	0.158745	6255.952638	37179.045774	3885.461846	17812.881475
60.034500	0.133386	0.068015	0.141237	0.198636	6077.059209	35009.271525	3834.129541	16493.485579
60.534500	0.146909	0.078774	0.161262	0.247231	5821.464840	32323.199170	3765.621320	15041.617155
61.035500	0.167232	0.088227	0.181939	0.283824	5709.720856	30535.562994	3729.368588	14050.689561
61.538000	0.188969	0.101478	0.200292	0.298275	5759.245072	30459.093005	3738.133546	13681.803994
62.035500	0.207550	0.111765	0.223034	0.328899	5677.834865	29194.428518	3720.507214	12939.447610
62.536000	0.224023	0.121137	0.243273	0.368496	5527.707283	27420.981690	3678.554693	12054.019879
63.035500	0.238590	0.128111	0.258351	0.397987	5434.972066	26177.693492	3648.507972	11445.074175
63.537000	0.251827	0.137094	0.271891	0.439122	5269.943735	24510.635037	3593.695301	10661.905026
64.036500	0.259985	0.141713	0.287394	0.450581	5251.113136	24171.591092	3601.512091	10456.623182
64.534500	0.269318	0.145806	0.294127	0.454986	5279.283118	24156.251614	3606.044546	10379.139695
65.034000	0.269905	0.151033	0.299708	0.470795	5193.287411	23642.511766	3586.308184	10107.444876
65.535500	0.280083	0.153782	0.310825	0.507970	5047.988814	22055.285526	3538.079471	9506.210796
66.038000	0.281895	0.159038	0.322662	0.511628	5038.376647	22126.200110	3552.907481	9449.782665
66.535500	0.283041	0.160676	0.320524	0.514208	5030.945961	22084.414190	3544.320873	9410.279672
67.040500	0.285239	0.163567	0.322132	0.517526	5025.151486	22065.451413	3541.230899	9359.799835
67.536500	0.287913	0.166815	0.327196	0.510169	5077.555622	22541.330491	3563.950166	9472.238396
68.039500	0.290098	0.167802	0.321958	0.506564	5108.357790	22751.009585	3560.927049	9528.034803
68.537000	0.292223	0.171672	0.331480	0.505449	5125.773330	22981.145644	3580.833207	9545.386060
69.037500	0.294190	0.174283	0.331478	0.503811	5145.307555	23179.410520	3583.937004	9570.953659
69.537500	0.296357	0.174677	0.328150	0.500951	5172.812301	23332.529339	3583.047207	9615.821715
70.035500	0.297761	0.177380	0.335853	0.502122	5174.097119	23405.050337	3595.547021	9597.414777
70.538000	0.301270	0.177752	0.335662	0.503258	5187.198956	23368.918260	3592.994391	9579.611648
71.035500	0.300156	0.178562	0.337942	0.506253	5164.555556	23265.746156	3591.619234	9532.866354
71.535500	0.301168	0.179472	0.333766	0.506573	5168.355264	23293.546234	3583.037224	9527.897212
72.036500	0.302980	0.180854	0.334645	0.505751	5182.864599	23397.746592	3586.273326	9540.676276
72.536500	0.307990	0.183094	0.334782	0.507540	5200.736773	23419.138591	3583.129713	9512.886950
73.040000	0.305671	0.184212	0.336538	0.512941	5158.132705	23216.908849	3576.235013	9429.653702
73.536500	0.309706	0.185324	0.338070	0.505710	5220.561124	23612.606253	3592.908288	9541.312933
74.037500	0.310452	0.186371	0.342323	0.504216	5233.166455	23734.638502	3604.027763	9564.613928
74.535000	0.310242	0.187365	0.350069	0.502393	5242.289429	23870.834262	3622.873639	9593.171935
75.037500	0.308270	0.188222	0.340730	0.506220	5209.665671	23727.299912	3597.052675	9533.385003
75.535500	0.312028	0.188770	0.343014	0.500272	5264.517106	24042.470175	3613.104756	9626.528071
76.036000	0.312827	0.190391	0.348349	0.500146	5269.808010	24127.979926	3623.923318	9628.510266
76.536000	0.315611	0.190775	0.342638	0.499517	5289.432899	24177.791893	3613.851042	9638.444121
77.036500	0.311855	0.190571	0.340336	0.504766	5237.986941	23911.205993	3599.101544	9556.025457
77.536500	0.315357	0.192205	0.340384	0.500388	5282.948731	24205.329084	3607.715865	9624.702509
78.037000	0.312609	0.192223	0.350175	0.501070	5263.277547	24172.632054	3625.723792	9613.955391
78.537000	0.315952	0.192134	0.347751	0.502573	5273.806537	24094.452598	3617.913836	9590.338099
79.034000	0.309665	0.190817	0.343010	0.506965	5213.294919	23816.569065	3600.020862	9521.800532
79.537500	0.311660	0.190703	0.349445	0.503673	5243.068452	23970.808515	3619.091688	9573.113390
80.035000	0.312712	0.194287	0.348463	0.506806	5231.307215	23992.775433	3610.971815	9524.267656
80.535000	0.312213	0.194713	0.348676	0.507654	5223.726921	23972.237828	3609.725882	9511.113125
81.036000	0.307142	0.192338	0.344814	0.511304	5175.191961	23680.742247	3595.121617	9454.764861
81.535500	0.312238	0.194214	0.346988	0.507714	5223.531115	23945.025762	3606.306229	9510.188208
82.036500	0.312775	0.194488	0.358377	0.509849	5214.562345	23854.662857	3624.571709	9477.174628
82.536500	0.310521	0.193026	0.348129	0.509740	5202.576447	23789.217123	3604.578552	9478.850355
83.037000	0.309023	0.193934	0.343280	0.515918	5160.180685	23536.233842	3583.356832	9384.216192
83.537000	0.312362	0.193943	0.350764	0.510669	5207.665765	23788.654124	3607.909330	9464.537906
84.037500	0.310011	0.192839	0.345587	0.508502	5206.640687	23840.061848	3602.041552	9497.985426
84.535000	0.312643	0.193918	0.341470	0.508563	5221.035247	23889.401986	3593.960824	9497.043454
85.035500	0.311521	0.195022	0.350764	0.515042	5178.726197	23630.168849	3599.396140	9397.547716
85.535500	0.313793	0.195318	0.348392	0.509842	5220.312599	23895.277315	3604.892307	9477.287130
86.036000	0.313082	0.194011	0.345499	0.509584	5217.768904	23844.409756	3599.769473	9481.260058
86.536000	0.314724	0.195547	0.352377	0.511355	5217.045218	23833.049994	3609.726261	9453.986494
87.036500	0.315146	0.195614	0.353358	0.511859	5216.587943	23811.901124	3610.662191	9446.246808
87.536500	0.316322	0.194774	0.349352	0.511511	5225.140694	23788.118336	3603.511746	9451.588797
88.037000	0.316264	0.195704	0.349339	0.512903	5217.002084	23765.797619	3600.779560	9430.233505
88.540000	0.311664	0.195279	0.353251	0.512766	5192.111589	23751.925028	3608.673277	9432.331570
89.035000	0.316343	0.195255	0.350812	0.513267	5215.401745	23726.656328	3602.935188	9424.661852
89.534500	0.316694	0.196310	0.351305	0.514578	5210.030354	23714.267378	3601.343500	9404.622768
90.035500	0.319200	0.197818	0.346773	0.516628	5212.579682	23688.253836	3588.660893	9373.422270
90.535500	0.317616	0.195092	0.351795	0.515405	5210.560655	23616.123295	3600.690288	9392.017483
91.036500	0.318266	0.195650	0.351346	0.517064	5204.922904	23563.452592	3596.611727	9366.804590
91.536000	0.321084	0.196560	0.348900	0.517410	5218.753861	23590.428744	3591.237795	9361.562081
92.036500	0.319243	0.197752	0.353370	0.519435	5197.165530	23550.620267	3595.941251	9330.937804
92.537000	0.316748	0.195501	0.350725	0.517923	5191.703821	23515.389148	3593.758338	9353.794480
93.040000	0.318685	0.195510	0.350881	0.519189	5195.429317	23455.537162	3591.626378	9334.654688
93.537000	0.320762	0.196332	0.354595	0.520544	5199.443754	23430.204503	3596.164530	9314.224978
94.035000	0.320249	0.197386	0.361143	0.521716	5190.084409	23424.607899	3606.604131	9296.613041
94.535500	0.321809	0.197058	0.356058	0.522003	5197.155846	23395.479455	3596.174222	9292.317225
95.036000	0.320523	0.196063	0.350841	0.523206	5183.354187	23291.584831	3583.875396	9274.294299
95.535500	0.320737	0.196999	0.350990	0.522485	5188.527006	23369.843535	3585.532669	9285.087258
96.037000	0.321258	0.195782	0.348649	0.521697	5195.791431	23349.515130	3582.578304	9296.897994
96.536500	0.319254	0.197304	0.356969	0.523282	5175.929678	23346.558248	3595.463844	9273.153222
97.036500	0.318687	0.195976	0.351924	0.526241	5156.578809	23144.871124	3580.172267	9229.057728
97.539500	0.322293	0.197345	0.356448	0.523152	5193.457425	23354.631463	3594.708693	9275.096067
98.038000	0.325411	0.198247	0.356870	0.524763	5201.840064	23321.153628	3592.423754	9251.052412
98.537000	0.322676	0.198369	0.357109	0.524639	5187.334928	23332.756556	3593.120912	9252.892203
99.035000	0.321451	0.198226	0.358270	0.527779	5163.285314	23178.258321	3589.324088	9206.252339
99.535500	0.323792	0.198492	0.347060	0.525243	5190.174925	23310.072317	3572.888536	9243.901825
100.038500	0.324048	0.197569	0.352839	0.524791	5194.102700	23287.801570	3584.661515	9250.624575
100.536000	0.325313	0.199001	0.356614	0.526729	5190.371769	23264.033064	3588.166445	9221.820208
101.036500	0.322353	0.198036	0.355199	0.527049	5172.249984	23203.563917	3584.854378	9217.060039
101.536500	0.327392	0.198671	0.354379	0.527699	5196.524455	23202.866261	3582.061995	9207.440525
102.039500	0.323482	0.197909	0.352693	0.526366	5182.245215	23229.713470	3581.392947	9227.201722
102.537500	0.326801	0.199060	0.354789	0.528593	5188.284607	23179.189053	3581.144776	9194.224512
103.037500	0.322772	0.198653	0.353795	0.531067	5152.529193	23044.507073	3574.597949	9157.771393
103.538000	0.326334	0.199393	0.354876	0.529154	5182.594829	23168.463976	3580.246872	9185.930501
104.035500	0.326293	0.197669	0.356825	0.527658	5190.651075	23157.819447	3586.794525	9208.043402
104.535500	0.326988	0.197911	0.355605	0.529386	5184.927748	23088.308468	3581.187312	9182.511806
105.036000	0.326498	0.197751	0.356635	0.530866	5174.056011	23011.928623	3580.335901	9160.726454
105.536500	0.328466	0.199903	0.362995	0.531099	5183.634432	23101.372020	3592.018491	9157.311187
106.036500	0.321653	0.197426	0.357737	0.529695	5153.913173	23051.306487	3584.650395	9177.960847
106.539500	0.324966	0.198500	0.354706	0.531148	5164.088597	23033.614362	3576.159582	9156.581160
107.060000	0.326147	0.197499	0.360913	0.533341	5158.547785	22885.495073	3583.755709	9124.463534
107.534000	0.326769	0.198278	0.363020	0.531483	5172.156898	23007.718888	3591.328701	9151.671491
108.034500	0.329790	0.198670	0.361166	0.533027	5180.293779	22954.218656	3584.833790	9129.045174
108.535000	0.328690	0.199109	0.358280	0.534113	5168.255409	22924.245797	3577.308584	9113.192864
109.035500	0.329665	0.199195	0.362325	0.536460	5160.729909	22819.850521	3580.519228	9079.057698
109.535500	0.331230	0.200575	0.369258	0.536129	5171.131722	22898.805654	3594.387123	9083.847616
110.036000	0.328457	0.198459	0.358636	0.534466	5165.034670	22877.852836	3577.314747	9108.042909
