sample name	sample
index	60
start time	 02-11-2021  03:05:09 PM


Wavelength (nm)	Absorbance
494.344910	NaN
494.563924	NaN
494.782919	NaN
495.001897	NaN
495.220856	-1.101437
495.439797	-0.890285
495.658719	-0.790050
495.877624	-0.671162
496.096510	-0.372238
496.315378	-0.293839
496.534227	0.000000
496.753059	-0.068403
496.971872	0.040598
497.190667	0.124109
497.409444	0.133775
497.628203	0.136472
497.846943	0.139146
498.065665	0.134264
498.284369	0.130386
498.503055	0.127193
498.721723	0.128943
498.940372	0.128187
499.159003	0.128170
499.377616	0.128616
499.596210	0.127044
499.814787	0.124448
500.033345	0.126370
500.251885	0.127213
500.470406	0.128388
500.688910	0.130818
500.907395	0.130141
501.125862	0.128446
501.344311	0.128058
501.562742	0.128967
501.781154	0.132537
501.999548	0.132731
502.217924	0.134394
502.436282	0.134539
502.654621	0.131102
502.872942	0.129593
503.091245	0.130934
503.309530	0.133235
503.527797	0.131998
503.746045	0.130968
503.964275	0.130859
504.182487	0.131732
504.400681	0.131402
504.618856	0.131694
504.837013	0.134719
505.055152	0.135125
505.273273	0.133582
505.491376	0.134191
505.709460	0.134398
505.927526	0.133457
506.145574	0.132277
506.363604	0.133040
506.581615	0.133179
506.799608	0.132604
507.017583	0.133312
507.235540	0.134777
507.453478	0.134324
507.671399	0.132412
507.889301	0.133883
508.107185	0.134728
508.325050	0.131477
508.542898	0.131866
508.760727	0.131954
508.978538	0.130710
509.196330	0.129192
509.414105	0.130511
509.631861	0.132558
509.849599	0.132682
510.067319	0.133424
510.285021	0.136090
510.502704	0.138380
510.720369	0.139375
510.938016	0.141252
511.155645	0.143101
511.373255	0.141966
511.590848	0.141572
511.808422	0.141323
512.025977	0.139746
512.243515	0.139129
512.461034	0.137804
512.678536	0.137198
512.896018	0.136007
513.113483	0.134556
513.330930	0.135153
513.548358	0.136107
513.765768	0.136692
513.983160	0.138860
514.200533	0.140429
514.417889	0.141022
514.635226	0.140717
514.852545	0.139865
515.069845	0.142170
515.287128	0.144348
515.504392	0.143556
515.721638	0.143646
515.938866	0.143893
516.156075	0.142808
516.373267	0.142221
516.590440	0.143011
516.807594	0.143757
517.024731	0.141922
517.241850	0.140392
517.458950	0.142194
517.676032	0.143328
517.893095	0.141634
518.110141	0.144398
518.327168	0.146577
518.544177	0.146902
518.761168	0.147903
518.978141	0.149195
519.195095	0.149636
519.412031	0.148848
519.628949	0.147154
519.845849	0.148242
520.062731	0.146941
520.279594	0.144872
520.496439	0.145293
520.713266	0.146088
520.930074	0.147226
521.146865	0.147924
521.363637	0.147039
521.580391	0.148777
521.797127	0.148438
522.013844	0.148995
522.230543	0.148877
522.447224	0.147824
522.663887	0.147975
522.880532	0.146889
523.097158	0.147185
523.313766	0.147796
523.530356	0.147860
523.746928	0.149084
523.963481	0.149010
524.180017	0.150174
524.396534	0.151937
524.613032	0.153183
524.829513	0.153853
525.045975	0.153342
525.262420	0.154117
525.478845	0.154915
525.695253	0.154633
525.911643	0.154337
526.128014	0.155623
526.344367	0.154458
526.560702	0.152703
526.777018	0.153174
526.993316	0.153762
527.209597	0.153514
527.425858	0.152906
527.642102	0.153027
527.858328	0.153501
528.074535	0.153116
528.290724	0.153917
528.506894	0.154724
528.723047	0.154767
528.939181	0.155839
529.155297	0.155799
529.371395	0.156822
529.587475	0.156769
529.803536	0.157961
530.019579	0.157249
530.235604	0.158053
530.451611	0.159488
530.667600	0.158955
530.883570	0.158285
531.099522	0.159958
531.315456	0.159509
531.531372	0.160212
531.747269	0.159705
531.963148	0.159783
532.179009	0.160268
532.394852	0.160197
532.610676	0.160326
532.826482	0.161192
533.042271	0.160305
533.258040	0.159607
533.473792	0.160675
533.689525	0.161179
533.905240	0.162101
534.120937	0.161574
534.336616	0.160951
534.552277	0.162384
534.767919	0.162398
534.983543	0.163109
535.199149	0.164253
535.414736	0.163689
535.630306	0.163667
535.845857	0.164293
536.061390	0.166261
536.276904	0.166508
536.492401	0.165914
536.707879	0.165969
536.923339	0.165645
537.138781	0.166305
537.354204	0.166628
537.569610	0.167287
537.784997	0.167102
538.000366	0.164897
538.215716	0.165178
538.431049	0.166058
538.646363	0.166298
538.861659	0.166844
539.076937	0.166037
539.292196	0.165765
539.507438	0.164850
539.722661	0.164674
539.937866	0.165625
540.153052	0.165506
540.368221	0.165642
540.583371	0.166013
540.798503	0.166343
541.013617	0.166794
541.228712	0.166652
541.443789	0.168136
541.658848	0.168957
541.873889	0.168970
542.088912	0.170827
542.303916	0.171434
542.518902	0.171996
542.733870	0.172264
542.948820	0.173482
543.163752	0.174168
543.378665	0.175023
543.593560	0.175678
543.808437	0.176157
544.023295	0.175535
544.238136	0.174856
544.452958	0.175408
544.667762	0.176158
544.882548	0.175642
545.097315	0.175993
545.312064	0.175821
545.526795	0.176222
545.741508	0.176621
545.956203	0.176064
546.170879	0.176522
546.385537	0.175742
546.600177	0.175038
546.814799	0.175417
547.029402	0.175211
547.243988	0.174297
547.458555	0.173434
547.673103	0.174143
547.887634	0.174966
548.102146	0.175236
548.316640	0.175560
548.531116	0.176503
548.745574	0.177446
548.960013	0.178471
549.174435	0.178913
549.388838	0.180240
549.603222	0.180605
549.817589	0.181328
550.031937	0.180881
550.246267	0.181333
550.460579	0.181815
550.674873	0.182489
550.889148	0.182304
551.103405	0.182853
551.317644	0.182443
551.531865	0.182087
551.746068	0.181888
551.960252	0.183284
552.174418	0.182408
552.388566	0.182421
552.602696	0.181231
552.816807	0.181758
553.030900	0.182771
553.244975	0.183487
553.459032	0.184144
553.673070	0.184139
553.887091	0.183666
554.101093	0.184746
554.315077	0.184465
554.529042	0.185171
554.742990	0.185042
554.956919	0.184686
555.170830	0.185328
555.384722	0.185977
555.598597	0.185785
555.812453	0.186386
556.026291	0.186355
556.240111	0.185629
556.453913	0.185285
556.667696	0.185326
556.881461	0.185029
557.095208	0.184252
557.308937	0.183502
557.522647	0.183205
557.736339	0.183284
557.950013	0.183674
558.163669	0.185314
558.377307	0.185136
558.590926	0.185393
558.804527	0.186493
559.018110	0.187236
559.231675	0.186627
559.445221	0.187573
559.658749	0.187542
559.872259	0.188187
560.085751	0.187744
560.299225	0.187896
560.512680	0.188388
560.726117	0.187904
560.939536	0.187777
561.152937	0.188609
561.366319	0.189230
561.579683	0.190006
561.793029	0.189393
562.006357	0.189605
562.219667	0.190500
562.432958	0.190520
562.646231	0.190517
562.859486	0.190589
563.072723	0.190873
563.285941	0.190546
563.499141	0.190385
563.712323	0.191075
563.925487	0.191674
564.138632	0.191436
564.351760	0.191110
564.564869	0.191596
564.777960	0.191296
564.991032	0.191285
565.204087	0.191895
565.417123	0.191823
565.630141	0.191463
565.843140	0.191049
566.056122	0.191286
566.269085	0.191741
566.482030	0.191960
566.694957	0.192416
566.907866	0.193411
567.120756	0.193689
567.333628	0.194084
567.546482	0.194360
567.759318	0.194962
567.972135	0.195477
568.184935	0.195528
568.397716	0.195913
568.610478	0.196119
568.823223	0.194850
569.035949	0.194116
569.248657	0.194141
569.461347	0.194785
569.674019	0.194821
569.886672	0.194653
570.099308	0.194720
570.311925	0.194578
570.524523	0.194583
570.737104	0.195566
570.949666	0.196559
571.162210	0.197282
571.374736	0.196640
571.587244	0.196398
571.799733	0.196431
572.012205	0.196895
572.224658	0.196768
572.437092	0.197114
572.649509	0.197089
572.861907	0.196948
573.074287	0.196479
573.286649	0.196784
573.498993	0.196847
573.711318	0.197322
573.923625	0.197977
574.135914	0.197801
574.348185	0.198324
574.560438	0.198840
574.772672	0.198114
574.984888	0.197939
575.197086	0.198409
575.409266	0.198818
575.621427	0.199249
575.833570	0.198979
576.045695	0.199528
576.257802	0.199577
576.469890	0.199189
576.681961	0.200157
576.894013	0.200664
577.106046	0.200435
577.318062	0.200530
577.530059	0.200306
577.742039	0.200209
577.954000	0.200398
578.165942	0.199762
578.377867	0.200641
578.589773	0.200612
578.801661	0.200211
579.013531	0.200489
579.225382	0.200230
579.437216	0.200199
579.649031	0.200422
579.860828	0.200428
580.072606	0.201507
580.284367	0.201399
580.496109	0.201462
580.707833	0.201852
580.919539	0.202472
581.131227	0.203495
581.342896	0.203720
581.554547	0.203252
581.766180	0.203999
581.977795	0.204036
582.189391	0.203907
582.400969	0.203769
582.612529	0.203874
582.824071	0.204420
583.035595	0.204273
583.247100	0.204413
583.458587	0.204790
583.670056	0.204426
583.881506	0.204491
584.092939	0.204835
584.304353	0.205588
584.515749	0.206071
584.727127	0.205764
584.938486	0.206065
585.149828	0.206947
585.361151	0.207293
585.572456	0.207504
585.783742	0.207396
585.995011	0.207006
586.206261	0.206931
586.417493	0.206856
586.628706	0.206817
586.839902	0.207382
587.051079	0.206458
587.262238	0.206658
587.473379	0.206302
587.684502	0.205991
587.895606	0.206675
588.106692	0.206725
588.317760	0.207249
588.528810	0.207703
588.739841	0.207503
588.950855	0.208847
589.161850	0.209304
589.372827	0.209511
589.583785	0.210366
589.794726	0.210236
590.005648	0.210300
590.216552	0.210092
590.427437	0.209941
590.638305	0.210131
590.849154	0.210276
591.059985	0.209992
591.270798	0.210565
591.481592	0.210794
591.692369	0.211260
591.903127	0.211935
592.113867	0.211959
592.324588	0.212111
592.535292	0.211063
592.745977	0.210485
592.956644	0.210486
593.167293	0.210719
593.377923	0.210766
593.588536	0.210188
593.799130	0.210280
594.009706	0.210871
594.220263	0.210631
594.430803	0.211524
594.641324	0.211692
594.851827	0.212113
595.062312	0.212089
595.272778	0.211513
595.483227	0.212250
595.693657	0.212600
595.904069	0.213166
596.114462	0.213956
596.324838	0.214370
596.535195	0.214279
596.745534	0.215071
596.955855	0.214896
597.166157	0.215510
597.376441	0.215266
597.586707	0.215189
597.796955	0.214535
598.007185	0.214841
598.217396	0.214437
598.427589	0.214845
598.637764	0.214292
598.847921	0.215004
599.058060	0.214785
599.268180	0.214767
599.478282	0.214648
599.688366	0.214730
599.898431	0.214179
600.108479	0.214708
600.318508	0.214742
600.528519	0.215001
600.738511	0.215384
600.948486	0.215842
601.158442	0.216299
601.368380	0.216410
601.578300	0.216691
601.788202	0.217128
601.998085	0.217270
602.207950	0.217333
602.417797	0.217134
602.627626	0.217268
602.837436	0.217808
603.047228	0.217578
603.257002	0.217393
603.466758	0.217977
603.676496	0.217366
603.886215	0.216995
604.095916	0.217293
604.305599	0.217508
604.515264	0.216994
604.724910	0.216774
604.934538	0.217297
605.144148	0.217687
605.353740	0.217227
605.563314	0.218426
605.772869	0.219094
605.982406	0.219724
606.191925	0.220451
606.401425	0.221251
606.610908	0.221031
606.820372	0.220977
607.029818	0.221772
607.239246	0.222217
607.448655	0.222224
607.658047	0.222781
607.867420	0.222444
608.076775	0.222130
608.286111	0.222071
608.495430	0.221928
608.704730	0.222265
608.914012	0.222397
609.123275	0.222575
609.332521	0.223011
609.541748	0.222527
609.750957	0.222303
609.960148	0.222617
610.169321	0.222386
610.378475	0.222992
610.587611	0.222856
610.796729	0.222534
611.005829	0.222255
611.214910	0.221734
611.423974	0.221802
611.633019	0.222166
611.842045	0.222475
612.051054	0.222988
612.260044	0.222805
612.469017	0.223164
612.677970	0.223304
612.886906	0.223927
613.095824	0.224239
613.304723	0.224329
613.513604	0.224808
613.722467	0.224952
613.931311	0.224822
614.140138	0.225810
614.348946	0.226083
614.557736	0.226009
614.766507	0.226053
614.975261	0.226727
615.183996	0.227515
615.392713	0.227398
615.601412	0.227135
615.810092	0.226797
616.018754	0.227038
616.227399	0.226950
616.436024	0.226828
616.644632	0.227019
616.853222	0.226745
617.061793	0.226422
617.270346	0.226353
617.478880	0.226715
617.687397	0.226931
617.895895	0.226589
618.104375	0.226773
618.312837	0.227477
618.521281	0.227687
618.729706	0.227809
618.938113	0.227888
619.146502	0.228309
619.354873	0.228359
619.563226	0.229169
619.771560	0.228960
619.979876	0.229160
620.188174	0.229528
620.396453	0.229421
620.604715	0.229573
620.812958	0.230019
621.021183	0.230371
621.229390	0.230921
621.437578	0.231282
621.645748	0.231407
621.853900	0.232183
622.062034	0.231985
622.270150	0.232477
622.478247	0.232713
622.686326	0.232777
622.894387	0.232876
623.102430	0.232971
623.310454	0.232567
623.518461	0.233208
623.726449	0.232372
623.934418	0.232049
624.142370	0.232352
624.350303	0.232603
624.558218	0.232783
624.766115	0.232515
624.973994	0.232166
625.181855	0.232422
625.389697	0.232533
625.597521	0.233210
625.805327	0.234048
626.013114	0.233569
626.220883	0.233400
626.428634	0.233329
626.636367	0.233591
626.844082	0.234545
627.051778	0.234318
627.259457	0.234705
627.467117	0.234930
627.674758	0.234887
627.882382	0.235000
628.089987	0.235724
628.297574	0.236139
628.505143	0.236522
628.712694	0.236618
628.920226	0.237173
629.127740	0.237389
629.335236	0.237304
629.542714	0.237443
629.750174	0.237396
629.957615	0.237028
630.165038	0.237011
630.372443	0.237182
630.579829	0.237011
630.787198	0.237108
630.994548	0.236670
631.201880	0.236760
631.409194	0.236971
631.616489	0.237697
631.823766	0.237642
632.031025	0.238094
632.238266	0.238756
632.445489	0.238831
632.652693	0.238744
632.859879	0.238733
633.067047	0.239103
633.274197	0.238501
633.481329	0.238584
633.688442	0.239032
633.895537	0.238775
634.102614	0.238014
634.309672	0.238051
634.516713	0.238228
634.723735	0.238583
634.930739	0.238672
635.137724	0.239195
635.344692	0.238697
635.551641	0.238981
635.758572	0.238931
635.965485	0.239365
636.172379	0.239483
636.379256	0.240073
636.586114	0.240323
636.792954	0.240547
636.999775	0.241139
637.206579	0.241738
637.413364	0.241705
637.620131	0.241761
637.826880	0.241942
638.033610	0.241973
638.240323	0.241844
638.447017	0.242126
638.653692	0.242481
638.860350	0.242393
639.066990	0.242761
639.273611	0.242819
639.480214	0.243393
639.686798	0.243586
639.893365	0.244123
640.099913	0.244361
640.306443	0.243963
640.512955	0.243709
640.719449	0.243865
640.925924	0.244204
641.132381	0.244382
641.338820	0.244472
641.545241	0.244690
641.751644	0.244616
641.958028	0.244481
642.164394	0.244796
642.370742	0.244690
642.577071	0.244871
642.783383	0.244980
642.989676	0.245161
643.195951	0.245415
643.402207	0.245649
643.608446	0.245529
643.814666	0.245974
644.020868	0.246595
644.227052	0.247155
644.433218	0.248067
644.639365	0.248358
644.845494	0.248555
645.051605	0.248756
645.257698	0.248542
645.463772	0.249236
645.669828	0.249292
645.875866	0.249576
646.081886	0.249890
646.287888	0.249369
646.493871	0.249271
646.699836	0.249190
646.905783	0.249201
647.111712	0.249745
647.317622	0.249714
647.523514	0.249768
647.729388	0.249983
647.935244	0.249871
648.141082	0.250250
648.346901	0.250349
648.552702	0.250856
648.758485	0.251025
648.964250	0.251008
649.169996	0.251479
649.375724	0.251609
649.581434	0.251416
649.787126	0.251822
649.992800	0.251762
650.198455	0.251865
650.404092	0.252009
650.609711	0.252401
650.815311	0.252606
651.020894	0.252601
651.226458	0.253436
651.432004	0.253722
651.637532	0.253646
651.843041	0.253877
652.048532	0.254876
652.254006	0.254978
652.459460	0.255159
652.664897	0.255655
652.870315	0.255794
653.075716	0.255492
653.281097	0.255397
653.486461	0.255725
653.691807	0.255462
653.897134	0.255273
654.102443	0.255697
654.307734	0.255856
654.513006	0.255459
654.718261	0.255628
654.923497	0.256063
655.128715	0.256770
655.333915	0.256822
655.539096	0.257507
655.744259	0.257619
655.949404	0.257687
656.154531	0.257464
656.359640	0.258092
656.564730	0.258092
656.769802	0.257969
656.974856	0.257814
657.179892	0.258193
657.384909	0.258224
657.589908	0.258199
657.794889	0.258277
657.999852	0.258988
658.204797	0.259006
658.409723	0.259347
658.614631	0.259616
658.819521	0.259960
659.024393	0.260187
659.229246	0.260767
659.434081	0.260997
659.638898	0.261405
659.843697	0.261489
660.048478	0.261340
660.253240	0.261576
660.457984	0.261680
660.662710	0.261464
660.867417	0.261300
661.072107	0.261434
661.276778	0.261686
661.481431	0.261476
661.686066	0.261840
661.890682	0.262223
662.095281	0.262058
662.299861	0.262541
662.504422	0.263356
662.708966	0.264149
662.913491	0.264213
663.117999	0.264112
663.322488	0.264417
663.526958	0.264469
663.731411	0.264564
663.935845	0.265149
664.140261	0.265438
664.344659	0.265436
664.549038	0.265501
664.753400	0.265582
664.957743	0.266159
665.162068	0.266124
665.366375	0.266340
665.570663	0.266767
665.774933	0.267077
665.979185	0.267180
666.183419	0.267217
666.387635	0.267519
666.591832	0.268029
666.796011	0.268164
667.000172	0.268655
667.204315	0.268988
667.408439	0.269479
667.612545	0.269735
667.816634	0.270037
668.020703	0.270269
668.224755	0.270577
668.428788	0.270148
668.632803	0.270327
668.836800	0.270763
669.040779	0.271109
669.244739	0.271153
669.448681	0.271094
669.652605	0.271028
669.856511	0.271490
670.060399	0.271286
670.264268	0.271742
670.468119	0.271456
670.671952	0.271457
670.875767	0.271066
671.079563	0.271222
671.283341	0.271495
671.487101	0.271605
671.690843	0.271756
671.894567	0.271682
672.098272	0.271754
672.301959	0.272434
672.505628	0.272661
672.709278	0.273063
672.912911	0.273092
673.116525	0.273410
673.320121	0.273939
673.523699	0.274123
673.727258	0.275023
673.930799	0.275707
674.134322	0.275736
674.337827	0.275849
674.541314	0.276531
674.744782	0.276988
674.948232	0.277120
675.151664	0.276983
675.355078	0.277045
675.558474	0.277136
675.761851	0.276987
675.965210	0.277454
676.168551	0.277892
676.371873	0.277828
676.575178	0.277658
676.778464	0.277726
676.981732	0.277997
677.184981	0.278483
677.388213	0.278467
677.591426	0.278994
677.794621	0.278788
677.997798	0.278999
678.200956	0.279095
678.404097	0.279558
678.607219	0.279905
678.810323	0.280192
679.013408	0.280053
679.216476	0.280446
679.419525	0.280594
679.622556	0.281141
679.825569	0.280778
680.028563	0.281214
680.231540	0.281265
680.434498	0.281340
680.637438	0.281602
680.840359	0.281968
681.043263	0.282086
681.246148	0.282238
681.449015	0.282176
681.651864	0.283203
681.854694	0.283646
682.057506	0.284035
682.260301	0.284373
682.463076	0.284352
682.665834	0.284482
682.868573	0.284282
683.071295	0.284538
683.273998	0.285158
683.476682	0.284878
683.679349	0.284310
683.881997	0.284262
684.084627	0.284392
684.287239	0.284793
684.489833	0.285152
684.692408	0.285837
684.894965	0.285798
685.097504	0.285644
685.300025	0.285907
685.502527	0.286160
685.705012	0.286286
685.907478	0.286298
686.109925	0.286236
686.312355	0.286135
686.514766	0.285675
686.717159	0.286117
686.919534	0.286627
687.121891	0.286860
687.324230	0.287371
687.526550	0.288038
687.728852	0.288064
687.931136	0.288454
688.133401	0.288812
688.335649	0.289191
688.537878	0.289144
688.740089	0.289263
688.942281	0.289438
689.144456	0.289447
689.346612	0.289468
689.548750	0.289728
689.750870	0.290140
689.952971	0.290043
690.155055	0.290101
690.357120	0.290415
690.559167	0.290060
690.761195	0.290149
690.963206	0.290507
691.165198	0.290169
691.367172	0.290420
691.569128	0.290190
691.771065	0.290746
691.972984	0.291066
692.174885	0.290868
692.376768	0.291164
692.578633	0.291087
692.780479	0.290881
692.982308	0.291185
693.184118	0.291210
693.385909	0.291330
693.587683	0.290907
693.789438	0.290870
693.991175	0.290968
694.192894	0.291266
694.394595	0.291840
694.596277	0.292154
694.797941	0.292619
694.999587	0.292532
695.201215	0.292176
695.402824	0.292678
695.604416	0.292861
695.805989	0.293181
696.007543	0.293140
696.209080	0.292794
696.410598	0.292696
696.612099	0.292940
696.813580	0.293273
697.015044	0.293689
697.216490	0.294290
697.417917	0.294755
697.619326	0.294804
697.820717	0.294644
698.022089	0.294925
698.223444	0.295357
698.424780	0.295171
698.626098	0.295070
698.827397	0.295408
699.028679	0.294698
699.229942	0.294622
699.431187	0.294542
699.632414	0.294937
699.833622	0.295145
700.034813	0.295066
700.235985	0.295156
700.437139	0.295622
700.638274	0.295858
700.839392	0.296043
701.040491	0.296204
701.241572	0.296613
701.442635	0.297201
701.643679	0.297180
701.844706	0.297328
702.045714	0.297331
702.246704	0.297361
702.447675	0.297311
702.648629	0.297621
702.849564	0.297505
703.050481	0.297593
703.251380	0.297272
703.452260	0.297714
703.653122	0.297611
703.853966	0.297755
704.054792	0.297937
704.255600	0.298055
704.456389	0.297757
704.657160	0.297605
704.857913	0.297415
705.058648	0.297229
705.259365	0.296762
705.460063	0.296722
705.660743	0.296706
705.861405	0.296548
706.062048	0.296663
706.262674	0.296979
706.463281	0.297141
706.663870	0.297595
706.864441	0.297713
707.064993	0.297875
707.265527	0.297876
707.466043	0.297733
707.666541	0.297975
707.867021	0.297813
708.067482	0.297632
708.267925	0.297880
708.468350	0.297711
708.668757	0.298065
708.869145	0.298066
709.069516	0.298063
709.269868	0.298406
709.470201	0.298171
709.670517	0.298007
709.870814	0.298396
710.071093	0.298393
710.271354	0.298318
710.471597	0.298009
710.671821	0.297957
710.872028	0.298202
711.072216	0.297816
711.272385	0.297840
711.472537	0.298220
711.672670	0.297801
711.872785	0.298009
712.072882	0.298120
712.272961	0.298156
712.473021	0.298107
712.673063	0.297967
712.873087	0.298271
713.073093	0.298574
713.273081	0.298783
713.473050	0.299205
713.673001	0.298926
713.872934	0.298836
714.072849	0.298934
714.272745	0.298752
714.472623	0.298764
714.672483	0.298840
714.872325	0.298880
715.072148	0.298360
715.271954	0.298310
715.471741	0.298255
715.671509	0.298121
715.871260	0.297988
716.070992	0.298381
716.270707	0.298278
716.470403	0.298229
716.670080	0.297988
716.869740	0.297938
717.069381	0.297461
717.269004	0.297703
717.468609	0.297241
717.668195	0.297173
717.867764	0.296814
718.067314	0.296677
718.266846	0.296207
718.466360	0.295733
718.665855	0.295653
718.865332	0.295617
719.064791	0.295306
719.264232	0.295547
719.463655	0.295311
719.663059	0.295567
719.862445	0.295487
720.061813	0.295568
720.261163	0.295787
720.460494	0.295822
720.659807	0.295426
720.859102	0.295340
721.058379	0.295332
721.257638	0.295286
721.456878	0.295334
721.656100	0.295083
721.855304	0.294962
722.054490	0.294743
722.253657	0.294703
722.452806	0.295082
722.651937	0.295197
722.851050	0.295178
723.050145	0.294990
723.249221	0.294402
723.448279	0.294519
723.647319	0.294266
723.846340	0.294496
724.045344	0.294266
724.244329	0.294526
724.443296	0.294432
724.642245	0.294338
724.841175	0.294331
725.040088	0.294230
725.238982	0.294451
725.437857	0.294719
725.636715	0.294855
725.835554	0.294793
726.034376	0.294245
726.233179	0.293547
726.431963	0.293543
726.630730	0.293490
726.829478	0.293382
727.028208	0.293061
727.226920	0.292523
727.425614	0.291880
727.624289	0.291189
727.822946	0.291088
728.021585	0.290986
728.220206	0.290754
728.418808	0.290729
728.617392	0.290806
728.815958	0.290611
729.014506	0.290802
729.213036	0.290302
729.411547	0.290697
729.610040	0.290913
729.808515	0.290826
730.006972	0.290490
730.205410	0.290573
730.403831	0.289979
730.602233	0.289743
730.800616	0.289321
730.998982	0.289788
731.197329	0.289538
731.395658	0.288829
731.593969	0.288547
731.792262	0.288370
731.990536	0.287706
732.188793	0.287840
732.387031	0.287481
732.585250	0.287089
732.783452	0.286707
732.981635	0.286585
733.179800	0.286278
733.377947	0.286550
733.576076	0.286579
733.774186	0.286531
733.972278	0.286402
734.170352	0.286246
734.368408	0.286326
734.566446	0.286023
734.764465	0.285594
734.962466	0.285402
735.160449	0.285044
735.358413	0.284548
735.556360	0.284246
735.754288	0.284015
735.952198	0.284065
736.150090	0.284170
736.347963	0.284046
736.545818	0.284270
736.743655	0.284405
736.941474	0.284077
737.139275	0.284119
737.337057	0.283833
737.534821	0.283560
737.732567	0.283248
737.930295	0.283110
738.128005	0.283096
738.325696	0.282399
738.523369	0.282336
738.721024	0.282596
738.918660	0.282352
739.116279	0.282638
739.313879	0.282397
739.511461	0.282008
739.709024	0.281725
739.906570	0.281459
740.104097	0.281128
740.301606	0.280744
740.499097	0.280233
740.696569	0.280313
740.894024	0.279986
741.091460	0.280338
741.288878	0.280283
741.486277	0.280272
741.683659	0.280128
741.881022	0.280464
742.078367	0.280573
742.275694	0.280456
742.473002	0.280146
742.670293	0.279665
742.867565	0.279136
743.064819	0.279145
743.262054	0.278808
743.459272	0.278538
743.656471	0.278602
743.853652	0.278167
744.050815	0.278206
744.247959	0.278093
744.445085	0.278130
744.642194	0.277906
744.839283	0.277765
745.036355	0.277748
745.233408	0.277021
745.430444	0.276217
745.627461	0.275943
745.824459	0.275275
746.021440	0.274745
746.218402	0.274523
746.415346	0.274177
746.612272	0.274277
746.809180	0.273242
747.006069	0.273486
747.202940	0.273883
747.399793	0.273729
747.596628	0.273901
747.793444	0.273905
747.990243	0.273937
748.187023	0.273969
748.383784	0.273721
748.580528	0.274483
748.777253	0.274213
748.973960	0.273592
749.170649	0.273373
749.367320	0.272878
749.563973	0.272997
749.760607	0.272515
749.957223	0.272116
750.153821	0.271717
750.350400	0.271319
750.546962	0.271348
750.743505	0.271522
750.940030	0.271728
751.136536	0.271907
751.333025	0.271245
751.529495	0.271432
751.725947	0.271327
751.922381	0.270911
752.118796	0.270497
752.315194	0.270054
752.511573	0.269778
752.707934	0.269148
752.904276	0.268393
753.100601	0.268606
753.296907	0.267826
753.493195	0.267756
753.689465	0.268048
753.885716	0.268292
754.081949	0.268365
754.278164	0.268191
754.474361	0.268283
754.670540	0.268868
754.866700	0.268728
755.062843	0.268926
755.258967	0.268878
755.455072	0.268330
755.651160	0.267515
755.847229	0.267642
756.043280	0.267383
756.239313	0.266863
756.435328	0.266700
756.631324	0.265737
756.827302	0.265693
757.023262	0.265530
757.219204	0.266009
757.415127	0.266136
757.611033	0.265377
757.806920	0.265521
758.002788	0.265798
758.198639	0.265638
758.394471	0.266383
758.590286	0.266131
758.786081	0.265791
758.981859	0.265860
759.177619	0.265765
759.373360	0.265948
759.569083	0.265382
759.764788	0.265119
759.960474	0.264718
760.156143	0.264163
760.351793	0.264193
760.547425	0.264153
760.743038	0.263352
760.938634	0.263428
761.134211	0.263120
761.329770	0.263160
761.525311	0.262837
761.720833	0.262935
761.916338	0.262988
762.111824	0.262716
762.307292	0.262547
762.502741	0.262197
762.698173	0.261602
762.893586	0.261912
763.088981	0.261834
763.284358	0.261618
763.479716	0.261522
763.675057	0.261576
763.870379	0.261785
764.065683	0.261860
764.260968	0.261950
764.456236	0.262382
764.651485	0.262154
764.846716	0.262264
765.041929	0.262427
765.237123	0.262389
765.432299	0.262073
765.627457	0.262082
765.822597	0.262206
766.017719	0.262478
766.212822	0.262385
766.407907	0.262072
766.602974	0.262309
766.798023	0.262412
766.993054	0.262032
767.188066	0.262572
767.383060	0.261903
767.578036	0.261643
767.772993	0.261086
767.967933	0.261117
768.162854	0.261060
768.357757	0.260679
768.552642	0.260809
768.747508	0.260420
768.942356	0.259543
769.137186	0.260165
769.331998	0.259445
769.526792	0.259735
769.721567	0.259319
769.916324	0.259739
770.111063	0.259293
770.305784	0.258753
770.500486	0.258444
770.695171	0.258234
770.889837	0.257789
771.084484	0.258178
771.279114	0.258099
771.473725	0.258063
771.668318	0.257708
771.862893	0.257755
772.057450	0.257759
772.251988	0.258374
772.446509	0.258697
772.641011	0.258993
772.835494	0.259175
773.029960	0.258779
773.224407	0.258737
773.418836	0.258566
773.613247	0.258776
773.807640	0.259107
774.002014	0.259141
774.196370	0.259196
774.390708	0.258881
774.585028	0.258700
774.779330	0.259122
774.973613	0.259463
775.167878	0.259534
775.362125	0.259071
775.556354	0.258575
775.750564	0.258752
775.944756	0.258896
776.138930	0.258663
776.333086	0.258542
776.527223	0.258264
776.721343	0.257726
776.915444	0.257767
777.109526	0.257620
777.303591	0.257804
777.497637	0.257330
777.691666	0.256978
777.885676	0.256658
778.079667	0.256354
778.273641	0.256385
778.467596	0.257015
778.661533	0.256817
778.855452	0.256917
779.049352	0.256997
779.243235	0.257367
779.437099	0.257312
779.630945	0.257664
779.824773	0.258189
780.018582	0.258246
780.212373	0.257926
780.406146	0.258046
780.599901	0.258241
780.793638	0.258323
780.987356	0.258020
781.181056	0.258186
781.374738	0.258218
781.568402	0.258451
781.762047	0.258263
781.955674	0.258250
782.149283	0.258052
782.342874	0.258316
782.536447	0.258385
782.730001	0.258454
782.923537	0.258142
783.117055	0.258629
783.310555	0.257891
783.504036	0.258391
783.697499	0.258440
783.890944	0.258497
784.084371	0.258184
784.277780	0.257787
784.471170	0.257916
784.664542	0.258015
784.857896	0.257537
785.051231	0.257679
785.244549	0.257429
785.437848	0.257340
785.631129	0.257570
785.824392	0.257817
786.017636	0.257977
786.210863	0.258063
786.404071	0.258732
786.597260	0.258710
786.790432	0.258974
786.983585	0.258995
787.176721	0.258989
787.369838	0.259374
787.562936	0.259698
787.756017	0.259732
787.949079	0.259545
788.142123	0.258883
788.335149	0.259171
788.528156	0.259571
788.721146	0.259901
788.914117	0.260084
789.107070	0.260122
789.300005	0.259592
789.492921	0.259981
789.685819	0.260112
789.878699	0.260631
790.071561	0.260477
790.264405	0.260251
790.457230	0.260148
790.650037	0.260617
790.842826	0.260649
791.035597	0.261361
791.228349	0.261443
791.421084	0.261296
791.613800	0.261528
791.806497	0.261405
791.999177	0.261683
792.191838	0.261163
792.384481	0.260777
792.577106	0.260434
792.769713	0.260259
792.962301	0.260306
793.154871	0.260408
793.347423	0.260110
793.539957	0.260475
793.732473	0.259979
793.924970	0.260804
794.117449	0.260915
794.309910	0.261108
794.502353	0.260870
794.694777	0.260425
794.887183	0.260929
795.079571	0.261352
795.271941	0.261504
795.464293	0.262388
795.656626	0.262151
795.848941	0.261983
796.041238	0.262216
796.233516	0.262837
796.425777	0.263332
796.618019	0.263164
796.810243	0.262817
797.002449	0.262941
797.194636	0.263204
797.386805	0.263178
797.578956	0.263825
797.771089	0.263743
797.963204	0.264150
798.155300	0.264258
798.347378	0.264590
798.539438	0.265348
798.731480	0.265433
798.923503	0.265129
799.115509	0.265441
799.307496	0.265426
799.499465	0.265686
799.691415	0.265160
799.883348	0.265214
800.075262	0.265353
800.267158	0.264958
800.459035	0.265202
800.650895	0.265481
800.842736	0.265429
801.034559	0.265066
801.226364	0.264944
801.418150	0.265114
801.609919	0.265442
801.801669	0.265568
801.993401	0.265682
802.185114	0.265930
802.376810	0.266255
802.568487	0.266687
802.760146	0.267555
802.951787	0.268032
803.143409	0.268689
803.335014	0.268980
803.526600	0.269195
803.718168	0.269231
803.909717	0.268969
804.101249	0.268579
804.292762	0.268713
804.484257	0.268698
804.675734	0.269057
804.867192	0.269107
805.058632	0.269236
805.250054	0.269575
805.441458	0.270213
805.632844	0.270511
805.824211	0.270934
806.015561	0.271341
806.206891	0.271246
806.398204	0.271153
806.589499	0.271602
806.780775	0.271622
806.972033	0.271877
807.163273	0.272027
807.354495	0.272704
807.545698	0.272353
807.736883	0.272143
807.928050	0.272772
808.119199	0.272843
808.310329	0.272500
808.501441	0.272779
808.692535	0.272575
808.883611	0.272816
809.074669	0.273032
809.265708	0.273717
809.456729	0.274201
809.647732	0.274181
809.838717	0.274894
810.029683	0.275087
810.220632	0.275363
810.411562	0.275854
810.602474	0.275963
810.793367	0.276073
810.984242	0.276190
811.175100	0.276400
811.365938	0.276724
811.556759	0.277004
811.747562	0.277449
811.938346	0.277831
812.129112	0.277980
812.319860	0.278046
812.510589	0.278170
812.701300	0.278891
812.891994	0.279068
813.082668	0.278970
813.273325	0.278928
813.463964	0.278824
813.654584	0.278705
813.845186	0.278976
814.035769	0.279373
814.226335	0.279412
814.416882	0.279674
814.607411	0.280339
814.797922	0.280825
814.988415	0.280939
815.178889	0.281581
815.369345	0.282007
815.559783	0.282216
815.750203	0.282650
815.940605	0.282947
816.130988	0.282979
816.321353	0.282752
816.511700	0.283293
816.702028	0.283784
816.892339	0.284233
817.082631	0.284946
817.272905	0.285074
817.463161	0.285403
817.653398	0.285458
817.843617	0.285943
818.033819	0.286107
818.224001	0.285920
818.414166	0.285313
818.604312	0.285341
818.794440	0.284480
818.984550	0.284597
819.174642	0.284610
819.364716	0.285101
819.554771	0.284988
819.744808	0.284983
819.934827	0.285467
820.124827	0.286750
820.314810	0.286767
820.504774	0.287401
820.694720	0.288093
820.884647	0.288100
821.074557	0.288147
821.264448	0.288405
821.454321	0.288970
821.644176	0.288912
821.834012	0.288802
822.023831	0.289073
822.213631	0.289647
822.403413	0.289981
822.593176	0.290355
822.782922	0.290830
822.972649	0.291182
823.162358	0.291601
823.352049	0.292220
823.541721	0.292410
823.731376	0.292379
823.921012	0.292472
824.110629	0.292695
824.300229	0.293520
824.489811	0.293999
824.679374	0.293858
824.868919	0.294732
825.058445	0.294826
825.247954	0.295495
825.437444	0.296410
825.626916	0.297206
825.816370	0.297449
826.005806	0.297216
826.195223	0.297423
826.384622	0.298065
826.574003	0.297472
826.763366	0.297921
826.952711	0.298181
827.142037	0.298501
827.331345	0.298506
827.520635	0.298880
827.709906	0.298996
827.899160	0.299151
828.088395	0.299688
828.277612	0.300261
828.466810	0.300566
828.655991	0.300559
828.845153	0.300775
829.034297	0.301262
829.223423	0.300884
829.412531	0.301470
829.601620	0.301977
829.790691	0.302100
829.979744	0.302575
830.168779	0.302685
830.357795	0.302906
830.546793	0.303374
830.735773	0.303279
830.924735	0.303680
831.113679	0.304387
831.302604	0.304249
831.491511	0.304553
831.680400	0.304638
831.869271	0.305131
832.058123	0.305373
832.246957	0.305690
832.435773	0.306642
832.624571	0.307275
832.813351	0.307517
833.002112	0.308349
833.190855	0.309052
833.379580	0.309209
833.568287	0.309410
833.756975	0.309865
833.945645	0.309800
834.134297	0.309114
834.322931	0.309320
834.511547	0.308989
834.700144	0.308902
834.888723	0.309143
835.077284	0.309948
835.265826	0.310228
835.454351	0.310729
835.642857	0.311579
835.831345	0.312502
836.019815	0.313259
836.208266	0.314226
836.396699	0.314361
836.585114	0.314676
836.773511	0.314661
836.961890	0.314882
837.150250	0.315225
837.338592	0.314991
837.526916	0.315680
837.715222	0.316045
837.903510	0.316216
838.091779	0.317191
838.280030	0.317246
838.468263	0.317984
838.656477	0.318915
838.844674	0.319564
839.032852	0.320177
839.221012	0.320493
839.409153	0.320806
839.597277	0.321489
839.785382	0.321036
839.973469	0.321338
840.161538	0.321383
840.349589	0.321499
840.537621	0.321662
840.725635	0.321778
840.913631	0.321122
841.101609	0.321138
841.289568	0.321126
841.477509	0.322868
841.665432	0.323260
841.853337	0.323432
842.041224	0.323520
842.229092	0.323949
842.416942	0.324330
842.604774	0.325134
842.792588	0.325516
842.980383	0.325774
843.168160	0.325632
843.355919	0.325998
843.543660	0.326691
843.731382	0.327143
843.919087	0.327635
844.106773	0.327948
844.294441	0.328534
844.482090	0.329398
844.669722	0.329573
844.857335	0.329690
845.044930	0.330136
845.232507	0.330454
845.420065	0.330617
845.607605	0.330953
845.795127	0.331311
845.982631	0.331451
846.170117	0.331115
846.357584	0.332150
846.545033	0.332663
846.732464	0.332990
846.919877	0.333542
847.107272	0.334733
847.294648	0.334773
847.482006	0.335311
847.669346	0.336391
847.856667	0.337285
848.043971	0.336985
848.231256	0.336965
848.418523	0.337690
848.605771	0.338384
848.793002	0.337989
848.980214	0.337949
849.167408	0.338193
849.354584	0.338299
849.541742	0.338794
849.728881	0.339582
849.916002	0.340285
850.103105	0.339806
850.290190	0.339417
850.477256	0.340201
850.664304	0.340832
850.851334	0.341466
851.038346	0.341382
851.225340	0.340910
851.412315	0.340896
851.599272	0.340871
851.786211	0.341709
851.973132	0.342632
852.160034	0.343331
852.346918	0.343894
852.533784	0.344653
852.720632	0.345688
852.907462	0.346118
853.094273	0.346720
853.281066	0.347058
853.467841	0.347628
853.654598	0.347103
853.841336	0.347144
854.028056	0.347432
854.214758	0.346857
854.401442	0.346408
854.588107	0.347373
854.774755	0.347352
854.961384	0.348093
855.147995	0.348308
855.334587	0.349322
855.521162	0.349532
855.707718	0.349842
855.894256	0.350537
856.080775	0.351380
856.267277	0.351743
856.453760	0.352316
856.640225	0.352743
856.826672	0.353319
857.013101	0.353251
857.199511	0.353383
857.385903	0.353485
857.572277	0.354008
857.758633	0.354165
857.944970	0.353814
858.131290	0.353881
858.317591	0.353277
858.503873	0.353122
858.690138	0.353425
858.876384	0.353610
859.062612	0.353803
859.248822	0.353907
859.435014	0.354090
859.621188	0.354842
859.807343	0.355520
859.993480	0.356880
860.179599	0.357384
860.365699	0.358405
860.551781	0.358928
860.737846	0.359950
860.923891	0.359843
861.109919	0.360270
861.295929	0.360664
861.481920	0.360890
861.667893	0.361119
861.853848	0.361112
862.039784	0.360831
862.225702	0.360981
862.411603	0.361322
862.597484	0.361408
862.783348	0.361641
862.969193	0.361995
863.155021	0.361660
863.340830	0.361154
863.526620	0.361557
863.712393	0.362215
863.898147	0.363075
864.083883	0.363033
864.269601	0.364125
864.455301	0.364721
864.640982	0.364825
864.826645	0.365985
865.012290	0.367004
865.197917	0.367304
865.383526	0.367576
865.569116	0.367312
865.754688	0.367779
865.940242	0.368229
866.125777	0.368046
866.311295	0.367579
866.496794	0.367650
866.682275	0.367701
866.867737	0.368441
867.053182	0.368661
867.238608	0.369425
867.424016	0.369777
867.609406	0.369901
867.794778	0.370315
867.980131	0.371574
868.165466	0.371596
868.350783	0.371332
868.536082	0.371355
868.721362	0.371587
868.906625	0.371875
869.091869	0.372114
869.277094	0.371840
869.462302	0.372522
869.647491	0.372389
869.832662	0.373800
870.017815	0.374751
870.202950	0.374798
870.388066	0.374091
870.573165	0.374170
870.758245	0.374335
870.943306	0.374523
871.128350	0.373979
871.313375	0.373831
871.498382	0.371835
871.683371	0.371523
871.868342	0.370483
872.053294	0.371064
872.238229	0.371230
872.423144	0.370772
872.608042	0.371488
872.792922	0.372619
872.977783	0.373142
873.162626	0.374305
873.347451	0.374846
873.532258	0.376356
873.717046	0.376245
873.901816	0.376086
874.086568	0.376649
874.271302	0.376585
874.456017	0.375596
874.640715	0.375881
874.825394	0.376132
875.010055	0.376080
875.194697	0.376168
875.379322	0.376368
875.563928	0.376091
875.748516	0.376464
875.933085	0.376515
876.117637	0.377482
876.302170	0.378026
876.486685	0.377349
876.671182	0.377737
876.855661	0.378030
877.040121	0.378822
877.224563	0.378915
877.408987	0.379067
877.593393	0.378891
877.777780	0.378421
877.962150	0.377775
878.146501	0.379409
878.330833	0.380241
878.515148	0.380597
878.699444	0.380962
878.883722	0.382444
879.067982	0.382465
879.252224	0.383352
879.436447	0.384024
879.620653	0.384421
879.804840	0.384231
879.989008	0.383801
880.173159	0.383382
880.357291	0.383373
880.541405	0.382802
880.725501	0.383517
880.909579	0.383689
881.093638	0.383523
881.277680	0.384359
881.461703	0.383989
881.645707	0.384074
881.829694	0.384350
882.013662	0.384321
882.197612	0.384858
882.381544	0.384239
882.565458	0.383807
882.749353	0.383742
882.933230	0.383601
883.117089	0.383881
883.300930	0.383472
883.484753	0.383525
883.668557	0.384230
883.852343	0.383787
884.036111	0.383167
884.219861	0.382705
884.403592	0.382936
884.587305	0.382530
884.771000	0.382211
884.954677	0.383106
885.138335	0.382848
885.321976	0.382085
885.505598	0.382577
885.689201	0.383334
885.872787	0.384641
886.056354	0.384449
886.239904	0.384178
886.423434	0.385350
886.606947	0.383570
886.790442	0.384032
886.973918	0.384596
887.157376	0.384213
887.340816	0.384856
887.524237	0.383989
887.707641	0.383871
887.891026	0.383461
888.074393	0.383195
888.257741	0.384731
888.441072	0.383805
888.624384	0.383986
888.807678	0.383666
888.990954	0.383202
889.174211	0.383169
889.357451	0.382703
889.540672	0.383745
889.723875	0.383437
889.907059	0.382890
890.090226	0.383391
890.273374	0.382297
890.456504	0.382464
890.639616	0.382080
890.822709	0.382870
891.005785	0.383543
891.188842	0.383830
891.371881	0.384281
891.554901	0.383960
891.737904	0.383916
891.920888	0.383687
892.103854	0.383253
892.286802	0.383344
892.469731	0.382161
892.652643	0.381861
892.835536	0.380435
893.018410	0.379136
893.201267	0.379666
893.384106	0.379450
893.566926	0.379577
893.749728	0.380558
893.932511	0.380545
894.115277	0.381679
894.298024	0.382403
894.480753	0.383258
894.663464	0.384618
894.846157	0.384279
895.028831	0.384021
895.211487	0.384392
895.394125	0.383183
895.576745	0.382059
895.759346	0.380676
895.941930	0.380285
896.124495	0.378871
896.307041	0.377434
896.489570	0.377090
896.672080	0.376564
896.854573	0.375733
897.037046	0.376332
897.219502	0.376495
897.401940	0.377670
897.584359	0.376806
897.766760	0.377592
897.949143	0.377224
898.131507	0.377484
898.313854	0.378082
898.496182	0.379232
898.678492	0.379279
898.860783	0.379241
899.043057	0.378390
899.225312	0.378072
899.407549	0.379209
899.589768	0.379499
899.771968	0.378741
899.954151	0.379081
900.136315	0.377872
900.318461	0.376832
900.500588	0.377412
900.682698	0.377896
900.864789	0.378506
901.046862	0.377465
901.228917	0.377578
901.410953	0.378290
901.592971	0.376655
901.774972	0.377314
901.956953	0.377825
902.138917	0.377441
902.320862	0.376917
902.502790	0.376790
902.684699	0.375413
902.866589	0.374454
903.048462	0.373504
903.230316	0.374433
903.412152	0.373216
903.593970	0.372198
903.775770	0.371052
903.957551	0.370786
904.139314	0.370464
904.321059	0.370120
904.502786	0.370169
904.684494	0.369439
904.866185	0.369286
905.047857	0.369659
905.229510	0.368904
905.411146	0.368751
905.592763	0.367520
905.774363	0.366587
905.955943	0.366565
906.137506	0.365993
906.319051	0.366788
906.500577	0.366451
906.682085	0.365857
906.863575	0.366490
907.045046	0.366310
907.226500	0.365652
907.407935	0.365153
907.589352	0.365783
907.770750	0.365695
907.952131	0.365045
908.133493	0.364784
908.314837	0.364195
908.496163	0.363549
908.677470	0.364118
908.858760	0.364583
909.040031	0.363671
909.221284	0.363323
909.402518	0.362059
909.583735	0.361020
909.764933	0.360080
909.946113	0.359397
910.127275	0.358567
910.308418	0.356350
910.489544	0.354514
910.670651	0.354148
910.851740	0.353201
911.032810	0.354795
911.213863	0.354571
911.394897	0.353564
911.575913	0.353237
911.756911	0.352978
911.937890	0.353833
912.118851	0.354066
912.299794	0.355165
912.480719	0.355005
912.661626	0.353372
912.842514	0.353139
913.023384	0.353604
913.204236	0.353405
913.385070	0.353209
913.565886	0.352470
913.746683	0.353171
913.927462	0.352450
914.108223	0.351856
914.288965	0.351809
914.469690	0.351492
914.650396	0.351455
914.831084	0.350621
915.011754	0.349275
915.192405	0.348880
915.373038	0.346937
915.553653	0.346978
915.734250	0.346388
915.914829	0.345276
916.095389	0.344973
916.275931	0.343389
916.456455	0.342380
916.636961	0.341832
916.817448	0.341088
916.997917	0.341699
917.178368	0.339923
917.358801	0.339774
917.539216	0.338098
917.719612	0.336968
917.899990	0.336705
918.080350	0.337603
918.260692	0.337767
918.441015	0.337567
918.621320	0.336978
918.801607	0.335655
918.981876	0.334313
919.162127	0.335203
919.342359	0.334918
919.522573	0.334270
919.702769	0.332445
919.882947	0.331333
920.063106	0.329874
920.243247	0.329283
920.423370	0.329249
920.603475	0.328118
920.783562	0.327397
920.963630	0.326634
921.143680	0.327042
921.323712	0.326521
921.503725	0.326114
921.683721	0.326241
921.863698	0.324841
922.043657	0.324469
922.223598	0.323359
922.403520	0.322437
922.583424	0.321662
922.763311	0.321518
922.943178	0.321407
923.123028	0.321540
923.302859	0.320968
923.482673	0.320802
923.662467	0.319657
923.842244	0.318714
924.022003	0.318253
924.201743	0.317393
924.381465	0.314316
924.561169	0.313652
924.740854	0.311945
924.920522	0.310348
925.100171	0.309757
925.279802	0.309330
925.459414	0.309961
925.639009	0.308731
925.818585	0.308275
925.998143	0.309010
926.177683	0.308715
926.357205	0.307153
926.536708	0.307143
926.716193	0.306453
926.895660	0.306271
927.075109	0.305440
927.254539	0.306010
927.433951	0.304993
927.613345	0.304113
927.792721	0.302423
927.972079	0.303045
928.151418	0.301394
928.330739	0.301508
928.510042	0.301134
928.689327	0.300028
928.868593	0.298153
929.047841	0.297739
929.227071	0.296539
929.406283	0.295872
929.585476	0.294074
929.764652	0.294008
929.943809	0.291327
930.122948	0.290973
930.302068	0.290555
930.481171	0.289733
930.660255	0.287404
930.839321	0.285930
931.018369	0.285786
931.197398	0.287914
931.376409	0.288253
931.555402	0.288731
931.734377	0.286518
931.913334	0.284880
932.092272	0.285815
932.271192	0.287147
932.450094	0.287074
932.628978	0.285097
932.807844	0.280811
932.986691	0.279601
933.165520	0.278662
933.344331	0.278414
933.523123	0.278471
933.701898	0.275843
933.880654	0.275323
934.059392	0.273995
934.238111	0.274208
934.416813	0.274758
934.595496	0.273052
934.774161	0.272675
934.952808	0.271214
935.131437	0.270731
935.310047	0.270016
935.488639	0.266920
935.667213	0.267295
935.845769	0.265235
936.024306	0.264857
936.202825	0.264030
936.381326	0.262564
936.559809	0.263719
936.738274	0.262343
936.916720	0.261449
937.095148	0.260375
937.273558	0.259146
937.451950	0.260002
937.630323	0.259504
937.808678	0.258446
937.987015	0.257934
938.165334	0.255719
938.343635	0.255491
938.521917	0.255283
938.700181	0.253309
938.878427	0.253231
939.056655	0.252369
939.234864	0.251489
939.413055	0.251628
939.591228	0.248730
939.769383	0.247189
939.947519	0.247024
940.125638	0.244777
940.303738	0.243940
940.481820	0.241673
940.659883	0.238162
940.837929	0.236187
941.015956	0.235127
941.193965	0.234061
941.371955	0.234830
941.549928	0.232903
941.727882	0.234550
941.905818	0.238114
942.083736	0.238127
942.261636	0.239566
942.439517	0.240038
942.617380	0.238819
942.795225	0.239988
942.973052	0.239082
943.150860	0.236463
943.328651	0.234656
943.506423	0.233320
943.684176	0.232745
943.861912	0.232177
944.039629	0.229868
944.217328	0.229066
944.395009	0.227387
944.572672	0.226378
944.750317	0.226426
944.927943	0.222734
945.105551	0.219846
945.283141	0.216426
945.460712	0.214798
945.638265	0.216513
945.815801	0.214323
945.993317	0.215825
946.170816	0.212841
946.348297	0.212023
946.525759	0.214440
946.703203	0.214487
946.880629	0.217095
947.058036	0.216176
947.235425	0.212247
947.412797	0.211046
947.590149	0.204859
947.767484	0.202751
947.944800	0.203089
948.122099	0.198641
948.299379	0.196119
948.476640	0.188642
948.653884	0.186381
948.831109	0.186728
949.008316	0.186483
949.185505	0.185063
949.362676	0.185151
949.539828	0.183754
949.716962	0.183076
949.894078	0.185070
950.071176	0.188860
950.248256	0.190031
950.425317	0.187520
950.602360	0.188612
950.779385	0.190943
950.956391	0.187795
951.133380	0.184862
951.310350	0.185968
951.487302	0.183115
951.664235	0.179399
951.841151	0.174703
952.018048	0.174002
952.194927	0.169511
952.371788	0.161514
952.548631	0.165712
952.725455	0.163487
952.902261	0.163919
953.079049	0.164137
953.255819	0.170377
953.432570	0.171270
953.609303	0.168836
953.786018	0.171478
953.962715	0.179881
954.139394	0.175254
954.316054	0.177739
954.492696	0.171927
954.669320	0.164203
954.845926	0.156284
955.022513	0.159749
955.199083	0.159004
955.375634	0.153924
955.552166	0.152046
955.728681	0.156149
955.905177	0.149836
956.081655	0.152774
956.258115	0.156244
956.434557	0.159533
956.610980	0.152038
956.787385	0.156652
956.963772	0.160949
957.140141	0.159502
957.316492	0.153349
957.492824	0.157808
957.669138	0.155895
957.845434	0.157659
958.021712	0.153391
958.197971	0.150307
958.374212	0.144886
958.550435	0.148529
958.726640	0.150619
958.902826	0.150774
959.078995	0.149729
959.255145	0.148946
959.431277	0.147245
959.607390	0.147996
959.783486	0.154744
959.959563	0.154609
960.135622	0.146044
960.311662	0.142085
960.487685	0.142766
960.663689	0.141734
960.839675	0.144097
961.015643	0.142131
961.191593	0.140827
961.367524	0.130503
961.543437	0.122394
961.719332	0.123761
961.895209	0.125002
962.071067	0.124854
962.246907	0.126348
962.422730	0.117930
962.598533	0.116721
962.774319	0.116060
962.950086	0.123301
963.125835	0.128160
963.301566	0.127551
963.477279	0.134451
963.652973	0.137610
963.828650	0.133879
964.004308	0.142798
964.179947	0.145243
964.355569	0.142548
964.531172	0.145497
964.706757	0.149032
964.882324	0.147735
965.057873	0.139022
965.233403	0.130850
965.408916	0.132040
965.584410	0.131984
965.759885	0.129421
965.935343	0.128611
966.110782	0.128256
966.286203	0.128984
966.461606	0.129728
966.636991	0.133103
966.812357	0.136290
966.987705	0.135282
967.163035	0.131699
967.338347	0.132442
967.513641	0.130130
967.688916	0.120983
967.864173	0.115777
968.039412	0.115414
968.214632	0.112292
968.389835	0.108448
968.565019	0.110219
968.740185	0.115655
968.915333	0.114545
969.090462	0.120443
969.265573	0.132030
969.440667	0.134242
969.615741	0.132214
969.790798	0.129830
969.965836	0.137079
970.140856	0.134458
970.315858	0.128780
970.490842	0.132085
970.665808	0.128057
970.840755	0.125891
971.015684	0.121816
971.190595	0.122975
971.365487	0.127057
971.540362	0.124229
971.715218	0.127547
971.890056	0.126344
972.064875	0.129185
972.239677	0.135693
972.414460	0.132444
972.589225	0.137607
972.763972	0.134212
972.938700	0.131918
973.113411	0.132619
973.288103	0.129660
973.462777	0.131200
973.637432	0.127290
973.812070	0.126693
973.986689	0.132025
974.161290	0.129020
974.335873	0.129001
974.510437	0.131147
974.684984	0.132808
974.859512	0.137737
975.034022	0.135352
975.208513	0.132539
975.382987	0.135505
975.557442	0.132100
975.731879	0.140942
975.906298	0.145695
976.080698	0.144177
976.255080	0.142379
976.429445	0.136352
976.603790	0.136087
976.778118	0.134642
976.952427	0.130421
977.126719	0.123548
977.300992	0.124009
977.475246	0.122627
977.649483	0.120670
977.823701	0.120873
977.997901	0.122593
978.172083	0.127872
978.346247	0.132239
978.520392	0.135635
978.694519	0.147099
978.868628	0.145052
979.042719	0.149349
979.216791	0.148429
979.390845	0.147199
979.564882	0.148732
979.738899	0.145340
979.912899	0.142327
980.086880	0.136699
980.260843	0.127275
980.434788	0.122853
980.608715	0.118373
980.782623	0.119462
980.956514	0.116234
981.130386	0.116535
981.304240	0.122009
981.478075	0.123106
981.651892	0.127598
981.825692	0.127974
981.999472	0.126727
982.173235	0.127679
982.346980	0.129289
982.520706	0.133274
982.694414	0.128793
982.868104	0.122083
983.041775	0.123242
983.215428	0.120459
983.389064	0.123889
983.562680	0.124218
983.736279	0.121939
983.909860	0.120090
984.083422	0.121656
984.256966	0.125960
984.430491	0.128523
984.603999	0.131436
984.777488	0.129745
984.950959	0.129031
985.124412	0.127610
985.297847	0.128831
985.471263	0.127373
985.644661	0.126839
985.818041	0.132911
985.991403	0.128909
986.164747	0.129184
986.338072	0.130392
986.511379	0.130819
986.684668	0.132719
986.857938	0.131232
987.031191	0.131324
987.204425	0.129485
987.377641	0.120913
987.550839	0.124077
987.724018	0.122384
987.897179	0.124487
988.070322	0.123321
988.243447	0.125746
988.416554	0.134724
988.589642	0.134435
988.762712	0.138264
988.935764	0.143158
989.108798	0.140089
989.281813	0.138038
989.454811	0.135277
989.627790	0.136417
989.800751	0.136763
989.973693	0.127116
990.146617	0.128916
990.319524	0.125069
990.492412	0.120800
990.665281	0.123540
990.838133	0.126836
991.010966	0.131594
991.183781	0.129688
991.356578	0.128067
991.529356	0.130885
991.702117	0.132759
991.874859	0.132033
992.047583	0.135427
992.220288	0.136094
992.392976	0.132055
992.565645	0.129318
992.738296	0.131530
992.910929	0.130214
993.083543	0.130775
993.256139	0.128496
993.428718	0.129916
993.601277	0.127704
993.773819	0.130986
993.946342	0.133461
994.118848	0.131618
994.291335	0.131472
994.463803	0.131067
994.636254	0.134522
994.808686	0.137212
994.981100	0.137232
995.153496	0.141564
995.325874	0.136902
995.498233	0.135114
995.670574	0.133783
995.842897	0.128070
996.015202	0.133117
996.187488	0.131969
996.359757	0.127284
996.532007	0.125715
996.704239	0.119948
996.876452	0.122398
997.048648	0.126157
997.220825	0.126227
997.392984	0.127554
997.565124	0.120204
997.737247	0.121592
997.909351	0.127968
998.081437	0.129605
998.253505	0.129928
998.425554	0.126893
998.597586	0.121792
998.769599	0.125294
998.941594	0.129034
999.113571	0.136837
999.285529	0.133896
999.457469	0.131486
999.629391	0.128910
999.801295	0.126737
999.973181	0.127875
1000.145048	0.135138
1000.316897	0.137110
1000.488728	0.136342
1000.660541	0.135467
1000.832335	0.139136
1001.004111	0.137202
1001.175869	0.141577
1001.347609	0.148165
1001.519331	0.149282
1001.691034	0.143479
1001.862719	0.140672
1002.034386	0.142123
1002.206035	0.139066
1002.377665	0.133960
1002.549277	0.134195
1002.720871	0.130708
1002.892447	0.127991
1003.064004	0.127581
1003.235544	0.128846
1003.407065	0.132587
1003.578568	0.132696
1003.750052	0.134454
1003.921519	0.131320
1004.092967	0.131959
1004.264397	0.132507
1004.435809	0.128789
1004.607202	0.131079
1004.778577	0.128628
1004.949934	0.124361
1005.121273	0.122048
1005.292594	0.120044
1005.463896	0.123025
1005.635180	0.119100
1005.806446	0.123098
1005.977694	0.125329
1006.148923	0.123633
1006.320135	0.128409
1006.491328	0.131140
1006.662503	0.128246
1006.833659	0.125305
1007.004798	0.120757
1007.175918	0.125640
1007.347020	0.124485
1007.518103	0.128160
1007.689169	0.124650
1007.860216	0.118301
1008.031245	0.117847
1008.202256	0.121883
1008.373248	0.126874
1008.544223	0.133131
1008.715179	0.128326
1008.886117	0.125860
1009.057036	0.121619
1009.227938	0.125792
1009.398821	0.132396
1009.569686	0.130175
1009.740533	0.130182
1009.911361	0.126364
1010.082172	0.126710
1010.252964	0.132115
1010.423738	0.131604
1010.594493	0.133595
1010.765231	0.131034
1010.935950	0.127278
1011.106651	0.128446
1011.277334	0.131654
1011.447998	0.131976
1011.618645	0.131951
1011.789273	0.130885
1011.959882	0.132948
1012.130474	0.134725
1012.301048	0.136545
1012.471603	0.134338
1012.642140	0.132331
1012.812658	0.130260
1012.983159	0.131767
1013.153641	0.132464
1013.324105	0.134377
1013.494551	0.132850
1013.664979	0.129162
1013.835388	0.128651
1014.005779	0.131606
1014.176152	0.131095
1014.346507	0.132232
1014.516843	0.132303
1014.687162	0.131473
1014.857462	0.129880
1015.027744	0.126407
1015.198007	0.128000
1015.368252	0.126102
1015.538480	0.125547
1015.708689	0.128351
1015.878879	0.120864
1016.049052	0.118722
1016.219206	0.119481
1016.389342	0.116533
1016.559460	0.118653
1016.729559	0.116103
1016.899641	0.120946
1017.069704	0.123672
1017.239749	0.123305
1017.409775	0.126855
1017.579784	0.127134
1017.749774	0.126465
1017.919746	0.129776
1018.089700	0.132210
1018.259635	0.135125
1018.429553	0.131613
1018.599452	0.129475
1018.769333	0.128465
1018.939195	0.128391
1019.109040	0.131406
1019.278866	0.130954
1019.448674	0.131995
1019.618464	0.132361
1019.788235	0.135744
1019.957989	0.133742
1020.127724	0.133039
1020.297441	0.131567
1020.467139	0.130435
1020.636820	0.129184
1020.806482	0.129322
1020.976126	0.127960
1021.145752	0.127787
1021.315359	0.125476
1021.484948	0.122930
1021.654519	0.123243
1021.824072	0.126214
1021.993607	0.129793
1022.163123	0.128561
1022.332621	0.128033
1022.502101	0.129819
1022.671563	0.132191
1022.841007	0.134316
1023.010432	0.139233
1023.179839	0.141273
1023.349228	0.138978
1023.518598	0.138906
1023.687951	0.139679
1023.857285	0.140477
1024.026601	0.140865
1024.195899	0.137180
1024.365178	0.132987
1024.534439	0.136338
1024.703682	0.130932
1024.872907	0.133387
1025.042114	0.135412
1025.211302	0.131109
1025.380472	0.128942
1025.549624	0.127994
1025.718758	0.129714
1025.887873	0.130325
1026.056970	0.129587
1026.226049	0.131610
1026.395110	0.132534
1026.564153	0.132182
1026.733177	0.138449
1026.902183	0.138573
1027.071171	0.136101
1027.240141	0.136601
1027.409092	0.137658
1027.578026	0.132687
1027.746940	0.133113
1027.915837	0.128700
1028.084716	0.128442
1028.253576	0.130292
1028.422418	0.132383
1028.591242	0.132544
1028.760048	0.131745
1028.928835	0.131587
1029.097604	0.133469
1029.266355	0.136345
1029.435088	0.140942
1029.603803	0.134563
1029.772499	0.131584
1029.941177	0.134715
1030.109837	0.133623
1030.278478	0.135322
1030.447102	0.132287
1030.615707	0.129543
1030.784294	0.129969
1030.952863	0.127756
1031.121413	0.133279
1031.289945	0.136715
1031.458460	0.135693
1031.626955	0.137866
1031.795433	0.131178
1031.963892	0.136198
1032.132334	0.140699
1032.300756	0.136808
1032.469161	0.135837
1032.637548	0.131027
1032.805916	0.122393
1032.974266	0.120107
1033.142598	0.116526
1033.310911	0.122147
1033.479207	0.118553
1033.647484	0.117343
1033.815743	0.122946
1033.983983	0.125497
1034.152206	0.128782
1034.320410	0.135924
1034.488596	0.133618
1034.656764	0.135889
1034.824914	0.132147
1034.993045	0.134159
1035.161158	0.135175
1035.329253	0.132640
1035.497330	0.130518
1035.665388	0.130565
1035.833428	0.128398
1036.001450	0.132159
1036.169454	0.129775
1036.337440	0.129429
1036.505407	0.134434
1036.673356	0.134380
1036.841287	0.135153
1037.009200	0.131308
1037.177094	0.134114
1037.344970	0.136818
1037.512828	0.134689
1037.680668	0.133689
1037.848489	0.137535
1038.016293	0.132082
1038.184078	0.131355
1038.351845	0.126678
1038.519593	0.128338
1038.687324	0.130143
1038.855036	0.129379
1039.022730	0.129069
1039.190406	0.130103
1039.358063	0.125281
1039.525702	0.122977
1039.693323	0.119850
1039.860926	0.121998
1040.028511	0.120290
1040.196077	0.113845
1040.363625	0.115003
1040.531155	0.117703
1040.698667	0.120835
1040.866161	0.121918
1041.033636	0.123312
1041.201093	0.126070
1041.368532	0.126658
1041.535952	0.132461
1041.703355	0.138880
1041.870739	0.135669
1042.038105	0.134767
1042.205452	0.137268
1042.372782	0.140345
1042.540093	0.142250
1042.707386	0.139391
1042.874661	0.137395
1043.041918	0.137228
1043.209156	0.133044
1043.376376	0.130868
1043.543578	0.129591
1043.710762	0.126899
1043.877927	0.128142
1044.045074	0.125834
1044.212203	0.130032
1044.379314	0.135034
1044.546407	0.127968
1044.713481	0.128312
1044.880537	0.131797
1045.047575	0.131579
1045.214595	0.134747
1045.381596	0.131085
1045.548579	0.131384
1045.715544	0.129807
1045.882491	0.128513
1046.049420	0.134978
1046.216330	0.134303
1046.383222	0.131002
1046.550096	0.127429
1046.716951	0.129443
1046.883789	0.132051
1047.050608	0.134196
1047.217409	0.132369
1047.384192	0.127235
1047.550956	0.125375
1047.717703	0.127552
1047.884431	0.132086
1048.051140	0.135701
1048.217832	0.128729
1048.384505	0.127787
1048.551161	0.125225
1048.717798	0.128779
1048.884416	0.129587
1049.051017	0.128263
1049.217599	0.126296
1049.384163	0.122439
1049.550709	0.121829
1049.717237	0.126319
1049.883746	0.123731
1050.050237	0.125796
1050.216710	0.125659
1050.383165	0.127935
1050.549601	0.126091
1050.716019	0.129121
1050.882420	0.130310
1051.048801	0.131663
1051.215165	0.133163
1051.381510	0.139730
1051.547837	0.139449
1051.714146	0.136560
1051.880437	0.138966
1052.046709	0.143527
1052.212964	0.140235
1052.379200	0.144141
1052.545417	0.143578
1052.711617	0.143284
1052.877798	0.142627
1053.043961	0.145055
1053.210106	0.146557
1053.376233	0.145416
1053.542341	0.144078
1053.708432	0.138814
1053.874504	0.137158
1054.040557	0.133398
1054.206593	0.133115
1054.372610	0.132455
1054.538609	0.126978
1054.704590	0.130209
1054.870553	0.134848
1055.036497	0.135839
1055.202424	0.140565
1055.368331	0.141182
1055.534221	0.144825
1055.700093	0.139401
1055.865946	0.142583
1056.031781	0.142842
1056.197598	0.139550
1056.363397	0.134963
1056.529177	0.136735
1056.694939	0.138996
1056.860683	0.133864
1057.026409	0.130387
1057.192116	0.130051
1057.357806	0.122862
1057.523477	0.125522
1057.689130	0.125663
1057.854764	0.126250
1058.020381	0.122864
1058.185979	0.120446
1058.351559	0.128911
1058.517120	0.133190
1058.682664	0.130829
1058.848189	0.138381
1059.013696	0.139399
1059.179185	0.145904
1059.344656	0.137126
1059.510108	0.136005
1059.675542	0.139195
1059.840958	0.130012
1060.006356	0.128717
1060.171735	0.131353
1060.337096	0.121536
1060.502439	0.120048
1060.667764	0.113320
1060.833071	0.120043
1060.998359	0.121728
1061.163629	0.118481
1061.328881	0.123757
1061.494115	0.123365
1061.659330	0.125253
1061.824527	0.126898
1061.989706	0.121165
1062.154867	0.126460
1062.320010	0.128635
1062.485134	0.129172
1062.650240	0.126063
1062.815328	0.118890
1062.980398	0.121109
1063.145449	0.119512
1063.310482	0.125987
1063.475497	0.135243
1063.640494	0.135506
1063.805473	0.133894
1063.970433	0.137725
1064.135375	0.144868
1064.300299	0.147737
1064.465204	0.147526
1064.630092	0.152656
1064.794961	0.148742
1064.959812	0.147824
1065.124645	0.146581
1065.289459	0.144856
1065.454256	0.138844
1065.619034	0.141481
1065.783793	0.141452
1065.948535	0.137584
1066.113258	0.134151
1066.277964	0.138004
1066.442651	0.138902
1066.607319	0.135921
1066.771970	0.135323
1066.936602	0.140831
1067.101216	0.139546
1067.265812	0.144827
1067.430389	0.148919
1067.594949	0.146586
1067.759490	0.145723
1067.924013	0.144660
1068.088518	0.143729
1068.253004	0.141589
1068.417472	0.133980
1068.581922	0.134752
1068.746354	0.130086
1068.910768	0.126305
1069.075163	0.129828
1069.239540	0.122528
1069.403899	0.121798
1069.568240	0.120200
1069.732562	0.127789
1069.896866	0.132631
1070.061152	0.130974
1070.225420	0.136615
1070.389670	0.135535
1070.553901	0.133094
1070.718114	0.145167
1070.882309	0.146782
1071.046486	0.147516
1071.210644	0.144388
1071.374784	0.145773
1071.538906	0.146705
1071.703010	0.149968
1071.867096	0.150478
1072.031163	0.152070
1072.195212	0.143119
1072.359243	0.146242
1072.523256	0.148975
1072.687250	0.146659
1072.851226	0.141750
1073.015184	0.135902
1073.179124	0.131704
1073.343045	0.143022
1073.506949	0.152399
1073.670834	0.155787
1073.834701	0.142913
1073.998549	0.142891
1074.162380	0.143641
1074.326192	0.145143
1074.489986	0.147839
1074.653761	0.146440
1074.817519	0.146387
1074.981258	0.140221
1075.144979	0.138027
1075.308682	0.146541
1075.472367	0.142569
1075.636033	0.141930
1075.799681	0.140581
1075.963311	0.146366
1076.126923	0.147400
1076.290516	0.141650
1076.454092	0.142880
1076.617649	0.146809
1076.781187	0.143885
1076.944708	0.142555
1077.108210	0.144667
1077.271695	0.146358
1077.435160	0.145915
1077.598608	0.144097
1077.762038	0.143077
1077.925449	0.136436
1078.088842	0.132158
1078.252217	0.131916
1078.415573	0.142612
1078.578912	0.144222
1078.742232	0.145941
1078.905534	0.143677
1079.068817	0.149324
1079.232083	0.154996
1079.395330	0.158201
1079.558559	0.156368
1079.721770	0.164627
1079.884962	0.150930
1080.048136	0.143496
1080.211293	0.150610
1080.374430	0.143040
1080.537550	0.139448
1080.700651	0.126335
1080.863735	0.120296
1081.026800	0.122086
1081.189846	0.116619
1081.352875	0.125252
1081.515885	0.134320
1081.678877	0.124263
1081.841851	0.122942
1082.004807	0.119721
1082.167744	0.123715
1082.330663	0.128447
1082.493564	0.131256
1082.656447	0.134529
1082.819312	0.140877
1082.982158	0.139089
1083.144986	0.137348
1083.307796	0.140272
1083.470587	0.137435
1083.633361	0.140269
1083.796116	0.142213
1083.958853	0.147223
1084.121571	0.143712
1084.284272	0.134338
1084.446954	0.129498
1084.609618	0.130367
1084.772264	0.135860
1084.934892	0.140824
1085.097501	0.150063
1085.260092	0.143915
1085.422665	0.131632
1085.585220	0.139306
1085.747756	0.140237
1085.910274	0.148822
1086.072774	0.155783
1086.235256	0.149836
1086.397720	0.155683
1086.560165	0.150551
1086.722592	0.155768
1086.885001	0.163266
1087.047392	0.159963
1087.209764	0.156462
1087.372119	0.142158
1087.534455	0.147287
1087.696772	0.147061
1087.859072	0.136988
1088.021353	0.134120
1088.183616	0.138223
1088.345861	0.134410
1088.508088	0.126010
1088.670296	0.127081
1088.832486	0.144999
1088.994658	0.135953
1089.156812	0.143340
1089.318948	0.147558
1089.481065	0.153761
1089.643164	0.150809
1089.805245	0.153679
1089.967308	0.163675
1090.129352	0.162816
1090.291378	0.151783
1090.453386	0.144168
1090.615376	0.144223
1090.777347	0.140123
1090.939301	0.137299
1091.101236	0.137681
1091.263153	0.134729
1091.425051	0.127483
1091.586932	0.130985
1091.748794	0.128584
1091.910638	0.146205
1092.072463	0.143765
1092.234271	0.148205
1092.396060	0.137061
1092.557831	0.130756
1092.719584	0.133383
1092.881319	0.141589
1093.043035	0.141581
1093.204733	0.149307
1093.366413	0.136621
1093.528075	0.144444
1093.689718	0.139968
1093.851343	0.139035
1094.012950	0.149760
1094.174539	0.149730
1094.336110	0.151921
1094.497662	0.146809
1094.659196	0.154250
1094.820712	0.159478
1094.982210	0.150270
1095.143689	0.152596
1095.305151	0.161311
1095.466594	0.156887
1095.628018	0.164865
1095.789425	0.156517
1095.950813	0.159651
1096.112183	0.152657
1096.273535	0.156674
1096.434869	0.148548
1096.596184	0.144404
1096.757482	0.137956
1096.918761	0.133381
1097.080021	0.132285
1097.241264	0.122691
1097.402488	0.127868
1097.563694	0.128772
1097.724882	0.125446
1097.886052	0.143842
1098.047203	0.158889
1098.208336	0.168279
1098.369451	0.177212
1098.530548	0.168077
1098.691627	0.184391
1098.852687	0.175373
1099.013729	0.171353
1099.174753	0.172359
1099.335758	0.163873
1099.496746	0.157230
1099.657715	0.165160
1099.818666	0.164354
1099.979599	0.167634
1100.140513	0.173876
1100.301409	0.179475
1100.462287	0.176698
1100.623147	0.172604
1100.783989	0.169621
1100.944812	0.169645
1101.105617	0.157181
1101.266404	0.163526
1101.427173	0.156493
1101.587923	0.140739
1101.748656	0.149242
1101.909370	0.148069
1102.070066	0.162195
1102.230743	0.154304
1102.391403	0.154198
1102.552044	0.151182
1102.712667	0.140349
1102.873271	0.145057
1103.033858	0.145804
1103.194426	0.134513
1103.354976	0.146867
1103.515508	0.137825
1103.676021	0.147075
1103.836517	0.147885
1103.996994	0.154912
1104.157453	0.168297
1104.317893	0.159812
1104.478316	0.151797
1104.638720	0.160312
1104.799106	0.148575
1104.959474	0.157352
1105.119823	0.159280
1105.280155	0.167598
1105.440468	0.162395
1105.600763	0.156051
1105.761039	0.168015
1105.921298	0.183073
1106.081538	0.188712
1106.241760	0.190530
1106.401964	0.166058
1106.562149	0.168589
1106.722316	0.146203
1106.882465	0.157694
1107.042596	0.161598
1107.202709	0.152976
1107.362803	0.141740
1107.522879	0.124143
1107.682937	0.126057
1107.842977	0.143908
1108.002999	0.148653
1108.163002	0.159635
1108.322987	0.147335
1108.482954	0.147187
1108.642902	0.146614
1108.802833	0.160662
1108.962745	0.159637
1109.122639	0.160103
1109.282515	0.151875
1109.442372	0.145902
1109.602211	0.145721
1109.762032	0.155917
1109.921835	0.151505
1110.081620	0.160805
1110.241386	0.158914
1110.401134	0.175710
1110.560864	0.172071
1110.720576	0.186964
1110.880269	0.164126
1111.039945	0.159072
1111.199602	0.151696
1111.359240	0.128911
1111.518861	0.132528
1111.678463	0.135464
1111.838047	0.144471
1111.997613	0.138166
1112.157161	0.131741
1112.316690	0.139862
1112.476202	0.151008
1112.635695	0.156672
1112.795169	0.192120
1112.954626	0.187346
1113.114064	0.184367
1113.273484	0.169403
1113.432886	0.181884
1113.592270	0.178692
1113.751635	0.189215
1113.910983	0.208307
1114.070312	0.188597
1114.229622	0.161465
1114.388915	0.165165
1114.548189	0.155167
1114.707445	0.144032
1114.866683	0.133294
1115.025903	0.132107
1115.185104	0.123783
1115.344287	0.101904
1115.503452	0.115097
1115.662599	0.114767
1115.821727	0.103837
1115.980838	0.102646
1116.139930	0.111786
1116.299004	0.126625
1116.458059	0.121891
1116.617097	0.124868
1116.776116	0.139103
1116.935117	0.142685
1117.094099	0.147191
1117.253064	0.138410
1117.412010	0.150054
1117.570938	0.152119
1117.729848	0.144022
1117.888740	0.157060
1118.047613	0.166285
1118.206468	0.157477
1118.365305	0.149720
1118.524124	0.152551
1118.682924	0.171648
1118.841707	0.160218
1119.000471	0.156723
1119.159216	0.144268
1119.317944	0.129831
1119.476653	0.128713
1119.635344	0.125918
1119.794017	0.127915
1119.952672	0.131655
1120.111308	0.128674
1120.269927	0.122749
1120.428527	0.129350
1120.587108	0.141905
1120.745672	0.151455
1120.904217	0.153561
1121.062744	0.165264
1121.221253	0.159568
1121.379744	0.185863
1121.538216	0.166666
1121.696671	0.162785
1121.855107	0.175962
1122.013524	0.165630
1122.171924	0.167861
1122.330305	0.163018
1122.488668	0.139366
1122.647013	0.149243
1122.805340	0.118680
1122.963648	0.143372
1123.121938	0.139519
1123.280210	0.136977
1123.438464	0.142645
1123.596700	0.139327
1123.754917	0.139015
1123.913116	0.165173
1124.071297	0.166986
1124.229459	0.184158
1124.387604	0.198817
1124.545730	0.213302
1124.703838	0.195866
1124.861928	0.222512
1125.019999	0.193487
1125.178052	0.195239
1125.336088	0.153288
1125.494104	0.142749
1125.652103	0.124628
1125.810083	0.095531
1125.968045	0.107718
1126.125989	0.113608
1126.283915	0.095856
1126.441823	0.118919
1126.599712	0.124913
1126.757583	0.164157
1126.915436	0.160219
1127.073270	0.186653
1127.231087	0.186839
1127.388885	0.180133
1127.546665	0.170498
1127.704426	0.182813
1127.862170	0.175559
1128.019895	0.155830
1128.177602	0.165097
1128.335291	0.186379
1128.492961	0.170963
1128.650614	0.184178
1128.808248	0.182341
1128.965864	0.185044
1129.123461	0.180625
1129.281041	0.182020
1129.438602	0.180254
1129.596145	0.184511
1129.753670	0.147355
1129.911176	0.175836
1130.068665	0.183185
1130.226135	0.186334
1130.383587	0.187807
1130.541020	0.188388
1130.698436	0.200324
1130.855833	0.200318
1131.013212	0.175240
1131.170573	0.209748
1131.327915	0.166859
1131.485239	0.167999
1131.642545	0.168905
1131.799833	0.167654
1131.957103	0.160496
1132.114354	0.142745
1132.271588	0.163630
1132.428803	0.159048
1132.585999	0.163611
1132.743178	0.176199
1132.900338	0.154820
1133.057480	0.141639
1133.214604	0.132518
1133.371710	0.103285
1133.528797	0.106454
1133.685866	0.107697
1133.842917	0.097532
1133.999950	0.077140
1134.156964	0.070722
1134.313960	0.075926
1134.470938	0.088503
1134.627898	0.110346
1134.784840	0.147869
1134.941763	0.143913
1135.098668	0.133425
1135.255555	0.151945
1135.412424	0.192319
1135.569274	0.215727
1135.726107	0.207249
1135.882921	0.242116
1136.039716	0.207290
1136.196494	0.212190
1136.353253	0.231547
1136.509995	0.203893
1136.666717	0.216464
1136.823422	0.166846
1136.980109	0.146121
1137.136777	0.158558
1137.293427	0.120205
1137.450059	0.155582
1137.606672	0.128360
1137.763267	0.148555
1137.919844	0.181993
1138.076403	0.160985
1138.232944	0.149688
1138.389466	0.178930
1138.545971	0.178051
1138.702457	0.169527
1138.858924	0.149883
1139.015374	0.158289
1139.171805	0.144574
1139.328218	0.125199
1139.484613	0.142940
1139.640990	0.182389
1139.797348	0.182710
1139.953688	0.179327
1140.110010	0.214075
1140.266314	0.224198
1140.422600	0.233846
1140.578867	0.211891
1140.735116	0.230466
1140.891347	0.214839
1141.047559	0.194106
1141.203754	0.174256
1141.359930	0.194064
1141.516088	0.197745
1141.672228	0.175658
1141.828349	0.181088
1141.984452	0.188629
1142.140537	0.194457
1142.296604	0.238627
1142.452653	0.251150
1142.608683	0.251814
1142.764695	0.249381
1142.920689	0.232186
1143.076665	0.269867
1143.232622	0.281801
1143.388562	0.301824
1143.544483	0.278769
1143.700385	0.244773
1143.856270	0.218517
1144.012136	0.228690
1144.167985	0.239006
1144.323814	0.215325
1144.479626	0.175513
1144.635420	0.155037
1144.791195	0.151452
1144.946952	0.136416
1145.102691	0.135200
1145.258411	0.174400
1145.414113	0.158171
1145.569798	0.139588
1145.725463	0.170784
1145.881111	0.197581
1146.036741	0.230959
1146.192352	0.222649
1146.347945	0.256523
1146.503519	0.237187
1146.659076	0.172262
1146.814614	0.188168
1146.970134	0.163720
1147.125636	0.132193
1147.281120	0.128327
1147.436585	0.129126
1147.592032	0.128027
1147.747461	0.144463
1147.902872	0.150992
1148.058265	0.213183
1148.213639	0.214632
1148.368995	0.222318
1148.524333	0.214717
1148.679653	0.237416
1148.834954	0.232325
1148.990237	0.264534
1149.145502	0.251203
1149.300749	0.255829
1149.455977	0.233950
1149.611188	0.200877
1149.766380	0.221151
1149.921553	0.241886
1150.076709	0.214521
1150.231846	0.162488
1150.386966	0.176471
1150.542066	0.224646
1150.697149	0.252410
1150.852214	0.214260
1151.007260	0.233264
1151.162288	0.312543
1151.317298	0.336919
1151.472289	0.390282
1151.627263	0.402291
1151.782218	0.347243
1151.937155	0.221991
1152.092073	0.161963
1152.246974	0.228783
1152.401856	0.224510
1152.556720	0.178761
1152.711566	0.161434
1152.866393	0.146777
1153.021203	0.164567
1153.175994	0.134223
1153.330767	0.170997
1153.485521	0.209588
1153.640258	0.174289
1153.794976	0.158701
1153.949676	0.108799
1154.104358	0.107863
1154.259021	0.106523
1154.413667	0.132368
1154.568294	0.163713
1154.722903	0.165019
1154.877493	0.167685
1155.032066	0.177949
1155.186620	0.186153
1155.341156	0.227771
1155.495674	0.231044
1155.650173	0.213819
1155.804654	0.207249
1155.959118	0.204454
1156.113562	0.219726
1156.267989	0.238558
1156.422397	0.203222
1156.576788	0.228875
1156.731160	0.227771
1156.885513	0.178071
1157.039849	0.200419
1157.194166	0.187057
1157.348465	0.192872
1157.502746	0.168824
1157.657009	0.127944
1157.811253	0.138477
1157.965479	0.148826
1158.119687	0.132654
1158.273877	0.159258
1158.428048	0.159352
1158.582201	0.153852
1158.736337	0.137618
1158.890453	0.148212
1159.044552	0.165524
1159.198632	0.160314
1159.352694	0.158599
1159.506738	0.229209
1159.660764	0.230949
1159.814771	0.209041
1159.968761	0.246029
1160.122732	0.240200
1160.276685	0.239966
1160.430619	0.225902
1160.584535	0.262844
1160.738434	0.275470
1160.892313	0.230600
1161.046175	0.194063
1161.200019	0.128649
1161.353844	0.113679
1161.507651	0.162315
1161.661440	0.202009
1161.815210	0.207300
1161.968962	0.214976
1162.122697	0.150712
1162.276412	0.171281
1162.430110	0.264174
1162.583789	0.334197
1162.737451	0.339796
1162.891094	0.273246
1163.044718	0.240168
1163.198325	0.212955
1163.351913	0.202150
1163.505483	0.246350
1163.659035	0.216185
1163.812569	0.220208
1163.966084	0.322333
1164.119581	0.296919
1164.273060	0.332355
1164.426521	0.310675
1164.579964	0.311754
1164.733388	0.298987
1164.886794	0.338241
1165.040182	0.298430
1165.193551	0.272285
1165.346903	0.196393
1165.500236	0.243289
1165.653551	0.267176
1165.806848	0.346380
1165.960126	0.441768
1166.113386	0.485042
1166.266628	0.376029
1166.419852	0.406024
1166.573058	0.414395
1166.726245	0.419737
1166.879414	0.399634
1167.032565	0.389782
1167.185698	0.355206
1167.338812	0.351459
1167.491909	0.435617
1167.644987	0.500269
1167.798046	0.527083
1167.951088	0.450471
1168.104111	0.413795
1168.257117	0.447386
1168.410103	0.407621
1168.563072	0.326190
1168.716023	0.273667
1168.868955	0.166151
1169.021869	0.207137
1169.174765	0.177907
1169.327642	0.270301
1169.480501	0.296482
1169.633343	0.201995
1169.786165	0.156672
1169.938970	0.168173
1170.091757	0.171578
1170.244525	0.210835
1170.397275	0.190883
1170.550007	0.187426
1170.702720	0.120529
1170.855415	0.131582
1171.008092	0.177239
1171.160751	0.248132
1171.313392	0.278404
1171.466014	0.518842
1171.618619	0.530510
1171.771205	0.530510
1171.923772	0.530510
