sample name	sample
index	332
start time	 03-01-2021  10:27:11 AM


Wavelength (nm)	Absorbance
494.344910	-0.027545
494.563924	-0.027545
494.782919	-0.027545
495.001897	0.063117
495.220856	-0.031163
495.439797	-0.046078
495.658719	-0.048170
495.877624	-0.025462
496.096510	-0.048638
496.315378	-0.075289
496.534227	-0.041079
496.753059	-0.038790
496.971872	-0.058026
497.190667	0.123672
497.409444	0.145730
497.628203	0.152304
497.846943	0.154397
498.065665	0.156353
498.284369	0.157657
498.503055	0.156926
498.721723	0.158251
498.940372	0.159357
499.159003	0.157946
499.377616	0.158070
499.596210	0.158050
499.814787	0.157141
500.033345	0.156048
500.251885	0.156092
500.470406	0.155897
500.688910	0.155262
500.907395	0.155807
501.125862	0.155655
501.344311	0.155496
501.562742	0.156368
501.781154	0.156831
501.999548	0.157707
502.217924	0.157942
502.436282	0.157393
502.654621	0.157571
502.872942	0.156425
503.091245	0.157486
503.309530	0.156918
503.527797	0.155531
503.746045	0.155217
503.964275	0.154904
504.182487	0.154071
504.400681	0.154711
504.618856	0.153481
504.837013	0.153863
505.055152	0.152380
505.273273	0.152989
505.491376	0.153688
505.709460	0.152935
505.927526	0.152818
506.145574	0.152392
506.363604	0.152047
506.581615	0.153410
506.799608	0.152702
507.017583	0.152981
507.235540	0.153002
507.453478	0.151771
507.671399	0.151939
507.889301	0.151949
508.107185	0.151904
508.325050	0.152404
508.542898	0.151937
508.760727	0.152085
508.978538	0.151854
509.196330	0.152004
509.414105	0.152323
509.631861	0.152374
509.849599	0.152784
510.067319	0.153254
510.285021	0.152770
510.502704	0.152147
510.720369	0.152013
510.938016	0.151973
511.155645	0.152421
511.373255	0.152378
511.590848	0.151543
511.808422	0.150244
512.025977	0.149409
512.243515	0.149864
512.461034	0.150050
512.678536	0.150396
512.896018	0.151099
513.113483	0.150137
513.330930	0.150182
513.548358	0.151080
513.765768	0.151587
513.983160	0.151792
514.200533	0.151731
514.417889	0.152096
514.635226	0.151437
514.852545	0.151777
515.069845	0.151661
515.287128	0.151962
515.504392	0.152116
515.721638	0.152628
515.938866	0.153941
516.156075	0.154372
516.373267	0.154205
516.590440	0.154146
516.807594	0.153702
517.024731	0.154344
517.241850	0.154594
517.458950	0.153953
517.676032	0.153671
517.893095	0.153126
518.110141	0.152395
518.327168	0.152682
518.544177	0.152752
518.761168	0.152349
518.978141	0.151444
519.195095	0.150588
519.412031	0.151204
519.628949	0.151068
519.845849	0.150882
520.062731	0.151320
520.279594	0.151159
520.496439	0.151438
520.713266	0.152231
520.930074	0.153193
521.146865	0.153004
521.363637	0.152855
521.580391	0.152883
521.797127	0.152905
522.013844	0.152933
522.230543	0.153599
522.447224	0.153837
522.663887	0.153683
522.880532	0.152749
523.097158	0.153433
523.313766	0.153966
523.530356	0.154831
523.746928	0.155003
523.963481	0.154902
524.180017	0.154392
524.396534	0.154993
524.613032	0.154877
524.829513	0.155810
525.045975	0.155961
525.262420	0.155824
525.478845	0.155540
525.695253	0.155410
525.911643	0.155471
526.128014	0.155957
526.344367	0.155500
526.560702	0.155805
526.777018	0.155562
526.993316	0.156019
527.209597	0.156692
527.425858	0.157461
527.642102	0.158081
527.858328	0.158654
528.074535	0.158947
528.290724	0.159509
528.506894	0.159488
528.723047	0.159892
528.939181	0.159503
529.155297	0.160004
529.371395	0.159831
529.587475	0.159647
529.803536	0.159502
530.019579	0.159394
530.235604	0.159447
530.451611	0.159881
530.667600	0.160399
530.883570	0.161034
531.099522	0.160059
531.315456	0.160545
531.531372	0.160792
531.747269	0.161098
531.963148	0.161342
532.179009	0.161286
532.394852	0.161439
532.610676	0.161460
532.826482	0.161811
533.042271	0.162500
533.258040	0.162324
533.473792	0.162640
533.689525	0.162895
533.905240	0.162966
534.120937	0.163129
534.336616	0.162924
534.552277	0.163248
534.767919	0.163276
534.983543	0.163933
535.199149	0.163827
535.414736	0.164109
535.630306	0.164842
535.845857	0.165356
536.061390	0.166105
536.276904	0.166191
536.492401	0.166247
536.707879	0.166530
536.923339	0.166029
537.138781	0.166367
537.354204	0.166723
537.569610	0.166376
537.784997	0.166402
538.000366	0.166384
538.215716	0.166962
538.431049	0.167187
538.646363	0.167424
538.861659	0.167876
539.076937	0.168014
539.292196	0.167721
539.507438	0.168262
539.722661	0.168672
539.937866	0.169129
540.153052	0.169253
540.368221	0.169426
540.583371	0.169651
540.798503	0.169483
541.013617	0.169840
541.228712	0.170562
541.443789	0.170580
541.658848	0.170523
541.873889	0.170437
542.088912	0.170711
542.303916	0.170816
542.518902	0.170653
542.733870	0.171471
542.948820	0.171340
543.163752	0.171213
543.378665	0.171260
543.593560	0.171525
543.808437	0.171768
544.023295	0.171902
544.238136	0.172391
544.452958	0.172975
544.667762	0.172791
544.882548	0.173586
545.097315	0.173677
545.312064	0.173861
545.526795	0.174021
545.741508	0.173851
545.956203	0.173687
546.170879	0.173373
546.385537	0.173682
546.600177	0.173922
546.814799	0.173943
547.029402	0.174333
547.243988	0.174378
547.458555	0.174889
547.673103	0.175259
547.887634	0.175789
548.102146	0.176535
548.316640	0.176077
548.531116	0.176094
548.745574	0.175923
548.960013	0.175774
549.174435	0.175634
549.388838	0.175123
549.603222	0.175471
549.817589	0.175594
550.031937	0.175431
550.246267	0.175669
550.460579	0.175710
550.674873	0.175724
550.889148	0.176466
551.103405	0.176648
551.317644	0.176369
551.531865	0.176513
551.746068	0.176409
551.960252	0.176270
552.174418	0.176527
552.388566	0.176748
552.602696	0.177230
552.816807	0.176842
553.030900	0.177129
553.244975	0.178128
553.459032	0.178326
553.673070	0.178680
553.887091	0.178907
554.101093	0.178824
554.315077	0.179394
554.529042	0.179487
554.742990	0.179699
554.956919	0.180283
555.170830	0.180341
555.384722	0.180661
555.598597	0.181019
555.812453	0.181465
556.026291	0.182046
556.240111	0.182060
556.453913	0.182115
556.667696	0.182385
556.881461	0.182312
557.095208	0.182508
557.308937	0.182359
557.522647	0.182889
557.736339	0.183037
557.950013	0.183019
558.163669	0.182775
558.377307	0.183125
558.590926	0.182742
558.804527	0.182785
559.018110	0.182960
559.231675	0.182723
559.445221	0.182592
559.658749	0.182423
559.872259	0.182708
560.085751	0.183223
560.299225	0.183204
560.512680	0.183706
560.726117	0.183980
560.939536	0.183953
561.152937	0.185029
561.366319	0.185266
561.579683	0.185748
561.793029	0.185856
562.006357	0.185691
562.219667	0.185696
562.432958	0.186208
562.646231	0.186200
562.859486	0.186255
563.072723	0.185930
563.285941	0.185816
563.499141	0.185845
563.712323	0.186109
563.925487	0.186695
564.138632	0.187077
564.351760	0.186923
564.564869	0.187300
564.777960	0.187885
564.991032	0.187754
565.204087	0.187870
565.417123	0.187851
565.630141	0.187638
565.843140	0.187717
566.056122	0.188179
566.269085	0.188292
566.482030	0.188129
566.694957	0.187950
566.907866	0.188366
567.120756	0.188709
567.333628	0.189001
567.546482	0.189350
567.759318	0.189353
567.972135	0.189170
568.184935	0.189436
568.397716	0.189398
568.610478	0.189694
568.823223	0.189545
569.035949	0.189584
569.248657	0.189678
569.461347	0.189814
569.674019	0.189957
569.886672	0.189982
570.099308	0.190074
570.311925	0.190214
570.524523	0.190226
570.737104	0.190646
570.949666	0.190870
571.162210	0.191022
571.374736	0.191178
571.587244	0.191231
571.799733	0.191297
572.012205	0.191592
572.224658	0.192040
572.437092	0.192437
572.649509	0.192516
572.861907	0.192326
573.074287	0.192814
573.286649	0.192694
573.498993	0.193042
573.711318	0.193363
573.923625	0.193551
574.135914	0.193645
574.348185	0.193604
574.560438	0.193929
574.772672	0.194194
574.984888	0.193989
575.197086	0.194343
575.409266	0.194544
575.621427	0.194496
575.833570	0.194531
576.045695	0.194658
576.257802	0.194765
576.469890	0.194562
576.681961	0.194603
576.894013	0.194648
577.106046	0.194602
577.318062	0.194422
577.530059	0.194600
577.742039	0.194853
577.954000	0.195182
578.165942	0.195365
578.377867	0.195215
578.589773	0.195730
578.801661	0.195922
579.013531	0.196511
579.225382	0.196699
579.437216	0.197211
579.649031	0.197453
579.860828	0.197444
580.072606	0.197407
580.284367	0.197885
580.496109	0.197702
580.707833	0.198063
580.919539	0.198184
581.131227	0.198688
581.342896	0.198933
581.554547	0.198767
581.766180	0.198966
581.977795	0.199115
582.189391	0.199341
582.400969	0.199332
582.612529	0.199552
582.824071	0.199516
583.035595	0.199406
583.247100	0.199421
583.458587	0.199600
583.670056	0.199697
583.881506	0.199928
584.092939	0.200081
584.304353	0.200310
584.515749	0.200239
584.727127	0.200499
584.938486	0.200403
585.149828	0.200521
585.361151	0.200653
585.572456	0.200862
585.783742	0.200957
585.995011	0.200706
586.206261	0.200797
586.417493	0.200569
586.628706	0.200576
586.839902	0.200862
587.051079	0.200630
587.262238	0.201060
587.473379	0.201052
587.684502	0.201128
587.895606	0.201587
588.106692	0.201984
588.317760	0.202326
588.528810	0.202485
588.739841	0.202677
588.950855	0.203388
589.161850	0.203263
589.372827	0.203715
589.583785	0.204371
589.794726	0.204635
590.005648	0.204423
590.216552	0.204501
590.427437	0.204458
590.638305	0.204707
590.849154	0.204438
591.059985	0.205168
591.270798	0.205212
591.481592	0.205007
591.692369	0.205075
591.903127	0.205362
592.113867	0.205871
592.324588	0.205889
592.535292	0.205806
592.745977	0.206126
592.956644	0.205809
593.167293	0.205681
593.377923	0.206107
593.588536	0.206453
593.799130	0.206669
594.009706	0.206673
594.220263	0.207244
594.430803	0.207218
594.641324	0.207304
594.851827	0.207086
595.062312	0.207163
595.272778	0.206979
595.483227	0.206807
595.693657	0.207022
595.904069	0.207083
596.114462	0.206926
596.324838	0.207387
596.535195	0.207547
596.745534	0.207959
596.955855	0.208330
597.166157	0.208500
597.376441	0.208872
597.586707	0.209017
597.796955	0.209485
598.007185	0.209755
598.217396	0.210108
598.427589	0.210380
598.637764	0.210746
598.847921	0.211094
599.058060	0.211541
599.268180	0.211528
599.478282	0.211615
599.688366	0.211680
599.898431	0.211925
600.108479	0.211903
600.318508	0.211817
600.528519	0.212076
600.738511	0.212163
600.948486	0.212216
601.158442	0.212562
601.368380	0.212883
601.578300	0.212829
601.788202	0.213107
601.998085	0.213082
602.207950	0.213567
602.417797	0.213460
602.627626	0.213526
602.837436	0.213579
603.047228	0.213461
603.257002	0.213366
603.466758	0.213669
603.676496	0.213575
603.886215	0.213839
604.095916	0.213725
604.305599	0.213847
604.515264	0.213746
604.724910	0.213809
604.934538	0.214144
605.144148	0.214354
605.353740	0.214504
605.563314	0.214401
605.772869	0.214395
605.982406	0.214464
606.191925	0.214416
606.401425	0.214649
606.610908	0.214807
606.820372	0.214863
607.029818	0.215112
607.239246	0.214858
607.448655	0.215467
607.658047	0.216111
607.867420	0.216415
608.076775	0.216619
608.286111	0.216785
608.495430	0.216947
608.704730	0.217203
608.914012	0.217346
609.123275	0.217728
609.332521	0.217765
609.541748	0.217564
609.750957	0.217748
609.960148	0.218164
610.169321	0.218369
610.378475	0.218424
610.587611	0.218485
610.796729	0.218916
611.005829	0.218985
611.214910	0.218772
611.423974	0.218842
611.633019	0.218745
611.842045	0.218703
612.051054	0.219032
612.260044	0.219128
612.469017	0.219282
612.677970	0.218933
612.886906	0.219207
613.095824	0.219424
613.304723	0.219363
613.513604	0.219270
613.722467	0.219350
613.931311	0.219481
614.140138	0.219462
614.348946	0.219589
614.557736	0.220050
614.766507	0.220114
614.975261	0.220330
615.183996	0.220832
615.392713	0.221165
615.601412	0.221194
615.810092	0.221413
616.018754	0.221641
616.227399	0.221777
616.436024	0.221768
616.644632	0.221927
616.853222	0.222153
617.061793	0.222099
617.270346	0.222126
617.478880	0.222516
617.687397	0.222210
617.895895	0.222474
618.104375	0.222748
618.312837	0.222849
618.521281	0.222928
618.729706	0.222928
618.938113	0.223032
619.146502	0.223301
619.354873	0.223344
619.563226	0.223444
619.771560	0.223504
619.979876	0.223525
620.188174	0.223431
620.396453	0.223607
620.604715	0.223837
620.812958	0.224118
621.021183	0.224269
621.229390	0.224494
621.437578	0.224607
621.645748	0.224491
621.853900	0.224335
622.062034	0.224651
622.270150	0.224750
622.478247	0.224664
622.686326	0.224538
622.894387	0.224680
623.102430	0.224853
623.310454	0.225089
623.518461	0.225605
623.726449	0.226074
623.934418	0.226231
624.142370	0.226477
624.350303	0.226781
624.558218	0.227156
624.766115	0.227079
624.973994	0.227067
625.181855	0.227386
625.389697	0.227514
625.597521	0.227559
625.805327	0.227821
626.013114	0.227821
626.220883	0.227980
626.428634	0.227976
626.636367	0.228326
626.844082	0.228297
627.051778	0.228468
627.259457	0.228290
627.467117	0.228356
627.674758	0.228442
627.882382	0.228739
628.089987	0.228948
628.297574	0.229231
628.505143	0.229466
628.712694	0.229855
628.920226	0.230035
629.127740	0.230110
629.335236	0.230268
629.542714	0.230178
629.750174	0.230170
629.957615	0.230079
630.165038	0.230222
630.372443	0.230288
630.579829	0.230368
630.787198	0.230241
630.994548	0.230439
631.201880	0.230433
631.409194	0.230659
631.616489	0.230679
631.823766	0.230909
632.031025	0.230678
632.238266	0.230677
632.445489	0.230761
632.652693	0.230774
632.859879	0.230915
633.067047	0.231339
633.274197	0.231650
633.481329	0.231734
633.688442	0.231927
633.895537	0.232262
634.102614	0.232399
634.309672	0.232602
634.516713	0.232789
634.723735	0.232929
634.930739	0.233091
635.137724	0.233042
635.344692	0.233258
635.551641	0.233297
635.758572	0.233568
635.965485	0.233919
636.172379	0.233965
636.379256	0.234446
636.586114	0.234741
636.792954	0.234849
636.999775	0.235083
637.206579	0.235187
637.413364	0.235424
637.620131	0.235418
637.826880	0.235286
638.033610	0.235337
638.240323	0.235485
638.447017	0.235618
638.653692	0.235635
638.860350	0.235545
639.066990	0.236012
639.273611	0.236101
639.480214	0.236416
639.686798	0.236734
639.893365	0.237095
640.099913	0.236900
640.306443	0.236996
640.512955	0.237176
640.719449	0.237480
640.925924	0.237525
641.132381	0.237693
641.338820	0.237754
641.545241	0.238042
641.751644	0.238437
641.958028	0.239101
642.164394	0.239259
642.370742	0.239470
642.577071	0.239951
642.783383	0.240162
642.989676	0.240508
643.195951	0.240574
643.402207	0.240820
643.608446	0.240793
643.814666	0.240683
644.020868	0.240986
644.227052	0.240907
644.433218	0.240787
644.639365	0.240668
644.845494	0.240691
645.051605	0.241032
645.257698	0.241021
645.463772	0.241116
645.669828	0.241213
645.875866	0.241403
646.081886	0.241878
646.287888	0.242238
646.493871	0.242761
646.699836	0.242828
646.905783	0.242830
647.111712	0.242898
647.317622	0.242849
647.523514	0.243079
647.729388	0.243170
647.935244	0.243309
648.141082	0.243270
648.346901	0.243145
648.552702	0.243440
648.758485	0.243869
648.964250	0.244035
649.169996	0.244291
649.375724	0.244283
649.581434	0.244590
649.787126	0.244416
649.992800	0.244610
650.198455	0.244701
650.404092	0.244936
650.609711	0.244943
650.815311	0.245049
651.020894	0.245141
651.226458	0.245677
651.432004	0.245787
651.637532	0.246085
651.843041	0.246228
652.048532	0.246277
652.254006	0.246189
652.459460	0.246369
652.664897	0.246767
652.870315	0.246977
653.075716	0.246875
653.281097	0.246778
653.486461	0.246985
653.691807	0.247034
653.897134	0.247377
654.102443	0.247597
654.307734	0.247752
654.513006	0.247600
654.718261	0.247551
654.923497	0.247511
655.128715	0.247520
655.333915	0.247729
655.539096	0.248197
655.744259	0.248553
655.949404	0.248699
656.154531	0.248698
656.359640	0.248759
656.564730	0.249115
656.769802	0.249419
656.974856	0.249901
657.179892	0.249972
657.384909	0.249784
657.589908	0.249722
657.794889	0.249923
657.999852	0.250168
658.204797	0.250702
658.409723	0.251044
658.614631	0.251363
658.819521	0.251479
659.024393	0.251680
659.229246	0.252038
659.434081	0.252144
659.638898	0.252419
659.843697	0.252558
660.048478	0.252740
660.253240	0.252821
660.457984	0.252704
660.662710	0.252968
660.867417	0.253255
661.072107	0.253261
661.276778	0.253684
661.481431	0.254020
661.686066	0.254155
661.890682	0.254118
662.095281	0.254441
662.299861	0.254780
662.504422	0.255083
662.708966	0.255018
662.913491	0.255371
663.117999	0.255442
663.322488	0.255493
663.526958	0.256062
663.731411	0.256208
663.935845	0.256129
664.140261	0.256353
664.344659	0.256463
664.549038	0.256739
664.753400	0.256747
664.957743	0.256920
665.162068	0.256945
665.366375	0.256767
665.570663	0.257290
665.774933	0.257527
665.979185	0.257707
666.183419	0.257840
666.387635	0.258255
666.591832	0.258576
666.796011	0.258812
667.000172	0.259150
667.204315	0.259473
667.408439	0.259599
667.612545	0.259917
667.816634	0.260168
668.020703	0.260310
668.224755	0.260232
668.428788	0.260504
668.632803	0.260661
668.836800	0.260678
669.040779	0.260876
669.244739	0.260572
669.448681	0.260917
669.652605	0.261160
669.856511	0.261359
670.060399	0.261794
670.264268	0.262001
670.468119	0.262384
670.671952	0.262726
670.875767	0.263057
671.079563	0.263705
671.283341	0.263757
671.487101	0.263942
671.690843	0.263994
671.894567	0.263788
672.098272	0.263766
672.301959	0.263692
672.505628	0.263632
672.709278	0.263707
672.912911	0.263701
673.116525	0.263794
673.320121	0.263869
673.523699	0.264094
673.727258	0.264724
673.930799	0.265031
674.134322	0.265307
674.337827	0.265455
674.541314	0.265445
674.744782	0.265604
674.948232	0.265678
675.151664	0.265951
675.355078	0.266233
675.558474	0.266301
675.761851	0.266461
675.965210	0.266672
676.168551	0.266862
676.371873	0.267439
676.575178	0.267829
676.778464	0.268068
676.981732	0.268128
677.184981	0.268101
677.388213	0.268244
677.591426	0.268363
677.794621	0.268725
677.997798	0.269112
678.200956	0.268944
678.404097	0.269077
678.607219	0.269318
678.810323	0.269497
679.013408	0.269862
679.216476	0.270000
679.419525	0.270095
679.622556	0.270103
679.825569	0.270259
680.028563	0.270531
680.231540	0.270724
680.434498	0.270851
680.637438	0.271210
680.840359	0.271165
681.043263	0.271276
681.246148	0.271512
681.449015	0.271665
681.651864	0.271828
681.854694	0.271979
682.057506	0.272065
682.260301	0.272236
682.463076	0.272230
682.665834	0.272697
682.868573	0.273013
683.071295	0.273219
683.273998	0.273440
683.476682	0.273477
683.679349	0.273639
683.881997	0.273750
684.084627	0.274099
684.287239	0.274276
684.489833	0.274113
684.692408	0.274196
684.894965	0.274161
685.097504	0.274316
685.300025	0.274784
685.502527	0.274989
685.705012	0.275087
685.907478	0.275273
686.109925	0.275494
686.312355	0.275836
686.514766	0.275872
686.717159	0.276304
686.919534	0.276237
687.121891	0.276319
687.324230	0.276520
687.526550	0.276851
687.728852	0.276800
687.931136	0.276845
688.133401	0.277129
688.335649	0.277485
688.537878	0.277571
688.740089	0.277934
688.942281	0.277893
689.144456	0.277921
689.346612	0.277863
689.548750	0.277844
689.750870	0.278085
689.952971	0.278089
690.155055	0.278205
690.357120	0.278308
690.559167	0.278423
690.761195	0.278796
690.963206	0.278954
691.165198	0.279263
691.367172	0.279372
691.569128	0.279422
691.771065	0.279742
691.972984	0.279920
692.174885	0.279917
692.376768	0.280110
692.578633	0.279921
692.780479	0.279896
692.982308	0.280057
693.184118	0.280354
693.385909	0.280325
693.587683	0.280264
693.789438	0.280133
693.991175	0.280447
694.192894	0.280542
694.394595	0.280754
694.596277	0.280936
694.797941	0.280954
694.999587	0.281073
695.201215	0.281181
695.402824	0.281385
695.604416	0.281619
695.805989	0.281563
696.007543	0.281523
696.209080	0.281515
696.410598	0.281840
696.612099	0.282019
696.813580	0.282016
697.015044	0.282207
697.216490	0.282259
697.417917	0.282272
697.619326	0.282317
697.820717	0.282382
698.022089	0.282662
698.223444	0.282795
698.424780	0.282842
698.626098	0.283063
698.827397	0.283318
699.028679	0.283539
699.229942	0.283615
699.431187	0.283600
699.632414	0.283850
699.833622	0.283854
700.034813	0.283937
700.235985	0.284085
700.437139	0.284252
700.638274	0.284356
700.839392	0.284420
701.040491	0.284977
701.241572	0.285632
701.442635	0.285747
701.643679	0.286065
701.844706	0.286111
702.045714	0.286327
702.246704	0.286314
702.447675	0.286464
702.648629	0.286283
702.849564	0.285925
703.050481	0.285911
703.251380	0.285862
703.452260	0.286001
703.653122	0.285848
703.853966	0.285738
704.054792	0.285486
704.255600	0.285519
704.456389	0.285718
704.657160	0.285874
704.857913	0.285574
705.058648	0.285774
705.259365	0.285645
705.460063	0.285590
705.660743	0.285615
705.861405	0.285984
706.062048	0.285965
706.262674	0.285886
706.463281	0.285880
706.663870	0.286045
706.864441	0.285851
707.064993	0.285769
707.265527	0.285985
707.466043	0.286020
707.666541	0.285913
707.867021	0.286030
708.067482	0.286340
708.267925	0.286521
708.468350	0.286818
708.668757	0.287147
708.869145	0.287414
709.069516	0.287673
709.269868	0.287860
709.470201	0.288201
709.670517	0.288395
709.870814	0.288505
710.071093	0.288488
710.271354	0.288399
710.471597	0.288555
710.671821	0.288817
710.872028	0.288600
711.072216	0.288620
711.272385	0.288518
711.472537	0.288407
711.672670	0.288306
711.872785	0.288395
712.072882	0.288513
712.272961	0.288035
712.473021	0.287705
712.673063	0.287648
712.873087	0.287425
713.073093	0.287481
713.273081	0.287289
713.473050	0.287199
713.673001	0.287013
713.872934	0.286911
714.072849	0.287261
714.272745	0.287268
714.472623	0.287437
714.672483	0.287537
714.872325	0.287413
715.072148	0.287519
715.271954	0.287515
715.471741	0.287476
715.671509	0.287415
715.871260	0.287189
716.070992	0.286979
716.270707	0.286716
716.470403	0.286832
716.670080	0.286809
716.869740	0.286480
717.069381	0.286669
717.269004	0.286716
717.468609	0.286645
717.668195	0.286582
717.867764	0.286646
718.067314	0.286432
718.266846	0.286383
718.466360	0.286355
718.665855	0.286437
718.865332	0.286134
719.064791	0.286028
719.264232	0.285968
719.463655	0.286122
719.663059	0.286018
719.862445	0.286401
720.061813	0.286304
720.261163	0.286398
720.460494	0.286516
720.659807	0.286333
720.859102	0.286433
721.058379	0.286339
721.257638	0.286104
721.456878	0.286209
721.656100	0.286074
721.855304	0.285950
722.054490	0.285917
722.253657	0.285745
722.452806	0.285986
722.651937	0.285851
722.851050	0.285964
723.050145	0.285979
723.249221	0.285907
723.448279	0.285832
723.647319	0.285606
723.846340	0.285386
724.045344	0.285142
724.244329	0.284788
724.443296	0.284388
724.642245	0.284133
724.841175	0.283877
725.040088	0.283540
725.238982	0.283415
725.437857	0.283429
725.636715	0.283358
725.835554	0.283395
726.034376	0.283385
726.233179	0.283542
726.431963	0.283441
726.630730	0.283548
726.829478	0.283825
727.028208	0.283863
727.226920	0.283909
727.425614	0.283968
727.624289	0.283989
727.822946	0.284028
728.021585	0.284049
728.220206	0.284059
728.418808	0.284144
728.617392	0.284082
728.815958	0.283983
729.014506	0.283703
729.213036	0.283449
729.411547	0.283385
729.610040	0.283346
729.808515	0.283342
730.006972	0.283434
730.205410	0.283225
730.403831	0.283091
730.602233	0.282915
730.800616	0.282814
730.998982	0.282751
731.197329	0.282499
731.395658	0.282256
731.593969	0.282035
731.792262	0.281519
731.990536	0.281227
732.188793	0.281182
732.387031	0.280908
732.585250	0.280982
732.783452	0.280701
732.981635	0.280483
733.179800	0.280406
733.377947	0.280232
733.576076	0.279992
733.774186	0.279771
733.972278	0.279424
734.170352	0.279429
734.368408	0.279226
734.566446	0.279361
734.764465	0.279356
734.962466	0.279017
735.160449	0.278918
735.358413	0.279030
735.556360	0.278984
735.754288	0.278517
735.952198	0.278474
736.150090	0.278356
736.347963	0.278061
736.545818	0.278198
736.743655	0.278194
736.941474	0.277987
737.139275	0.277814
737.337057	0.277761
737.534821	0.278179
737.732567	0.277828
737.930295	0.277661
738.128005	0.277522
738.325696	0.277112
738.523369	0.276877
738.721024	0.276673
738.918660	0.276637
739.116279	0.276530
739.313879	0.276351
739.511461	0.276370
739.709024	0.276114
739.906570	0.275973
740.104097	0.275814
740.301606	0.275618
740.499097	0.275645
740.696569	0.275312
740.894024	0.275139
741.091460	0.274916
741.288878	0.274639
741.486277	0.274641
741.683659	0.274691
741.881022	0.274754
742.078367	0.274752
742.275694	0.274624
742.473002	0.274966
742.670293	0.274830
742.867565	0.274585
743.064819	0.274654
743.262054	0.274434
743.459272	0.274330
743.656471	0.274148
743.853652	0.274107
744.050815	0.273796
744.247959	0.273505
744.445085	0.273249
744.642194	0.273162
744.839283	0.272727
745.036355	0.272421
745.233408	0.272081
745.430444	0.271700
745.627461	0.271403
745.824459	0.271246
746.021440	0.270717
746.218402	0.270821
746.415346	0.270511
746.612272	0.270465
746.809180	0.270514
747.006069	0.270221
747.202940	0.270346
747.399793	0.270213
747.596628	0.270234
747.793444	0.270414
747.990243	0.270190
748.187023	0.270255
748.383784	0.270381
748.580528	0.270153
748.777253	0.269933
748.973960	0.269593
749.170649	0.269452
749.367320	0.269169
749.563973	0.269019
749.760607	0.268636
749.957223	0.268344
750.153821	0.268056
750.350400	0.267675
750.546962	0.267503
750.743505	0.267279
750.940030	0.267108
751.136536	0.266949
751.333025	0.266451
751.529495	0.266058
751.725947	0.265779
751.922381	0.265605
752.118796	0.265574
752.315194	0.265498
752.511573	0.265462
752.707934	0.265361
752.904276	0.265258
753.100601	0.265382
753.296907	0.265505
753.493195	0.265385
753.689465	0.265034
753.885716	0.265030
754.081949	0.265056
754.278164	0.265105
754.474361	0.264919
754.670540	0.264918
754.866700	0.264690
755.062843	0.264861
755.258967	0.265139
755.455072	0.265255
755.651160	0.265125
755.847229	0.264772
756.043280	0.264435
756.239313	0.264360
756.435328	0.264192
756.631324	0.264169
756.827302	0.263983
757.023262	0.263469
757.219204	0.263208
757.415127	0.263077
757.611033	0.263139
757.806920	0.262839
758.002788	0.262796
758.198639	0.262642
758.394471	0.262360
758.590286	0.262162
758.786081	0.262171
758.981859	0.261996
759.177619	0.261932
759.373360	0.261851
759.569083	0.261806
759.764788	0.261772
759.960474	0.261731
760.156143	0.261482
760.351793	0.261022
760.547425	0.260882
760.743038	0.260779
760.938634	0.260601
761.134211	0.260587
761.329770	0.260446
761.525311	0.260126
761.720833	0.259875
761.916338	0.259827
762.111824	0.259942
762.307292	0.259871
762.502741	0.259758
762.698173	0.259426
762.893586	0.259101
763.088981	0.259254
763.284358	0.258994
763.479716	0.258587
763.675057	0.258565
763.870379	0.258441
764.065683	0.258269
764.260968	0.258101
764.456236	0.258354
764.651485	0.258097
764.846716	0.257906
765.041929	0.257824
765.237123	0.258059
765.432299	0.258126
765.627457	0.258107
765.822597	0.257682
766.017719	0.257651
766.212822	0.257411
766.407907	0.257334
766.602974	0.257276
766.798023	0.257288
766.993054	0.256992
767.188066	0.256606
767.383060	0.256449
767.578036	0.256628
767.772993	0.256465
767.967933	0.256285
768.162854	0.256307
768.357757	0.256120
768.552642	0.256105
768.747508	0.256189
768.942356	0.256295
769.137186	0.256141
769.331998	0.256106
769.526792	0.256441
769.721567	0.256399
769.916324	0.256223
770.111063	0.256073
770.305784	0.256070
770.500486	0.256015
770.695171	0.256062
770.889837	0.256282
771.084484	0.256203
771.279114	0.255725
771.473725	0.255749
771.668318	0.255909
771.862893	0.255765
772.057450	0.255679
772.251988	0.255476
772.446509	0.255438
772.641011	0.255144
772.835494	0.255090
773.029960	0.255305
773.224407	0.255029
773.418836	0.255035
773.613247	0.255172
773.807640	0.254907
774.002014	0.255077
774.196370	0.255155
774.390708	0.255212
774.585028	0.255443
774.779330	0.255204
774.973613	0.255664
775.167878	0.255524
775.362125	0.255403
775.556354	0.255577
775.750564	0.255527
775.944756	0.255369
776.138930	0.255255
776.333086	0.255103
776.527223	0.255061
776.721343	0.254538
776.915444	0.254351
777.109526	0.254422
777.303591	0.254366
777.497637	0.254314
777.691666	0.254239
777.885676	0.254254
778.079667	0.254021
778.273641	0.254077
778.467596	0.254408
778.661533	0.254341
778.855452	0.254054
779.049352	0.253957
779.243235	0.253896
779.437099	0.253648
779.630945	0.253691
779.824773	0.253962
780.018582	0.253981
780.212373	0.253764
780.406146	0.253920
780.599901	0.254139
780.793638	0.254384
780.987356	0.254238
781.181056	0.254507
781.374738	0.254502
781.568402	0.254340
781.762047	0.254409
781.955674	0.254519
782.149283	0.254686
782.342874	0.254487
782.536447	0.254289
782.730001	0.254319
782.923537	0.254148
783.117055	0.254308
783.310555	0.254530
783.504036	0.254208
783.697499	0.254193
783.890944	0.254023
784.084371	0.254147
784.277780	0.253973
784.471170	0.254019
784.664542	0.254190
784.857896	0.253883
785.051231	0.253759
785.244549	0.254046
785.437848	0.254154
785.631129	0.254339
785.824392	0.254528
786.017636	0.254935
786.210863	0.255311
786.404071	0.255500
786.597260	0.255883
786.790432	0.255890
786.983585	0.255927
787.176721	0.255939
787.369838	0.255911
787.562936	0.255934
787.756017	0.255925
787.949079	0.255790
788.142123	0.255880
788.335149	0.255769
788.528156	0.255890
788.721146	0.256096
788.914117	0.256279
789.107070	0.256570
789.300005	0.256722
789.492921	0.256705
789.685819	0.256913
789.878699	0.256786
790.071561	0.256847
790.264405	0.256852
790.457230	0.257023
790.650037	0.257152
790.842826	0.257130
791.035597	0.257164
791.228349	0.257369
791.421084	0.257264
791.613800	0.257305
791.806497	0.257450
791.999177	0.257658
792.191838	0.257472
792.384481	0.257661
792.577106	0.257595
792.769713	0.257670
792.962301	0.257487
793.154871	0.257730
793.347423	0.258122
793.539957	0.258295
793.732473	0.258479
793.924970	0.258819
794.117449	0.258656
794.309910	0.259007
794.502353	0.259215
794.694777	0.259499
794.887183	0.259325
795.079571	0.259095
795.271941	0.259038
795.464293	0.259099
795.656626	0.259178
795.848941	0.259273
796.041238	0.259210
796.233516	0.259388
796.425777	0.259746
796.618019	0.260297
796.810243	0.260740
797.002449	0.261163
797.194636	0.261527
797.386805	0.261653
797.578956	0.262045
797.771089	0.262120
797.963204	0.262302
798.155300	0.262554
798.347378	0.262628
798.539438	0.262756
798.731480	0.262596
798.923503	0.262523
799.115509	0.262359
799.307496	0.262343
799.499465	0.262596
799.691415	0.262622
799.883348	0.262487
800.075262	0.262677
800.267158	0.262735
800.459035	0.262963
800.650895	0.263021
800.842736	0.263459
801.034559	0.263784
801.226364	0.264034
801.418150	0.264388
801.609919	0.264716
801.801669	0.264865
801.993401	0.265164
802.185114	0.265411
802.376810	0.265766
802.568487	0.265781
802.760146	0.265848
802.951787	0.266023
803.143409	0.266252
803.335014	0.266612
803.526600	0.266603
803.718168	0.266753
803.909717	0.267132
804.101249	0.267270
804.292762	0.268005
804.484257	0.268131
804.675734	0.268324
804.867192	0.268368
805.058632	0.268444
805.250054	0.268722
805.441458	0.268714
805.632844	0.268684
805.824211	0.268826
806.015561	0.268782
806.206891	0.268982
806.398204	0.269230
806.589499	0.269487
806.780775	0.269471
806.972033	0.269901
807.163273	0.270127
807.354495	0.270413
807.545698	0.270711
807.736883	0.270712
807.928050	0.270814
808.119199	0.271085
808.310329	0.271110
808.501441	0.271387
808.692535	0.271485
808.883611	0.272008
809.074669	0.272342
809.265708	0.272479
809.456729	0.272608
809.647732	0.273057
809.838717	0.273012
810.029683	0.273471
810.220632	0.273834
810.411562	0.273990
810.602474	0.273736
810.793367	0.274060
810.984242	0.274190
811.175100	0.274803
811.365938	0.275205
811.556759	0.275874
811.747562	0.276152
811.938346	0.276297
812.129112	0.276664
812.319860	0.277269
812.510589	0.277233
812.701300	0.277546
812.891994	0.277707
813.082668	0.277735
813.273325	0.277949
813.463964	0.277907
813.654584	0.278243
813.845186	0.278157
814.035769	0.278059
814.226335	0.278541
814.416882	0.278989
814.607411	0.279212
814.797922	0.279345
814.988415	0.279454
815.178889	0.279770
815.369345	0.280006
815.559783	0.280592
815.750203	0.281219
815.940605	0.281300
816.130988	0.281470
816.321353	0.281863
816.511700	0.282350
816.702028	0.282536
816.892339	0.283054
817.082631	0.283307
817.272905	0.283181
817.463161	0.283345
817.653398	0.283565
817.843617	0.283754
818.033819	0.283776
818.224001	0.283951
818.414166	0.284400
818.604312	0.284630
818.794440	0.284961
818.984550	0.285592
819.174642	0.285830
819.364716	0.286191
819.554771	0.286543
819.744808	0.287049
819.934827	0.287209
820.124827	0.287386
820.314810	0.287742
820.504774	0.287778
820.694720	0.287894
820.884647	0.288091
821.074557	0.288430
821.264448	0.288584
821.454321	0.288736
821.644176	0.289331
821.834012	0.289422
822.023831	0.289610
822.213631	0.289936
822.403413	0.290473
822.593176	0.291032
822.782922	0.291208
822.972649	0.291728
823.162358	0.292213
823.352049	0.292240
823.541721	0.292783
823.731376	0.293105
823.921012	0.293742
824.110629	0.294152
824.300229	0.294581
824.489811	0.295044
824.679374	0.295604
824.868919	0.295944
825.058445	0.296257
825.247954	0.296785
825.437444	0.297164
825.626916	0.297364
825.816370	0.297672
826.005806	0.298113
826.195223	0.298399
826.384622	0.298451
826.574003	0.298639
826.763366	0.299129
826.952711	0.299155
827.142037	0.299345
827.331345	0.299627
827.520635	0.300118
827.709906	0.300099
827.899160	0.300544
828.088395	0.300745
828.277612	0.300988
828.466810	0.301576
828.655991	0.302034
828.845153	0.302503
829.034297	0.302945
829.223423	0.302946
829.412531	0.303357
829.601620	0.303608
829.790691	0.304112
829.979744	0.304516
830.168779	0.304795
830.357795	0.305444
830.546793	0.305758
830.735773	0.306166
830.924735	0.306620
831.113679	0.306944
831.302604	0.307356
831.491511	0.307727
831.680400	0.308301
831.869271	0.308576
832.058123	0.308599
832.246957	0.308957
832.435773	0.309168
832.624571	0.309524
832.813351	0.310316
833.002112	0.310815
833.190855	0.311263
833.379580	0.311333
833.568287	0.311664
833.756975	0.312261
833.945645	0.312826
834.134297	0.313208
834.322931	0.313483
834.511547	0.313452
834.700144	0.313674
834.888723	0.314022
835.077284	0.314714
835.265826	0.315201
835.454351	0.315211
835.642857	0.315421
835.831345	0.316029
836.019815	0.316539
836.208266	0.316999
836.396699	0.317211
836.585114	0.317552
836.773511	0.317771
836.961890	0.318202
837.150250	0.318832
837.338592	0.319335
837.526916	0.319451
837.715222	0.319661
837.903510	0.320225
838.091779	0.320724
838.280030	0.321258
838.468263	0.321832
838.656477	0.322073
838.844674	0.322542
839.032852	0.322845
839.221012	0.323287
839.409153	0.323844
839.597277	0.324191
839.785382	0.324733
839.973469	0.325148
840.161538	0.325622
840.349589	0.326076
840.537621	0.326358
840.725635	0.326898
840.913631	0.327068
841.101609	0.327622
841.289568	0.327808
841.477509	0.328310
841.665432	0.328552
841.853337	0.328808
842.041224	0.329294
842.229092	0.330035
842.416942	0.330081
842.604774	0.330802
842.792588	0.331188
842.980383	0.331393
843.168160	0.331440
843.355919	0.331682
843.543660	0.331707
843.731382	0.332032
843.919087	0.332198
844.106773	0.332981
844.294441	0.333151
844.482090	0.333456
844.669722	0.334251
844.857335	0.334541
845.044930	0.334988
845.232507	0.335456
845.420065	0.335618
845.607605	0.336259
845.795127	0.336393
845.982631	0.337000
846.170117	0.337086
846.357584	0.337354
846.545033	0.338307
846.732464	0.339148
846.919877	0.339651
847.107272	0.340423
847.294648	0.340613
847.482006	0.341097
847.669346	0.341428
847.856667	0.342187
848.043971	0.342688
848.231256	0.343066
848.418523	0.343275
848.605771	0.343549
848.793002	0.343875
848.980214	0.344057
849.167408	0.344648
849.354584	0.345294
849.541742	0.345863
849.728881	0.346434
849.916002	0.346204
850.103105	0.346402
850.290190	0.346936
850.477256	0.346936
850.664304	0.347564
850.851334	0.347944
851.038346	0.348341
851.225340	0.348340
851.412315	0.348549
851.599272	0.349260
851.786211	0.349824
851.973132	0.350452
852.160034	0.351385
852.346918	0.351578
852.533784	0.351339
852.720632	0.351395
852.907462	0.351974
853.094273	0.352456
853.281066	0.353123
853.467841	0.353436
853.654598	0.353796
853.841336	0.354280
854.028056	0.354456
854.214758	0.355275
854.401442	0.355513
854.588107	0.355994
854.774755	0.355998
854.961384	0.356295
855.147995	0.356546
855.334587	0.356713
855.521162	0.356791
855.707718	0.357280
855.894256	0.357662
856.080775	0.358172
856.267277	0.358452
856.453760	0.358641
856.640225	0.358900
856.826672	0.359344
857.013101	0.359539
857.199511	0.360065
857.385903	0.360480
857.572277	0.360600
857.758633	0.361055
857.944970	0.361504
858.131290	0.362363
858.317591	0.362690
858.503873	0.362931
858.690138	0.363396
858.876384	0.363627
859.062612	0.364030
859.248822	0.364677
859.435014	0.364852
859.621188	0.364796
859.807343	0.365006
859.993480	0.365477
860.179599	0.365779
860.365699	0.366136
860.551781	0.366141
860.737846	0.366615
860.923891	0.366913
861.109919	0.367210
861.295929	0.367811
861.481920	0.368212
861.667893	0.368545
861.853848	0.369104
862.039784	0.369446
862.225702	0.369386
862.411603	0.369511
862.597484	0.369888
862.783348	0.370488
862.969193	0.370975
863.155021	0.371149
863.340830	0.370949
863.526620	0.371118
863.712393	0.371331
863.898147	0.372038
864.083883	0.372555
864.269601	0.372627
864.455301	0.372909
864.640982	0.372948
864.826645	0.373220
865.012290	0.373564
865.197917	0.373857
865.383526	0.374126
865.569116	0.374317
865.754688	0.374647
865.940242	0.375186
866.125777	0.375343
866.311295	0.375415
866.496794	0.375837
866.682275	0.376657
866.867737	0.376794
867.053182	0.377037
867.238608	0.377314
867.424016	0.377183
867.609406	0.376748
867.794778	0.377179
867.980131	0.377735
868.165466	0.377760
868.350783	0.378184
868.536082	0.378403
868.721362	0.379145
868.906625	0.379592
869.091869	0.379997
869.277094	0.380657
869.462302	0.380937
869.647491	0.380994
869.832662	0.381424
870.017815	0.381082
870.202950	0.381723
870.388066	0.381875
870.573165	0.382108
870.758245	0.382544
870.943306	0.383065
871.128350	0.383321
871.313375	0.383704
871.498382	0.384118
871.683371	0.384421
871.868342	0.384757
872.053294	0.385277
872.238229	0.385541
872.423144	0.385480
872.608042	0.385793
872.792922	0.386085
872.977783	0.386769
873.162626	0.387046
873.347451	0.387475
873.532258	0.387474
873.717046	0.387181
873.901816	0.387437
874.086568	0.387377
874.271302	0.387415
874.456017	0.387399
874.640715	0.387392
874.825394	0.387888
875.010055	0.388152
875.194697	0.388282
875.379322	0.388810
875.563928	0.389273
875.748516	0.390313
875.933085	0.390912
876.117637	0.391102
876.302170	0.391113
876.486685	0.390989
876.671182	0.391276
876.855661	0.392054
877.040121	0.391887
877.224563	0.391976
877.408987	0.391666
877.593393	0.391375
877.777780	0.392125
877.962150	0.392207
878.146501	0.392493
878.330833	0.392604
878.515148	0.392098
878.699444	0.392735
878.883722	0.392699
879.067982	0.392763
879.252224	0.392901
879.436447	0.392743
879.620653	0.393243
879.804840	0.392928
879.989008	0.393427
880.173159	0.393705
880.357291	0.393585
880.541405	0.393833
880.725501	0.394163
880.909579	0.394272
881.093638	0.394344
881.277680	0.394704
881.461703	0.395304
881.645707	0.394730
881.829694	0.394890
882.013662	0.394971
882.197612	0.395117
882.381544	0.395139
882.565458	0.395264
882.749353	0.395216
882.933230	0.394693
883.117089	0.394452
883.300930	0.394694
883.484753	0.394860
883.668557	0.394879
883.852343	0.394939
884.036111	0.395223
884.219861	0.395372
884.403592	0.395730
884.587305	0.396013
884.771000	0.396245
884.954677	0.396093
885.138335	0.396164
885.321976	0.396558
885.505598	0.397072
885.689201	0.397119
885.872787	0.397523
886.056354	0.397666
886.239904	0.397539
886.423434	0.397210
886.606947	0.397432
886.790442	0.397210
886.973918	0.397230
887.157376	0.397472
887.340816	0.397440
887.524237	0.397407
887.707641	0.397422
887.891026	0.397475
888.074393	0.397655
888.257741	0.397881
888.441072	0.397780
888.624384	0.397630
888.807678	0.397266
888.990954	0.397200
889.174211	0.397264
889.357451	0.397523
889.540672	0.397643
889.723875	0.398092
889.907059	0.397914
890.090226	0.398443
890.273374	0.398388
890.456504	0.398310
890.639616	0.398450
890.822709	0.397896
891.005785	0.396961
891.188842	0.396794
891.371881	0.396122
891.554901	0.396539
891.737904	0.395861
891.920888	0.395989
892.103854	0.395557
892.286802	0.395838
892.469731	0.395741
892.652643	0.395859
892.835536	0.395910
893.018410	0.396224
893.201267	0.395733
893.384106	0.396091
893.566926	0.395891
893.749728	0.395849
893.932511	0.395728
894.115277	0.396004
894.298024	0.396117
894.480753	0.396198
894.663464	0.395608
894.846157	0.395723
895.028831	0.395785
895.211487	0.395497
895.394125	0.396070
895.576745	0.395691
895.759346	0.395703
895.941930	0.395757
896.124495	0.395532
896.307041	0.395368
896.489570	0.394634
896.672080	0.394226
896.854573	0.393931
897.037046	0.393209
897.219502	0.392938
897.401940	0.392549
897.584359	0.392273
897.766760	0.391978
897.949143	0.392152
898.131507	0.392338
898.313854	0.392688
898.496182	0.392810
898.678492	0.393105
898.860783	0.392624
899.043057	0.392417
899.225312	0.392852
899.407549	0.392372
899.589768	0.392503
899.771968	0.392506
899.954151	0.391809
900.136315	0.391254
900.318461	0.390445
900.500588	0.390415
900.682698	0.390469
900.864789	0.389730
901.046862	0.389804
901.228917	0.389531
901.410953	0.389469
901.592971	0.389812
901.774972	0.389698
901.956953	0.389272
902.138917	0.389047
902.320862	0.388527
902.502790	0.388337
902.684699	0.388285
902.866589	0.388173
903.048462	0.387530
903.230316	0.386479
903.412152	0.386463
903.593970	0.386512
903.775770	0.386574
903.957551	0.386484
904.139314	0.385865
904.321059	0.385394
904.502786	0.384913
904.684494	0.384746
904.866185	0.385016
905.047857	0.384460
905.229510	0.384480
905.411146	0.383507
905.592763	0.382942
905.774363	0.383109
905.955943	0.382784
906.137506	0.382504
906.319051	0.382554
906.500577	0.381705
906.682085	0.381766
906.863575	0.381715
907.045046	0.381748
907.226500	0.381441
907.407935	0.380486
907.589352	0.380028
907.770750	0.379876
907.952131	0.379153
908.133493	0.378900
908.314837	0.378086
908.496163	0.377332
908.677470	0.376601
908.858760	0.376092
909.040031	0.375424
909.221284	0.375811
909.402518	0.374528
909.583735	0.374398
909.764933	0.373767
909.946113	0.373407
910.127275	0.372843
910.308418	0.372744
910.489544	0.372544
910.670651	0.372436
910.851740	0.371540
911.032810	0.371799
911.213863	0.370398
911.394897	0.370138
911.575913	0.369598
911.756911	0.369040
911.937890	0.368410
912.118851	0.367715
912.299794	0.367671
912.480719	0.366625
912.661626	0.365825
912.842514	0.365756
913.023384	0.364862
913.204236	0.364334
913.385070	0.363045
913.565886	0.362977
913.746683	0.362720
913.927462	0.362202
914.108223	0.362410
914.288965	0.361913
914.469690	0.361517
914.650396	0.361304
914.831084	0.360963
915.011754	0.360495
915.192405	0.359297
915.373038	0.358429
915.553653	0.358001
915.734250	0.356318
915.914829	0.355405
916.095389	0.354888
916.275931	0.354606
916.456455	0.353807
916.636961	0.354336
916.817448	0.353791
916.997917	0.352809
917.178368	0.351523
917.358801	0.352347
917.539216	0.352237
917.719612	0.351178
917.899990	0.350577
918.080350	0.349973
918.260692	0.348782
918.441015	0.348585
918.621320	0.348821
918.801607	0.348239
918.981876	0.346816
919.162127	0.345705
919.342359	0.345346
919.522573	0.344666
919.702769	0.343865
919.882947	0.343679
920.063106	0.343547
920.243247	0.342957
920.423370	0.342583
920.603475	0.342025
920.783562	0.341530
920.963630	0.341078
921.143680	0.339998
921.323712	0.339882
921.503725	0.339165
921.683721	0.337808
921.863698	0.336804
922.043657	0.336384
922.223598	0.335782
922.403520	0.335810
922.583424	0.334768
922.763311	0.334034
922.943178	0.333498
923.123028	0.332813
923.302859	0.332374
923.482673	0.331182
923.662467	0.330150
923.842244	0.329144
924.022003	0.327468
924.201743	0.326738
924.381465	0.326069
924.561169	0.324740
924.740854	0.323780
924.920522	0.322462
925.100171	0.321246
925.279802	0.320378
925.459414	0.320124
925.639009	0.319762
925.818585	0.319135
925.998143	0.318466
926.177683	0.317882
926.357205	0.317149
926.536708	0.317020
926.716193	0.317422
926.895660	0.317273
927.075109	0.316315
927.254539	0.315645
927.433951	0.315699
927.613345	0.315426
927.792721	0.314955
927.972079	0.314180
928.151418	0.313370
928.330739	0.312430
928.510042	0.310910
928.689327	0.310139
928.868593	0.309410
929.047841	0.308155
929.227071	0.306774
929.406283	0.305916
929.585476	0.305397
929.764652	0.304747
929.943809	0.303935
930.122948	0.304128
930.302068	0.303188
930.481171	0.301785
930.660255	0.300412
930.839321	0.299856
931.018369	0.298799
931.197398	0.297266
931.376409	0.296737
931.555402	0.295567
931.734377	0.293379
931.913334	0.292568
932.092272	0.292657
932.271192	0.292517
932.450094	0.291717
932.628978	0.290683
932.807844	0.289863
932.986691	0.288324
933.165520	0.287829
933.344331	0.288123
933.523123	0.287208
933.701898	0.285518
933.880654	0.284149
934.059392	0.283440
934.238111	0.283210
934.416813	0.282799
934.595496	0.281543
934.774161	0.280947
934.952808	0.279724
935.131437	0.278329
935.310047	0.277211
935.488639	0.275962
935.667213	0.274612
935.845769	0.273388
936.024306	0.271946
936.202825	0.271964
936.381326	0.270144
936.559809	0.269533
936.738274	0.269282
936.916720	0.269285
937.095148	0.268890
937.273558	0.268060
937.451950	0.267073
937.630323	0.267070
937.808678	0.265608
937.987015	0.265143
938.165334	0.263865
938.343635	0.262882
938.521917	0.261343
938.700181	0.260689
938.878427	0.260153
939.056655	0.258766
939.234864	0.257847
939.413055	0.257436
939.591228	0.257418
939.769383	0.256830
939.947519	0.256246
940.125638	0.255773
940.303738	0.254338
940.481820	0.253721
940.659883	0.254033
940.837929	0.252863
941.015956	0.251600
941.193965	0.249278
941.371955	0.248268
941.549928	0.246155
941.727882	0.245866
941.905818	0.245118
942.083736	0.243263
942.261636	0.241797
942.439517	0.240192
942.617380	0.239255
942.795225	0.238808
942.973052	0.236582
943.150860	0.236042
943.328651	0.235081
943.506423	0.235135
943.684176	0.234259
943.861912	0.233715
944.039629	0.233150
944.217328	0.232617
944.395009	0.232472
944.572672	0.232485
944.750317	0.231981
944.927943	0.230848
945.105551	0.229530
945.283141	0.228056
945.460712	0.226345
945.638265	0.224960
945.815801	0.223025
945.993317	0.220977
946.170816	0.219246
946.348297	0.219437
946.525759	0.218344
946.703203	0.217235
946.880629	0.217824
947.058036	0.216961
947.235425	0.216620
947.412797	0.215696
947.590149	0.216484
947.767484	0.217092
947.944800	0.215467
948.122099	0.213581
948.299379	0.212352
948.476640	0.213037
948.653884	0.212779
948.831109	0.212786
949.008316	0.212253
949.185505	0.210593
949.362676	0.209890
949.539828	0.207859
949.716962	0.208307
949.894078	0.208793
950.071176	0.206392
950.248256	0.206063
950.425317	0.204037
950.602360	0.204403
950.779385	0.205766
950.956391	0.204156
951.133380	0.205659
951.310350	0.204548
951.487302	0.204660
951.664235	0.204963
951.841151	0.203519
952.018048	0.205253
952.194927	0.203419
952.371788	0.200502
952.548631	0.200501
952.725455	0.199110
952.902261	0.199787
953.079049	0.197652
953.255819	0.196504
953.432570	0.196128
953.609303	0.195224
953.786018	0.196266
953.962715	0.196668
954.139394	0.195672
954.316054	0.194624
954.492696	0.192465
954.669320	0.191294
954.845926	0.190773
955.022513	0.189782
955.199083	0.188388
955.375634	0.186017
955.552166	0.185537
955.728681	0.185658
955.905177	0.185319
956.081655	0.186497
956.258115	0.184298
956.434557	0.181540
956.610980	0.181354
956.787385	0.178973
956.963772	0.179438
957.140141	0.178692
957.316492	0.177964
957.492824	0.177746
957.669138	0.176572
957.845434	0.179799
958.021712	0.180946
958.197971	0.182284
958.374212	0.183639
958.550435	0.181697
958.726640	0.181395
958.902826	0.179790
959.078995	0.179122
959.255145	0.178519
959.431277	0.176667
959.607390	0.177520
959.783486	0.174776
959.959563	0.174097
960.135622	0.174646
960.311662	0.172938
960.487685	0.172803
960.663689	0.172251
960.839675	0.172213
961.015643	0.171869
961.191593	0.171341
961.367524	0.169888
961.543437	0.168945
961.719332	0.169632
961.895209	0.173020
962.071067	0.171848
962.246907	0.172792
962.422730	0.172260
962.598533	0.173187
962.774319	0.172671
962.950086	0.175161
963.125835	0.175016
963.301566	0.175951
963.477279	0.173717
963.652973	0.176230
963.828650	0.175837
964.004308	0.175985
964.179947	0.174171
964.355569	0.172140
964.531172	0.170195
964.706757	0.171727
964.882324	0.169372
965.057873	0.168895
965.233403	0.166340
965.408916	0.166313
965.584410	0.168116
965.759885	0.167806
965.935343	0.169553
966.110782	0.171761
966.286203	0.170828
966.461606	0.170155
966.636991	0.169251
966.812357	0.171778
966.987705	0.168750
967.163035	0.166970
967.338347	0.165784
967.513641	0.166974
967.688916	0.165372
967.864173	0.165083
968.039412	0.167821
968.214632	0.168296
968.389835	0.167553
968.565019	0.169738
968.740185	0.169367
968.915333	0.169952
969.090462	0.168768
969.265573	0.170138
969.440667	0.171010
969.615741	0.169405
969.790798	0.167286
969.965836	0.167240
970.140856	0.166059
970.315858	0.168226
970.490842	0.168677
970.665808	0.168165
970.840755	0.168107
971.015684	0.166101
971.190595	0.164143
971.365487	0.164623
971.540362	0.163782
971.715218	0.164545
971.890056	0.162118
972.064875	0.162596
972.239677	0.163687
972.414460	0.160654
972.589225	0.161285
972.763972	0.162123
972.938700	0.162477
973.113411	0.162217
973.288103	0.162807
973.462777	0.161068
973.637432	0.161851
973.812070	0.159789
973.986689	0.160714
974.161290	0.160385
974.335873	0.162628
974.510437	0.161331
974.684984	0.161317
974.859512	0.160767
975.034022	0.161974
975.208513	0.163504
975.382987	0.164215
975.557442	0.165475
975.731879	0.164490
975.906298	0.163952
976.080698	0.165348
976.255080	0.164380
976.429445	0.163937
976.603790	0.165476
976.778118	0.161973
976.952427	0.162719
977.126719	0.162314
977.300992	0.162857
977.475246	0.161169
977.649483	0.161874
977.823701	0.161358
977.997901	0.160288
978.172083	0.158412
978.346247	0.158797
978.520392	0.157807
978.694519	0.157528
978.868628	0.159742
979.042719	0.159929
979.216791	0.157880
979.390845	0.157897
979.564882	0.159909
979.738899	0.160500
979.912899	0.161176
980.086880	0.161143
980.260843	0.159457
980.434788	0.159152
980.608715	0.159121
980.782623	0.158924
980.956514	0.160225
981.130386	0.157993
981.304240	0.157410
981.478075	0.155144
981.651892	0.155339
981.825692	0.157469
981.999472	0.157069
982.173235	0.158146
982.346980	0.159956
982.520706	0.159798
982.694414	0.159843
982.868104	0.158496
983.041775	0.160308
983.215428	0.161903
983.389064	0.160042
983.562680	0.157692
983.736279	0.158217
983.909860	0.157036
984.083422	0.155461
984.256966	0.156032
984.430491	0.156568
984.603999	0.155735
984.777488	0.152279
984.950959	0.153526
985.124412	0.156345
985.297847	0.155422
985.471263	0.157275
985.644661	0.157273
985.818041	0.157250
985.991403	0.156558
986.164747	0.157622
986.338072	0.159234
986.511379	0.158984
986.684668	0.155142
986.857938	0.153549
987.031191	0.152981
987.204425	0.153419
987.377641	0.153434
987.550839	0.153425
987.724018	0.151820
987.897179	0.151963
988.070322	0.153303
988.243447	0.154951
988.416554	0.155553
988.589642	0.154448
988.762712	0.154429
988.935764	0.155656
989.108798	0.156858
989.281813	0.157186
989.454811	0.155502
989.627790	0.156149
989.800751	0.157450
989.973693	0.156966
990.146617	0.157421
990.319524	0.158974
990.492412	0.157142
990.665281	0.156360
990.838133	0.155531
991.010966	0.156123
991.183781	0.154396
991.356578	0.150937
991.529356	0.150451
991.702117	0.149734
991.874859	0.146949
992.047583	0.146026
992.220288	0.147804
992.392976	0.147128
992.565645	0.145181
992.738296	0.143935
992.910929	0.144945
993.083543	0.145722
993.256139	0.147066
993.428718	0.148401
993.601277	0.150500
993.773819	0.146716
993.946342	0.148987
994.118848	0.151070
994.291335	0.151960
994.463803	0.153319
994.636254	0.154433
994.808686	0.153412
994.981100	0.155963
995.153496	0.154496
995.325874	0.157284
995.498233	0.156870
995.670574	0.156017
995.842897	0.155443
996.015202	0.154941
996.187488	0.151937
996.359757	0.152212
996.532007	0.149251
996.704239	0.149721
996.876452	0.150417
997.048648	0.149853
997.220825	0.150947
997.392984	0.150425
997.565124	0.149184
997.737247	0.150584
997.909351	0.148775
998.081437	0.149627
998.253505	0.148008
998.425554	0.146362
998.597586	0.145495
998.769599	0.144933
998.941594	0.145434
999.113571	0.146437
999.285529	0.146823
999.457469	0.146815
999.629391	0.143670
999.801295	0.144599
999.973181	0.142832
1000.145048	0.142540
1000.316897	0.142548
1000.488728	0.142643
1000.660541	0.141532
1000.832335	0.142067
1001.004111	0.143805
1001.175869	0.145015
1001.347609	0.145059
1001.519331	0.145961
1001.691034	0.147881
1001.862719	0.147943
1002.034386	0.146798
1002.206035	0.146145
1002.377665	0.144675
1002.549277	0.142803
1002.720871	0.141790
1002.892447	0.140902
1003.064004	0.141480
1003.235544	0.140259
1003.407065	0.140076
1003.578568	0.140029
1003.750052	0.140534
1003.921519	0.140068
1004.092967	0.140875
1004.264397	0.142589
1004.435809	0.143576
1004.607202	0.143784
1004.778577	0.142931
1004.949934	0.142607
1005.121273	0.143118
1005.292594	0.142334
1005.463896	0.143567
1005.635180	0.142071
1005.806446	0.141929
1005.977694	0.142127
1006.148923	0.141469
1006.320135	0.142462
1006.491328	0.142880
1006.662503	0.141788
1006.833659	0.143851
1007.004798	0.143851
1007.175918	0.145287
1007.347020	0.146129
1007.518103	0.145411
1007.689169	0.145987
1007.860216	0.145065
1008.031245	0.144365
1008.202256	0.145963
1008.373248	0.146500
1008.544223	0.146003
1008.715179	0.145307
1008.886117	0.144720
1009.057036	0.144281
1009.227938	0.143671
1009.398821	0.143503
1009.569686	0.143005
1009.740533	0.139816
1009.911361	0.138835
1010.082172	0.136570
1010.252964	0.136448
1010.423738	0.136053
1010.594493	0.135204
1010.765231	0.136378
1010.935950	0.135781
1011.106651	0.134863
1011.277334	0.135678
1011.447998	0.136118
1011.618645	0.139132
1011.789273	0.138097
1011.959882	0.137686
1012.130474	0.139158
1012.301048	0.138453
1012.471603	0.139359
1012.642140	0.140716
1012.812658	0.141422
1012.983159	0.140273
1013.153641	0.137129
1013.324105	0.140029
1013.494551	0.139993
1013.664979	0.139493
1013.835388	0.138773
1014.005779	0.138178
1014.176152	0.137471
1014.346507	0.138889
1014.516843	0.138113
1014.687162	0.139025
1014.857462	0.137758
1015.027744	0.137467
1015.198007	0.137249
1015.368252	0.137428
1015.538480	0.137615
1015.708689	0.134314
1015.878879	0.134029
1016.049052	0.133812
1016.219206	0.133902
1016.389342	0.134767
1016.559460	0.135502
1016.729559	0.134683
1016.899641	0.134977
1017.069704	0.135117
1017.239749	0.136803
1017.409775	0.136398
1017.579784	0.136908
1017.749774	0.136626
1017.919746	0.135275
1018.089700	0.134696
1018.259635	0.135162
1018.429553	0.133907
1018.599452	0.134894
1018.769333	0.134576
1018.939195	0.133939
1019.109040	0.132828
1019.278866	0.133298
1019.448674	0.132613
1019.618464	0.133542
1019.788235	0.132960
1019.957989	0.132803
1020.127724	0.130192
1020.297441	0.133142
1020.467139	0.133093
1020.636820	0.133855
1020.806482	0.134386
1020.976126	0.134120
1021.145752	0.131794
1021.315359	0.132605
1021.484948	0.132484
1021.654519	0.133276
1021.824072	0.131048
1021.993607	0.131463
1022.163123	0.133516
1022.332621	0.133520
1022.502101	0.132334
1022.671563	0.133482
1022.841007	0.133889
1023.010432	0.135004
1023.179839	0.135455
1023.349228	0.135660
1023.518598	0.133712
1023.687951	0.131615
1023.857285	0.131242
1024.026601	0.132052
1024.195899	0.132982
1024.365178	0.132606
1024.534439	0.133283
1024.703682	0.134663
1024.872907	0.133680
1025.042114	0.133382
1025.211302	0.133528
1025.380472	0.133203
1025.549624	0.134132
1025.718758	0.131551
1025.887873	0.131597
1026.056970	0.129344
1026.226049	0.129218
1026.395110	0.130524
1026.564153	0.130781
1026.733177	0.131291
1026.902183	0.132222
1027.071171	0.132295
1027.240141	0.133905
1027.409092	0.132229
1027.578026	0.132995
1027.746940	0.131105
1027.915837	0.131031
1028.084716	0.130892
1028.253576	0.130187
1028.422418	0.129339
1028.591242	0.128688
1028.760048	0.129225
1028.928835	0.128972
1029.097604	0.130669
1029.266355	0.131622
1029.435088	0.130905
1029.603803	0.132504
1029.772499	0.131083
1029.941177	0.129785
1030.109837	0.129038
1030.278478	0.127567
1030.447102	0.129500
1030.615707	0.128157
1030.784294	0.128561
1030.952863	0.128930
1031.121413	0.128259
1031.289945	0.129869
1031.458460	0.131349
1031.626955	0.133124
1031.795433	0.134445
1031.963892	0.134528
1032.132334	0.133252
1032.300756	0.131612
1032.469161	0.132650
1032.637548	0.132653
1032.805916	0.133459
1032.974266	0.132764
1033.142598	0.131923
1033.310911	0.130937
1033.479207	0.128395
1033.647484	0.130385
1033.815743	0.129658
1033.983983	0.128124
1034.152206	0.129648
1034.320410	0.130358
1034.488596	0.129602
1034.656764	0.129855
1034.824914	0.130361
1034.993045	0.132325
1035.161158	0.130957
1035.329253	0.132667
1035.497330	0.134195
1035.665388	0.133472
1035.833428	0.132260
1036.001450	0.130442
1036.169454	0.128499
1036.337440	0.127917
1036.505407	0.126233
1036.673356	0.126611
1036.841287	0.125126
1037.009200	0.124444
1037.177094	0.122883
1037.344970	0.122084
1037.512828	0.124529
1037.680668	0.126170
1037.848489	0.127009
1038.016293	0.127666
1038.184078	0.127164
1038.351845	0.126988
1038.519593	0.127407
1038.687324	0.127283
1038.855036	0.127931
1039.022730	0.127236
1039.190406	0.126311
1039.358063	0.127043
1039.525702	0.127252
1039.693323	0.126674
1039.860926	0.126883
1040.028511	0.127114
1040.196077	0.128318
1040.363625	0.128594
1040.531155	0.128765
1040.698667	0.129220
1040.866161	0.127178
1041.033636	0.127215
1041.201093	0.127173
1041.368532	0.128424
1041.535952	0.126133
1041.703355	0.126178
1041.870739	0.124041
1042.038105	0.124407
1042.205452	0.124429
1042.372782	0.125666
1042.540093	0.125202
1042.707386	0.125812
1042.874661	0.124138
1043.041918	0.124989
1043.209156	0.125362
1043.376376	0.127631
1043.543578	0.128838
1043.710762	0.128544
1043.877927	0.128182
1044.045074	0.128968
1044.212203	0.129146
1044.379314	0.129609
1044.546407	0.129108
1044.713481	0.127904
1044.880537	0.125857
1045.047575	0.123140
1045.214595	0.123709
1045.381596	0.122711
1045.548579	0.123391
1045.715544	0.123152
1045.882491	0.124894
1046.049420	0.125777
1046.216330	0.125321
1046.383222	0.126054
1046.550096	0.128562
1046.716951	0.127964
1046.883789	0.128789
1047.050608	0.127761
1047.217409	0.126501
1047.384192	0.125739
1047.550956	0.124302
1047.717703	0.124205
1047.884431	0.125722
1048.051140	0.125456
1048.217832	0.125028
1048.384505	0.125463
1048.551161	0.123633
1048.717798	0.123155
1048.884416	0.123251
1049.051017	0.123462
1049.217599	0.122934
1049.384163	0.122721
1049.550709	0.122809
1049.717237	0.123589
1049.883746	0.123414
1050.050237	0.125304
1050.216710	0.126963
1050.383165	0.124831
1050.549601	0.125980
1050.716019	0.126148
1050.882420	0.124945
1051.048801	0.122892
1051.215165	0.122269
1051.381510	0.122204
1051.547837	0.124113
1051.714146	0.124014
1051.880437	0.124293
1052.046709	0.123514
1052.212964	0.123782
1052.379200	0.123467
1052.545417	0.122366
1052.711617	0.123256
1052.877798	0.123273
1053.043961	0.120995
1053.210106	0.121018
1053.376233	0.123917
1053.542341	0.122968
1053.708432	0.123028
1053.874504	0.124110
1054.040557	0.126609
1054.206593	0.125956
1054.372610	0.123310
1054.538609	0.123731
1054.704590	0.122795
1054.870553	0.122021
1055.036497	0.123638
1055.202424	0.124291
1055.368331	0.123325
1055.534221	0.121720
1055.700093	0.121052
1055.865946	0.121188
1056.031781	0.122071
1056.197598	0.123959
1056.363397	0.122196
1056.529177	0.122075
1056.694939	0.122126
1056.860683	0.123133
1057.026409	0.124483
1057.192116	0.123385
1057.357806	0.125069
1057.523477	0.125275
1057.689130	0.123626
1057.854764	0.125174
1058.020381	0.126551
1058.185979	0.126935
1058.351559	0.125504
1058.517120	0.126267
1058.682664	0.126672
1058.848189	0.127653
1059.013696	0.125910
1059.179185	0.126036
1059.344656	0.126175
1059.510108	0.124713
1059.675542	0.122803
1059.840958	0.123019
1060.006356	0.121400
1060.171735	0.123835
1060.337096	0.123657
1060.502439	0.123424
1060.667764	0.124618
1060.833071	0.122744
1060.998359	0.123480
1061.163629	0.124593
1061.328881	0.125495
1061.494115	0.125263
1061.659330	0.123426
1061.824527	0.121227
1061.989706	0.121278
1062.154867	0.119368
1062.320010	0.120081
1062.485134	0.119571
1062.650240	0.120982
1062.815328	0.118809
1062.980398	0.119271
1063.145449	0.120960
1063.310482	0.121332
1063.475497	0.123542
1063.640494	0.123369
1063.805473	0.124612
1063.970433	0.124717
1064.135375	0.123852
1064.300299	0.124139
1064.465204	0.126021
1064.630092	0.124250
1064.794961	0.127011
1064.959812	0.124034
1065.124645	0.124004
1065.289459	0.124094
1065.454256	0.122536
1065.619034	0.121978
1065.783793	0.123150
1065.948535	0.123180
1066.113258	0.122615
1066.277964	0.123182
1066.442651	0.123958
1066.607319	0.123883
1066.771970	0.123019
1066.936602	0.124721
1067.101216	0.124394
1067.265812	0.125286
1067.430389	0.125224
1067.594949	0.127296
1067.759490	0.124155
1067.924013	0.125721
1068.088518	0.128149
1068.253004	0.127794
1068.417472	0.126940
1068.581922	0.130047
1068.746354	0.131171
1068.910768	0.128782
1069.075163	0.127387
1069.239540	0.128912
1069.403899	0.128195
1069.568240	0.128367
1069.732562	0.126677
1069.896866	0.125577
1070.061152	0.123409
1070.225420	0.122073
1070.389670	0.123744
1070.553901	0.125113
1070.718114	0.124323
1070.882309	0.123527
1071.046486	0.122998
1071.210644	0.123795
1071.374784	0.126515
1071.538906	0.126748
1071.703010	0.125928
1071.867096	0.126654
1072.031163	0.124161
1072.195212	0.123592
1072.359243	0.125351
1072.523256	0.125064
1072.687250	0.126532
1072.851226	0.125568
1073.015184	0.125010
1073.179124	0.124992
1073.343045	0.122855
1073.506949	0.125895
1073.670834	0.126186
1073.834701	0.124746
1073.998549	0.123117
1074.162380	0.124897
1074.326192	0.125582
1074.489986	0.126616
1074.653761	0.127690
1074.817519	0.127977
1074.981258	0.125861
1075.144979	0.127335
1075.308682	0.128143
1075.472367	0.129614
1075.636033	0.126923
1075.799681	0.126071
1075.963311	0.125369
1076.126923	0.125360
1076.290516	0.128535
1076.454092	0.131823
1076.617649	0.130566
1076.781187	0.131153
1076.944708	0.132388
1077.108210	0.133145
1077.271695	0.133801
1077.435160	0.135465
1077.598608	0.134431
1077.762038	0.131133
1077.925449	0.129658
1078.088842	0.131396
1078.252217	0.128928
1078.415573	0.125177
1078.578912	0.125324
1078.742232	0.126413
1078.905534	0.126191
1079.068817	0.124837
1079.232083	0.125844
1079.395330	0.128714
1079.558559	0.125607
1079.721770	0.126382
1079.884962	0.130773
1080.048136	0.133027
1080.211293	0.131370
1080.374430	0.129716
1080.537550	0.131555
1080.700651	0.129985
1080.863735	0.127632
1081.026800	0.131387
1081.189846	0.131623
1081.352875	0.128827
1081.515885	0.127610
1081.678877	0.127210
1081.841851	0.127616
1082.004807	0.128439
1082.167744	0.129599
1082.330663	0.129041
1082.493564	0.127661
1082.656447	0.128472
1082.819312	0.127294
1082.982158	0.126487
1083.144986	0.128495
1083.307796	0.128964
1083.470587	0.127189
1083.633361	0.128809
1083.796116	0.128179
1083.958853	0.130283
1084.121571	0.128786
1084.284272	0.131254
1084.446954	0.131098
1084.609618	0.128865
1084.772264	0.128987
1084.934892	0.131776
1085.097501	0.130476
1085.260092	0.130175
1085.422665	0.129260
1085.585220	0.129200
1085.747756	0.127956
1085.910274	0.129747
1086.072774	0.129634
1086.235256	0.129761
1086.397720	0.130379
1086.560165	0.132179
1086.722592	0.132838
1086.885001	0.135143
1087.047392	0.137505
1087.209764	0.136295
1087.372119	0.134608
1087.534455	0.134423
1087.696772	0.136357
1087.859072	0.133661
1088.021353	0.131855
1088.183616	0.132919
1088.345861	0.127606
1088.508088	0.127859
1088.670296	0.129793
1088.832486	0.129945
1088.994658	0.130137
1089.156812	0.127960
1089.318948	0.130152
1089.481065	0.128546
1089.643164	0.126195
1089.805245	0.128390
1089.967308	0.129888
1090.129352	0.130409
1090.291378	0.128801
1090.453386	0.132633
1090.615376	0.130056
1090.777347	0.126601
1090.939301	0.129635
1091.101236	0.132536
1091.263153	0.134127
1091.425051	0.131851
1091.586932	0.130500
1091.748794	0.132178
1091.910638	0.128906
1092.072463	0.131691
1092.234271	0.131253
1092.396060	0.131532
1092.557831	0.132205
1092.719584	0.129258
1092.881319	0.129219
1093.043035	0.132203
1093.204733	0.134949
1093.366413	0.135136
1093.528075	0.136178
1093.689718	0.138839
1093.851343	0.136947
1094.012950	0.134001
1094.174539	0.134907
1094.336110	0.134321
1094.497662	0.134288
1094.659196	0.133212
1094.820712	0.132608
1094.982210	0.131653
1095.143689	0.131663
1095.305151	0.134268
1095.466594	0.136138
1095.628018	0.137672
1095.789425	0.135167
1095.950813	0.135004
1096.112183	0.134893
1096.273535	0.137366
1096.434869	0.139755
1096.596184	0.140767
1096.757482	0.138936
1096.918761	0.137453
1097.080021	0.136008
1097.241264	0.138560
1097.402488	0.139364
1097.563694	0.138637
1097.724882	0.137970
1097.886052	0.135489
1098.047203	0.133752
1098.208336	0.131793
1098.369451	0.131352
1098.530548	0.134943
1098.691627	0.137256
1098.852687	0.137917
1099.013729	0.138175
1099.174753	0.135579
1099.335758	0.135312
1099.496746	0.134724
1099.657715	0.138510
1099.818666	0.140242
1099.979599	0.137396
1100.140513	0.135981
1100.301409	0.135937
1100.462287	0.137582
1100.623147	0.143676
1100.783989	0.143418
1100.944812	0.145238
1101.105617	0.143922
1101.266404	0.141032
1101.427173	0.141022
1101.587923	0.142857
1101.748656	0.140289
1101.909370	0.139008
1102.070066	0.136652
1102.230743	0.139710
1102.391403	0.138773
1102.552044	0.140954
1102.712667	0.144784
1102.873271	0.143171
1103.033858	0.140031
1103.194426	0.138435
1103.354976	0.139377
1103.515508	0.140052
1103.676021	0.139671
1103.836517	0.139758
1103.996994	0.138121
1104.157453	0.137919
1104.317893	0.143866
1104.478316	0.148581
1104.638720	0.150843
1104.799106	0.150237
1104.959474	0.148649
1105.119823	0.146679
1105.280155	0.149031
1105.440468	0.148010
1105.600763	0.145333
1105.761039	0.139231
1105.921298	0.137225
1106.081538	0.135535
1106.241760	0.135665
1106.401964	0.135782
1106.562149	0.136494
1106.722316	0.132187
1106.882465	0.132248
1107.042596	0.135698
1107.202709	0.136864
1107.362803	0.137783
1107.522879	0.139267
1107.682937	0.136692
1107.842977	0.135856
1108.002999	0.135726
1108.163002	0.140211
1108.322987	0.139836
1108.482954	0.139042
1108.642902	0.140133
1108.802833	0.142047
1108.962745	0.139831
1109.122639	0.140686
1109.282515	0.141304
1109.442372	0.140719
1109.602211	0.136641
1109.762032	0.141100
1109.921835	0.138809
1110.081620	0.136218
1110.241386	0.133699
1110.401134	0.136804
1110.560864	0.139179
1110.720576	0.138840
1110.880269	0.140238
1111.039945	0.141308
1111.199602	0.137008
1111.359240	0.138362
1111.518861	0.139724
1111.678463	0.139304
1111.838047	0.135715
1111.997613	0.132684
1112.157161	0.134338
1112.316690	0.132745
1112.476202	0.133939
1112.635695	0.134260
1112.795169	0.132231
1112.954626	0.137396
1113.114064	0.136003
1113.273484	0.140266
1113.432886	0.144360
1113.592270	0.141271
1113.751635	0.141606
1113.910983	0.140572
1114.070312	0.141520
1114.229622	0.143470
1114.388915	0.139995
1114.548189	0.137609
1114.707445	0.136294
1114.866683	0.137132
1115.025903	0.137998
1115.185104	0.139391
1115.344287	0.143100
1115.503452	0.141856
1115.662599	0.138498
1115.821727	0.141584
1115.980838	0.145578
1116.139930	0.143764
1116.299004	0.145728
1116.458059	0.145584
1116.617097	0.147456
1116.776116	0.148709
1116.935117	0.147293
1117.094099	0.158051
1117.253064	0.154488
1117.412010	0.155281
1117.570938	0.158370
1117.729848	0.152088
1117.888740	0.154079
1118.047613	0.153411
1118.206468	0.154475
1118.365305	0.157054
1118.524124	0.153738
1118.682924	0.156669
1118.841707	0.154505
1119.000471	0.155048
1119.159216	0.155652
1119.317944	0.162181
1119.476653	0.162884
1119.635344	0.165067
1119.794017	0.165337
1119.952672	0.163451
1120.111308	0.160257
1120.269927	0.164730
1120.428527	0.160939
1120.587108	0.160498
1120.745672	0.154864
1120.904217	0.152094
1121.062744	0.149482
1121.221253	0.149395
1121.379744	0.146548
1121.538216	0.146119
1121.696671	0.143836
1121.855107	0.147807
1122.013524	0.149038
1122.171924	0.146191
1122.330305	0.145069
1122.488668	0.144541
1122.647013	0.145671
1122.805340	0.144560
1122.963648	0.144387
1123.121938	0.141449
1123.280210	0.140838
1123.438464	0.137553
1123.596700	0.139501
1123.754917	0.139933
1123.913116	0.135333
1124.071297	0.134837
1124.229459	0.133824
1124.387604	0.133042
1124.545730	0.135720
1124.703838	0.135413
1124.861928	0.137742
1125.019999	0.137912
1125.178052	0.142514
1125.336088	0.147606
1125.494104	0.148145
1125.652103	0.153629
1125.810083	0.156079
1125.968045	0.151920
1126.125989	0.148922
1126.283915	0.153202
1126.441823	0.155098
1126.599712	0.151639
1126.757583	0.148414
1126.915436	0.150491
1127.073270	0.148087
1127.231087	0.148306
1127.388885	0.149159
1127.546665	0.154641
1127.704426	0.149618
1127.862170	0.150437
1128.019895	0.153270
1128.177602	0.151766
1128.335291	0.148101
1128.492961	0.149472
1128.650614	0.149430
1128.808248	0.152335
1128.965864	0.151408
1129.123461	0.151335
1129.281041	0.151427
1129.438602	0.147222
1129.596145	0.153279
1129.753670	0.152248
1129.911176	0.150313
1130.068665	0.150024
1130.226135	0.150698
1130.383587	0.150875
1130.541020	0.159946
1130.698436	0.154583
1130.855833	0.151821
1131.013212	0.146635
1131.170573	0.147176
1131.327915	0.149948
1131.485239	0.153237
1131.642545	0.154835
1131.799833	0.154099
1131.957103	0.149234
1132.114354	0.147827
1132.271588	0.155100
1132.428803	0.153598
1132.585999	0.153362
1132.743178	0.153605
1132.900338	0.149083
1133.057480	0.146315
1133.214604	0.143653
1133.371710	0.144423
1133.528797	0.147093
1133.685866	0.142510
1133.842917	0.140934
1133.999950	0.139784
1134.156964	0.137216
1134.313960	0.137914
1134.470938	0.140092
1134.627898	0.141727
1134.784840	0.139427
1134.941763	0.141110
1135.098668	0.141940
1135.255555	0.144073
1135.412424	0.146545
1135.569274	0.147508
1135.726107	0.142519
1135.882921	0.140153
1136.039716	0.141002
1136.196494	0.143346
1136.353253	0.148564
1136.509995	0.150703
1136.666717	0.149870
1136.823422	0.144318
1136.980109	0.144667
1137.136777	0.149811
1137.293427	0.146869
1137.450059	0.147080
1137.606672	0.146021
1137.763267	0.142360
1137.919844	0.135314
1138.076403	0.136539
1138.232944	0.142050
1138.389466	0.144582
1138.545971	0.146237
1138.702457	0.147167
1138.858924	0.151678
1139.015374	0.151581
1139.171805	0.145009
1139.328218	0.151362
1139.484613	0.150844
1139.640990	0.149070
1139.797348	0.140020
1139.953688	0.137797
1140.110010	0.142422
1140.266314	0.138517
1140.422600	0.135876
1140.578867	0.140211
1140.735116	0.146960
1140.891347	0.145396
1141.047559	0.147767
1141.203754	0.154881
1141.359930	0.158935
1141.516088	0.153656
1141.672228	0.151631
1141.828349	0.149136
1141.984452	0.149526
1142.140537	0.143022
1142.296604	0.144886
1142.452653	0.148366
1142.608683	0.148996
1142.764695	0.142627
1142.920689	0.148021
1143.076665	0.148049
1143.232622	0.150663
1143.388562	0.150763
1143.544483	0.154625
1143.700385	0.150310
1143.856270	0.145143
1144.012136	0.142572
1144.167985	0.142896
1144.323814	0.138155
1144.479626	0.135721
1144.635420	0.132191
1144.791195	0.134137
1144.946952	0.129502
1145.102691	0.135183
1145.258411	0.134391
1145.414113	0.135715
1145.569798	0.133603
1145.725463	0.136121
1145.881111	0.140964
1146.036741	0.144040
1146.192352	0.142610
1146.347945	0.143337
1146.503519	0.145200
1146.659076	0.142699
1146.814614	0.137329
1146.970134	0.143121
1147.125636	0.137972
1147.281120	0.137483
1147.436585	0.134328
1147.592032	0.133725
1147.747461	0.127470
1147.902872	0.126503
1148.058265	0.131657
1148.213639	0.132760
1148.368995	0.121907
1148.524333	0.125673
1148.679653	0.128290
1148.834954	0.127887
1148.990237	0.125252
1149.145502	0.129530
1149.300749	0.130032
1149.455977	0.127198
1149.611188	0.138284
1149.766380	0.150948
1149.921553	0.146356
1150.076709	0.146859
1150.231846	0.150144
1150.386966	0.154085
1150.542066	0.152492
1150.697149	0.151801
1150.852214	0.152654
1151.007260	0.150254
1151.162288	0.146935
1151.317298	0.151917
1151.472289	0.149342
1151.627263	0.141609
1151.782218	0.139829
1151.937155	0.142909
1152.092073	0.142380
1152.246974	0.141787
1152.401856	0.133552
1152.556720	0.140763
1152.711566	0.144701
1152.866393	0.146435
1153.021203	0.159630
1153.175994	0.161059
1153.330767	0.163568
1153.485521	0.157035
1153.640258	0.157340
1153.794976	0.166009
1153.949676	0.159010
1154.104358	0.151415
1154.259021	0.147720
1154.413667	0.142572
1154.568294	0.142378
1154.722903	0.148715
1154.877493	0.156059
1155.032066	0.156371
1155.186620	0.147598
1155.341156	0.148016
1155.495674	0.153760
1155.650173	0.161355
1155.804654	0.167440
1155.959118	0.160178
1156.113562	0.154040
1156.267989	0.166533
1156.422397	0.163603
1156.576788	0.173918
1156.731160	0.179024
1156.885513	0.180366
1157.039849	0.169739
1157.194166	0.162385
1157.348465	0.162497
1157.502746	0.154889
1157.657009	0.135990
1157.811253	0.147960
1157.965479	0.131904
1158.119687	0.128468
1158.273877	0.124302
1158.428048	0.123879
1158.582201	0.128234
1158.736337	0.136199
1158.890453	0.140066
1159.044552	0.156425
1159.198632	0.148224
1159.352694	0.158703
1159.506738	0.156115
1159.660764	0.153740
1159.814771	0.148597
1159.968761	0.143317
1160.122732	0.137870
1160.276685	0.140715
1160.430619	0.135487
1160.584535	0.141221
1160.738434	0.137656
1160.892313	0.143671
1161.046175	0.143850
1161.200019	0.152823
1161.353844	0.155145
1161.507651	0.163977
1161.661440	0.158099
1161.815210	0.151707
1161.968962	0.151991
1162.122697	0.156225
1162.276412	0.153673
1162.430110	0.153326
1162.583789	0.156333
1162.737451	0.151350
1162.891094	0.147887
1163.044718	0.142622
1163.198325	0.147560
1163.351913	0.152177
1163.505483	0.166392
1163.659035	0.172222
1163.812569	0.173969
1163.966084	0.158813
1164.119581	0.170806
1164.273060	0.164111
1164.426521	0.178754
1164.579964	0.186430
1164.733388	0.171714
1164.886794	0.158991
1165.040182	0.156796
1165.193551	0.161713
1165.346903	0.166428
1165.500236	0.138349
1165.653551	0.149161
1165.806848	0.142968
1165.960126	0.130000
1166.113386	0.131568
1166.266628	0.135532
1166.419852	0.124684
1166.573058	0.128342
1166.726245	0.129355
1166.879414	0.150244
1167.032565	0.145019
1167.185698	0.137861
1167.338812	0.145548
1167.491909	0.137228
1167.644987	0.133267
1167.798046	0.127406
1167.951088	0.118392
1168.104111	0.130006
1168.257117	0.138089
1168.410103	0.122928
1168.563072	0.120392
1168.716023	0.105767
1168.868955	0.118590
1169.021869	0.115968
1169.174765	0.125124
1169.327642	0.123834
1169.480501	0.120282
1169.633343	0.115108
1169.786165	0.122262
1169.938970	0.135523
1170.091757	0.142868
1170.244525	0.146144
1170.397275	0.142493
1170.550007	0.138728
1170.702720	0.142786
1170.855415	0.143113
1171.008092	0.131377
1171.160751	0.131362
1171.313392	0.121333
1171.466014	0.175972
1171.618619	0.078748
1171.771205	0.078748
1171.923772	0.078748
