sample name	sample
index	1211
start time	 04-26-2021  01:17:04 PM


Wavelength (nm)	Absorbance
494.344910	NaN
494.563924	NaN
494.782919	NaN
495.001897	-0.522368
495.220856	NaN
495.439797	NaN
495.658719	0.114203
495.877624	-0.197472
496.096510	-0.024301
496.315378	0.428702
496.534227	0.086960
496.753059	0.040161
496.971872	0.344353
497.190667	0.187302
497.409444	0.189142
497.628203	0.192605
497.846943	0.187170
498.065665	0.184199
498.284369	0.181152
498.503055	0.183279
498.721723	0.181695
498.940372	0.181275
499.159003	0.181530
499.377616	0.180358
499.596210	0.178348
499.814787	0.181252
500.033345	0.182542
500.251885	0.182785
500.470406	0.183212
500.688910	0.185073
500.907395	0.184623
501.125862	0.184913
501.344311	0.184946
501.562742	0.187356
501.781154	0.185432
501.999548	0.185525
502.217924	0.186925
502.436282	0.185333
502.654621	0.184281
502.872942	0.185418
503.091245	0.186161
503.309530	0.187442
503.527797	0.185691
503.746045	0.185711
503.964275	0.185312
504.182487	0.183806
504.400681	0.184094
504.618856	0.183975
504.837013	0.183383
505.055152	0.183055
505.273273	0.183132
505.491376	0.183647
505.709460	0.183184
505.927526	0.183727
506.145574	0.184481
506.363604	0.185756
506.581615	0.186277
506.799608	0.186635
507.017583	0.186862
507.235540	0.186725
507.453478	0.187088
507.671399	0.188190
507.889301	0.188235
508.107185	0.187188
508.325050	0.186927
508.542898	0.186382
508.760727	0.187162
508.978538	0.188011
509.196330	0.187824
509.414105	0.187323
509.631861	0.186755
509.849599	0.187296
510.067319	0.187883
510.285021	0.187409
510.502704	0.188864
510.720369	0.188571
510.938016	0.187689
511.155645	0.188303
511.373255	0.189437
511.590848	0.189748
511.808422	0.188642
512.025977	0.189902
512.243515	0.189658
512.461034	0.188912
512.678536	0.188853
512.896018	0.189054
513.113483	0.189002
513.330930	0.188993
513.548358	0.188944
513.765768	0.189770
513.983160	0.189809
514.200533	0.190838
514.417889	0.191526
514.635226	0.191462
514.852545	0.191221
515.069845	0.191352
515.287128	0.192137
515.504392	0.193988
515.721638	0.194345
515.938866	0.193665
516.156075	0.193219
516.373267	0.192185
516.590440	0.193197
516.807594	0.194707
517.024731	0.194824
517.241850	0.194594
517.458950	0.194256
517.676032	0.194024
517.893095	0.194936
518.110141	0.195678
518.327168	0.197581
518.544177	0.197841
518.761168	0.197758
518.978141	0.198859
519.195095	0.198436
519.412031	0.197660
519.628949	0.198813
519.845849	0.198938
520.062731	0.200025
520.279594	0.199644
520.496439	0.199443
520.713266	0.198842
520.930074	0.198722
521.146865	0.199432
521.363637	0.199988
521.580391	0.199409
521.797127	0.199994
522.013844	0.199351
522.230543	0.199851
522.447224	0.199300
522.663887	0.200508
522.880532	0.201160
523.097158	0.201859
523.313766	0.202230
523.530356	0.202806
523.746928	0.201894
523.963481	0.202124
524.180017	0.201959
524.396534	0.203145
524.613032	0.202507
524.829513	0.202324
525.045975	0.202291
525.262420	0.202824
525.478845	0.202341
525.695253	0.204366
525.911643	0.205146
526.128014	0.205582
526.344367	0.205400
526.560702	0.205929
526.777018	0.206118
526.993316	0.206632
527.209597	0.206952
527.425858	0.207736
527.642102	0.207718
527.858328	0.208118
528.074535	0.207855
528.290724	0.209054
528.506894	0.209728
528.723047	0.210465
528.939181	0.210286
529.155297	0.210929
529.371395	0.211909
529.587475	0.211266
529.803536	0.210479
530.019579	0.211107
530.235604	0.211231
530.451611	0.210922
530.667600	0.211438
530.883570	0.211713
531.099522	0.211430
531.315456	0.211537
531.531372	0.212299
531.747269	0.213711
531.963148	0.214375
532.179009	0.214047
532.394852	0.214773
532.610676	0.214594
532.826482	0.214856
533.042271	0.215194
533.258040	0.215297
533.473792	0.215442
533.689525	0.215511
533.905240	0.216210
534.120937	0.216918
534.336616	0.217333
534.552277	0.217902
534.767919	0.217889
534.983543	0.218317
535.199149	0.218507
535.414736	0.218932
535.630306	0.218960
535.845857	0.218810
536.061390	0.219897
536.276904	0.220043
536.492401	0.220350
536.707879	0.220545
536.923339	0.220627
537.138781	0.221339
537.354204	0.221635
537.569610	0.222528
537.784997	0.222748
538.000366	0.222030
538.215716	0.222224
538.431049	0.222703
538.646363	0.223164
538.861659	0.223700
539.076937	0.224216
539.292196	0.224440
539.507438	0.224581
539.722661	0.225185
539.937866	0.225845
540.153052	0.225865
540.368221	0.225903
540.583371	0.226605
540.798503	0.227102
541.013617	0.227101
541.228712	0.227687
541.443789	0.227674
541.658848	0.228071
541.873889	0.228891
542.088912	0.229926
542.303916	0.230059
542.518902	0.230182
542.733870	0.230397
542.948820	0.230778
543.163752	0.230845
543.378665	0.231283
543.593560	0.232053
543.808437	0.231982
544.023295	0.232058
544.238136	0.232000
544.452958	0.232806
544.667762	0.232908
544.882548	0.233456
545.097315	0.233585
545.312064	0.234236
545.526795	0.234111
545.741508	0.234352
545.956203	0.234795
546.170879	0.235318
546.385537	0.235443
546.600177	0.235829
546.814799	0.236030
547.029402	0.236874
547.243988	0.236983
547.458555	0.237284
547.673103	0.237602
547.887634	0.237707
548.102146	0.237847
548.316640	0.238004
548.531116	0.238370
548.745574	0.237836
548.960013	0.237583
549.174435	0.237803
549.388838	0.238142
549.603222	0.238377
549.817589	0.238831
550.031937	0.239967
550.246267	0.240603
550.460579	0.240835
550.674873	0.241514
550.889148	0.242231
551.103405	0.242186
551.317644	0.241843
551.531865	0.242286
551.746068	0.242589
551.960252	0.242071
552.174418	0.241908
552.388566	0.241596
552.602696	0.241793
552.816807	0.241821
553.030900	0.241621
553.244975	0.242423
553.459032	0.242056
553.673070	0.241814
553.887091	0.242255
554.101093	0.242342
554.315077	0.242586
554.529042	0.243442
554.742990	0.243579
554.956919	0.244288
555.170830	0.243992
555.384722	0.244480
555.598597	0.244503
555.812453	0.244461
556.026291	0.244793
556.240111	0.245538
556.453913	0.245377
556.667696	0.245477
556.881461	0.245285
557.095208	0.245759
557.308937	0.245927
557.522647	0.246167
557.736339	0.246325
557.950013	0.246931
558.163669	0.246948
558.377307	0.247145
558.590926	0.247432
558.804527	0.247975
559.018110	0.247903
559.231675	0.248545
559.445221	0.248617
559.658749	0.248929
559.872259	0.248366
560.085751	0.248516
560.299225	0.248598
560.512680	0.248880
560.726117	0.249501
560.939536	0.249622
561.152937	0.249345
561.366319	0.250084
561.579683	0.250332
561.793029	0.250965
562.006357	0.251246
562.219667	0.251346
562.432958	0.251495
562.646231	0.251494
562.859486	0.251171
563.072723	0.251149
563.285941	0.250914
563.499141	0.250754
563.712323	0.250735
563.925487	0.250172
564.138632	0.250191
564.351760	0.250576
564.564869	0.250152
564.777960	0.250585
564.991032	0.250719
565.204087	0.251001
565.417123	0.251219
565.630141	0.250956
565.843140	0.251566
566.056122	0.251770
566.269085	0.251721
566.482030	0.252083
566.694957	0.252250
566.907866	0.252224
567.120756	0.252482
567.333628	0.252384
567.546482	0.252788
567.759318	0.252623
567.972135	0.252706
568.184935	0.252684
568.397716	0.253035
568.610478	0.252977
568.823223	0.253120
569.035949	0.253188
569.248657	0.253817
569.461347	0.253799
569.674019	0.253624
569.886672	0.253798
570.099308	0.253990
570.311925	0.254044
570.524523	0.254619
570.737104	0.254931
570.949666	0.255152
571.162210	0.255200
571.374736	0.255984
571.587244	0.256930
571.799733	0.257177
572.012205	0.257463
572.224658	0.257790
572.437092	0.257963
572.649509	0.258132
572.861907	0.258155
573.074287	0.258509
573.286649	0.258208
573.498993	0.258589
573.711318	0.259157
573.923625	0.258989
574.135914	0.259395
574.348185	0.259447
574.560438	0.260198
574.772672	0.260047
574.984888	0.259713
575.197086	0.259998
575.409266	0.260015
575.621427	0.259672
575.833570	0.260392
576.045695	0.260208
576.257802	0.260589
576.469890	0.260431
576.681961	0.261224
576.894013	0.261601
577.106046	0.261952
577.318062	0.262082
577.530059	0.262272
577.742039	0.262142
577.954000	0.262678
578.165942	0.263084
578.377867	0.263071
578.589773	0.262975
578.801661	0.263710
579.013531	0.264022
579.225382	0.264560
579.437216	0.264613
579.649031	0.264812
579.860828	0.264912
580.072606	0.264671
580.284367	0.265015
580.496109	0.265250
580.707833	0.265374
580.919539	0.265216
581.131227	0.264736
581.342896	0.265091
581.554547	0.264999
581.766180	0.264862
581.977795	0.265294
582.189391	0.265634
582.400969	0.265597
582.612529	0.265412
582.824071	0.265918
583.035595	0.266469
583.247100	0.266506
583.458587	0.267002
583.670056	0.267741
583.881506	0.268020
584.092939	0.268179
584.304353	0.268735
584.515749	0.269068
584.727127	0.268783
584.938486	0.268790
585.149828	0.269181
585.361151	0.269493
585.572456	0.269075
585.783742	0.268992
585.995011	0.269235
586.206261	0.269286
586.417493	0.269176
586.628706	0.269829
586.839902	0.270013
587.051079	0.270278
587.262238	0.270435
587.473379	0.270368
587.684502	0.270493
587.895606	0.270436
588.106692	0.270897
588.317760	0.271277
588.528810	0.271563
588.739841	0.272016
588.950855	0.272074
589.161850	0.272121
589.372827	0.272422
589.583785	0.273014
589.794726	0.273385
590.005648	0.273295
590.216552	0.273983
590.427437	0.274413
590.638305	0.274904
590.849154	0.275253
591.059985	0.275732
591.270798	0.276400
591.481592	0.276270
591.692369	0.276217
591.903127	0.276484
592.113867	0.276587
592.324588	0.276339
592.535292	0.276402
592.745977	0.276745
592.956644	0.276879
593.167293	0.276967
593.377923	0.277355
593.588536	0.277424
593.799130	0.277805
594.009706	0.277923
594.220263	0.278168
594.430803	0.278498
594.641324	0.278490
594.851827	0.278620
595.062312	0.278748
595.272778	0.279065
595.483227	0.279355
595.693657	0.279629
595.904069	0.279825
596.114462	0.279972
596.324838	0.279824
596.535195	0.279781
596.745534	0.280017
596.955855	0.280280
597.166157	0.280265
597.376441	0.280638
597.586707	0.280766
597.796955	0.280764
598.007185	0.281237
598.217396	0.281593
598.427589	0.282144
598.637764	0.282635
598.847921	0.282639
599.058060	0.282564
599.268180	0.282581
599.478282	0.282549
599.688366	0.282772
599.898431	0.282515
600.108479	0.282496
600.318508	0.282358
600.528519	0.282018
600.738511	0.282441
600.948486	0.282850
601.158442	0.282834
601.368380	0.283153
601.578300	0.283643
601.788202	0.283885
601.998085	0.284099
602.207950	0.284437
602.417797	0.284800
602.627626	0.284760
602.837436	0.285247
603.047228	0.285655
603.257002	0.286022
603.466758	0.285561
603.676496	0.286122
603.886215	0.286956
604.095916	0.287470
604.305599	0.287598
604.515264	0.287807
604.724910	0.287843
604.934538	0.288538
605.144148	0.288267
605.353740	0.288847
605.563314	0.288862
605.772869	0.288622
605.982406	0.288854
606.191925	0.289153
606.401425	0.289487
606.610908	0.289539
606.820372	0.289225
607.029818	0.289774
607.239246	0.290031
607.448655	0.290400
607.658047	0.290271
607.867420	0.290250
608.076775	0.290532
608.286111	0.290743
608.495430	0.291088
608.704730	0.291188
608.914012	0.291288
609.123275	0.291602
609.332521	0.291591
609.541748	0.291999
609.750957	0.291754
609.960148	0.291713
610.169321	0.291903
610.378475	0.292176
610.587611	0.292459
610.796729	0.292972
611.005829	0.293513
611.214910	0.293687
611.423974	0.293874
611.633019	0.294453
611.842045	0.294523
612.051054	0.294798
612.260044	0.294711
612.469017	0.295534
612.677970	0.295496
612.886906	0.295439
613.095824	0.295729
613.304723	0.296031
613.513604	0.296113
613.722467	0.296672
613.931311	0.296839
614.140138	0.297355
614.348946	0.297161
614.557736	0.297451
614.766507	0.297424
614.975261	0.297566
615.183996	0.297732
615.392713	0.298114
615.601412	0.298174
615.810092	0.298693
616.018754	0.299021
616.227399	0.299282
616.436024	0.299489
616.644632	0.299339
616.853222	0.299368
617.061793	0.299276
617.270346	0.299672
617.478880	0.299991
617.687397	0.299879
617.895895	0.299577
618.104375	0.299744
618.312837	0.299961
618.521281	0.300452
618.729706	0.300944
618.938113	0.301453
619.146502	0.301254
619.354873	0.301339
619.563226	0.301641
619.771560	0.302130
619.979876	0.302535
620.188174	0.302934
620.396453	0.303106
620.604715	0.303177
620.812958	0.303546
621.021183	0.304025
621.229390	0.304696
621.437578	0.304701
621.645748	0.305072
621.853900	0.305227
622.062034	0.304930
622.270150	0.305623
622.478247	0.305848
622.686326	0.305939
622.894387	0.305993
623.102430	0.305485
623.310454	0.305607
623.518461	0.305230
623.726449	0.305170
623.934418	0.305493
624.142370	0.305092
624.350303	0.305088
624.558218	0.304959
624.766115	0.304922
624.973994	0.304923
625.181855	0.305122
625.389697	0.305377
625.597521	0.305313
625.805327	0.305218
626.013114	0.305457
626.220883	0.305531
626.428634	0.305644
626.636367	0.305579
626.844082	0.306020
627.051778	0.305836
627.259457	0.305986
627.467117	0.306360
627.674758	0.306519
627.882382	0.306745
628.089987	0.307301
628.297574	0.307303
628.505143	0.307869
628.712694	0.307989
628.920226	0.308254
629.127740	0.308447
629.335236	0.308455
629.542714	0.308570
629.750174	0.308531
629.957615	0.308255
630.165038	0.308822
630.372443	0.309009
630.579829	0.309457
630.787198	0.309469
630.994548	0.309618
631.201880	0.309811
631.409194	0.309783
631.616489	0.309787
631.823766	0.309877
632.031025	0.309778
632.238266	0.310039
632.445489	0.310071
632.652693	0.310308
632.859879	0.310609
633.067047	0.310949
633.274197	0.311461
633.481329	0.311863
633.688442	0.312112
633.895537	0.312468
634.102614	0.312507
634.309672	0.312566
634.516713	0.313022
634.723735	0.313372
634.930739	0.313604
635.137724	0.313997
635.344692	0.314144
635.551641	0.314670
635.758572	0.314943
635.965485	0.314951
636.172379	0.315334
636.379256	0.315657
636.586114	0.315781
636.792954	0.315654
636.999775	0.315742
637.206579	0.315913
637.413364	0.315752
637.620131	0.315615
637.826880	0.315968
638.033610	0.315935
638.240323	0.316132
638.447017	0.316205
638.653692	0.316240
638.860350	0.316322
639.066990	0.316559
639.273611	0.317111
639.480214	0.317333
639.686798	0.317488
639.893365	0.317585
640.099913	0.317670
640.306443	0.317566
640.512955	0.318279
640.719449	0.318196
640.925924	0.318211
641.132381	0.317876
641.338820	0.318174
641.545241	0.318189
641.751644	0.318502
641.958028	0.318614
642.164394	0.318951
642.370742	0.318824
642.577071	0.319157
642.783383	0.319379
642.989676	0.319843
643.195951	0.320112
643.402207	0.320447
643.608446	0.320970
643.814666	0.321362
644.020868	0.321655
644.227052	0.322161
644.433218	0.322608
644.639365	0.322940
644.845494	0.323568
645.051605	0.323587
645.257698	0.323940
645.463772	0.323736
645.669828	0.323665
645.875866	0.323803
646.081886	0.323869
646.287888	0.324259
646.493871	0.324637
646.699836	0.324553
646.905783	0.324834
647.111712	0.324938
647.317622	0.325491
647.523514	0.325723
647.729388	0.326245
647.935244	0.326244
648.141082	0.326156
648.346901	0.326221
648.552702	0.326454
648.758485	0.326660
648.964250	0.327096
649.169996	0.327144
649.375724	0.327395
649.581434	0.327375
649.787126	0.327739
649.992800	0.327971
650.198455	0.328280
650.404092	0.328193
650.609711	0.328443
650.815311	0.328619
651.020894	0.328912
651.226458	0.329485
651.432004	0.329781
651.637532	0.329688
651.843041	0.329805
652.048532	0.329885
652.254006	0.330107
652.459460	0.330399
652.664897	0.330491
652.870315	0.330634
653.075716	0.330480
653.281097	0.330666
653.486461	0.331070
653.691807	0.331567
653.897134	0.331774
654.102443	0.332110
654.307734	0.332089
654.513006	0.332269
654.718261	0.332447
654.923497	0.333031
655.128715	0.332977
655.333915	0.333341
655.539096	0.333226
655.744259	0.333352
655.949404	0.333760
656.154531	0.334441
656.359640	0.334591
656.564730	0.334815
656.769802	0.334531
656.974856	0.334951
657.179892	0.335017
657.384909	0.335141
657.589908	0.335489
657.794889	0.335517
657.999852	0.335540
658.204797	0.335688
658.409723	0.335554
658.614631	0.335988
658.819521	0.336307
659.024393	0.336728
659.229246	0.337027
659.434081	0.337261
659.638898	0.337515
659.843697	0.337723
660.048478	0.338043
660.253240	0.338707
660.457984	0.338963
660.662710	0.339078
660.867417	0.339405
661.072107	0.339815
661.276778	0.340222
661.481431	0.340352
661.686066	0.340588
661.890682	0.340663
662.095281	0.340672
662.299861	0.340847
662.504422	0.340917
662.708966	0.340895
662.913491	0.341348
663.117999	0.341082
663.322488	0.341299
663.526958	0.341238
663.731411	0.341778
663.935845	0.341978
664.140261	0.342289
664.344659	0.342560
664.549038	0.342719
664.753400	0.342468
664.957743	0.342980
665.162068	0.343263
665.366375	0.343387
665.570663	0.343460
665.774933	0.343718
665.979185	0.343886
666.183419	0.344274
666.387635	0.344486
666.591832	0.344776
666.796011	0.344980
667.000172	0.345181
667.204315	0.345611
667.408439	0.345744
667.612545	0.345673
667.816634	0.346013
668.020703	0.346304
668.224755	0.346588
668.428788	0.347132
668.632803	0.347209
668.836800	0.347455
669.040779	0.347935
669.244739	0.348238
669.448681	0.348772
669.652605	0.349165
669.856511	0.349260
670.060399	0.349481
670.264268	0.349568
670.468119	0.349885
670.671952	0.350134
670.875767	0.350201
671.079563	0.350496
671.283341	0.350800
671.487101	0.350773
671.690843	0.351243
671.894567	0.351510
672.098272	0.351687
672.301959	0.352027
672.505628	0.352018
672.709278	0.352300
672.912911	0.352511
673.116525	0.352552
673.320121	0.352654
673.523699	0.352692
673.727258	0.352976
673.930799	0.353359
674.134322	0.353569
674.337827	0.354152
674.541314	0.354471
674.744782	0.354547
674.948232	0.355093
675.151664	0.355492
675.355078	0.355570
675.558474	0.356032
675.761851	0.356547
675.965210	0.356909
676.168551	0.357293
676.371873	0.357388
676.575178	0.357873
676.778464	0.358109
676.981732	0.358338
677.184981	0.358882
677.388213	0.359004
677.591426	0.358862
677.794621	0.359234
677.997798	0.359305
678.200956	0.359564
678.404097	0.359866
678.607219	0.359929
678.810323	0.360195
679.013408	0.360740
679.216476	0.360864
679.419525	0.361282
679.622556	0.361271
679.825569	0.361599
680.028563	0.361893
680.231540	0.361971
680.434498	0.362150
680.637438	0.362292
680.840359	0.362397
681.043263	0.362820
681.246148	0.362854
681.449015	0.362907
681.651864	0.363069
681.854694	0.363074
682.057506	0.363432
682.260301	0.363665
682.463076	0.364074
682.665834	0.363747
682.868573	0.364052
683.071295	0.364113
683.273998	0.364502
683.476682	0.364648
683.679349	0.364962
683.881997	0.365131
684.084627	0.365340
684.287239	0.365192
684.489833	0.365544
684.692408	0.365416
684.894965	0.365939
685.097504	0.366124
685.300025	0.366282
685.502527	0.366422
685.705012	0.366465
685.907478	0.366668
686.109925	0.366970
686.312355	0.367338
686.514766	0.367684
686.717159	0.367821
686.919534	0.368054
687.121891	0.368221
687.324230	0.368349
687.526550	0.368635
687.728852	0.369041
687.931136	0.369261
688.133401	0.369588
688.335649	0.369711
688.537878	0.369789
688.740089	0.370061
688.942281	0.370242
689.144456	0.370672
689.346612	0.370845
689.548750	0.370848
689.750870	0.371243
689.952971	0.371182
690.155055	0.371441
690.357120	0.371629
690.559167	0.371740
690.761195	0.372308
690.963206	0.372409
691.165198	0.372350
691.367172	0.372959
691.569128	0.372952
691.771065	0.373383
691.972984	0.373652
692.174885	0.374062
692.376768	0.374186
692.578633	0.374091
692.780479	0.374552
692.982308	0.374895
693.184118	0.374760
693.385909	0.375108
693.587683	0.375077
693.789438	0.375021
693.991175	0.375008
694.192894	0.375148
694.394595	0.375304
694.596277	0.375546
694.797941	0.375729
694.999587	0.375991
695.201215	0.376072
695.402824	0.376319
695.604416	0.376517
695.805989	0.376757
696.007543	0.377027
696.209080	0.377304
696.410598	0.377379
696.612099	0.377799
696.813580	0.377727
697.015044	0.377821
697.216490	0.377980
697.417917	0.378472
697.619326	0.378897
697.820717	0.378874
698.022089	0.378970
698.223444	0.378904
698.424780	0.378861
698.626098	0.378949
698.827397	0.379339
699.028679	0.379309
699.229942	0.378981
699.431187	0.378684
699.632414	0.378924
699.833622	0.378975
700.034813	0.379118
700.235985	0.379280
700.437139	0.379548
700.638274	0.379679
700.839392	0.380029
701.040491	0.380839
701.241572	0.381278
701.442635	0.381433
701.643679	0.381512
701.844706	0.381874
702.045714	0.382027
702.246704	0.382582
702.447675	0.382602
702.648629	0.382603
702.849564	0.382125
703.050481	0.381816
703.251380	0.381875
703.452260	0.382126
703.653122	0.381798
703.853966	0.381684
704.054792	0.381452
704.255600	0.381241
704.456389	0.381381
704.657160	0.381559
704.857913	0.381706
705.058648	0.381729
705.259365	0.381796
705.460063	0.381721
705.660743	0.381806
705.861405	0.381761
706.062048	0.382005
706.262674	0.381911
706.463281	0.382017
706.663870	0.382163
706.864441	0.382204
707.064993	0.382363
707.265527	0.382816
707.466043	0.383086
707.666541	0.383171
707.867021	0.383390
708.067482	0.383520
708.267925	0.383544
708.468350	0.383823
708.668757	0.384011
708.869145	0.384237
709.069516	0.384178
709.269868	0.384270
709.470201	0.384527
709.670517	0.384358
709.870814	0.384573
710.071093	0.384554
710.271354	0.384351
710.471597	0.384435
710.671821	0.384271
710.872028	0.384336
711.072216	0.384548
711.272385	0.384410
711.472537	0.384419
711.672670	0.384265
711.872785	0.384546
712.072882	0.384773
712.272961	0.384663
712.473021	0.384500
712.673063	0.384343
712.873087	0.383992
713.073093	0.383996
713.273081	0.383878
713.473050	0.383926
713.673001	0.383693
713.872934	0.383523
714.072849	0.383662
714.272745	0.383629
714.472623	0.383726
714.672483	0.383734
714.872325	0.383811
715.072148	0.383903
715.271954	0.383939
715.471741	0.383878
715.671509	0.383754
715.871260	0.383644
716.070992	0.383574
716.270707	0.383206
716.470403	0.383156
716.670080	0.382954
716.869740	0.382910
717.069381	0.382954
717.269004	0.383123
717.468609	0.383101
717.668195	0.382969
717.867764	0.383416
718.067314	0.383690
718.266846	0.383689
718.466360	0.383513
718.665855	0.383683
718.865332	0.383689
719.064791	0.383217
719.264232	0.383392
719.463655	0.383552
719.663059	0.382992
719.862445	0.382951
720.061813	0.383151
720.261163	0.383142
720.460494	0.383035
720.659807	0.382754
720.859102	0.383082
721.058379	0.382926
721.257638	0.382617
721.456878	0.382546
721.656100	0.382360
721.855304	0.381884
722.054490	0.381648
722.253657	0.381460
722.452806	0.381171
722.651937	0.381226
722.851050	0.381175
723.050145	0.381224
723.249221	0.381092
723.448279	0.381280
723.647319	0.381254
723.846340	0.381443
724.045344	0.381337
724.244329	0.381478
724.443296	0.381236
724.642245	0.381122
724.841175	0.381104
725.040088	0.381115
725.238982	0.380910
725.437857	0.380804
725.636715	0.380586
725.835554	0.380350
726.034376	0.380223
726.233179	0.379780
726.431963	0.379683
726.630730	0.379460
726.829478	0.379295
727.028208	0.379133
727.226920	0.379038
727.425614	0.379033
727.624289	0.379055
727.822946	0.379110
728.021585	0.379134
728.220206	0.379085
728.418808	0.378779
728.617392	0.378811
728.815958	0.378869
729.014506	0.378921
729.213036	0.378875
729.411547	0.378746
729.610040	0.378567
729.808515	0.378559
730.006972	0.378386
730.205410	0.378349
730.403831	0.378307
730.602233	0.378248
730.800616	0.377657
730.998982	0.377550
731.197329	0.377390
731.395658	0.377199
731.593969	0.377081
731.792262	0.376854
731.990536	0.376857
732.188793	0.376686
732.387031	0.376196
732.585250	0.376677
732.783452	0.376490
732.981635	0.376422
733.179800	0.376198
733.377947	0.376249
733.576076	0.375994
733.774186	0.376044
733.972278	0.375829
734.170352	0.375909
734.368408	0.375522
734.566446	0.375273
734.764465	0.375157
734.962466	0.375378
735.160449	0.375354
735.358413	0.375339
735.556360	0.375319
735.754288	0.375220
735.952198	0.374974
736.150090	0.374920
736.347963	0.375142
736.545818	0.375168
736.743655	0.374776
736.941474	0.374325
737.139275	0.374392
737.337057	0.374080
737.534821	0.373963
737.732567	0.373847
737.930295	0.373450
738.128005	0.373161
738.325696	0.372620
738.523369	0.372432
738.721024	0.372306
738.918660	0.371751
739.116279	0.371453
739.313879	0.371409
739.511461	0.371138
739.709024	0.371053
739.906570	0.370803
740.104097	0.370859
740.301606	0.370775
740.499097	0.370213
740.696569	0.370281
740.894024	0.370287
741.091460	0.370013
741.288878	0.370051
741.486277	0.369878
741.683659	0.369879
741.881022	0.369830
742.078367	0.369467
742.275694	0.369745
742.473002	0.369746
742.670293	0.369510
742.867565	0.369326
743.064819	0.369143
743.262054	0.369261
743.459272	0.369103
743.656471	0.368803
743.853652	0.368588
744.050815	0.368376
744.247959	0.368134
744.445085	0.368073
744.642194	0.367984
744.839283	0.367593
745.036355	0.367214
745.233408	0.366771
745.430444	0.366489
745.627461	0.366716
745.824459	0.366360
746.021440	0.366374
746.218402	0.365950
746.415346	0.365831
746.612272	0.366155
746.809180	0.366234
747.006069	0.366340
747.202940	0.366325
747.399793	0.365918
747.596628	0.365850
747.793444	0.365510
747.990243	0.365543
748.187023	0.365358
748.383784	0.364827
748.580528	0.364174
748.777253	0.363801
748.973960	0.363271
749.170649	0.363139
749.367320	0.362820
749.563973	0.362330
749.760607	0.361694
749.957223	0.361269
750.153821	0.361332
750.350400	0.361281
750.546962	0.360769
750.743505	0.360428
750.940030	0.360344
751.136536	0.360081
751.333025	0.359839
751.529495	0.359865
751.725947	0.359741
751.922381	0.359128
752.118796	0.359056
752.315194	0.359137
752.511573	0.359491
752.707934	0.359154
752.904276	0.358901
753.100601	0.358920
753.296907	0.358505
753.493195	0.358200
753.689465	0.358092
753.885716	0.357962
754.081949	0.357745
754.278164	0.357378
754.474361	0.357173
754.670540	0.357168
754.866700	0.356958
755.062843	0.357061
755.258967	0.356854
755.455072	0.356949
755.651160	0.356530
755.847229	0.356274
756.043280	0.356234
756.239313	0.355973
756.435328	0.356017
756.631324	0.355613
756.827302	0.355228
757.023262	0.354938
757.219204	0.354299
757.415127	0.354551
757.611033	0.354498
757.806920	0.354122
758.002788	0.353953
758.198639	0.353618
758.394471	0.353691
758.590286	0.353624
758.786081	0.353552
758.981859	0.353705
759.177619	0.352998
759.373360	0.352926
759.569083	0.352769
759.764788	0.352380
759.960474	0.352188
760.156143	0.351972
760.351793	0.352115
760.547425	0.352132
760.743038	0.351842
760.938634	0.352145
761.134211	0.351881
761.329770	0.352038
761.525311	0.352441
761.720833	0.352587
761.916338	0.352348
762.111824	0.351969
762.307292	0.351960
762.502741	0.352145
762.698173	0.351945
762.893586	0.351803
763.088981	0.351889
763.284358	0.351826
763.479716	0.351533
763.675057	0.352005
763.870379	0.351924
764.065683	0.351872
764.260968	0.351665
764.456236	0.351615
764.651485	0.351669
764.846716	0.351282
765.041929	0.350963
765.237123	0.350834
765.432299	0.350448
765.627457	0.350313
765.822597	0.350350
766.017719	0.350248
766.212822	0.350165
766.407907	0.349950
766.602974	0.349504
766.798023	0.349343
766.993054	0.349286
767.188066	0.348972
767.383060	0.348891
767.578036	0.348241
767.772993	0.347795
767.967933	0.347371
768.162854	0.346982
768.357757	0.346962
768.552642	0.346708
768.747508	0.346620
768.942356	0.346421
769.137186	0.346438
769.331998	0.346509
769.526792	0.346712
769.721567	0.346835
769.916324	0.346764
770.111063	0.346971
770.305784	0.347036
770.500486	0.346813
770.695171	0.346813
770.889837	0.346384
771.084484	0.346560
771.279114	0.346306
771.473725	0.345951
771.668318	0.345961
771.862893	0.346138
772.057450	0.346097
772.251988	0.346094
772.446509	0.346028
772.641011	0.345983
772.835494	0.345826
773.029960	0.345530
773.224407	0.345634
773.418836	0.345800
773.613247	0.345485
773.807640	0.345414
774.002014	0.345111
774.196370	0.345356
774.390708	0.345505
774.585028	0.345385
774.779330	0.345595
774.973613	0.345508
775.167878	0.345198
775.362125	0.345145
775.556354	0.344908
775.750564	0.344949
775.944756	0.344445
776.138930	0.344328
776.333086	0.344320
776.527223	0.344319
776.721343	0.344504
776.915444	0.344363
777.109526	0.344198
777.303591	0.344234
777.497637	0.344554
777.691666	0.344737
777.885676	0.344819
778.079667	0.344682
778.273641	0.344675
778.467596	0.344518
778.661533	0.344685
778.855452	0.344746
779.049352	0.344717
779.243235	0.344401
779.437099	0.344160
779.630945	0.344200
779.824773	0.344370
780.018582	0.344315
780.212373	0.344128
780.406146	0.344322
780.599901	0.344150
780.793638	0.344294
780.987356	0.344514
781.181056	0.344592
781.374738	0.344754
781.568402	0.344642
781.762047	0.344709
781.955674	0.344904
782.149283	0.344705
782.342874	0.344863
782.536447	0.344929
782.730001	0.344928
782.923537	0.344858
783.117055	0.344816
783.310555	0.344610
783.504036	0.344778
783.697499	0.344996
783.890944	0.345128
784.084371	0.345189
784.277780	0.345175
784.471170	0.345132
784.664542	0.345500
784.857896	0.345617
785.051231	0.345727
785.244549	0.345376
785.437848	0.344995
785.631129	0.345088
785.824392	0.344747
786.017636	0.344504
786.210863	0.344633
786.404071	0.344340
786.597260	0.343900
786.790432	0.343852
786.983585	0.343991
787.176721	0.343712
787.369838	0.343368
787.562936	0.343437
787.756017	0.343695
787.949079	0.343588
788.142123	0.343520
788.335149	0.343914
788.528156	0.344027
788.721146	0.344054
788.914117	0.344406
789.107070	0.344268
789.300005	0.344260
789.492921	0.343925
789.685819	0.343863
789.878699	0.344130
790.071561	0.343734
790.264405	0.343853
790.457230	0.343885
790.650037	0.344068
790.842826	0.344470
791.035597	0.344983
791.228349	0.345276
791.421084	0.345476
791.613800	0.345540
791.806497	0.345631
791.999177	0.345543
792.191838	0.345531
792.384481	0.345821
792.577106	0.345948
792.769713	0.345614
792.962301	0.345767
793.154871	0.345642
793.347423	0.345788
793.539957	0.345927
793.732473	0.346128
793.924970	0.346584
794.117449	0.346643
794.309910	0.346789
794.502353	0.347162
794.694777	0.347261
794.887183	0.347714
795.079571	0.347724
795.271941	0.347911
795.464293	0.347818
795.656626	0.347632
795.848941	0.347536
796.041238	0.347929
796.233516	0.347737
796.425777	0.347957
796.618019	0.347970
796.810243	0.348326
797.002449	0.348566
797.194636	0.349161
797.386805	0.349360
797.578956	0.349673
797.771089	0.349470
797.963204	0.349944
798.155300	0.349943
798.347378	0.349804
798.539438	0.349999
798.731480	0.349947
798.923503	0.349813
799.115509	0.349950
799.307496	0.349528
799.499465	0.349971
799.691415	0.350029
799.883348	0.349960
800.075262	0.350255
800.267158	0.350276
800.459035	0.350421
800.650895	0.350296
800.842736	0.350666
801.034559	0.351072
801.226364	0.350902
801.418150	0.351041
801.609919	0.351354
801.801669	0.351337
801.993401	0.351327
802.185114	0.351354
802.376810	0.351425
802.568487	0.351081
802.760146	0.351167
802.951787	0.351309
803.143409	0.351082
803.335014	0.351151
803.526600	0.351371
803.718168	0.351417
803.909717	0.351966
804.101249	0.352653
804.292762	0.353401
804.484257	0.353950
804.675734	0.354056
804.867192	0.354597
805.058632	0.354716
805.250054	0.354883
805.441458	0.355225
805.632844	0.355376
805.824211	0.355343
806.015561	0.354844
806.206891	0.354943
806.398204	0.355178
806.589499	0.355193
806.780775	0.355664
806.972033	0.356214
807.163273	0.356625
807.354495	0.356963
807.545698	0.357384
807.736883	0.358157
807.928050	0.358532
808.119199	0.359048
808.310329	0.359452
808.501441	0.360050
808.692535	0.360353
808.883611	0.360423
809.074669	0.360824
809.265708	0.361185
809.456729	0.361605
809.647732	0.361957
809.838717	0.362074
810.029683	0.362583
810.220632	0.362514
810.411562	0.362768
810.602474	0.363305
810.793367	0.363521
810.984242	0.363627
811.175100	0.363920
811.365938	0.363790
811.556759	0.363885
811.747562	0.363909
811.938346	0.364144
812.129112	0.364148
812.319860	0.364401
812.510589	0.364325
812.701300	0.364622
812.891994	0.364505
813.082668	0.364700
813.273325	0.365337
813.463964	0.365877
813.654584	0.365918
813.845186	0.365959
814.035769	0.366110
814.226335	0.366617
814.416882	0.366713
814.607411	0.367061
814.797922	0.367391
814.988415	0.367414
815.178889	0.367423
815.369345	0.367986
815.559783	0.368235
815.750203	0.368567
815.940605	0.368869
816.130988	0.368864
816.321353	0.369076
816.511700	0.369330
816.702028	0.369616
816.892339	0.369733
817.082631	0.369844
817.272905	0.370595
817.463161	0.370849
817.653398	0.370843
817.843617	0.371568
818.033819	0.372263
818.224001	0.373188
818.414166	0.373828
818.604312	0.374333
818.794440	0.374814
818.984550	0.374661
819.174642	0.375200
819.364716	0.375782
819.554771	0.376037
819.744808	0.375622
819.934827	0.375548
820.124827	0.375712
820.314810	0.376066
820.504774	0.376358
820.694720	0.377000
820.884647	0.376960
821.074557	0.377276
821.264448	0.377499
821.454321	0.378385
821.644176	0.378683
821.834012	0.378979
822.023831	0.379539
822.213631	0.380052
822.403413	0.380347
822.593176	0.380713
822.782922	0.381173
822.972649	0.381834
823.162358	0.382449
823.352049	0.382606
823.541721	0.383269
823.731376	0.383563
823.921012	0.383752
824.110629	0.384475
824.300229	0.384715
824.489811	0.384657
824.679374	0.384959
824.868919	0.385168
825.058445	0.386019
825.247954	0.385943
825.437444	0.386244
825.626916	0.386848
825.816370	0.386907
826.005806	0.387623
826.195223	0.388066
826.384622	0.388216
826.574003	0.388311
826.763366	0.388272
826.952711	0.388534
827.142037	0.388780
827.331345	0.388899
827.520635	0.389119
827.709906	0.389389
827.899160	0.389921
828.088395	0.390317
828.277612	0.390449
828.466810	0.390594
828.655991	0.390960
828.845153	0.391529
829.034297	0.391942
829.223423	0.392397
829.412531	0.392616
829.601620	0.392519
829.790691	0.392606
829.979744	0.393009
830.168779	0.393553
830.357795	0.394106
830.546793	0.394127
830.735773	0.394450
830.924735	0.394787
831.113679	0.395192
831.302604	0.395897
831.491511	0.396896
831.680400	0.397429
831.869271	0.397547
832.058123	0.398147
832.246957	0.398878
832.435773	0.399532
832.624571	0.400029
832.813351	0.400268
833.002112	0.400695
833.190855	0.400567
833.379580	0.401335
833.568287	0.401869
833.756975	0.401971
833.945645	0.402105
834.134297	0.402309
834.322931	0.402520
834.511547	0.403003
834.700144	0.403589
834.888723	0.404104
835.077284	0.404182
835.265826	0.404583
835.454351	0.405170
835.642857	0.405571
835.831345	0.405828
836.019815	0.406485
836.208266	0.406850
836.396699	0.407534
836.585114	0.408340
836.773511	0.408541
836.961890	0.409208
837.150250	0.409319
837.338592	0.409874
837.526916	0.410499
837.715222	0.410674
837.903510	0.411472
838.091779	0.411744
838.280030	0.412411
838.468263	0.413539
838.656477	0.414059
838.844674	0.414969
839.032852	0.415497
839.221012	0.416006
839.409153	0.416286
839.597277	0.416722
839.785382	0.416862
839.973469	0.417234
840.161538	0.417000
840.349589	0.417697
840.537621	0.417809
840.725635	0.418496
840.913631	0.418863
841.101609	0.419596
841.289568	0.419698
841.477509	0.420061
841.665432	0.420258
841.853337	0.420995
842.041224	0.420894
842.229092	0.421284
842.416942	0.421423
842.604774	0.421771
842.792588	0.422444
842.980383	0.422693
843.168160	0.423499
843.355919	0.423710
843.543660	0.424546
843.731382	0.425513
843.919087	0.426109
844.106773	0.426605
844.294441	0.427141
844.482090	0.427396
844.669722	0.428281
844.857335	0.428550
845.044930	0.429514
845.232507	0.429829
845.420065	0.429955
845.607605	0.430454
845.795127	0.430601
845.982631	0.430795
846.170117	0.431455
846.357584	0.431747
846.545033	0.432054
846.732464	0.432281
846.919877	0.432363
847.107272	0.432750
847.294648	0.433427
847.482006	0.434057
847.669346	0.434526
847.856667	0.434793
848.043971	0.435430
848.231256	0.436308
848.418523	0.436667
848.605771	0.436957
848.793002	0.437305
848.980214	0.437653
849.167408	0.438311
849.354584	0.438720
849.541742	0.439188
849.728881	0.439538
849.916002	0.439599
850.103105	0.439986
850.290190	0.440645
850.477256	0.441091
850.664304	0.441331
850.851334	0.441848
851.038346	0.442497
851.225340	0.442821
851.412315	0.443488
851.599272	0.444453
851.786211	0.445009
851.973132	0.445333
852.160034	0.445914
852.346918	0.446104
852.533784	0.445924
852.720632	0.445763
852.907462	0.446226
853.094273	0.446390
853.281066	0.446164
853.467841	0.446203
853.654598	0.446714
853.841336	0.447380
854.028056	0.447633
854.214758	0.448285
854.401442	0.448920
854.588107	0.449287
854.774755	0.449391
854.961384	0.449956
855.147995	0.450536
855.334587	0.450777
855.521162	0.450646
855.707718	0.451502
855.894256	0.451682
856.080775	0.452292
856.267277	0.452194
856.453760	0.452745
856.640225	0.452639
856.826672	0.453279
857.013101	0.454033
857.199511	0.455024
857.385903	0.455245
857.572277	0.456081
857.758633	0.456713
857.944970	0.458064
858.131290	0.458734
858.317591	0.459740
858.503873	0.459719
858.690138	0.460357
858.876384	0.460743
859.062612	0.461694
859.248822	0.462392
859.435014	0.462473
859.621188	0.462809
859.807343	0.463555
859.993480	0.464290
860.179599	0.465259
860.365699	0.465616
860.551781	0.465697
860.737846	0.465845
860.923891	0.466117
861.109919	0.466990
861.295929	0.466890
861.481920	0.466744
861.667893	0.467133
861.853848	0.467333
862.039784	0.467799
862.225702	0.468541
862.411603	0.469136
862.597484	0.469212
862.783348	0.469712
862.969193	0.470134
863.155021	0.470799
863.340830	0.471041
863.526620	0.471703
863.712393	0.471536
863.898147	0.472033
864.083883	0.472571
864.269601	0.473056
864.455301	0.473345
864.640982	0.474161
864.826645	0.474280
865.012290	0.474242
865.197917	0.474061
865.383526	0.474646
865.569116	0.474934
865.754688	0.474541
865.940242	0.474832
866.125777	0.475195
866.311295	0.475544
866.496794	0.476002
866.682275	0.476488
866.867737	0.477170
867.053182	0.477821
867.238608	0.477849
867.424016	0.478507
867.609406	0.479113
867.794778	0.479799
867.980131	0.480333
868.165466	0.481040
868.350783	0.481156
868.536082	0.481640
868.721362	0.482018
868.906625	0.482206
869.091869	0.482474
869.277094	0.482324
869.462302	0.482188
869.647491	0.482014
869.832662	0.482105
870.017815	0.483050
870.202950	0.482671
870.388066	0.482742
870.573165	0.483432
870.758245	0.483807
870.943306	0.484337
871.128350	0.484328
871.313375	0.485199
871.498382	0.485605
871.683371	0.485761
871.868342	0.486810
872.053294	0.487093
872.238229	0.487220
872.423144	0.487391
872.608042	0.487733
872.792922	0.488120
872.977783	0.487773
873.162626	0.488009
873.347451	0.488193
873.532258	0.488021
873.717046	0.488436
873.901816	0.488936
874.086568	0.489406
874.271302	0.489811
874.456017	0.489639
874.640715	0.490007
874.825394	0.489970
875.010055	0.490531
875.194697	0.490891
875.379322	0.490440
875.563928	0.490327
875.748516	0.490533
875.933085	0.490402
876.117637	0.491309
876.302170	0.491710
876.486685	0.492141
876.671182	0.491889
876.855661	0.491965
877.040121	0.492343
877.224563	0.492776
877.408987	0.493375
877.593393	0.493757
877.777780	0.493835
877.962150	0.493509
878.146501	0.493527
878.330833	0.493464
878.515148	0.493753
878.699444	0.494358
878.883722	0.494615
879.067982	0.494134
879.252224	0.494321
879.436447	0.494778
879.620653	0.495162
879.804840	0.495642
879.989008	0.495986
880.173159	0.496167
880.357291	0.495392
880.541405	0.495165
880.725501	0.495237
880.909579	0.495368
881.093638	0.495016
881.277680	0.495140
881.461703	0.494948
881.645707	0.495028
881.829694	0.495424
882.013662	0.496544
882.197612	0.496549
882.381544	0.496513
882.565458	0.496586
882.749353	0.496778
882.933230	0.497038
883.117089	0.497178
883.300930	0.496956
883.484753	0.496559
883.668557	0.496448
883.852343	0.496291
884.036111	0.496584
884.219861	0.496235
884.403592	0.496383
884.587305	0.496258
884.771000	0.496940
884.954677	0.496627
885.138335	0.496996
885.321976	0.497256
885.505598	0.497987
885.689201	0.498114
885.872787	0.497798
886.056354	0.497422
886.239904	0.497542
886.423434	0.496732
886.606947	0.497412
886.790442	0.497187
886.973918	0.496715
887.157376	0.496427
887.340816	0.495811
887.524237	0.496217
887.707641	0.496224
887.891026	0.496448
888.074393	0.496797
888.257741	0.497608
888.441072	0.497451
888.624384	0.498224
888.807678	0.498169
888.990954	0.499054
889.174211	0.499079
889.357451	0.499247
889.540672	0.499103
889.723875	0.499276
889.907059	0.498193
890.090226	0.498235
890.273374	0.497485
890.456504	0.497613
890.639616	0.497540
890.822709	0.498353
891.005785	0.498109
891.188842	0.498153
891.371881	0.497139
891.554901	0.497464
891.737904	0.497444
891.920888	0.497510
892.103854	0.496936
892.286802	0.496511
892.469731	0.495895
892.652643	0.495852
892.835536	0.494670
893.018410	0.494755
893.201267	0.494329
893.384106	0.494050
893.566926	0.493144
893.749728	0.493298
893.932511	0.492848
894.115277	0.492261
894.298024	0.492010
894.480753	0.492290
894.663464	0.491868
894.846157	0.491453
895.028831	0.490850
895.211487	0.491574
895.394125	0.491723
895.576745	0.491819
895.759346	0.492183
895.941930	0.492161
896.124495	0.492399
896.307041	0.492351
896.489570	0.492661
896.672080	0.493447
896.854573	0.493198
897.037046	0.492655
897.219502	0.492729
897.401940	0.492036
897.584359	0.491635
897.766760	0.491544
897.949143	0.491200
898.131507	0.490360
898.313854	0.489626
898.496182	0.489053
898.678492	0.489203
898.860783	0.488404
899.043057	0.487825
899.225312	0.487898
899.407549	0.487628
899.589768	0.488182
899.771968	0.488565
899.954151	0.488218
900.136315	0.488075
900.318461	0.487697
900.500588	0.488024
900.682698	0.488278
900.864789	0.487309
901.046862	0.486750
901.228917	0.486816
901.410953	0.486791
901.592971	0.486227
901.774972	0.485588
901.956953	0.485182
902.138917	0.484914
902.320862	0.484422
902.502790	0.484933
902.684699	0.484602
902.866589	0.483446
903.048462	0.482271
903.230316	0.482000
903.412152	0.482044
903.593970	0.481216
903.775770	0.480378
903.957551	0.480001
904.139314	0.479465
904.321059	0.479397
904.502786	0.479586
904.684494	0.479640
904.866185	0.480008
905.047857	0.479439
905.229510	0.478787
905.411146	0.478134
905.592763	0.477626
905.774363	0.477496
905.955943	0.476701
906.137506	0.475563
906.319051	0.475053
906.500577	0.473751
906.682085	0.473410
906.863575	0.473468
907.045046	0.472694
907.226500	0.472603
907.407935	0.472441
907.589352	0.471845
907.770750	0.471688
907.952131	0.470694
908.133493	0.470269
908.314837	0.469895
908.496163	0.469150
908.677470	0.468755
908.858760	0.468800
909.040031	0.467565
909.221284	0.466636
909.402518	0.465870
909.583735	0.465882
909.764933	0.465499
909.946113	0.464448
910.127275	0.464087
910.308418	0.463745
910.489544	0.462419
910.670651	0.461587
910.851740	0.461323
911.032810	0.460896
911.213863	0.460661
911.394897	0.460396
911.575913	0.459826
911.756911	0.459624
911.937890	0.459087
912.118851	0.458780
912.299794	0.458155
912.480719	0.458217
912.661626	0.457223
912.842514	0.456230
913.023384	0.455589
913.204236	0.455356
913.385070	0.454282
913.565886	0.453272
913.746683	0.452801
913.927462	0.452149
914.108223	0.451434
914.288965	0.451306
914.469690	0.450984
914.650396	0.450002
914.831084	0.449470
915.011754	0.449427
915.192405	0.449039
915.373038	0.448088
915.553653	0.447649
915.734250	0.446400
915.914829	0.445315
916.095389	0.444290
916.275931	0.444032
916.456455	0.443410
916.636961	0.442342
916.817448	0.441467
916.997917	0.440615
917.178368	0.440137
917.358801	0.439258
917.539216	0.438143
917.719612	0.437648
917.899990	0.436877
918.080350	0.435805
918.260692	0.434875
918.441015	0.435232
918.621320	0.434218
918.801607	0.433797
918.981876	0.433562
919.162127	0.433444
919.342359	0.432439
919.522573	0.431035
919.702769	0.430529
919.882947	0.429657
920.063106	0.428303
920.243247	0.427850
920.423370	0.426247
920.603475	0.425208
920.783562	0.424798
920.963630	0.423344
921.143680	0.422757
921.323712	0.422276
921.503725	0.421708
921.683721	0.420394
921.863698	0.419441
922.043657	0.418634
922.223598	0.417601
922.403520	0.416381
922.583424	0.416128
922.763311	0.415190
922.943178	0.414251
923.123028	0.413875
923.302859	0.413467
923.482673	0.412974
923.662467	0.412549
923.842244	0.412002
924.022003	0.410820
924.201743	0.410306
924.381465	0.409253
924.561169	0.408150
924.740854	0.406141
924.920522	0.404888
925.100171	0.403788
925.279802	0.402579
925.459414	0.401856
925.639009	0.401127
925.818585	0.399575
925.998143	0.398558
926.177683	0.397537
926.357205	0.397369
926.536708	0.396521
926.716193	0.395320
926.895660	0.394208
927.075109	0.393318
927.254539	0.392259
927.433951	0.391296
927.613345	0.390029
927.792721	0.388590
927.972079	0.387018
928.151418	0.386132
928.330739	0.385106
928.510042	0.384156
928.689327	0.382810
928.868593	0.381484
929.047841	0.380494
929.227071	0.380034
929.406283	0.378420
929.585476	0.377655
929.764652	0.376030
929.943809	0.375286
930.122948	0.374011
930.302068	0.372863
930.481171	0.372293
930.660255	0.371557
930.839321	0.369865
931.018369	0.369182
931.197398	0.367681
931.376409	0.367549
931.555402	0.365016
931.734377	0.364633
931.913334	0.363419
932.092272	0.362086
932.271192	0.360400
932.450094	0.359442
932.628978	0.358200
932.807844	0.356903
932.986691	0.354756
933.165520	0.354665
933.344331	0.352487
933.523123	0.350985
933.701898	0.350007
933.880654	0.349347
934.059392	0.349046
934.238111	0.347450
934.416813	0.346733
934.595496	0.345896
934.774161	0.343960
934.952808	0.343964
935.131437	0.343146
935.310047	0.341838
935.488639	0.340511
935.667213	0.339149
935.845769	0.338063
936.024306	0.337349
936.202825	0.337207
936.381326	0.336287
936.559809	0.333262
936.738274	0.332362
936.916720	0.331494
937.095148	0.330114
937.273558	0.328340
937.451950	0.327726
937.630323	0.326097
937.808678	0.323698
937.987015	0.323562
938.165334	0.324524
938.343635	0.322808
938.521917	0.320861
938.700181	0.320278
938.878427	0.319745
939.056655	0.317701
939.234864	0.316312
939.413055	0.314985
939.591228	0.313324
939.769383	0.311301
939.947519	0.309287
940.125638	0.308429
940.303738	0.307644
940.481820	0.306060
940.659883	0.306919
940.837929	0.306010
941.015956	0.305302
941.193965	0.304891
941.371955	0.303944
941.549928	0.303009
941.727882	0.301567
941.905818	0.299234
942.083736	0.298209
942.261636	0.296681
942.439517	0.294605
942.617380	0.293300
942.795225	0.290793
942.973052	0.288496
943.150860	0.288016
943.328651	0.285907
943.506423	0.285627
943.684176	0.284487
943.861912	0.281253
944.039629	0.280260
944.217328	0.278977
944.395009	0.277460
944.572672	0.276822
944.750317	0.275379
944.927943	0.275829
945.105551	0.272969
945.283141	0.271252
945.460712	0.272119
945.638265	0.269809
945.815801	0.268779
945.993317	0.268259
946.170816	0.267758
946.348297	0.266864
946.525759	0.264027
946.703203	0.263970
946.880629	0.262324
947.058036	0.261340
947.235425	0.261480
947.412797	0.259288
947.590149	0.258442
947.767484	0.255664
947.944800	0.253414
948.122099	0.254669
948.299379	0.252283
948.476640	0.252711
948.653884	0.250392
948.831109	0.247994
949.008316	0.249205
949.185505	0.246260
949.362676	0.246174
949.539828	0.244900
949.716962	0.241579
949.894078	0.239668
950.071176	0.236692
950.248256	0.234912
950.425317	0.235372
950.602360	0.232924
950.779385	0.232758
950.956391	0.230774
951.133380	0.230251
951.310350	0.230307
951.487302	0.232863
951.664235	0.230983
951.841151	0.228858
952.018048	0.229031
952.194927	0.227344
952.371788	0.226017
952.548631	0.224494
952.725455	0.222842
952.902261	0.218533
953.079049	0.214403
953.255819	0.216131
953.432570	0.215634
953.609303	0.211851
953.786018	0.211260
953.962715	0.209193
954.139394	0.210227
954.316054	0.209740
954.492696	0.211314
954.669320	0.212025
954.845926	0.209719
955.022513	0.211206
955.199083	0.210400
955.375634	0.210565
955.552166	0.211184
955.728681	0.208646
955.905177	0.208059
956.081655	0.208152
956.258115	0.206482
956.434557	0.206793
956.610980	0.203419
956.787385	0.204060
956.963772	0.203174
957.140141	0.202949
957.316492	0.203150
957.492824	0.204216
957.669138	0.202290
957.845434	0.199407
958.021712	0.197972
958.197971	0.198453
958.374212	0.197722
958.550435	0.195003
958.726640	0.195666
958.902826	0.196248
959.078995	0.194504
959.255145	0.195986
959.431277	0.196821
959.607390	0.196491
959.783486	0.196620
959.959563	0.195126
960.135622	0.193882
960.311662	0.191226
960.487685	0.188899
960.663689	0.188817
960.839675	0.185171
961.015643	0.185730
961.191593	0.185647
961.367524	0.181604
961.543437	0.180669
961.719332	0.181530
961.895209	0.182960
962.071067	0.182560
962.246907	0.182497
962.422730	0.184639
962.598533	0.184058
962.774319	0.182141
962.950086	0.186667
963.125835	0.189483
963.301566	0.190268
963.477279	0.188288
963.652973	0.187534
963.828650	0.184257
964.004308	0.182774
964.179947	0.184671
964.355569	0.186023
964.531172	0.183530
964.706757	0.181874
964.882324	0.181642
965.057873	0.180552
965.233403	0.184893
965.408916	0.185884
965.584410	0.187147
965.759885	0.183216
965.935343	0.183088
966.110782	0.181300
966.286203	0.180753
966.461606	0.180739
966.636991	0.184590
966.812357	0.180595
966.987705	0.181208
967.163035	0.181850
967.338347	0.182696
967.513641	0.181450
967.688916	0.184400
967.864173	0.182394
968.039412	0.180130
968.214632	0.177552
968.389835	0.176934
968.565019	0.176423
968.740185	0.176328
968.915333	0.177035
969.090462	0.175099
969.265573	0.173577
969.440667	0.176269
969.615741	0.177564
969.790798	0.177607
969.965836	0.178147
970.140856	0.179097
970.315858	0.176724
970.490842	0.178820
970.665808	0.180338
970.840755	0.181001
971.015684	0.177489
971.190595	0.177120
971.365487	0.178233
971.540362	0.179771
971.715218	0.180329
971.890056	0.180029
972.064875	0.177326
972.239677	0.178869
972.414460	0.177715
972.589225	0.181924
972.763972	0.180643
972.938700	0.178033
973.113411	0.175667
973.288103	0.173712
973.462777	0.175397
973.637432	0.173480
973.812070	0.171053
973.986689	0.173224
974.161290	0.169877
974.335873	0.168322
974.510437	0.171449
974.684984	0.173193
974.859512	0.175010
975.034022	0.172514
975.208513	0.170775
975.382987	0.173239
975.557442	0.173073
975.731879	0.174838
975.906298	0.180167
976.080698	0.177526
976.255080	0.177031
976.429445	0.176693
976.603790	0.178320
976.778118	0.181699
976.952427	0.183896
977.126719	0.179964
977.300992	0.181036
977.475246	0.179418
977.649483	0.181659
977.823701	0.179957
977.997901	0.182622
978.172083	0.182875
978.346247	0.185378
978.520392	0.180570
978.694519	0.182080
978.868628	0.181792
979.042719	0.180615
979.216791	0.178451
979.390845	0.179176
979.564882	0.175076
979.738899	0.171398
979.912899	0.168527
980.086880	0.170539
980.260843	0.171629
980.434788	0.172695
980.608715	0.170495
980.782623	0.170118
980.956514	0.171840
981.130386	0.171653
981.304240	0.176181
981.478075	0.179302
981.651892	0.176132
981.825692	0.175649
981.999472	0.173996
982.173235	0.176751
982.346980	0.175104
982.520706	0.173991
982.694414	0.175689
982.868104	0.173411
983.041775	0.172427
983.215428	0.175299
983.389064	0.176886
983.562680	0.175140
983.736279	0.174437
983.909860	0.177575
984.083422	0.176771
984.256966	0.177544
984.430491	0.179273
984.603999	0.178151
984.777488	0.178548
984.950959	0.177316
985.124412	0.177561
985.297847	0.179134
985.471263	0.177612
985.644661	0.176403
985.818041	0.175035
985.991403	0.172319
986.164747	0.174182
986.338072	0.173394
986.511379	0.173678
986.684668	0.176439
986.857938	0.174995
987.031191	0.176876
987.204425	0.182219
987.377641	0.183371
987.550839	0.184635
987.724018	0.182528
987.897179	0.182946
988.070322	0.183374
988.243447	0.180617
988.416554	0.182249
988.589642	0.182016
988.762712	0.178008
988.935764	0.174578
989.108798	0.176159
989.281813	0.176262
989.454811	0.176745
989.627790	0.176503
989.800751	0.179568
989.973693	0.178521
990.146617	0.178137
990.319524	0.178511
990.492412	0.180361
990.665281	0.180209
990.838133	0.178891
991.010966	0.176732
991.183781	0.175706
991.356578	0.169758
991.529356	0.169435
991.702117	0.167011
991.874859	0.165239
992.047583	0.167320
992.220288	0.164983
992.392976	0.166282
992.565645	0.166341
992.738296	0.167315
992.910929	0.171007
993.083543	0.170996
993.256139	0.170602
993.428718	0.173351
993.601277	0.173174
993.773819	0.173259
993.946342	0.173103
994.118848	0.174437
994.291335	0.175259
994.463803	0.174936
994.636254	0.173289
994.808686	0.176552
994.981100	0.175229
995.153496	0.174406
995.325874	0.176732
995.498233	0.175187
995.670574	0.174876
995.842897	0.174702
996.015202	0.175164
996.187488	0.177653
996.359757	0.177336
996.532007	0.176674
996.704239	0.175612
996.876452	0.174792
997.048648	0.176327
997.220825	0.177288
997.392984	0.177137
997.565124	0.177478
997.737247	0.175032
997.909351	0.174853
998.081437	0.175113
998.253505	0.175769
998.425554	0.176015
998.597586	0.175424
998.769599	0.175123
998.941594	0.174311
999.113571	0.175521
999.285529	0.177903
999.457469	0.177441
999.629391	0.177397
999.801295	0.175760
999.973181	0.175681
1000.145048	0.176883
1000.316897	0.174710
1000.488728	0.173958
1000.660541	0.171641
1000.832335	0.169863
1001.004111	0.167749
1001.175869	0.168479
1001.347609	0.168340
1001.519331	0.168395
1001.691034	0.166230
1001.862719	0.168984
1002.034386	0.167951
1002.206035	0.168854
1002.377665	0.170703
1002.549277	0.171168
1002.720871	0.169910
1002.892447	0.172690
1003.064004	0.170868
1003.235544	0.172856
1003.407065	0.172165
1003.578568	0.173864
1003.750052	0.174736
1003.921519	0.174548
1004.092967	0.175892
1004.264397	0.176648
1004.435809	0.174384
1004.607202	0.175637
1004.778577	0.177923
1004.949934	0.178477
1005.121273	0.178388
1005.292594	0.176269
1005.463896	0.173719
1005.635180	0.173833
1005.806446	0.174328
1005.977694	0.174845
1006.148923	0.173691
1006.320135	0.171026
1006.491328	0.170913
1006.662503	0.173232
1006.833659	0.174560
1007.004798	0.175431
1007.175918	0.177477
1007.347020	0.176265
1007.518103	0.177915
1007.689169	0.176191
1007.860216	0.176385
1008.031245	0.173965
1008.202256	0.172645
1008.373248	0.170238
1008.544223	0.171660
1008.715179	0.168345
1008.886117	0.168604
1009.057036	0.168389
1009.227938	0.170414
1009.398821	0.170679
1009.569686	0.171391
1009.740533	0.170667
1009.911361	0.172118
1010.082172	0.169268
1010.252964	0.170718
1010.423738	0.170352
1010.594493	0.167307
1010.765231	0.166703
1010.935950	0.165103
1011.106651	0.165315
1011.277334	0.162845
1011.447998	0.163183
1011.618645	0.165220
1011.789273	0.165596
1011.959882	0.166176
1012.130474	0.168413
1012.301048	0.170816
1012.471603	0.169814
1012.642140	0.168372
1012.812658	0.169781
1012.983159	0.168162
1013.153641	0.169233
1013.324105	0.167285
1013.494551	0.167923
1013.664979	0.165815
1013.835388	0.164696
1014.005779	0.165686
1014.176152	0.166568
1014.346507	0.166476
1014.516843	0.168086
1014.687162	0.165844
1014.857462	0.166018
1015.027744	0.164079
1015.198007	0.165048
1015.368252	0.164901
1015.538480	0.166046
1015.708689	0.167301
1015.878879	0.169048
1016.049052	0.168523
1016.219206	0.169538
1016.389342	0.170317
1016.559460	0.172017
1016.729559	0.172510
1016.899641	0.171944
1017.069704	0.171529
1017.239749	0.172210
1017.409775	0.171487
1017.579784	0.172864
1017.749774	0.172950
1017.919746	0.174518
1018.089700	0.175235
1018.259635	0.175954
1018.429553	0.176755
1018.599452	0.176174
1018.769333	0.175142
1018.939195	0.174798
1019.109040	0.174304
1019.278866	0.174097
1019.448674	0.171580
1019.618464	0.170739
1019.788235	0.170163
1019.957989	0.170176
1020.127724	0.169417
1020.297441	0.168360
1020.467139	0.168414
1020.636820	0.168300
1020.806482	0.168078
1020.976126	0.166366
1021.145752	0.165580
1021.315359	0.163712
1021.484948	0.163631
1021.654519	0.164591
1021.824072	0.164061
1021.993607	0.164303
1022.163123	0.164111
1022.332621	0.164664
1022.502101	0.166602
1022.671563	0.166274
1022.841007	0.166287
1023.010432	0.166405
1023.179839	0.164942
1023.349228	0.166097
1023.518598	0.165332
1023.687951	0.162738
1023.857285	0.163526
1024.026601	0.162603
1024.195899	0.162586
1024.365178	0.164727
1024.534439	0.163800
1024.703682	0.164099
1024.872907	0.163812
1025.042114	0.164938
1025.211302	0.164632
1025.380472	0.162383
1025.549624	0.164233
1025.718758	0.164670
1025.887873	0.164373
1026.056970	0.164113
1026.226049	0.165471
1026.395110	0.166641
1026.564153	0.164892
1026.733177	0.168547
1026.902183	0.170050
1027.071171	0.169356
1027.240141	0.169922
1027.409092	0.167993
1027.578026	0.168807
1027.746940	0.165924
1027.915837	0.163529
1028.084716	0.165458
1028.253576	0.164569
1028.422418	0.164288
1028.591242	0.161782
1028.760048	0.161882
1028.928835	0.162501
1029.097604	0.160762
1029.266355	0.164561
1029.435088	0.164185
1029.603803	0.161232
1029.772499	0.162344
1029.941177	0.162333
1030.109837	0.165382
1030.278478	0.165250
1030.447102	0.167421
1030.615707	0.168934
1030.784294	0.165325
1030.952863	0.165948
1031.121413	0.168166
1031.289945	0.165862
1031.458460	0.164862
1031.626955	0.163864
1031.795433	0.164482
1031.963892	0.164662
1032.132334	0.165570
1032.300756	0.167189
1032.469161	0.167460
1032.637548	0.167542
1032.805916	0.167978
1032.974266	0.168653
1033.142598	0.170083
1033.310911	0.168562
1033.479207	0.167165
1033.647484	0.166395
1033.815743	0.165289
1033.983983	0.167114
1034.152206	0.166766
1034.320410	0.167534
1034.488596	0.165838
1034.656764	0.164334
1034.824914	0.164545
1034.993045	0.164226
1035.161158	0.162905
1035.329253	0.165528
1035.497330	0.162763
1035.665388	0.163571
1035.833428	0.162792
1036.001450	0.166073
1036.169454	0.166544
1036.337440	0.167986
1036.505407	0.166801
1036.673356	0.167879
1036.841287	0.165618
1037.009200	0.168128
1037.177094	0.166286
1037.344970	0.166023
1037.512828	0.162954
1037.680668	0.162229
1037.848489	0.159989
1038.016293	0.161969
1038.184078	0.161159
1038.351845	0.164578
1038.519593	0.163018
1038.687324	0.163486
1038.855036	0.163915
1039.022730	0.162659
1039.190406	0.163345
1039.358063	0.163026
1039.525702	0.162148
1039.693323	0.162710
1039.860926	0.163062
1040.028511	0.163846
1040.196077	0.165126
1040.363625	0.165325
1040.531155	0.166012
1040.698667	0.168214
1040.866161	0.170606
1041.033636	0.170553
1041.201093	0.173036
1041.368532	0.171822
1041.535952	0.170316
1041.703355	0.169196
1041.870739	0.168645
1042.038105	0.170957
1042.205452	0.168085
1042.372782	0.167770
1042.540093	0.167767
1042.707386	0.165127
1042.874661	0.162687
1043.041918	0.162187
1043.209156	0.163805
1043.376376	0.162240
1043.543578	0.160048
1043.710762	0.160444
1043.877927	0.158821
1044.045074	0.158225
1044.212203	0.158314
1044.379314	0.159577
1044.546407	0.160982
1044.713481	0.157913
1044.880537	0.160003
1045.047575	0.159756
1045.214595	0.162571
1045.381596	0.165057
1045.548579	0.164990
1045.715544	0.165162
1045.882491	0.163336
1046.049420	0.162686
1046.216330	0.162473
1046.383222	0.161625
1046.550096	0.164058
1046.716951	0.159896
1046.883789	0.157930
1047.050608	0.157975
1047.217409	0.158597
1047.384192	0.160991
1047.550956	0.162242
1047.717703	0.164557
1047.884431	0.165181
1048.051140	0.162928
1048.217832	0.163897
1048.384505	0.165009
1048.551161	0.163254
1048.717798	0.161548
1048.884416	0.160108
1049.051017	0.160711
1049.217599	0.158741
1049.384163	0.159434
1049.550709	0.160948
1049.717237	0.160981
1049.883746	0.161913
1050.050237	0.164752
1050.216710	0.163468
1050.383165	0.164820
1050.549601	0.163281
1050.716019	0.165138
1050.882420	0.164731
1051.048801	0.164659
1051.215165	0.165193
1051.381510	0.162477
1051.547837	0.162654
1051.714146	0.164037
1051.880437	0.164274
1052.046709	0.165953
1052.212964	0.163747
1052.379200	0.165587
1052.545417	0.166504
1052.711617	0.167299
1052.877798	0.167406
1053.043961	0.168374
1053.210106	0.169189
1053.376233	0.169749
1053.542341	0.168140
1053.708432	0.170688
1053.874504	0.168654
1054.040557	0.167770
1054.206593	0.167705
1054.372610	0.167542
1054.538609	0.166166
1054.704590	0.165869
1054.870553	0.165410
1055.036497	0.163267
1055.202424	0.163068
1055.368331	0.162931
1055.534221	0.163745
1055.700093	0.161516
1055.865946	0.162163
1056.031781	0.159791
1056.197598	0.159366
1056.363397	0.158382
1056.529177	0.162257
1056.694939	0.160794
1056.860683	0.160406
1057.026409	0.159487
1057.192116	0.161859
1057.357806	0.164876
1057.523477	0.165600
1057.689130	0.166627
1057.854764	0.166730
1058.020381	0.168584
1058.185979	0.168829
1058.351559	0.170901
1058.517120	0.171855
1058.682664	0.167728
1058.848189	0.167672
1059.013696	0.170229
1059.179185	0.171550
1059.344656	0.171960
1059.510108	0.169792
1059.675542	0.168815
1059.840958	0.167201
1060.006356	0.167032
1060.171735	0.170568
1060.337096	0.166908
1060.502439	0.164090
1060.667764	0.163454
1060.833071	0.163551
1060.998359	0.162772
1061.163629	0.164514
1061.328881	0.165685
1061.494115	0.166264
1061.659330	0.166100
1061.824527	0.167338
1061.989706	0.170430
1062.154867	0.171010
1062.320010	0.170010
1062.485134	0.170258
1062.650240	0.168929
1062.815328	0.166519
1062.980398	0.168257
1063.145449	0.167940
1063.310482	0.168324
1063.475497	0.165531
1063.640494	0.163237
1063.805473	0.164455
1063.970433	0.164840
1064.135375	0.166303
1064.300299	0.167458
1064.465204	0.165415
1064.630092	0.164599
1064.794961	0.162729
1064.959812	0.166208
1065.124645	0.166769
1065.289459	0.165529
1065.454256	0.163309
1065.619034	0.164708
1065.783793	0.165686
1065.948535	0.169883
1066.113258	0.171948
1066.277964	0.174782
1066.442651	0.175163
1066.607319	0.176472
1066.771970	0.177803
1066.936602	0.178181
1067.101216	0.177023
1067.265812	0.174605
1067.430389	0.171757
1067.594949	0.170773
1067.759490	0.169940
1067.924013	0.164249
1068.088518	0.164118
1068.253004	0.164045
1068.417472	0.167061
1068.581922	0.166664
1068.746354	0.169419
1068.910768	0.170169
1069.075163	0.171839
1069.239540	0.172797
1069.403899	0.175438
1069.568240	0.174728
1069.732562	0.173430
1069.896866	0.173267
1070.061152	0.173181
1070.225420	0.171290
1070.389670	0.169452
1070.553901	0.170390
1070.718114	0.170349
1070.882309	0.172834
1071.046486	0.174918
1071.210644	0.173477
1071.374784	0.172086
1071.538906	0.171523
1071.703010	0.174191
1071.867096	0.175729
1072.031163	0.172073
1072.195212	0.169087
1072.359243	0.166091
1072.523256	0.161494
1072.687250	0.167118
1072.851226	0.167980
1073.015184	0.166695
1073.179124	0.165411
1073.343045	0.161825
1073.506949	0.162110
1073.670834	0.168493
1073.834701	0.171630
1073.998549	0.174910
1074.162380	0.171119
1074.326192	0.170819
1074.489986	0.173767
1074.653761	0.173924
1074.817519	0.178894
1074.981258	0.181697
1075.144979	0.177751
1075.308682	0.175972
1075.472367	0.177561
1075.636033	0.176429
1075.799681	0.176600
1075.963311	0.174797
1076.126923	0.174305
1076.290516	0.172204
1076.454092	0.172890
1076.617649	0.175732
1076.781187	0.172615
1076.944708	0.170662
1077.108210	0.172762
1077.271695	0.174647
1077.435160	0.174982
1077.598608	0.177992
1077.762038	0.178441
1077.925449	0.176575
1078.088842	0.171615
1078.252217	0.175963
1078.415573	0.177043
1078.578912	0.181761
1078.742232	0.183148
1078.905534	0.185429
1079.068817	0.185155
1079.232083	0.182719
1079.395330	0.183761
1079.558559	0.188513
1079.721770	0.187584
1079.884962	0.186668
1080.048136	0.178673
1080.211293	0.178694
1080.374430	0.178352
1080.537550	0.178776
1080.700651	0.182381
1080.863735	0.185516
1081.026800	0.183345
1081.189846	0.184219
1081.352875	0.184095
1081.515885	0.189925
1081.678877	0.188476
1081.841851	0.190255
1082.004807	0.190734
1082.167744	0.188322
1082.330663	0.185447
1082.493564	0.184945
1082.656447	0.183907
1082.819312	0.186861
1082.982158	0.185311
1083.144986	0.184825
1083.307796	0.182456
1083.470587	0.180454
1083.633361	0.182212
1083.796116	0.181791
1083.958853	0.184229
1084.121571	0.186793
1084.284272	0.184203
1084.446954	0.185886
1084.609618	0.185753
1084.772264	0.185403
1084.934892	0.182330
1085.097501	0.183896
1085.260092	0.186669
1085.422665	0.184937
1085.585220	0.182189
1085.747756	0.183295
1085.910274	0.183447
1086.072774	0.181289
1086.235256	0.182716
1086.397720	0.186863
1086.560165	0.186311
1086.722592	0.184749
1086.885001	0.182332
1087.047392	0.181331
1087.209764	0.180778
1087.372119	0.178366
1087.534455	0.180662
1087.696772	0.180963
1087.859072	0.180035
1088.021353	0.177182
1088.183616	0.173830
1088.345861	0.174224
1088.508088	0.178602
1088.670296	0.181621
1088.832486	0.183507
1088.994658	0.182491
1089.156812	0.183302
1089.318948	0.181836
1089.481065	0.181561
1089.643164	0.184989
1089.805245	0.186658
1089.967308	0.184929
1090.129352	0.182278
1090.291378	0.184085
1090.453386	0.184763
1090.615376	0.182327
1090.777347	0.183402
1090.939301	0.185359
1091.101236	0.185150
1091.263153	0.188299
1091.425051	0.192334
1091.586932	0.194983
1091.748794	0.193281
1091.910638	0.192599
1092.072463	0.193496
1092.234271	0.193919
1092.396060	0.194201
1092.557831	0.193105
1092.719584	0.189301
1092.881319	0.183397
1093.043035	0.185483
1093.204733	0.184040
1093.366413	0.182354
1093.528075	0.184575
1093.689718	0.181198
1093.851343	0.182573
1094.012950	0.182509
1094.174539	0.190327
1094.336110	0.193527
1094.497662	0.191838
1094.659196	0.191435
1094.820712	0.192664
1094.982210	0.190486
1095.143689	0.192089
1095.305151	0.192824
1095.466594	0.193714
1095.628018	0.186819
1095.789425	0.191704
1095.950813	0.190889
1096.112183	0.188177
1096.273535	0.190631
1096.434869	0.191261
1096.596184	0.194464
1096.757482	0.192928
1096.918761	0.193240
1097.080021	0.191986
1097.241264	0.183274
1097.402488	0.180895
1097.563694	0.181690
1097.724882	0.178998
1097.886052	0.174588
1098.047203	0.174080
1098.208336	0.176326
1098.369451	0.173777
1098.530548	0.174831
1098.691627	0.179594
1098.852687	0.179392
1099.013729	0.181273
1099.174753	0.181125
1099.335758	0.185421
1099.496746	0.183951
1099.657715	0.184189
1099.818666	0.186627
1099.979599	0.186932
1100.140513	0.186649
1100.301409	0.190111
1100.462287	0.195303
1100.623147	0.199861
1100.783989	0.201070
1100.944812	0.202803
1101.105617	0.204819
1101.266404	0.209021
1101.427173	0.204685
1101.587923	0.200525
1101.748656	0.196472
1101.909370	0.190248
1102.070066	0.189455
1102.230743	0.188406
1102.391403	0.189101
1102.552044	0.184550
1102.712667	0.183663
1102.873271	0.187503
1103.033858	0.196195
1103.194426	0.197590
1103.354976	0.197597
1103.515508	0.200544
1103.676021	0.204931
1103.836517	0.202283
1103.996994	0.202711
1104.157453	0.203199
1104.317893	0.206055
1104.478316	0.203508
1104.638720	0.201744
1104.799106	0.203065
1104.959474	0.196487
1105.119823	0.194260
1105.280155	0.192577
1105.440468	0.191007
1105.600763	0.185568
1105.761039	0.181846
1105.921298	0.178942
1106.081538	0.180121
1106.241760	0.182047
1106.401964	0.183449
1106.562149	0.180810
1106.722316	0.182569
1106.882465	0.180699
1107.042596	0.181108
1107.202709	0.178187
1107.362803	0.179528
1107.522879	0.182343
1107.682937	0.178305
1107.842977	0.178414
1108.002999	0.178041
1108.163002	0.179704
1108.322987	0.180094
1108.482954	0.186808
1108.642902	0.186644
1108.802833	0.190186
1108.962745	0.190453
1109.122639	0.197508
1109.282515	0.189881
1109.442372	0.191085
1109.602211	0.190720
1109.762032	0.196628
1109.921835	0.193912
1110.081620	0.197818
1110.241386	0.192781
1110.401134	0.190448
1110.560864	0.192285
1110.720576	0.205486
1110.880269	0.201501
1111.039945	0.200032
1111.199602	0.199597
1111.359240	0.199803
1111.518861	0.201837
1111.678463	0.203589
1111.838047	0.204348
1111.997613	0.202005
1112.157161	0.196528
1112.316690	0.205451
1112.476202	0.205916
1112.635695	0.196927
1112.795169	0.197315
1112.954626	0.189571
1113.114064	0.186837
1113.273484	0.185109
1113.432886	0.184692
1113.592270	0.190101
1113.751635	0.189537
1113.910983	0.188842
1114.070312	0.196200
1114.229622	0.196962
1114.388915	0.202668
1114.548189	0.205452
1114.707445	0.207419
1114.866683	0.201738
1115.025903	0.197144
1115.185104	0.192321
1115.344287	0.192700
1115.503452	0.188774
1115.662599	0.188380
1115.821727	0.192445
1115.980838	0.193056
1116.139930	0.199683
1116.299004	0.201593
1116.458059	0.202438
1116.617097	0.202348
1116.776116	0.203099
1116.935117	0.203602
1117.094099	0.198496
1117.253064	0.195266
1117.412010	0.197978
1117.570938	0.197293
1117.729848	0.205452
1117.888740	0.203841
1118.047613	0.206394
1118.206468	0.211217
1118.365305	0.207892
1118.524124	0.210745
1118.682924	0.215685
1118.841707	0.215417
1119.000471	0.212487
1119.159216	0.212500
1119.317944	0.216626
1119.476653	0.219186
1119.635344	0.218863
1119.794017	0.229586
1119.952672	0.226447
1120.111308	0.228729
1120.269927	0.221605
1120.428527	0.219382
1120.587108	0.215577
1120.745672	0.213925
1120.904217	0.218428
1121.062744	0.207769
1121.221253	0.197648
1121.379744	0.203134
1121.538216	0.197210
1121.696671	0.202052
1121.855107	0.196468
1122.013524	0.190823
1122.171924	0.194329
1122.330305	0.185267
1122.488668	0.189659
1122.647013	0.198420
1122.805340	0.196612
1122.963648	0.194162
1123.121938	0.195752
1123.280210	0.205097
1123.438464	0.213088
1123.596700	0.215660
1123.754917	0.217615
1123.913116	0.217867
1124.071297	0.214824
1124.229459	0.219216
1124.387604	0.224472
1124.545730	0.219728
1124.703838	0.216831
1124.861928	0.214482
1125.019999	0.201401
1125.178052	0.207776
1125.336088	0.205615
1125.494104	0.213900
1125.652103	0.207341
1125.810083	0.218200
1125.968045	0.212912
1126.125989	0.218697
1126.283915	0.223322
1126.441823	0.239052
1126.599712	0.235178
1126.757583	0.244656
1126.915436	0.240029
1127.073270	0.232256
1127.231087	0.221221
1127.388885	0.233258
1127.546665	0.228559
1127.704426	0.225156
1127.862170	0.216754
1128.019895	0.216299
1128.177602	0.212201
1128.335291	0.208988
1128.492961	0.220306
1128.650614	0.221920
1128.808248	0.217766
1128.965864	0.214375
1129.123461	0.213814
1129.281041	0.214381
1129.438602	0.213305
1129.596145	0.222924
1129.753670	0.216007
1129.911176	0.210833
1130.068665	0.201852
1130.226135	0.201080
1130.383587	0.203386
1130.541020	0.210370
1130.698436	0.209517
1130.855833	0.208803
1131.013212	0.200721
1131.170573	0.203678
1131.327915	0.209809
1131.485239	0.211493
1131.642545	0.210995
1131.799833	0.201229
1131.957103	0.194176
1132.114354	0.193974
1132.271588	0.206409
1132.428803	0.215363
1132.585999	0.216234
1132.743178	0.210542
1132.900338	0.212534
1133.057480	0.199814
1133.214604	0.204517
1133.371710	0.203008
1133.528797	0.207924
1133.685866	0.197879
1133.842917	0.189816
1133.999950	0.201623
1134.156964	0.204821
1134.313960	0.205929
1134.470938	0.216208
1134.627898	0.215384
1134.784840	0.210558
1134.941763	0.207273
1135.098668	0.205251
1135.255555	0.205465
1135.412424	0.193223
1135.569274	0.198428
1135.726107	0.198516
1135.882921	0.203895
1136.039716	0.208933
1136.196494	0.224040
1136.353253	0.226644
1136.509995	0.230580
1136.666717	0.229636
1136.823422	0.238853
1136.980109	0.237375
1137.136777	0.246839
1137.293427	0.256778
1137.450059	0.259103
1137.606672	0.253992
1137.763267	0.247048
1137.919844	0.257114
1138.076403	0.253577
1138.232944	0.250917
1138.389466	0.254170
1138.545971	0.249465
1138.702457	0.246282
1138.858924	0.240629
1139.015374	0.237877
1139.171805	0.239155
1139.328218	0.231229
1139.484613	0.233708
1139.640990	0.235633
1139.797348	0.235460
1139.953688	0.242648
1140.110010	0.241491
1140.266314	0.238984
1140.422600	0.232523
1140.578867	0.238745
1140.735116	0.241537
1140.891347	0.241962
1141.047559	0.241821
1141.203754	0.251356
1141.359930	0.237669
1141.516088	0.233703
1141.672228	0.224772
1141.828349	0.230690
1141.984452	0.220245
1142.140537	0.207204
1142.296604	0.210901
1142.452653	0.205678
1142.608683	0.191778
1142.764695	0.204004
1142.920689	0.198423
1143.076665	0.210356
1143.232622	0.199829
1143.388562	0.217605
1143.544483	0.232880
1143.700385	0.234035
1143.856270	0.226264
1144.012136	0.227667
1144.167985	0.220369
1144.323814	0.233624
1144.479626	0.236824
1144.635420	0.250993
1144.791195	0.240305
1144.946952	0.227434
1145.102691	0.232107
1145.258411	0.248769
1145.414113	0.248366
1145.569798	0.240476
1145.725463	0.229465
1145.881111	0.231835
1146.036741	0.231105
1146.192352	0.223181
1146.347945	0.230820
1146.503519	0.220553
1146.659076	0.202582
1146.814614	0.199650
1146.970134	0.210923
1147.125636	0.212098
1147.281120	0.202797
1147.436585	0.202818
1147.592032	0.209098
1147.747461	0.212561
1147.902872	0.211415
1148.058265	0.225111
1148.213639	0.216783
1148.368995	0.210857
1148.524333	0.205027
1148.679653	0.213822
1148.834954	0.203326
1148.990237	0.214617
1149.145502	0.207624
1149.300749	0.219805
1149.455977	0.223325
1149.611188	0.239422
1149.766380	0.224748
1149.921553	0.227816
1150.076709	0.231995
1150.231846	0.215197
1150.386966	0.202350
1150.542066	0.186642
1150.697149	0.170184
1150.852214	0.176205
1151.007260	0.159466
1151.162288	0.176203
1151.317298	0.182396
1151.472289	0.193440
1151.627263	0.205917
1151.782218	0.218713
1151.937155	0.221512
1152.092073	0.241381
1152.246974	0.227126
1152.401856	0.239535
1152.556720	0.243598
1152.711566	0.240250
1152.866393	0.237136
1153.021203	0.250556
1153.175994	0.237711
1153.330767	0.259431
1153.485521	0.241559
1153.640258	0.249510
1153.794976	0.267881
1153.949676	0.255055
1154.104358	0.248655
1154.259021	0.231128
1154.413667	0.234815
1154.568294	0.245452
1154.722903	0.227463
1154.877493	0.235305
1155.032066	0.247072
1155.186620	0.221420
1155.341156	0.229726
1155.495674	0.240472
1155.650173	0.246572
1155.804654	0.247887
1155.959118	0.237386
1156.113562	0.234001
1156.267989	0.231281
1156.422397	0.217913
1156.576788	0.224723
1156.731160	0.214416
1156.885513	0.216815
1157.039849	0.228635
1157.194166	0.210024
1157.348465	0.221439
1157.502746	0.236583
1157.657009	0.235751
1157.811253	0.235261
1157.965479	0.250706
1158.119687	0.254916
1158.273877	0.232224
1158.428048	0.209018
1158.582201	0.222110
1158.736337	0.226185
1158.890453	0.214238
1159.044552	0.205087
1159.198632	0.186237
1159.352694	0.182933
1159.506738	0.186378
1159.660764	0.194460
1159.814771	0.203504
1159.968761	0.201158
1160.122732	0.211477
1160.276685	0.241894
1160.430619	0.260900
1160.584535	0.290138
1160.738434	0.284179
1160.892313	0.268128
1161.046175	0.275153
1161.200019	0.287025
1161.353844	0.299638
1161.507651	0.266077
1161.661440	0.241159
1161.815210	0.231997
1161.968962	0.224002
1162.122697	0.219542
1162.276412	0.206240
1162.430110	0.215812
1162.583789	0.215647
1162.737451	0.202657
1162.891094	0.223811
1163.044718	0.229640
1163.198325	0.232120
1163.351913	0.227715
1163.505483	0.235475
1163.659035	0.265699
1163.812569	0.254781
1163.966084	0.255371
1164.119581	0.254530
1164.273060	0.243453
1164.426521	0.228907
1164.579964	0.235735
1164.733388	0.232768
1164.886794	0.237463
1165.040182	0.247676
1165.193551	0.244459
1165.346903	0.227134
1165.500236	0.225281
1165.653551	0.210677
1165.806848	0.217599
1165.960126	0.211784
1166.113386	0.212268
1166.266628	0.196926
1166.419852	0.188383
1166.573058	0.201706
1166.726245	0.213057
1166.879414	0.221887
1167.032565	0.229025
1167.185698	0.251325
1167.338812	0.275186
1167.491909	0.278806
1167.644987	0.268840
1167.798046	0.281803
1167.951088	0.263866
1168.104111	0.278177
1168.257117	0.253798
1168.410103	0.268492
1168.563072	0.249413
1168.716023	0.219295
1168.868955	0.195525
1169.021869	0.219388
1169.174765	0.197969
1169.327642	0.208775
1169.480501	0.173268
1169.633343	0.194583
1169.786165	0.169079
1169.938970	0.187283
1170.091757	0.199850
1170.244525	0.212877
1170.397275	0.178251
1170.550007	0.163869
1170.702720	0.164587
1170.855415	0.186226
1171.008092	0.173023
1171.160751	0.174334
1171.313392	0.149933
1171.466014	0.289143
1171.618619	0.134493
1171.771205	0.134493
1171.923772	0.134493
