sample name	sample
index	650
start time	 03-19-2021  04:05:55 PM
880	0.119031
Peak Time (s)	91.037
Peak Height 	0.119
calc peak height	90,93
Baseline Time (s)	9.037
Baseline Value 	-0.004675
subtract baseline	10,4
Abs	0.071373
Peak Time (s)	90.537
Peak Height 	0.07137
calc peak height	90,93
Baseline Time (s)	8.536
Baseline Value 	0.003991
subtract baseline	10,3
PK_550	0.034960
Peak Time (s)	90.037
Peak Height 	0.03496
calc peak height	90,93
Baseline Time (s)	8.536
Baseline Value 	4.3567E-4
subtract baseline	10,2
PK_880	0.070574
Peak Time (s)	90.037
Peak Height 	0.07057
calc peak height	90,93
Baseline Time (s)	11.535
Baseline Value 	0.002777
subtract baseline	10,1


Time (s)	A880-A510	A880-A775	A880-A975	A880	I510	I775	I975	I880	
0.037000	-0.001321	0.000077	-0.001002	0.002217	7370.790670	45375.145560	4056.222562	24137.915264
0.537500	-0.000533	0.000909	-0.001489	0.004340	7357.368914	45249.544010	4049.659278	24034.833558
1.034500	-0.002712	0.000076	-0.003172	0.004678	7332.174457	45136.054956	4044.607450	24018.492646
1.538000	-0.005835	-0.000694	-0.003739	0.006730	7280.828848	44863.586184	4038.095326	23919.426999
2.035500	-0.000416	0.000376	-0.003606	0.002150	7380.591726	45410.899888	4049.843810	24141.178497
2.535500	0.000101	0.000479	-0.002537	0.001806	7389.283612	45454.462200	4053.391276	24157.902939
3.038000	-0.001398	-0.000172	-0.003685	0.002343	7368.747038	45338.688889	4049.162972	24131.781253
3.536000	-0.001158	0.000323	0.000956	0.004083	7353.678053	45217.577759	4056.453450	24047.276858
4.036000	-0.000091	0.000153	0.001372	-0.000045	7406.095085	45603.507661	4067.972474	24248.267521
4.536500	0.001381	-0.000508	-0.003372	-0.000339	7424.059059	45567.601868	4056.689967	24262.643324
5.037000	0.001632	0.000650	0.001613	0.000758	7415.444399	45573.514917	4066.540443	24209.006014
5.537500	0.001393	0.000266	0.000941	0.000378	7416.891128	45573.228776	4065.798066	24227.595514
6.037000	0.000432	-0.000096	0.002256	-0.000105	7412.023358	45585.075034	4070.380698	24251.207452
6.535500	0.001130	0.000856	0.003074	0.000554	7412.411313	45613.678236	4070.785291	24218.974193
7.035000	-0.000862	-0.000218	-0.003266	-0.000433	7402.210691	45605.178822	4057.192454	24267.240972
7.538500	0.000396	0.000046	0.006881	0.000027	7410.315209	45586.048137	4081.914526	24244.763727
8.036000	0.001105	0.000454	-0.004851	0.000018	7417.620841	45626.897026	4052.069912	24245.195688
8.536000	0.000506	0.000000	0.000000	-0.000631	7418.133750	45646.000063	4065.971546	24276.974187
9.036500	0.001665	-0.000186	0.000563	0.000000	7423.506129	45565.932611	4065.798513	24246.069319
9.537000	-0.000565	0.000668	0.003208	0.000323	7397.564715	45617.988277	4071.719860	24230.281142
10.037000	-0.000188	-0.000197	-0.001742	-0.000129	7405.970526	45577.429429	4060.277695	24252.371121
10.537500	-0.000722	0.000540	-0.000778	0.000242	7396.791819	45613.378015	4061.780715	24234.251756
11.035000	0.002104	0.000452	0.006523	0.000416	7423.730641	45587.647666	4079.986015	24225.712074
11.535000	0.000000	-0.000494	-0.003373	-0.000455	7411.191517	45580.323559	4056.979830	24268.349170
12.036000	-0.000171	0.000462	-0.001400	-0.000029	7405.122331	45632.260792	4060.888974	24247.494089
12.536000	0.002313	0.000242	0.002511	0.000221	7427.858717	45586.190520	4070.198955	24235.271938
13.035500	-0.001232	-0.000332	0.001395	0.002799	7365.833372	45278.784369	4060.806709	24109.611139
13.536000	-0.002386	-0.000166	-0.000408	0.001264	7369.658575	45444.329254	4060.126455	24184.316108
14.036500	-0.001214	-0.000484	-0.003495	0.003163	7362.340985	45228.558435	4047.583366	24091.888595
14.536500	-0.001117	-0.000395	0.000241	0.002678	7368.202853	45284.334995	4058.193900	24115.482996
15.033500	-0.001925	-0.000309	-0.001469	0.003141	7355.424543	45247.643820	4052.718974	24092.958894
15.534500	-0.000074	0.000642	0.001292	0.002424	7381.282901	45410.084238	4061.496723	24127.850347
16.037500	-0.000086	-0.000181	-0.004407	0.001177	7393.757053	45451.329518	4050.273569	24188.555430
16.535000	0.000879	0.000106	-0.001786	0.002167	7393.504428	45382.801511	4054.371152	24140.321324
17.038500	-0.000153	0.000543	0.002234	0.001492	7389.896968	45491.347231	4066.252388	24173.197374
17.536000	-0.000257	0.000152	0.000563	0.002109	7382.605862	45392.978000	4060.447492	24143.149173
18.036500	0.000642	-0.000115	0.000340	0.002236	7390.415955	45354.628573	4059.561913	24136.985413
18.536500	0.000210	0.000124	0.000042	0.002689	7381.468034	45333.824969	4057.663613	24114.954060
19.037000	0.000074	0.000264	0.004235	0.003714	7369.766828	45247.739804	4065.690393	24065.161534
19.537000	0.000011	-0.000557	0.001420	0.002164	7384.760169	45318.607641	4062.478631	24140.478797
20.037000	-0.001678	0.000535	-0.000700	0.002563	7363.718295	45386.080312	4056.110844	24121.077302
20.535000	-0.000461	-0.000406	0.001852	0.002266	7378.968115	45323.388468	4063.314704	24135.516544
21.035500	-0.000183	0.000356	0.000718	0.003641	7367.911788	45263.790176	4056.967952	24068.730332
21.538000	-0.000149	0.000408	0.001170	0.002771	7377.019841	45353.433123	4060.308956	24110.961457
22.035500	0.000091	0.000674	0.002317	0.003151	7375.604832	45342.356847	4062.249997	24092.477815
22.536000	-0.000826	0.000134	-0.005218	0.003074	7367.152281	45297.303259	4043.506079	24096.254166
23.036500	-0.002454	0.000751	-0.001469	0.002926	7352.279448	45371.719632	4053.260537	24103.428125
23.536500	0.001187	0.000536	-0.000493	0.003349	7384.679189	45309.670968	4054.652976	24082.902065
24.036500	0.001345	0.000768	0.000279	0.003303	7386.735717	45336.746657	4056.711984	24085.120392
24.537000	0.000514	0.000310	-0.003073	0.003013	7381.270253	45320.355798	4049.016379	24099.208295
25.037500	-0.001068	0.000307	-0.000003	0.002523	7370.265409	45367.837567	4057.971274	24123.036935
25.535000	0.000214	0.000385	0.001996	0.003313	7375.208972	45298.406587	4061.026994	24084.612092
26.035500	0.000100	0.000661	0.002953	0.003112	7376.086960	45344.912487	4063.962200	24094.384114
26.535500	-0.000249	0.001133	0.001523	0.003693	7366.728061	45334.298043	4058.869781	24066.207950
27.035500	0.000314	-0.000453	0.003287	0.004403	7365.247141	45111.429200	4061.536159	24031.803412
27.536500	0.002471	0.000528	0.003155	0.001030	7421.216393	45535.027116	4069.776856	24195.724997
28.036500	0.002167	0.000536	0.003273	0.002378	7404.418409	45404.128782	4066.640680	24130.050443
28.536500	-0.000039	0.000206	0.001510	0.002569	7380.169185	45353.524384	4061.682529	24120.797704
29.037000	-0.002934	0.000157	-0.000974	0.005364	7323.125398	45077.448700	4048.387060	23985.319730
29.537000	0.000618	0.001178	0.000438	0.003563	7376.767759	45351.384561	4056.457960	24072.520400
30.034500	0.001771	0.000651	-0.000493	0.002272	7401.474110	45425.658239	4057.364282	24135.199765
30.535500	-0.000963	0.000309	0.000199	0.004151	7354.949432	45209.708214	4054.375060	24044.009714
31.038000	-0.000905	-0.000187	0.002447	0.005287	7344.143753	45051.532517	4057.175327	23989.002290
31.535500	0.001006	0.000138	0.005450	0.002620	7390.212935	45341.894833	4071.578312	24118.316443
32.036000	0.001541	0.001172	0.003849	0.002934	7392.450051	45411.997027	4066.693044	24103.052567
32.536500	0.000280	0.000379	0.001339	0.002483	7384.249879	45378.595768	4061.464120	24124.935292
33.036500	0.001560	0.000775	0.004378	0.006357	7358.125110	45041.123354	4059.349959	23937.367117
33.537000	0.003161	0.001626	0.005442	0.002009	7418.284397	45546.662344	4073.122731	24148.043352
34.037000	0.001672	0.000686	0.002558	0.004057	7382.417517	45255.372281	4060.565458	24048.542382
34.534500	0.000117	0.000412	0.006479	0.004979	7357.482257	45139.444794	4068.184944	24003.928385
35.035000	-0.000128	0.000987	0.001446	0.004557	7359.261554	45236.129882	4056.493042	24024.339475
35.535000	0.000295	0.000827	0.002295	0.004522	7363.858517	45223.878830	4058.723722	24025.997162
36.035000	-0.001102	-0.000619	-0.002246	0.003833	7356.745379	45150.496222	4049.033351	24059.392220
36.536000	-0.001158	-0.000347	0.003827	0.003667	7357.855785	45193.074757	4064.774690	24067.471398
37.036000	0.001223	0.000938	0.000343	0.006399	7354.333209	45052.933705	4049.091809	23935.375268
37.536000	-0.000306	0.000505	0.004351	0.004756	7355.473507	45169.952600	4063.339112	24014.684798
38.037000	0.000584	-0.000068	-0.002007	0.004345	7368.544315	45154.348002	4048.349724	24034.596914
38.536500	0.000376	0.001127	0.001771	0.004792	7361.957625	45226.852758	4056.719868	24012.945388
39.037500	-0.001370	0.001200	0.004061	0.006702	7325.373334	45048.857785	4057.678933	23920.752533
39.537500	0.000388	0.001197	0.003225	0.005046	7359.525296	45208.974358	4059.749439	24000.657210
40.035000	0.001052	0.001243	0.003634	0.005453	7362.114052	45173.946909	4059.755447	23981.003819
40.538000	-0.001298	0.000566	0.003280	0.004897	7344.116628	45162.272607	4060.267625	24007.866844
41.035500	-0.001976	0.000398	-0.002425	0.005565	7330.661620	45081.313114	4044.258751	23975.598124
41.536000	-0.000365	0.001070	0.003668	0.005191	7350.521248	45182.659552	4060.505726	23993.669449
42.036000	0.000674	0.000640	0.000861	0.004713	7365.745376	45187.254525	4054.624573	24016.764121
42.536500	0.001922	0.000977	0.003231	0.005197	7373.442373	45173.078471	4059.383922	23993.379776
43.036500	0.000122	0.000634	0.001867	0.005672	7350.573424	45093.757710	4054.744261	23970.430357
43.536500	0.001395	0.000970	0.004690	0.004757	7372.562902	45215.056562	4064.197133	24014.663412
44.037500	0.004941	0.001458	0.002899	0.000581	7451.054948	45670.048264	4070.269807	24217.647277
44.537500	0.002145	0.001062	0.005808	0.003451	7393.325519	45350.934540	4070.371162	24077.940598
45.035500	-0.001139	0.000446	0.004617	0.006165	7333.029471	45027.902477	4060.442690	23946.641638
45.535500	0.002390	0.001604	0.001419	0.004449	7385.705056	45306.540666	4056.697404	24029.543246
46.036000	0.000635	0.001015	0.006024	0.003771	7374.845622	45315.184606	4070.105260	24062.426818
46.536500	0.003775	0.001172	0.005523	0.003846	7405.852835	45323.230740	4068.634619	24058.792206
47.036000	0.000871	0.000108	-0.000417	0.006140	7353.398945	44997.736073	4047.835669	23947.839387
47.536500	0.000994	-0.000121	-0.000706	0.005091	7365.168927	45076.970041	4049.741629	23998.501060
48.036500	0.000149	0.000381	-0.000518	0.003910	7368.545353	45240.134464	4053.176912	24055.685989
48.537000	0.001620	0.000417	0.001648	0.003401	7388.525439	45293.019365	4059.923143	24080.368257
49.037500	-0.002377	0.000027	-0.001153	0.006272	7319.622438	44977.086389	4045.666889	23941.457000
49.535000	0.001823	0.001104	0.006160	0.002666	7398.017692	45431.529833	4073.278257	24116.078265
50.038000	0.002039	0.001119	0.003438	0.001325	7413.822468	45564.048241	4069.746732	24181.370129
50.535500	0.002471	0.000762	0.003447	0.004262	7388.424547	45242.928820	4062.299522	24038.627622
51.036000	-0.000283	0.001062	0.005244	0.013815	7265.727846	44353.785182	4042.809368	23580.944524
51.536000	-0.039340	-0.008996	-0.003488	0.167643	5734.942241	31376.104763	3705.110220	17443.027610
52.036500	-0.050257	-0.019089	0.009135	-0.033288	7237.603567	46997.172215	4177.559721	25938.388806
52.537000	-0.024720	-0.012589	0.007516	-0.053502	7708.694679	49784.297248	4230.770720	27031.203518
53.036500	-0.016230	-0.014148	-0.017177	-0.115866	8543.607446	56805.042406	4345.805609	30741.705963
53.537000	0.011253	-0.016675	0.005338	-0.145089	9317.232438	60212.074212	4520.978179	32672.528403
54.035000	0.027801	-0.007750	0.012141	-0.113783	9106.063185	57341.603914	4435.412627	30608.989841
54.538000	0.024055	-0.003669	0.014736	-0.064518	8404.118690	51978.727045	4285.212382	27648.492295
55.035500	0.013735	-0.001517	0.018741	-0.032291	7899.524597	48706.171992	4201.911250	25885.803961
55.536000	0.016080	0.001540	0.024461	-0.027096	7867.459747	48482.135550	4203.411567	25613.711625
56.036000	0.023014	0.004877	0.028990	-0.004773	7697.905256	46539.441491	4153.546375	24480.830391
56.536500	0.025838	0.009131	0.036615	0.017820	7488.730671	44742.002034	4113.155022	23392.040917
57.037000	0.026123	0.011596	0.036173	0.036847	7299.023115	43182.634319	4062.656845	22518.030621
57.536500	0.033177	0.015589	0.039047	0.056399	7176.992391	41770.839027	4021.160970	21658.917573
58.037000	0.036463	0.018066	0.046267	0.077676	7007.372879	40131.154817	3987.405336	20766.923120
58.537500	0.041306	0.023014	0.056621	0.090107	6937.920900	39497.994189	3982.509620	20265.639532
59.034500	0.046370	0.025081	0.060000	0.100237	6892.218625	38827.941334	3966.756955	19867.642779
59.535500	0.047959	0.027196	0.060765	0.108068	6836.627249	38360.302776	3950.528536	19566.234676
60.035500	0.049153	0.029457	0.060866	0.113812	6796.613666	38078.402100	3937.757416	19348.601903
60.535500	0.051040	0.029621	0.063469	0.118273	6774.166863	37733.755233	3933.589291	19181.580845
61.036000	0.049435	0.030393	0.062893	0.123690	6713.587061	37364.891011	3920.262804	18981.003759
61.536500	0.050906	0.030680	0.058139	0.120067	6757.441113	37675.060042	3917.769682	19114.880121
62.037000	0.055930	0.032416	0.060410	0.112661	6866.610175	38411.313507	3939.321235	19391.987616
62.537000	0.054638	0.033350	0.059208	0.109802	6880.594200	38721.304302	3943.059756	19500.225625
63.034500	0.057983	0.034057	0.060367	0.107423	6932.123461	38975.610493	3951.092631	19590.880307
63.537500	0.057963	0.034059	0.065003	0.103045	6971.798546	39339.494906	3971.849579	19758.916047
64.037500	0.057189	0.034571	0.065755	0.102303	6971.518845	39444.476617	3975.334232	19787.600962
64.534500	0.060140	0.034838	0.066804	0.101920	7002.138745	39498.922284	3978.680485	19802.377381
65.036000	0.058227	0.034636	0.068005	0.104535	6960.604172	39263.383092	3975.376078	19701.541461
65.536000	0.062703	0.035757	0.067838	0.101569	7029.103754	39605.624686	3981.932752	19815.981165
66.036000	0.060935	0.036137	0.063504	0.101491	7013.449081	39644.158374	3971.977908	19819.004750
66.536500	0.062337	0.036316	0.070029	0.102298	7018.948242	39591.333678	3985.373371	19787.769143
67.036500	0.058814	0.035679	0.064330	0.106805	6945.277818	39161.299284	3961.587677	19614.502112
67.537000	0.062828	0.037143	0.067084	0.103755	7010.015243	39538.398459	3975.046400	19731.572247
68.037500	0.062733	0.037145	0.068314	0.104452	7002.704472	39480.051409	3976.290973	19704.739964
68.537500	0.065414	0.035956	0.066750	0.103777	7033.772605	39437.020711	3974.215956	19730.715008
69.035000	0.061956	0.036217	0.061767	0.108226	6960.951662	39088.015774	3952.454636	19560.234285
69.535000	0.065650	0.037751	0.068598	0.105880	7016.463935	39411.225139	3973.621066	19649.914108
70.036000	0.063785	0.036577	0.069380	0.105611	7001.718724	39335.564885	3976.075336	19660.237239
70.535500	0.064872	0.036839	0.071816	0.105977	7008.369398	39326.808884	3980.922062	19646.172562
71.036500	0.062208	0.036959	0.068318	0.109163	6954.700900	39071.754866	3965.349264	19524.528577
71.536500	0.063356	0.037053	0.067086	0.106397	6990.532799	39309.733096	3968.902892	19630.116006
72.037000	0.065756	0.037195	0.063333	0.106487	7011.823197	39313.937814	3960.023117	19626.633567
72.537500	0.063804	0.036318	0.063888	0.105842	6999.764323	39294.685527	3962.788527	19651.364570
73.034500	0.060967	0.036824	0.063626	0.110797	6928.591250	38925.429346	3950.829071	19462.483915
73.538000	0.066764	0.035894	0.067341	0.107103	7015.445726	39154.389768	3967.855916	19603.082455
74.035000	0.068230	0.038171	0.063521	0.108265	7018.267640	39247.165562	3956.375589	19558.735966
74.535500	0.066520	0.037455	0.066862	0.107964	7005.233196	39212.572699	3964.754064	19570.192925
75.036000	0.063633	0.035984	0.065730	0.111787	6943.787314	38774.581052	3953.370649	19424.990397
75.536000	0.065621	0.037466	0.071539	0.108466	6992.333094	39171.794232	3974.449169	19551.079484
76.036500	0.065993	0.036995	0.066135	0.108396	6996.391257	39138.409654	3962.078665	19553.719782
76.536500	0.067221	0.036807	0.065079	0.108454	7007.195947	39118.029210	3959.516946	19551.542034
77.036500	0.065519	0.036858	0.066213	0.108755	6988.740655	39097.306997	3961.433803	19540.077887
77.535000	0.066837	0.036331	0.069134	0.108864	6999.858199	39044.449177	3967.928713	19535.894512
78.035500	0.066090	0.036592	0.072993	0.108957	6992.133188	39058.457267	3976.696840	19532.371501
78.534500	0.066396	0.036536	0.070526	0.108914	6995.344045	39057.398672	3971.045507	19534.016731
79.035000	0.066601	0.036107	0.071849	0.109499	6991.850966	38973.421011	3972.764474	19511.765460
79.535500	0.066406	0.036085	0.065341	0.109489	6990.136147	38972.374062	3957.740812	19512.119266
80.036000	0.066687	0.036387	0.069715	0.109484	6992.772830	38997.884023	3967.840062	19512.335365
80.536000	0.066789	0.036383	0.067984	0.109835	6990.476917	38968.460777	3963.024286	19498.977612
81.039000	0.069175	0.036003	0.072719	0.110302	7008.161635	38898.536837	3972.919622	19481.247338
81.536500	0.066210	0.035453	0.067383	0.110169	6982.092303	38864.099560	3960.870379	19486.299289
82.039500	0.068263	0.036756	0.066428	0.110968	6993.622161	38905.699590	3956.843579	19456.011044
82.537500	0.067724	0.037030	0.072118	0.111901	6980.101982	38851.349248	3967.807597	19420.701470
83.037500	0.064559	0.035596	0.065762	0.114998	6923.078898	38479.933982	3946.134032	19304.028010
83.538000	0.067868	0.034950	0.069097	0.110905	6990.564815	38762.142425	3963.124281	19458.396017
84.035500	0.068761	0.035589	0.069901	0.111532	6993.015227	38763.133930	3963.533005	19434.646006
84.535000	0.068801	0.035947	0.070103	0.111974	6989.315769	38756.290222	3962.981682	19417.952434
85.036000	0.064638	0.035142	0.066069	0.117100	6904.839570	38272.141401	3942.072065	19225.326169
85.536000	0.069763	0.035890	0.068674	0.112576	6992.626482	38702.118648	3958.304460	19395.182660
86.036500	0.069160	0.035420	0.063953	0.112578	6987.060274	38663.370176	3947.521428	19395.105656
86.537000	0.066921	0.034459	0.067334	0.112019	6971.664649	38630.488610	3956.510751	19416.249058
87.037500	0.064879	0.035227	0.067420	0.117170	6906.373554	38273.341171	3944.969177	19222.701000
87.540500	0.069022	0.034488	0.069398	0.112836	6983.424108	38565.978753	3959.370888	19385.388015
88.035000	0.067217	0.035540	0.067036	0.113787	6958.212210	38574.314562	3951.786707	19349.555041
88.535500	0.068440	0.034671	0.069931	0.113199	6974.769526	38551.350371	3959.763981	19371.714867
89.035500	0.064158	0.033798	0.072026	0.117879	6893.528493	38100.468060	3953.838726	19196.258655
89.536000	0.068260	0.034373	0.069382	0.114247	6963.528510	38441.498953	3956.098257	19332.237230
90.036500	0.070574	0.034960	0.070138	0.114513	6982.278474	38467.691829	3957.221800	19322.249889
90.536500	0.066936	0.033349	0.071373	0.113854	6955.034506	38390.106848	3961.572873	19347.026435
91.036500	0.066823	0.033658	0.067957	0.119031	6907.126489	37996.421732	3941.976357	19153.364315
91.537000	0.068291	0.033969	0.065559	0.114366	6962.727451	38398.949770	3947.108417	19327.772843
92.034500	0.069426	0.033177	0.062744	0.113658	6979.591000	38392.035567	3942.335556	19354.399164
92.537500	0.068548	0.033040	0.066553	0.114248	6966.151012	38332.961912	3949.635210	19332.192114
93.035000	0.063884	0.032831	0.065161	0.120552	6867.178768	37808.085308	3932.275450	19096.889709
93.562000	0.069519	0.033892	0.071398	0.115862	6960.286920	38271.185217	3957.017283	19271.633850
94.035500	0.069655	0.033120	0.067084	0.115017	6969.246204	38277.113775	3949.093647	19303.319551
94.536000	0.067891	0.032863	0.071494	0.115221	6951.284997	38239.730951	3958.707985	19295.671731
95.039000	0.070271	0.032472	0.064889	0.115414	6971.253966	38192.477974	3943.218209	19288.437793
95.537000	0.069283	0.033480	0.066992	0.116127	6955.714613	38216.359256	3946.365437	19261.710794
96.039500	0.069929	0.033586	0.072368	0.116184	6961.091241	38220.302332	3958.504381	19259.583339
