sample name	sample
index	1290
start time	 04-29-2021  03:04:29 PM
880	0.407133
Peak Time (s)	92.038
Peak Height 	0.4071
calc peak height	90,93
Baseline Time (s)	10.536
Baseline Value 	-0.003707
subtract baseline	10,4
Abs	0.296268
Peak Time (s)	92.038
Peak Height 	0.2963
calc peak height	90,93
Baseline Time (s)	11.036
Baseline Value 	0.004206
subtract baseline	10,3
PK_550	0.153005
Peak Time (s)	91.535
Peak Height 	0.153
calc peak height	90,93
Baseline Time (s)	9.037
Baseline Value 	7.2396E-4
subtract baseline	10,2
PK_880	0.278055
Peak Time (s)	91.535
Peak Height 	0.2781
calc peak height	90,93
Baseline Time (s)	10.536
Baseline Value 	0.002472
subtract baseline	10,1


Time (s)	A880-A510	A880-A775	A880-A975	A880	I510	I775	I975	I880	
0.035000	-0.002116	-0.000480	-0.006242	0.001998	6312.496461	41136.389932	3853.699102	20988.923749
0.538000	-0.002850	-0.001265	-0.003370	0.002819	6300.532698	40995.580338	3858.012459	20954.882013
1.038500	-0.001752	-0.000582	-0.003964	0.003237	6305.755221	41018.750762	3855.881102	20937.561858
1.536000	-0.003232	-0.000027	-0.008049	0.001167	6310.296846	41249.312325	3851.653090	21023.423131
2.036000	-0.000621	-0.000019	-0.000417	0.000896	6332.560739	41273.929219	3868.344387	21034.721534
2.536500	0.000754	-0.000409	-0.003733	0.000764	6344.268517	41251.191403	3861.585160	21040.225265
3.036500	0.000074	-0.000146	-0.005911	-0.000954	6352.346749	41426.132192	3860.612496	21111.875877
3.537000	0.000133	0.000487	0.000085	0.001381	6334.643701	41275.749703	3868.381053	21014.543750
4.037500	-0.002343	-0.000750	0.003380	0.000048	6325.796080	41284.178585	3878.295702	21070.029482
4.535000	-0.002748	-0.000246	0.000274	0.000734	6317.360970	41268.155880	3870.161920	21041.440221
5.035000	-0.000888	-0.000009	0.002161	0.001005	6329.647518	41265.128521	3873.618841	21030.166098
5.534500	0.000550	0.000025	-0.004014	0.000658	6343.497152	41298.765970	3861.213635	21044.607501
6.036000	-0.001325	-0.000310	-0.001531	0.000216	6332.376545	41308.243888	3867.419440	21063.035496
6.536000	-0.001474	0.000226	-0.001226	0.000476	6329.205016	41332.553200	3867.513720	21052.184994
7.036000	-0.001440	0.000360	-0.002930	0.000147	6332.021347	41373.489999	3864.592199	21065.915058
7.536500	0.002925	-0.000251	-0.002076	-0.000155	6368.377223	41346.158656	3867.049258	21078.487312
8.039500	-0.002095	-0.000039	0.004220	-0.000196	6329.598110	41368.450534	3880.632850	21080.200676
8.537000	-0.001872	-0.000238	-0.003999	-0.000165	6331.086935	41348.223753	3862.986911	21078.917165
9.037500	0.001040	0.000000	0.000230	-0.000387	6355.460223	41388.874832	3872.466689	21088.201523
9.535000	0.000216	0.000140	0.001354	0.000018	6345.882493	41365.415320	3874.007064	21071.281557
10.035500	-0.001068	-0.000179	0.000253	-0.000413	6339.250644	41375.346134	3872.570144	21089.273534
10.536000	0.000000	0.000262	-0.006292	0.000000	6344.339961	41377.789822	3857.793896	21072.037606
11.035500	-0.000306	0.000588	0.000000	0.000631	6337.055723	41350.821123	3869.798280	21045.740667
11.536500	0.000254	-0.000069	-0.002618	0.000343	6343.649775	41318.254574	3864.838408	21057.737186
12.036500	-0.000987	-0.000632	-0.005747	0.000046	6336.315683	41294.833385	3858.846208	21070.128541
12.537000	-0.001616	0.000782	-0.000152	0.000925	6324.635327	41341.993270	3868.847253	21033.510007
13.037000	-0.000863	-0.000033	0.002237	0.001315	6327.438713	41235.678615	3873.118540	21017.268635
13.537500	-0.000464	0.000234	-0.004589	0.000554	6336.429026	41326.361865	3860.218284	21048.959477
14.034500	-0.003423	-0.000592	0.001125	0.002002	6302.408293	41126.208755	3869.274155	20988.742691
14.535000	-0.001706	-0.000011	0.002871	0.002128	6314.646717	41166.128890	3872.735362	20983.505116
15.038000	-0.002104	0.000039	-0.002947	0.001205	6318.699099	41251.737904	3862.313802	21021.857042
15.535500	-0.000056	0.000581	-0.001267	0.000686	6338.571179	41345.321437	3866.979903	21043.451050
16.038000	0.000928	-0.000238	0.006058	-0.000099	6352.333359	41342.302867	3884.400824	21076.156123
16.536500	-0.000363	0.000058	-0.002071	-0.000033	6341.771858	41362.675474	3866.798316	21073.394874
17.036500	-0.000714	0.001046	0.003089	-0.000803	6345.033952	41518.372729	3879.503678	21105.573959
17.539000	0.002457	0.001151	0.000342	0.001527	6351.578250	41321.402491	3868.615470	21008.456871
18.036500	-0.002152	-0.000173	-0.004075	0.000874	6320.887597	41262.291080	3860.626921	21035.629878
18.534500	-0.001426	0.000307	0.002558	0.001569	6321.123424	41243.321767	3873.262189	21006.709068
19.035000	-0.003054	0.000571	0.000493	0.001716	6307.441976	41253.643386	3868.536579	21000.622104
19.535000	-0.000237	0.000158	-0.002212	0.001481	6331.006942	41238.011175	3863.286621	21010.405827
20.035500	-0.000130	0.001633	0.001784	0.002765	6321.900322	41254.762699	3869.053491	20957.118748
20.536000	-0.001326	0.000236	0.000885	0.001143	6325.192259	41274.587854	3870.593487	21024.430199
21.035000	-0.002154	-0.000678	-0.001645	0.000924	6320.482646	41213.326513	3865.670504	21033.528207
21.536500	-0.002608	-0.000142	-0.001820	0.001759	6310.542159	41187.095167	3863.528543	20998.840367
22.039500	0.000942	0.000371	-0.003033	0.002262	6334.093933	41187.976331	3859.897229	20977.975333
22.537000	-0.000346	-0.000171	-0.005459	0.001622	6329.069291	41196.624080	3856.133318	21004.525728
23.037500	-0.002730	-0.000764	-0.002718	0.001274	6313.341691	41175.030792	3862.654152	21019.006121
23.535000	-0.001246	0.000217	0.003563	0.002223	6317.465716	41177.820130	3874.014190	20979.565091
24.035500	-0.002248	0.001189	0.001699	0.002595	6306.884698	41230.661470	3869.232756	20964.162096
24.535500	-0.000862	-0.000212	0.000276	0.002092	6321.443393	41151.651479	3867.274121	20985.025540
25.036000	0.001582	0.001052	-0.001983	0.002894	6334.148925	41192.313801	3860.780571	20951.770174
25.536500	-0.001508	-0.000003	0.000231	0.002213	6315.521740	41159.394498	3866.918829	20980.000841
26.036000	-0.002538	0.000420	-0.003708	0.002617	6304.479791	41161.025869	3857.724025	20963.230319
26.536500	-0.000889	0.000972	-0.008160	0.004664	6301.429264	41029.910993	3844.136302	20878.608458
27.037000	0.002246	0.000541	-0.000125	0.000268	6359.757128	41378.765013	3870.305122	21060.855281
27.537000	0.000364	0.000308	-0.001031	-0.000315	6349.624838	41409.698670	3869.617139	21085.183773
28.037500	-0.000316	0.000088	-0.002836	0.001098	6333.360563	41265.517312	3862.775716	21026.300464
28.535000	-0.002288	-0.000316	0.000140	0.005701	6282.770459	40826.762402	3859.334718	20835.852849
29.035000	0.000035	-0.000073	-0.006554	0.001861	6330.167345	41184.197831	3853.333051	20994.614762
29.535500	-0.000783	0.001437	0.001093	0.001819	6324.158042	41320.874155	3869.595346	20996.327524
30.036000	0.000648	0.000586	0.000054	0.001201	6340.044885	41300.328878	3868.697132	21022.033312
30.536000	-0.002016	-0.000292	-0.001829	0.004596	6293.298165	40925.253326	3857.512296	20881.382766
31.039000	-0.000658	0.000456	-0.000261	0.002524	6319.681883	41172.361039	3865.212790	20967.087950
31.539000	0.000078	0.000038	0.005877	0.000397	6341.855853	41322.943115	3882.933935	21055.484414
32.037000	0.001008	0.000569	0.003021	0.000720	6346.585674	41341.287741	3876.077415	21042.050316
32.537000	-0.005521	-0.000468	-0.002667	0.005805	6257.382321	40804.557445	3853.212158	20831.587475
33.035000	-0.002744	-0.000300	0.003405	0.001613	6310.617408	41186.024358	3874.984685	21004.894427
33.534000	-0.000471	0.001002	-0.000070	0.001940	6325.641135	41271.888036	3866.860750	20991.340486
34.035500	-0.001734	0.000712	0.000298	0.002444	6312.001191	41201.960654	3866.570956	20970.404309
34.536000	-0.001553	0.000548	-0.002192	0.004088	6300.747279	41043.249461	3857.818391	20902.364335
35.035000	-0.001059	0.000024	-0.002105	0.002303	6318.290047	41153.849657	3861.770363	20976.248854
35.536500	-0.002715	0.000857	0.002408	0.002804	6301.685694	41183.042812	3870.301748	20955.507871
36.036500	-0.001432	0.000268	-0.003592	0.002563	6313.411654	41152.523873	3858.084516	20965.492953
36.539500	-0.003005	-0.000373	-0.001923	0.004027	6290.086220	40967.906366	3858.514275	20904.890358
37.037000	-0.001323	0.000207	0.004233	0.002395	6315.537304	41161.798799	3875.081598	20972.422599
37.537500	0.000404	-0.000286	0.000222	0.002855	6325.325464	41078.118779	3865.534584	20953.359092
38.037500	-0.001567	-0.000078	0.000162	0.002390	6313.698322	41137.265109	3866.396960	20972.647993
38.535000	-0.001576	0.000075	-0.003476	0.003632	6304.075334	41041.777979	3856.077649	20921.219654
39.035500	-0.000425	0.000731	-0.007794	0.002706	6320.068010	41180.539797	3848.971684	20959.534431
39.536000	-0.002169	-0.000059	0.000716	0.001986	6312.172934	41174.452686	3868.435001	20989.412466
40.036500	-0.000355	0.000079	0.000588	0.002033	6325.816930	41182.426401	3868.062116	20987.459874
40.536000	-0.002311	-0.000123	-0.003155	0.001339	6316.069038	41225.685782	3861.589222	21016.274377
41.039500	-0.003610	-0.000104	-0.002139	0.002097	6300.240645	41160.631585	3862.135140	20984.783992
41.537000	-0.002710	-0.000262	-0.000748	0.001686	6310.320019	41182.974074	3865.958180	21001.871925
42.040000	-0.001335	0.000250	-0.002284	0.002298	6316.202144	41174.140179	3861.402969	20976.462395
42.535000	-0.000582	0.000133	-0.000164	0.002126	6323.343000	41178.950009	3866.263294	20983.592888
43.035000	-0.001774	-0.000884	0.001478	0.001759	6316.971533	41121.899794	3870.545323	20998.832911
43.535500	0.000732	0.000438	0.002052	-0.002426	6368.998880	41608.463135	3880.769063	21173.501187
44.036000	-0.000296	-0.000077	-0.006546	-0.000372	6344.926884	41380.681152	3858.042291	21087.548231
44.536000	-0.001294	0.000097	0.000096	0.000307	6331.914872	41336.145499	3870.696563	21059.249819
45.036000	0.000849	0.000125	-0.002139	0.001387	6340.158030	41243.302907	3863.639365	21014.284727
45.537000	-0.000267	-0.000358	-0.001655	0.000389	6339.238440	41288.737138	3866.788469	21055.823638
46.037000	-0.002384	0.001058	0.000527	0.000833	6319.416065	41374.495621	3870.492580	21037.346489
46.537000	-0.003107	0.000560	0.000488	0.006255	6272.301252	40854.862555	3858.900070	20813.068456
47.035000	-0.003781	0.000589	0.001818	0.003447	6288.590774	41103.051569	3867.671656	20928.888861
47.538000	-0.002044	0.000178	-0.000014	0.002641	6308.097577	41137.690649	3865.489432	20962.249869
48.037500	-0.000747	0.000232	0.003147	0.000738	6332.811240	41309.985673	3876.309491	21041.286690
48.535500	-0.004328	0.000259	0.002168	0.006242	6263.114887	40829.782528	3862.477814	20813.608612
49.036000	-0.002537	-0.000045	-0.002133	0.003308	6299.176634	41059.554168	3859.588741	20934.607461
49.536000	0.000690	0.000823	0.003321	-0.001985	6365.210091	41603.466590	3882.556317	21154.997389
50.036000	0.001512	0.000038	0.004491	0.001097	6347.570138	41261.261159	3878.429504	21026.363482
50.539500	-0.011660	-0.006651	0.004571	0.028760	6044.137369	38350.901232	3820.855642	19911.596710
51.036500	-0.017697	-0.031980	0.003509	0.307055	4565.580153	20566.906645	3404.313349	11892.352266
51.537000	-0.025321	-0.037973	-0.012347	-0.102125	6997.800881	47461.038682	4084.319755	25872.953600
52.035000	-0.022330	-0.103912	-0.017425	-0.314751	9589.697323	65328.371135	4783.681650	40344.509235
52.535000	-0.020552	-0.100429	-0.009166	-0.311100	9561.189486	65304.119850	4803.316502	40031.537292
53.035000	-0.017530	-0.058486	-0.005993	-0.245398	8674.879923	61986.946417	4553.840729	34827.128360
53.535500	-0.009772	-0.038501	0.002148	-0.195193	8143.354171	58021.561930	4405.123674	31348.463326
54.036000	-0.010269	-0.023851	-0.000240	-0.150050	7626.905903	54290.298674	4253.532883	28545.963794
54.536000	-0.009257	-0.019729	-0.005128	-0.157769	7721.555896	55708.151011	4262.103326	29004.760450
55.039000	-0.001494	-0.021913	0.000325	-0.186581	8139.366712	59041.389392	4370.406719	30791.073959
55.536500	0.007212	-0.014308	0.013128	-0.146148	7774.933082	54961.049257	4282.414146	28317.172615
56.036500	0.013140	-0.008125	0.016292	-0.099401	7343.571406	50326.882219	4154.510553	25729.733388
56.534500	0.021569	0.001245	0.031059	-0.036350	6826.258441	44823.339880	4027.015305	22653.050735
57.035000	0.033943	0.007384	0.039280	-0.008231	6688.825620	42758.950691	3978.462680	21418.532239
57.535500	0.047776	0.014709	0.051587	0.021174	6557.722714	40787.832801	3938.485386	20210.276682
58.035500	0.064122	0.026308	0.068274	0.056082	6407.456936	38812.813327	3897.575623	18878.146959
58.536000	0.076378	0.034654	0.079465	0.096490	6191.470408	36263.697926	3835.458031	17464.070394
59.036000	0.088466	0.039482	0.093109	0.131844	6023.249155	34005.495552	3791.935235	16330.317935
59.536000	0.105947	0.049611	0.114105	0.165593	5910.856390	32363.875976	3767.364627	15330.815709
60.036500	0.118402	0.056387	0.130464	0.189544	5833.935731	31224.978695	3753.074944	14667.155964
60.537000	0.135580	0.065407	0.138105	0.214795	5781.132473	30189.417618	3720.879652	14006.023321
61.036500	0.150064	0.073760	0.159214	0.240368	5710.166125	29132.135646	3712.923792	13374.483936
61.537500	0.144540	0.074227	0.164059	0.249440	5619.485855	28619.342185	3705.463722	13159.224648
62.035000	0.153273	0.080127	0.165892	0.248712	5677.918464	29013.443813	3709.974608	13176.347203
62.535000	0.157002	0.083020	0.169921	0.251776	5682.072480	29003.180770	3711.682300	13104.541288
63.044000	0.160612	0.088388	0.172848	0.264043	5628.473351	28593.273327	3695.322936	12822.055342
63.538500	0.169969	0.091232	0.181270	0.268343	5659.654679	28507.624890	3702.498616	12724.926018
64.039000	0.173553	0.094254	0.178709	0.276595	5630.861014	28202.165421	3683.818405	12541.171343
64.539000	0.180100	0.096658	0.189226	0.281360	5641.818475	28065.535826	3693.698334	12436.653014
65.037000	0.181629	0.100471	0.192864	0.287980	5610.637838	27903.989060	3688.560851	12293.326373
65.540000	0.188915	0.104203	0.200745	0.298490	5591.077082	27518.184311	3684.059054	12070.208038
66.037500	0.190635	0.105705	0.196051	0.307970	5544.594598	27071.790259	3660.259158	11873.550730
66.534500	0.195458	0.107617	0.205464	0.315307	5529.715885	26772.869917	3663.695423	11724.259281
67.035000	0.200653	0.110033	0.207301	0.323089	5514.490918	26480.893552	3653.895279	11568.655743
67.535500	0.203536	0.112056	0.215761	0.327980	5502.742823	26326.342253	3659.763815	11472.287730
68.035500	0.207756	0.113479	0.219413	0.333073	5497.644315	26129.960666	3657.388194	11373.060852
68.536000	0.212199	0.116202	0.221402	0.339746	5484.681465	25920.501227	3649.723092	11244.820818
69.036000	0.213070	0.118216	0.223906	0.344637	5461.476637	25769.112822	3645.848359	11152.052764
69.536500	0.217376	0.120255	0.230418	0.347087	5472.163240	25747.583291	3652.454762	11105.993337
70.037000	0.219546	0.121964	0.234110	0.350259	5466.389023	25671.057052	3653.305036	11046.731010
70.537000	0.221046	0.123701	0.237033	0.357381	5434.236571	25391.577615	3646.469552	10915.227561
71.034500	0.225396	0.126730	0.237786	0.359078	5449.359214	25460.427835	3644.941726	10884.219607
71.537500	0.229854	0.127538	0.241905	0.362668	5454.322342	25316.926169	3645.796287	10818.990609
72.035000	0.229407	0.131181	0.246871	0.366738	5428.582663	25294.979374	3647.249284	10745.710738
72.535500	0.233690	0.132396	0.248857	0.373461	5414.788812	25013.922418	3639.607696	10626.143342
73.036000	0.235538	0.135249	0.246642	0.373152	5426.977531	25174.864418	3636.556710	10631.599666
73.536000	0.239268	0.135790	0.253799	0.374099	5442.793720	25154.084087	3646.545206	10614.885908
74.039000	0.240881	0.136417	0.252357	0.376186	5440.093746	25079.762142	3640.851287	10578.208899
74.536500	0.242598	0.137813	0.252091	0.381335	5420.626766	24889.720519	3632.203830	10488.449179
75.037000	0.246334	0.138790	0.252365	0.381211	5442.536994	24945.310767	3632.834267	10490.596996
75.537500	0.249051	0.141124	0.265972	0.383555	5444.659828	24944.805759	3650.963757	10450.074959
76.034500	0.247769	0.142910	0.269024	0.385414	5426.800797	24941.112477	3652.911495	10418.087128
76.534500	0.252355	0.144507	0.263355	0.387862	5438.948705	24898.160111	3639.763067	10376.185505
77.035000	0.253646	0.144520	0.262037	0.388809	5440.902414	24851.071162	3636.136866	10360.026132
77.535500	0.254382	0.146295	0.270027	0.390064	5437.947047	24877.235217	3646.971815	10338.676438
78.039000	0.259466	0.147121	0.267669	0.391929	5456.335589	24824.956985	3640.159621	10307.067715
78.536500	0.259674	0.146916	0.275107	0.394902	5440.530220	24665.813350	3647.364754	10256.960939
79.036500	0.262024	0.148017	0.271285	0.395315	5451.592476	24700.191721	3640.529648	10250.037311
79.537000	0.260691	0.147851	0.273847	0.394075	5451.055999	24753.903002	3646.662725	10270.859994
80.037000	0.263936	0.148260	0.272754	0.395074	5463.943008	24724.366687	3643.281975	10254.081651
80.535000	0.263708	0.148074	0.272053	0.397661	5447.803292	24586.025648	3637.998053	10210.764615
81.034500	0.264884	0.148479	0.278716	0.395777	5465.351791	24700.150980	3651.814410	10242.283488
81.538000	0.266125	0.148591	0.268506	0.395835	5472.168576	24702.843932	3635.248653	10241.306077
82.038500	0.267307	0.148739	0.275643	0.396640	5474.347193	24670.045258	3645.418600	10227.826948
82.535500	0.268106	0.150164	0.284333	0.400009	5459.550399	24573.253914	3654.080482	10171.689848
83.036000	0.271181	0.149768	0.287438	0.397830	5489.889659	24661.999785	3662.784435	10207.940585
83.539000	0.269951	0.149145	0.281559	0.398114	5481.113680	24616.804233	3652.640791	10203.211608
84.036500	0.268410	0.149575	0.279876	0.397862	5473.654536	24650.775302	3650.305899	10207.410174
84.536000	0.268046	0.148451	0.272776	0.399145	5464.165593	24531.058512	3636.781436	10186.036475
85.037000	0.270425	0.150782	0.288653	0.399832	5473.917339	24612.766582	3661.481491	10174.616031
85.537500	0.271370	0.150018	0.278071	0.400079	5477.953022	24562.491190	3643.783791	10170.520343
86.037500	0.271048	0.150659	0.284046	0.400838	5471.710017	24556.643180	3652.253929	10157.935512
86.535500	0.271202	0.148989	0.291822	0.401872	5466.639030	24422.824824	3663.352817	10140.830736
87.035500	0.271818	0.149914	0.286674	0.400829	5476.207322	24520.129124	3656.574362	10158.085072
87.535500	0.274072	0.151058	0.283803	0.402037	5482.260351	24516.958154	3649.902132	10138.101520
88.039000	0.270528	0.149326	0.291664	0.400868	5468.540217	24489.102504	3664.757874	10157.442189
88.536500	0.275509	0.151371	0.295738	0.403358	5482.935172	24467.078200	3667.396297	10116.310418
89.037000	0.271347	0.151534	0.292014	0.403704	5456.943362	24458.019102	3660.636777	10110.604968
89.537000	0.274317	0.152411	0.293234	0.404655	5468.546887	24454.326607	3661.080806	10094.967375
90.040000	0.273664	0.150035	0.295493	0.403348	5472.319865	24401.589381	3667.003135	10116.470059
90.537500	0.274494	0.152138	0.291201	0.407008	5456.042745	24324.982373	3653.864777	10056.429664
91.035500	0.272668	0.150967	0.292266	0.404834	5458.038994	24374.308283	3659.187997	10092.032707
91.535500	0.278055	0.153005	0.294550	0.406442	5479.810236	24395.454773	3660.303036	10065.673322
92.038500	0.276477	0.152968	0.296268	0.407133	5466.712945	24359.614293	3662.000882	10054.383313
92.540500	0.272874	0.150940	0.290086	0.405302	5456.535594	24349.941146	3654.832104	10084.343498
93.039000	0.278487	0.153630	0.291085	0.408429	5470.835289	24328.462684	3651.352720	10033.259219
93.539000	0.273312	0.152185	0.287493	0.407234	5447.985165	24316.174442	3647.453336	10052.733929
94.037000	0.275586	0.152552	0.292015	0.407811	5457.696149	24305.875986	3653.882283	10043.318935
94.537500	0.275475	0.152626	0.293984	0.408429	5453.525680	24279.239369	3656.099072	10033.261808
95.034500	0.276367	0.152065	0.295654	0.408525	5458.086871	24247.030519	3658.688057	10031.691297
95.534500	0.274547	0.152615	0.292429	0.408844	5445.841233	24258.344962	3652.869494	10026.501518
96.035500	0.275121	0.151931	0.293043	0.408573	5450.673676	24238.129552	3654.318205	10030.915039
