sample name	sample
index	1481
start time	 05-18-2021  12:34:01 PM


Wavelength (nm)	Absorbance
494.344910	0.003831
494.563924	0.003831
494.782919	0.003831
495.001897	0.132938
495.220856	-0.021236
495.439797	-0.035059
495.658719	-0.048399
495.877624	-0.058247
496.096510	-0.071219
496.315378	-0.069129
496.534227	-0.055339
496.753059	-0.035197
496.971872	-0.014102
497.190667	0.116843
497.409444	0.148216
497.628203	0.158648
497.846943	0.162868
498.065665	0.164406
498.284369	0.166457
498.503055	0.167540
498.721723	0.168274
498.940372	0.168379
499.159003	0.168246
499.377616	0.167577
499.596210	0.167087
499.814787	0.167958
500.033345	0.168541
500.251885	0.167879
500.470406	0.168407
500.688910	0.169468
500.907395	0.169783
501.125862	0.170712
501.344311	0.171331
501.562742	0.172233
501.781154	0.171982
501.999548	0.173184
502.217924	0.173458
502.436282	0.173519
502.654621	0.173642
502.872942	0.173319
503.091245	0.172819
503.309530	0.173386
503.527797	0.172247
503.746045	0.171435
503.964275	0.171012
504.182487	0.170637
504.400681	0.170554
504.618856	0.171013
504.837013	0.172005
505.055152	0.171833
505.273273	0.171431
505.491376	0.172820
505.709460	0.173343
505.927526	0.173521
506.145574	0.173506
506.363604	0.173698
506.581615	0.173782
506.799608	0.173827
507.017583	0.173835
507.235540	0.174955
507.453478	0.174764
507.671399	0.174503
507.889301	0.173258
508.107185	0.174057
508.325050	0.173908
508.542898	0.173812
508.760727	0.174100
508.978538	0.174534
509.196330	0.173822
509.414105	0.173730
509.631861	0.173425
509.849599	0.173893
510.067319	0.173784
510.285021	0.174221
510.502704	0.173865
510.720369	0.172296
510.938016	0.171710
511.155645	0.172120
511.373255	0.172356
511.590848	0.173047
511.808422	0.173701
512.025977	0.173136
512.243515	0.172408
512.461034	0.173076
512.678536	0.174281
512.896018	0.175481
513.113483	0.174882
513.330930	0.174908
513.548358	0.175790
513.765768	0.175871
513.983160	0.176309
514.200533	0.177048
514.417889	0.176849
514.635226	0.177028
514.852545	0.176186
515.069845	0.177422
515.287128	0.177607
515.504392	0.177296
515.721638	0.177493
515.938866	0.176986
516.156075	0.177363
516.373267	0.176914
516.590440	0.177040
516.807594	0.178144
517.024731	0.176899
517.241850	0.176300
517.458950	0.176247
517.676032	0.176894
517.893095	0.177501
518.110141	0.176887
518.327168	0.177795
518.544177	0.177984
518.761168	0.177856
518.978141	0.178682
519.195095	0.179756
519.412031	0.180143
519.628949	0.179242
519.845849	0.180524
520.062731	0.180686
520.279594	0.179705
520.496439	0.179495
520.713266	0.179326
520.930074	0.180004
521.146865	0.179704
521.363637	0.179453
521.580391	0.179822
521.797127	0.179213
522.013844	0.180366
522.230543	0.180674
522.447224	0.181130
522.663887	0.182094
522.880532	0.181905
523.097158	0.181819
523.313766	0.181695
523.530356	0.181885
523.746928	0.182735
523.963481	0.182632
524.180017	0.183303
524.396534	0.183417
524.613032	0.183206
524.829513	0.183293
525.045975	0.183999
525.262420	0.184726
525.478845	0.184986
525.695253	0.184798
525.911643	0.185244
526.128014	0.185269
526.344367	0.186062
526.560702	0.185557
526.777018	0.186226
526.993316	0.186206
527.209597	0.185805
527.425858	0.186104
527.642102	0.185935
527.858328	0.185846
528.074535	0.186501
528.290724	0.186555
528.506894	0.187291
528.723047	0.186914
528.939181	0.187140
529.155297	0.187716
529.371395	0.187829
529.587475	0.188160
529.803536	0.187895
530.019579	0.188821
530.235604	0.188403
530.451611	0.188754
530.667600	0.189418
530.883570	0.189878
531.099522	0.190464
531.315456	0.190842
531.531372	0.190870
531.747269	0.191597
531.963148	0.191362
532.179009	0.191932
532.394852	0.192278
532.610676	0.192426
532.826482	0.192157
533.042271	0.192125
533.258040	0.192081
533.473792	0.192876
533.689525	0.192913
533.905240	0.192525
534.120937	0.193008
534.336616	0.192657
534.552277	0.193423
534.767919	0.193967
534.983543	0.194840
535.199149	0.195628
535.414736	0.195975
535.630306	0.196567
535.845857	0.196941
536.061390	0.196659
536.276904	0.196747
536.492401	0.196407
536.707879	0.196719
536.923339	0.196150
537.138781	0.196129
537.354204	0.196273
537.569610	0.196100
537.784997	0.196788
538.000366	0.197166
538.215716	0.197684
538.431049	0.197982
538.646363	0.198243
538.861659	0.198872
539.076937	0.199114
539.292196	0.198977
539.507438	0.199830
539.722661	0.199475
539.937866	0.199678
540.153052	0.200052
540.368221	0.199676
540.583371	0.199790
540.798503	0.199403
541.013617	0.199690
541.228712	0.200436
541.443789	0.200218
541.658848	0.200733
541.873889	0.200976
542.088912	0.201423
542.303916	0.202024
542.518902	0.202303
542.733870	0.202866
542.948820	0.203084
543.163752	0.202882
543.378665	0.203203
543.593560	0.203645
543.808437	0.204107
544.023295	0.204059
544.238136	0.204636
544.452958	0.204657
544.667762	0.205089
544.882548	0.205467
545.097315	0.205330
545.312064	0.205476
545.526795	0.205107
545.741508	0.205128
545.956203	0.205635
546.170879	0.205618
546.385537	0.206033
546.600177	0.206025
546.814799	0.205877
547.029402	0.206729
547.243988	0.206921
547.458555	0.206975
547.673103	0.207413
547.887634	0.207003
548.102146	0.207528
548.316640	0.207528
548.531116	0.207830
548.745574	0.208613
548.960013	0.208409
549.174435	0.208990
549.388838	0.209905
549.603222	0.209958
549.817589	0.210867
550.031937	0.210803
550.246267	0.211377
550.460579	0.211393
550.674873	0.211030
550.889148	0.211193
551.103405	0.211138
551.317644	0.210818
551.531865	0.210791
551.746068	0.210399
551.960252	0.210540
552.174418	0.210800
552.388566	0.211185
552.602696	0.211335
552.816807	0.211802
553.030900	0.211990
553.244975	0.212343
553.459032	0.212725
553.673070	0.213120
553.887091	0.213321
554.101093	0.213429
554.315077	0.213335
554.529042	0.213353
554.742990	0.213745
554.956919	0.214002
555.170830	0.213719
555.384722	0.213477
555.598597	0.214021
555.812453	0.213793
556.026291	0.213561
556.240111	0.214477
556.453913	0.214876
556.667696	0.214569
556.881461	0.214119
557.095208	0.214566
557.308937	0.214671
557.522647	0.214384
557.736339	0.214477
557.950013	0.214877
558.163669	0.214186
558.377307	0.214529
558.590926	0.214537
558.804527	0.214882
559.018110	0.215075
559.231675	0.215353
559.445221	0.215327
559.658749	0.215996
559.872259	0.216302
560.085751	0.216696
560.299225	0.216390
560.512680	0.216661
560.726117	0.216901
560.939536	0.217053
561.152937	0.217552
561.366319	0.217857
561.579683	0.217888
561.793029	0.217872
562.006357	0.218157
562.219667	0.218433
562.432958	0.218793
562.646231	0.219271
562.859486	0.219111
563.072723	0.219476
563.285941	0.220048
563.499141	0.220464
563.712323	0.220762
563.925487	0.220902
564.138632	0.220863
564.351760	0.220738
564.564869	0.220304
564.777960	0.220268
564.991032	0.220062
565.204087	0.220008
565.417123	0.219833
565.630141	0.220050
565.843140	0.219844
566.056122	0.220388
566.269085	0.220441
566.482030	0.221306
566.694957	0.222039
566.907866	0.222143
567.120756	0.222026
567.333628	0.222095
567.546482	0.222195
567.759318	0.222715
567.972135	0.223029
568.184935	0.223560
568.397716	0.223434
568.610478	0.223351
568.823223	0.223376
569.035949	0.223530
569.248657	0.223895
569.461347	0.223809
569.674019	0.223870
569.886672	0.223539
570.099308	0.223681
570.311925	0.223766
570.524523	0.224128
570.737104	0.224196
570.949666	0.224231
571.162210	0.224485
571.374736	0.224544
571.587244	0.224415
571.799733	0.224867
572.012205	0.224874
572.224658	0.224932
572.437092	0.224728
572.649509	0.225244
572.861907	0.225551
573.074287	0.225488
573.286649	0.225912
573.498993	0.226316
573.711318	0.226604
573.923625	0.226974
574.135914	0.227186
574.348185	0.228180
574.560438	0.228757
574.772672	0.229259
574.984888	0.229220
575.197086	0.229127
575.409266	0.229378
575.621427	0.229313
575.833570	0.229606
576.045695	0.229762
576.257802	0.229490
576.469890	0.229180
576.681961	0.229122
576.894013	0.229342
577.106046	0.229088
577.318062	0.229058
577.530059	0.229090
577.742039	0.228650
577.954000	0.228688
578.165942	0.228961
578.377867	0.229464
578.589773	0.229560
578.801661	0.230204
579.013531	0.230662
579.225382	0.230975
579.437216	0.231086
579.649031	0.231629
579.860828	0.231925
580.072606	0.231410
580.284367	0.230988
580.496109	0.231288
580.707833	0.231220
580.919539	0.231264
581.131227	0.231476
581.342896	0.232002
581.554547	0.231868
581.766180	0.232011
581.977795	0.232816
582.189391	0.233101
582.400969	0.232970
582.612529	0.232823
582.824071	0.233129
583.035595	0.233380
583.247100	0.233411
583.458587	0.233433
583.670056	0.233769
583.881506	0.233843
584.092939	0.233752
584.304353	0.233941
584.515749	0.234347
584.727127	0.234572
584.938486	0.234284
585.149828	0.234338
585.361151	0.234993
585.572456	0.234619
585.783742	0.234728
585.995011	0.235322
586.206261	0.235526
586.417493	0.235207
586.628706	0.235721
586.839902	0.235731
587.051079	0.235480
587.262238	0.235361
587.473379	0.235851
587.684502	0.235837
587.895606	0.235677
588.106692	0.235876
588.317760	0.236184
588.528810	0.236088
588.739841	0.236583
588.950855	0.236556
589.161850	0.236751
589.372827	0.236758
589.583785	0.236871
589.794726	0.237107
590.005648	0.237419
590.216552	0.237678
590.427437	0.237524
590.638305	0.237721
590.849154	0.238277
591.059985	0.238455
591.270798	0.238783
591.481592	0.238775
591.692369	0.238893
591.903127	0.238923
592.113867	0.239290
592.324588	0.239733
592.535292	0.240097
592.745977	0.240576
592.956644	0.240889
593.167293	0.241327
593.377923	0.241606
593.588536	0.241683
593.799130	0.241550
594.009706	0.241491
594.220263	0.241626
594.430803	0.241267
594.641324	0.241451
594.851827	0.241147
595.062312	0.240740
595.272778	0.241277
595.483227	0.241514
595.693657	0.241880
595.904069	0.242134
596.114462	0.242136
596.324838	0.242479
596.535195	0.242496
596.745534	0.243016
596.955855	0.243207
597.166157	0.243050
597.376441	0.243219
597.586707	0.243253
597.796955	0.243143
598.007185	0.243701
598.217396	0.243821
598.427589	0.243523
598.637764	0.243748
598.847921	0.244069
599.058060	0.244550
599.268180	0.244601
599.478282	0.244682
599.688366	0.245230
599.898431	0.244991
600.108479	0.245271
600.318508	0.245723
600.528519	0.245448
600.738511	0.245191
600.948486	0.244936
601.158442	0.245362
601.368380	0.245952
601.578300	0.245830
601.788202	0.245606
601.998085	0.245561
602.207950	0.245756
602.417797	0.245839
602.627626	0.246241
602.837436	0.246520
603.047228	0.246078
603.257002	0.245976
603.466758	0.246036
603.676496	0.246354
603.886215	0.246703
604.095916	0.246588
604.305599	0.246932
604.515264	0.246936
604.724910	0.247249
604.934538	0.247603
605.144148	0.247708
605.353740	0.248103
605.563314	0.248505
605.772869	0.248485
605.982406	0.248709
606.191925	0.249070
606.401425	0.249394
606.610908	0.249448
606.820372	0.249516
607.029818	0.249856
607.239246	0.249682
607.448655	0.249135
607.658047	0.249127
607.867420	0.249298
608.076775	0.249125
608.286111	0.249048
608.495430	0.248927
608.704730	0.249239
608.914012	0.248689
609.123275	0.248582
609.332521	0.249294
609.541748	0.249503
609.750957	0.249348
609.960148	0.249277
610.169321	0.249433
610.378475	0.249802
610.587611	0.249709
610.796729	0.250186
611.005829	0.250343
611.214910	0.250431
611.423974	0.250566
611.633019	0.251275
611.842045	0.251498
612.051054	0.251802
612.260044	0.251799
612.469017	0.252006
612.677970	0.252269
612.886906	0.252435
613.095824	0.252668
613.304723	0.253029
613.513604	0.252997
613.722467	0.253500
613.931311	0.253501
614.140138	0.253495
614.348946	0.253752
614.557736	0.253712
614.766507	0.254288
614.975261	0.254485
615.183996	0.254365
615.392713	0.254541
615.601412	0.254488
615.810092	0.254737
616.018754	0.255207
616.227399	0.255282
616.436024	0.255661
616.644632	0.255628
616.853222	0.255601
617.061793	0.255861
617.270346	0.255794
617.478880	0.255882
617.687397	0.255974
617.895895	0.256042
618.104375	0.255996
618.312837	0.256057
618.521281	0.256188
618.729706	0.256341
618.938113	0.256308
619.146502	0.256313
619.354873	0.256535
619.563226	0.256616
619.771560	0.256690
619.979876	0.256923
620.188174	0.257090
620.396453	0.257228
620.604715	0.257122
620.812958	0.257316
621.021183	0.257499
621.229390	0.257715
621.437578	0.257737
621.645748	0.257552
621.853900	0.257599
622.062034	0.257412
622.270150	0.257378
622.478247	0.257587
622.686326	0.257302
622.894387	0.257564
623.102430	0.257239
623.310454	0.257352
623.518461	0.257668
623.726449	0.258000
623.934418	0.258177
624.142370	0.258405
624.350303	0.258660
624.558218	0.259297
624.766115	0.259193
624.973994	0.259578
625.181855	0.259659
625.389697	0.259889
625.597521	0.260011
625.805327	0.259974
626.013114	0.260254
626.220883	0.260125
626.428634	0.260034
626.636367	0.260233
626.844082	0.260061
627.051778	0.260285
627.259457	0.260208
627.467117	0.260520
627.674758	0.260910
627.882382	0.260776
628.089987	0.261153
628.297574	0.261097
628.505143	0.261387
628.712694	0.261807
628.920226	0.262269
629.127740	0.262524
629.335236	0.262346
629.542714	0.262625
629.750174	0.262822
629.957615	0.263009
630.165038	0.263439
630.372443	0.263519
630.579829	0.263798
630.787198	0.263495
630.994548	0.263617
631.201880	0.263619
631.409194	0.263579
631.616489	0.263766
631.823766	0.263691
632.031025	0.263799
632.238266	0.263738
632.445489	0.263686
632.652693	0.263965
632.859879	0.264392
633.067047	0.264751
633.274197	0.264989
633.481329	0.264987
633.688442	0.265344
633.895537	0.265673
634.102614	0.266375
634.309672	0.266575
634.516713	0.266806
634.723735	0.266687
634.930739	0.266891
635.137724	0.266821
635.344692	0.267057
635.551641	0.267114
635.758572	0.267170
635.965485	0.266872
636.172379	0.267030
636.379256	0.267099
636.586114	0.267106
636.792954	0.267183
636.999775	0.267544
637.206579	0.267492
637.413364	0.267541
637.620131	0.267447
637.826880	0.267525
638.033610	0.267400
638.240323	0.267413
638.447017	0.267611
638.653692	0.267683
638.860350	0.267764
639.066990	0.268293
639.273611	0.268517
639.480214	0.268712
639.686798	0.269064
639.893365	0.269519
640.099913	0.269597
640.306443	0.269501
640.512955	0.269912
640.719449	0.269783
640.925924	0.269908
641.132381	0.269974
641.338820	0.270278
641.545241	0.270527
641.751644	0.270567
641.958028	0.270901
642.164394	0.271522
642.370742	0.271296
642.577071	0.271786
642.783383	0.271703
642.989676	0.272180
643.195951	0.272335
643.402207	0.272296
643.608446	0.272587
643.814666	0.272721
644.020868	0.272653
644.227052	0.272971
644.433218	0.273143
644.639365	0.273374
644.845494	0.273083
645.051605	0.273201
645.257698	0.273106
645.463772	0.272977
645.669828	0.273220
645.875866	0.273476
646.081886	0.273405
646.287888	0.273221
646.493871	0.273314
646.699836	0.273760
646.905783	0.273951
647.111712	0.274323
647.317622	0.274723
647.523514	0.275033
647.729388	0.275140
647.935244	0.275278
648.141082	0.275814
648.346901	0.276239
648.552702	0.276345
648.758485	0.276757
648.964250	0.277062
649.169996	0.277223
649.375724	0.277222
649.581434	0.277218
649.787126	0.277577
649.992800	0.277891
650.198455	0.278054
650.404092	0.278223
650.609711	0.278220
650.815311	0.278331
651.020894	0.278526
651.226458	0.278846
651.432004	0.279291
651.637532	0.279566
651.843041	0.279533
652.048532	0.279330
652.254006	0.279445
652.459460	0.279526
652.664897	0.279663
652.870315	0.279885
653.075716	0.279820
653.281097	0.280104
653.486461	0.279967
653.691807	0.279841
653.897134	0.280181
654.102443	0.280345
654.307734	0.280246
654.513006	0.280557
654.718261	0.280576
654.923497	0.280779
655.128715	0.280626
655.333915	0.280860
655.539096	0.281251
655.744259	0.281368
655.949404	0.281366
656.154531	0.281808
656.359640	0.281867
656.564730	0.282078
656.769802	0.282297
656.974856	0.282507
657.179892	0.282935
657.384909	0.283245
657.589908	0.283395
657.794889	0.283659
657.999852	0.283881
658.204797	0.284124
658.409723	0.284234
658.614631	0.284414
658.819521	0.284375
659.024393	0.284547
659.229246	0.284710
659.434081	0.285182
659.638898	0.285642
659.843697	0.285965
660.048478	0.286118
660.253240	0.286449
660.457984	0.286588
660.662710	0.286922
660.867417	0.286981
661.072107	0.287094
661.276778	0.287088
661.481431	0.287281
661.686066	0.287398
661.890682	0.287604
662.095281	0.287815
662.299861	0.288044
662.504422	0.288209
662.708966	0.288420
662.913491	0.288529
663.117999	0.288484
663.322488	0.288515
663.526958	0.288435
663.731411	0.288541
663.935845	0.288759
664.140261	0.289005
664.344659	0.289373
664.549038	0.289428
664.753400	0.289584
664.957743	0.290118
665.162068	0.290257
665.366375	0.290743
665.570663	0.290693
665.774933	0.290565
665.979185	0.290570
666.183419	0.290584
666.387635	0.291070
666.591832	0.291424
666.796011	0.291297
667.000172	0.291357
667.204315	0.291300
667.408439	0.291681
667.612545	0.292012
667.816634	0.292476
668.020703	0.292608
668.224755	0.292837
668.428788	0.292968
668.632803	0.293352
668.836800	0.293654
669.040779	0.293941
669.244739	0.294114
669.448681	0.294305
669.652605	0.294299
669.856511	0.294581
670.060399	0.294652
670.264268	0.294652
670.468119	0.294878
670.671952	0.294875
670.875767	0.295022
671.079563	0.295319
671.283341	0.295494
671.487101	0.295741
671.690843	0.295958
671.894567	0.296137
672.098272	0.296391
672.301959	0.296487
672.505628	0.296775
672.709278	0.297075
672.912911	0.296826
673.116525	0.296854
673.320121	0.297069
673.523699	0.297503
673.727258	0.297264
673.930799	0.297443
674.134322	0.297702
674.337827	0.297899
674.541314	0.297842
674.744782	0.298567
674.948232	0.298696
675.151664	0.298539
675.355078	0.298512
675.558474	0.299000
675.761851	0.299190
675.965210	0.299269
676.168551	0.299581
676.371873	0.299670
676.575178	0.299652
676.778464	0.300362
676.981732	0.300829
677.184981	0.301011
677.388213	0.301248
677.591426	0.301416
677.794621	0.301551
677.997798	0.301638
678.200956	0.302097
678.404097	0.302373
678.607219	0.302455
678.810323	0.302533
679.013408	0.302729
679.216476	0.303041
679.419525	0.303355
679.622556	0.303606
679.825569	0.303977
680.028563	0.304201
680.231540	0.304070
680.434498	0.304249
680.637438	0.304540
680.840359	0.304550
681.043263	0.304639
681.246148	0.304943
681.449015	0.305396
681.651864	0.305384
681.854694	0.305712
682.057506	0.306061
682.260301	0.306050
682.463076	0.306163
682.665834	0.306579
682.868573	0.306865
683.071295	0.306772
683.273998	0.306870
683.476682	0.307099
683.679349	0.306995
683.881997	0.307256
684.084627	0.307411
684.287239	0.307351
684.489833	0.307402
684.692408	0.307277
684.894965	0.307653
685.097504	0.307724
685.300025	0.307748
685.502527	0.307931
685.705012	0.308145
685.907478	0.308395
686.109925	0.308607
686.312355	0.308867
686.514766	0.309254
686.717159	0.309241
686.919534	0.309611
687.121891	0.309860
687.324230	0.310224
687.526550	0.310353
687.728852	0.310319
687.931136	0.310782
688.133401	0.311085
688.335649	0.311277
688.537878	0.311579
688.740089	0.311559
688.942281	0.311822
689.144456	0.312026
689.346612	0.312341
689.548750	0.312567
689.750870	0.312707
689.952971	0.312631
690.155055	0.312712
690.357120	0.312784
690.559167	0.312830
690.761195	0.312981
690.963206	0.312883
691.165198	0.312562
691.367172	0.312893
691.569128	0.312812
691.771065	0.313008
691.972984	0.313121
692.174885	0.313312
692.376768	0.313343
692.578633	0.313338
692.780479	0.313496
692.982308	0.313970
693.184118	0.314012
693.385909	0.314572
693.587683	0.314821
693.789438	0.314920
693.991175	0.314998
694.192894	0.315187
694.394595	0.315411
694.596277	0.315421
694.797941	0.315379
694.999587	0.315387
695.201215	0.315187
695.402824	0.315019
695.604416	0.315159
695.805989	0.315325
696.007543	0.315451
696.209080	0.315359
696.410598	0.315342
696.612099	0.315401
696.813580	0.315552
697.015044	0.315650
697.216490	0.315940
697.417917	0.315715
697.619326	0.315719
697.820717	0.315765
698.022089	0.316019
698.223444	0.316321
698.424780	0.316529
698.626098	0.316549
698.827397	0.316650
699.028679	0.316662
699.229942	0.317121
699.431187	0.317064
699.632414	0.317180
699.833622	0.317271
700.034813	0.317577
700.235985	0.317690
700.437139	0.317997
700.638274	0.318055
700.839392	0.318033
701.040491	0.318239
701.241572	0.318574
701.442635	0.318745
701.643679	0.318950
701.844706	0.318984
702.045714	0.319172
702.246704	0.319165
702.447675	0.319517
702.648629	0.319865
702.849564	0.319757
703.050481	0.319819
703.251380	0.319985
703.452260	0.320190
703.653122	0.320043
703.853966	0.319969
704.054792	0.319828
704.255600	0.319887
704.456389	0.319784
704.657160	0.319971
704.857913	0.320059
705.058648	0.319926
705.259365	0.319667
705.460063	0.319516
705.660743	0.319557
705.861405	0.319730
706.062048	0.319403
706.262674	0.319311
706.463281	0.319137
706.663870	0.319005
706.864441	0.319112
707.064993	0.319225
707.265527	0.319322
707.466043	0.319420
707.666541	0.319368
707.867021	0.319695
708.067482	0.320024
708.267925	0.320267
708.468350	0.320657
708.668757	0.320657
708.869145	0.320625
709.069516	0.320739
709.269868	0.320797
709.470201	0.320984
709.670517	0.321030
709.870814	0.320929
710.071093	0.320807
710.271354	0.320530
710.471597	0.320704
710.671821	0.320884
710.872028	0.320860
711.072216	0.320855
711.272385	0.320648
711.472537	0.320580
711.672670	0.320409
711.872785	0.320161
712.072882	0.320324
712.272961	0.319922
712.473021	0.319807
712.673063	0.319691
712.873087	0.319576
713.073093	0.319572
713.273081	0.319329
713.473050	0.319206
713.673001	0.319237
713.872934	0.318936
714.072849	0.319217
714.272745	0.319292
714.472623	0.319547
714.672483	0.319438
714.872325	0.319617
715.072148	0.319723
715.271954	0.320027
715.471741	0.320384
715.671509	0.320378
715.871260	0.320047
716.070992	0.319892
716.270707	0.319599
716.470403	0.319587
716.670080	0.319450
716.869740	0.319009
717.069381	0.318761
717.269004	0.318270
717.468609	0.317828
717.668195	0.317957
717.867764	0.317943
718.067314	0.317784
718.266846	0.317481
718.466360	0.317216
718.665855	0.317210
718.865332	0.317130
719.064791	0.317080
719.264232	0.317158
719.463655	0.316800
719.663059	0.316515
719.862445	0.316371
720.061813	0.316490
720.261163	0.316419
720.460494	0.316241
720.659807	0.315854
720.859102	0.315963
721.058379	0.316238
721.257638	0.316305
721.456878	0.316061
721.656100	0.315985
721.855304	0.315916
722.054490	0.315912
722.253657	0.316130
722.452806	0.316177
722.651937	0.316054
722.851050	0.315699
723.050145	0.315740
723.249221	0.315879
723.448279	0.316177
723.647319	0.315881
723.846340	0.315656
724.045344	0.315503
724.244329	0.315411
724.443296	0.314952
724.642245	0.314883
724.841175	0.314689
725.040088	0.314643
725.238982	0.314067
725.437857	0.314088
725.636715	0.314051
725.835554	0.314073
726.034376	0.313897
726.233179	0.313931
726.431963	0.313719
726.630730	0.313643
726.829478	0.313547
727.028208	0.313775
727.226920	0.313630
727.425614	0.313255
727.624289	0.313092
727.822946	0.313001
728.021585	0.313045
728.220206	0.312910
728.418808	0.312784
728.617392	0.312575
728.815958	0.312485
729.014506	0.312333
729.213036	0.312321
729.411547	0.312154
729.610040	0.312141
729.808515	0.311848
730.006972	0.312196
730.205410	0.311831
730.403831	0.311849
730.602233	0.311622
730.800616	0.311459
730.998982	0.311345
731.197329	0.310835
731.395658	0.310270
731.593969	0.310218
731.792262	0.309614
731.990536	0.309466
732.188793	0.308855
732.387031	0.308470
732.585250	0.308120
732.783452	0.308041
732.981635	0.307843
733.179800	0.308058
733.377947	0.307820
733.576076	0.307557
733.774186	0.307321
733.972278	0.307373
734.170352	0.307482
734.368408	0.307410
734.566446	0.306998
734.764465	0.307259
734.962466	0.307133
735.160449	0.306995
735.358413	0.307038
735.556360	0.306953
735.754288	0.306763
735.952198	0.306534
736.150090	0.306702
736.347963	0.306741
736.545818	0.306165
736.743655	0.305585
736.941474	0.305105
737.139275	0.304975
737.337057	0.304727
737.534821	0.304604
737.732567	0.304046
737.930295	0.303604
738.128005	0.303401
738.325696	0.303285
738.523369	0.303452
738.721024	0.303349
738.918660	0.302788
739.116279	0.302561
739.313879	0.302234
739.511461	0.302164
739.709024	0.301985
739.906570	0.301838
740.104097	0.301663
740.301606	0.301162
740.499097	0.301058
740.696569	0.301012
740.894024	0.300949
741.091460	0.300889
741.288878	0.300554
741.486277	0.300214
741.683659	0.299775
741.881022	0.299642
742.078367	0.299436
742.275694	0.299223
742.473002	0.299110
742.670293	0.299098
742.867565	0.298860
743.064819	0.298922
743.262054	0.298697
743.459272	0.298709
743.656471	0.298316
743.853652	0.298294
744.050815	0.298175
744.247959	0.297951
744.445085	0.297413
744.642194	0.297220
744.839283	0.296870
745.036355	0.296892
745.233408	0.296541
745.430444	0.296457
745.627461	0.296580
745.824459	0.296399
746.021440	0.296159
746.218402	0.296390
746.415346	0.296051
746.612272	0.295797
746.809180	0.295664
747.006069	0.295713
747.202940	0.295589
747.399793	0.295323
747.596628	0.295242
747.793444	0.295058
747.990243	0.294673
748.187023	0.294599
748.383784	0.294653
748.580528	0.294336
748.777253	0.294102
748.973960	0.294148
749.170649	0.293943
749.367320	0.293638
749.563973	0.293468
749.760607	0.293245
749.957223	0.293136
750.153821	0.293077
750.350400	0.293076
750.546962	0.292755
750.743505	0.292415
750.940030	0.292007
751.136536	0.292019
751.333025	0.291749
751.529495	0.291489
751.725947	0.291148
751.922381	0.290879
752.118796	0.290541
752.315194	0.290258
752.511573	0.289945
752.707934	0.289946
752.904276	0.289659
753.100601	0.289652
753.296907	0.289544
753.493195	0.289418
753.689465	0.289101
753.885716	0.288964
754.081949	0.288921
754.278164	0.288656
754.474361	0.288278
754.670540	0.287925
754.866700	0.287734
755.062843	0.287352
755.258967	0.287141
755.455072	0.287192
755.651160	0.286904
755.847229	0.286778
756.043280	0.286705
756.239313	0.286430
756.435328	0.286357
756.631324	0.286183
756.827302	0.285977
757.023262	0.285972
757.219204	0.285652
757.415127	0.285563
757.611033	0.285248
757.806920	0.285378
758.002788	0.285370
758.198639	0.285345
758.394471	0.285178
758.590286	0.285379
758.786081	0.285296
758.981859	0.285074
759.177619	0.284993
759.373360	0.284963
759.569083	0.284431
759.764788	0.284310
759.960474	0.284207
760.156143	0.284030
760.351793	0.283766
760.547425	0.283469
760.743038	0.283405
760.938634	0.283145
761.134211	0.283330
761.329770	0.283321
761.525311	0.283394
761.720833	0.283042
761.916338	0.283006
762.111824	0.282884
762.307292	0.282777
762.502741	0.282629
762.698173	0.282333
762.893586	0.281958
763.088981	0.281731
763.284358	0.281453
763.479716	0.281012
763.675057	0.280837
763.870379	0.280791
764.065683	0.280739
764.260968	0.280625
764.456236	0.280786
764.651485	0.280765
764.846716	0.280674
765.041929	0.280705
765.237123	0.280998
765.432299	0.280815
765.627457	0.280654
765.822597	0.280538
766.017719	0.280554
766.212822	0.280418
766.407907	0.280377
766.602974	0.280588
766.798023	0.280319
766.993054	0.280368
767.188066	0.280219
767.383060	0.280211
767.578036	0.280076
767.772993	0.279977
767.967933	0.279738
768.162854	0.279453
768.357757	0.279492
768.552642	0.279377
768.747508	0.279106
768.942356	0.279152
769.137186	0.279127
769.331998	0.279060
769.526792	0.279015
769.721567	0.278943
769.916324	0.279001
770.111063	0.278577
770.305784	0.278629
770.500486	0.278657
770.695171	0.278544
770.889837	0.278383
771.084484	0.278229
771.279114	0.278154
771.473725	0.278203
771.668318	0.278063
771.862893	0.278239
772.057450	0.278285
772.251988	0.278490
772.446509	0.278677
772.641011	0.278614
772.835494	0.278638
773.029960	0.278564
773.224407	0.278435
773.418836	0.278546
773.613247	0.278200
773.807640	0.278054
774.002014	0.277582
774.196370	0.277377
774.390708	0.277360
774.585028	0.277464
774.779330	0.277158
774.973613	0.277007
775.167878	0.276824
775.362125	0.277066
775.556354	0.277183
775.750564	0.277385
775.944756	0.277424
776.138930	0.277593
776.333086	0.277401
776.527223	0.277631
776.721343	0.277741
776.915444	0.277907
777.109526	0.277946
777.303591	0.277914
777.497637	0.278103
777.691666	0.277933
777.885676	0.277860
778.079667	0.277891
778.273641	0.277968
778.467596	0.278308
778.661533	0.278249
778.855452	0.278322
779.049352	0.278335
779.243235	0.278202
779.437099	0.278251
779.630945	0.278117
779.824773	0.278386
780.018582	0.278518
780.212373	0.278484
780.406146	0.278680
780.599901	0.278612
780.793638	0.278679
780.987356	0.278507
781.181056	0.278729
781.374738	0.278646
781.568402	0.278668
781.762047	0.278519
781.955674	0.278336
782.149283	0.278162
782.342874	0.278145
782.536447	0.277919
782.730001	0.277970
782.923537	0.277899
783.117055	0.277980
783.310555	0.277763
783.504036	0.277919
783.697499	0.278296
783.890944	0.278227
784.084371	0.278223
784.277780	0.278593
784.471170	0.278825
784.664542	0.278621
784.857896	0.278846
785.051231	0.278839
785.244549	0.278815
785.437848	0.278516
785.631129	0.278755
785.824392	0.278729
786.017636	0.278517
786.210863	0.278461
786.404071	0.278582
786.597260	0.278713
786.790432	0.278689
786.983585	0.278800
787.176721	0.278939
787.369838	0.278930
787.562936	0.279264
787.756017	0.279695
787.949079	0.279805
788.142123	0.279873
788.335149	0.279887
788.528156	0.280223
788.721146	0.280229
788.914117	0.280539
789.107070	0.280800
789.300005	0.280735
789.492921	0.280525
789.685819	0.280860
789.878699	0.281439
790.071561	0.281569
790.264405	0.281527
790.457230	0.281625
790.650037	0.281707
790.842826	0.281553
791.035597	0.281636
791.228349	0.281891
791.421084	0.281953
791.613800	0.281873
791.806497	0.281924
791.999177	0.282543
792.191838	0.282758
792.384481	0.282787
792.577106	0.283141
792.769713	0.283379
792.962301	0.283647
793.154871	0.283740
793.347423	0.283716
793.539957	0.284239
793.732473	0.283993
793.924970	0.284176
794.117449	0.284301
794.309910	0.284568
794.502353	0.284822
794.694777	0.284863
794.887183	0.285010
795.079571	0.285360
795.271941	0.285244
795.464293	0.285562
795.656626	0.285822
795.848941	0.285917
796.041238	0.285921
796.233516	0.286182
796.425777	0.286347
796.618019	0.286588
796.810243	0.286819
797.002449	0.287264
797.194636	0.287425
797.386805	0.287571
797.578956	0.288252
797.771089	0.288571
797.963204	0.288897
798.155300	0.289226
798.347378	0.289265
798.539438	0.289452
798.731480	0.289511
798.923503	0.289655
799.115509	0.289770
799.307496	0.289666
799.499465	0.289756
799.691415	0.289780
799.883348	0.289876
800.075262	0.290123
800.267158	0.290280
800.459035	0.290414
800.650895	0.290597
800.842736	0.290827
801.034559	0.290994
801.226364	0.291404
801.418150	0.291652
801.609919	0.291833
801.801669	0.292047
801.993401	0.292498
802.185114	0.292644
802.376810	0.292807
802.568487	0.293113
802.760146	0.293305
802.951787	0.293530
803.143409	0.293751
803.335014	0.294078
803.526600	0.294414
803.718168	0.294727
803.909717	0.294979
804.101249	0.295395
804.292762	0.295562
804.484257	0.295707
804.675734	0.295693
804.867192	0.295820
805.058632	0.296179
805.250054	0.296344
805.441458	0.296227
805.632844	0.296477
805.824211	0.296839
806.015561	0.297381
806.206891	0.297810
806.398204	0.298191
806.589499	0.298567
806.780775	0.298631
806.972033	0.298900
807.163273	0.299211
807.354495	0.299608
807.545698	0.299888
807.736883	0.300163
807.928050	0.300340
808.119199	0.300659
808.310329	0.301132
808.501441	0.301624
808.692535	0.301893
808.883611	0.302535
809.074669	0.302957
809.265708	0.303188
809.456729	0.303660
809.647732	0.304186
809.838717	0.304337
810.029683	0.304485
810.220632	0.305056
810.411562	0.305634
810.602474	0.305997
810.793367	0.306435
810.984242	0.306846
811.175100	0.307124
811.365938	0.307491
811.556759	0.307974
811.747562	0.308366
811.938346	0.308378
812.129112	0.308933
812.319860	0.309096
812.510589	0.309023
812.701300	0.309444
812.891994	0.309272
813.082668	0.309545
813.273325	0.309911
813.463964	0.310009
813.654584	0.310375
813.845186	0.310377
814.035769	0.310642
814.226335	0.311207
814.416882	0.311316
814.607411	0.311893
814.797922	0.311982
814.988415	0.312026
815.178889	0.312404
815.369345	0.312592
815.559783	0.312831
815.750203	0.313086
815.940605	0.313155
816.130988	0.313083
816.321353	0.313240
816.511700	0.313628
816.702028	0.314326
816.892339	0.314698
817.082631	0.315135
817.272905	0.315231
817.463161	0.315647
817.653398	0.316093
817.843617	0.316591
818.033819	0.317043
818.224001	0.317575
818.414166	0.317648
818.604312	0.318106
818.794440	0.318259
818.984550	0.318889
819.174642	0.318957
819.364716	0.319415
819.554771	0.320060
819.744808	0.320431
819.934827	0.320866
820.124827	0.321460
820.314810	0.321616
820.504774	0.322069
820.694720	0.322403
820.884647	0.322729
821.074557	0.322949
821.264448	0.323578
821.454321	0.323928
821.644176	0.324541
821.834012	0.324893
822.023831	0.325459
822.213631	0.325995
822.403413	0.326277
822.593176	0.326878
822.782922	0.327302
822.972649	0.327579
823.162358	0.328175
823.352049	0.328143
823.541721	0.328256
823.731376	0.328644
823.921012	0.329025
824.110629	0.329734
824.300229	0.330340
824.489811	0.331039
824.679374	0.331204
824.868919	0.331542
825.058445	0.332081
825.247954	0.332960
825.437444	0.333391
825.626916	0.333853
825.816370	0.334219
826.005806	0.334647
826.195223	0.335100
826.384622	0.335553
826.574003	0.336295
826.763366	0.336921
826.952711	0.337411
827.142037	0.337835
827.331345	0.338251
827.520635	0.338741
827.709906	0.339243
827.899160	0.339304
828.088395	0.340090
828.277612	0.339989
828.466810	0.340205
828.655991	0.340563
828.845153	0.341133
829.034297	0.341693
829.223423	0.341929
829.412531	0.342403
829.601620	0.343227
829.790691	0.343399
829.979744	0.344240
830.168779	0.344749
830.357795	0.345199
830.546793	0.345771
830.735773	0.345914
830.924735	0.346300
831.113679	0.346891
831.302604	0.347355
831.491511	0.348201
831.680400	0.348626
831.869271	0.349336
832.058123	0.349917
832.246957	0.350159
832.435773	0.351086
832.624571	0.351640
832.813351	0.351717
833.002112	0.352013
833.190855	0.352129
833.379580	0.352485
833.568287	0.352979
833.756975	0.353373
833.945645	0.354034
834.134297	0.354190
834.322931	0.354919
834.511547	0.355711
834.700144	0.356526
834.888723	0.356872
835.077284	0.357608
835.265826	0.357897
835.454351	0.358464
835.642857	0.358874
835.831345	0.359961
836.019815	0.360819
836.208266	0.361546
836.396699	0.361960
836.585114	0.362880
836.773511	0.363231
836.961890	0.363790
837.150250	0.364079
837.338592	0.364743
837.526916	0.364887
837.715222	0.365357
837.903510	0.365730
838.091779	0.366159
838.280030	0.366639
838.468263	0.367259
838.656477	0.367882
838.844674	0.368437
839.032852	0.369318
839.221012	0.369993
839.409153	0.370089
839.597277	0.370382
839.785382	0.371065
839.973469	0.371537
840.161538	0.372146
840.349589	0.372402
840.537621	0.372958
840.725635	0.372921
840.913631	0.373498
841.101609	0.374176
841.289568	0.374701
841.477509	0.375193
841.665432	0.375542
841.853337	0.376073
842.041224	0.376825
842.229092	0.377384
842.416942	0.377841
842.604774	0.378155
842.792588	0.378561
842.980383	0.379545
843.168160	0.379569
843.355919	0.380268
843.543660	0.380450
843.731382	0.380908
843.919087	0.381281
844.106773	0.381774
844.294441	0.382027
844.482090	0.382494
844.669722	0.382317
844.857335	0.382904
845.044930	0.383521
845.232507	0.384353
845.420065	0.384954
845.607605	0.385487
845.795127	0.386091
845.982631	0.386591
846.170117	0.387167
846.357584	0.387673
846.545033	0.388394
846.732464	0.388520
846.919877	0.388952
847.107272	0.388894
847.294648	0.389542
847.482006	0.390022
847.669346	0.390560
847.856667	0.391046
848.043971	0.391570
848.231256	0.391832
848.418523	0.392204
848.605771	0.392430
848.793002	0.393372
848.980214	0.393667
849.167408	0.393870
849.354584	0.394804
849.541742	0.395362
849.728881	0.395857
849.916002	0.396576
850.103105	0.397443
850.290190	0.398187
850.477256	0.398690
850.664304	0.399288
850.851334	0.399876
851.038346	0.399747
851.225340	0.400042
851.412315	0.400473
851.599272	0.400668
851.786211	0.400989
851.973132	0.401481
852.160034	0.401978
852.346918	0.402258
852.533784	0.402951
852.720632	0.403592
852.907462	0.404074
853.094273	0.404662
853.281066	0.405239
853.467841	0.405831
853.654598	0.406204
853.841336	0.406509
854.028056	0.407360
854.214758	0.407386
854.401442	0.407989
854.588107	0.408732
854.774755	0.409623
854.961384	0.410282
855.147995	0.410634
855.334587	0.410834
855.521162	0.410999
855.707718	0.411140
855.894256	0.411716
856.080775	0.412332
856.267277	0.412368
856.453760	0.412829
856.640225	0.413708
856.826672	0.413884
857.013101	0.414291
857.199511	0.414890
857.385903	0.415262
857.572277	0.416192
857.758633	0.416161
857.944970	0.416776
858.131290	0.416790
858.317591	0.417049
858.503873	0.417852
858.690138	0.418518
858.876384	0.419401
859.062612	0.420089
859.248822	0.419883
859.435014	0.420577
859.621188	0.420885
859.807343	0.421421
859.993480	0.421716
860.179599	0.421818
860.365699	0.421894
860.551781	0.421942
860.737846	0.422094
860.923891	0.422801
861.109919	0.423099
861.295929	0.423892
861.481920	0.424382
861.667893	0.424333
861.853848	0.425075
862.039784	0.425711
862.225702	0.426401
862.411603	0.426923
862.597484	0.427613
862.783348	0.427991
862.969193	0.428228
863.155021	0.428597
863.340830	0.429209
863.526620	0.429929
863.712393	0.430589
863.898147	0.430989
864.083883	0.431566
864.269601	0.431436
864.455301	0.432021
864.640982	0.432051
864.826645	0.432546
865.012290	0.432740
865.197917	0.432562
865.383526	0.432848
865.569116	0.433033
865.754688	0.433565
865.940242	0.434341
866.125777	0.434635
866.311295	0.435235
866.496794	0.435556
866.682275	0.436149
866.867737	0.436555
867.053182	0.436464
867.238608	0.436964
867.424016	0.437199
867.609406	0.437196
867.794778	0.437632
867.980131	0.438424
868.165466	0.438534
868.350783	0.439015
868.536082	0.439628
868.721362	0.440268
868.906625	0.440691
869.091869	0.440886
869.277094	0.441502
869.462302	0.441848
869.647491	0.441912
869.832662	0.442396
870.017815	0.442907
870.202950	0.443424
870.388066	0.443806
870.573165	0.444154
870.758245	0.444623
870.943306	0.445944
871.128350	0.446386
871.313375	0.447035
871.498382	0.447947
871.683371	0.448001
871.868342	0.447989
872.053294	0.448319
872.238229	0.448471
872.423144	0.448577
872.608042	0.447817
872.792922	0.447842
872.977783	0.447758
873.162626	0.447678
873.347451	0.447926
873.532258	0.448406
873.717046	0.448522
873.901816	0.448677
874.086568	0.449154
874.271302	0.449712
874.456017	0.450043
874.640715	0.450163
874.825394	0.450082
875.010055	0.450556
875.194697	0.450347
875.379322	0.451078
875.563928	0.451667
875.748516	0.451356
875.933085	0.451768
876.117637	0.451900
876.302170	0.452438
876.486685	0.453058
876.671182	0.453222
876.855661	0.454005
877.040121	0.453467
877.224563	0.453297
877.408987	0.453764
877.593393	0.454005
877.777780	0.454142
877.962150	0.454374
878.146501	0.454204
878.330833	0.454724
878.515148	0.454322
878.699444	0.455628
878.883722	0.456595
879.067982	0.457090
879.252224	0.457236
879.436447	0.457868
879.620653	0.457748
879.804840	0.457920
879.989008	0.458074
880.173159	0.458467
880.357291	0.457962
880.541405	0.457627
880.725501	0.457555
880.909579	0.457435
881.093638	0.457375
881.277680	0.457697
881.461703	0.458152
881.645707	0.457660
881.829694	0.458370
882.013662	0.458312
882.197612	0.458193
882.381544	0.458553
882.565458	0.459017
882.749353	0.458916
882.933230	0.458513
883.117089	0.458821
883.300930	0.459034
883.484753	0.458570
883.668557	0.458624
883.852343	0.459093
884.036111	0.459686
884.219861	0.459562
884.403592	0.459973
884.587305	0.460413
884.771000	0.459986
884.954677	0.460680
885.138335	0.461063
885.321976	0.461717
885.505598	0.462214
885.689201	0.461317
885.872787	0.461100
886.056354	0.461410
886.239904	0.462044
886.423434	0.462359
886.606947	0.462014
886.790442	0.462017
886.973918	0.461635
887.157376	0.460697
887.340816	0.461581
887.524237	0.461556
887.707641	0.461410
887.891026	0.460777
888.074393	0.460520
888.257741	0.460633
888.441072	0.460527
888.624384	0.460762
888.807678	0.461258
888.990954	0.460598
889.174211	0.460834
889.357451	0.460804
889.540672	0.461123
889.723875	0.461431
889.907059	0.461114
890.090226	0.460944
890.273374	0.460705
890.456504	0.460055
890.639616	0.460044
890.822709	0.459963
891.005785	0.459874
891.188842	0.459519
891.371881	0.459167
891.554901	0.459115
891.737904	0.458948
891.920888	0.459272
892.103854	0.459949
892.286802	0.459906
892.469731	0.459858
892.652643	0.459562
892.835536	0.459236
893.018410	0.459530
893.201267	0.459168
893.384106	0.459324
893.566926	0.458752
893.749728	0.458418
893.932511	0.458528
894.115277	0.458698
894.298024	0.458310
894.480753	0.458793
894.663464	0.458839
894.846157	0.458755
895.028831	0.458756
895.211487	0.458899
895.394125	0.458444
895.576745	0.458249
895.759346	0.458115
895.941930	0.458063
896.124495	0.457376
896.307041	0.457035
896.489570	0.457227
896.672080	0.457198
896.854573	0.457054
897.037046	0.457164
897.219502	0.456905
897.401940	0.456282
897.584359	0.456342
897.766760	0.456299
897.949143	0.455570
898.131507	0.455648
898.313854	0.455022
898.496182	0.454600
898.678492	0.453824
898.860783	0.453598
899.043057	0.453940
899.225312	0.453824
899.407549	0.453350
899.589768	0.452736
899.771968	0.451882
899.954151	0.451725
900.136315	0.451497
900.318461	0.451417
900.500588	0.451097
900.682698	0.450691
900.864789	0.449772
901.046862	0.449351
901.228917	0.449593
901.410953	0.449750
901.592971	0.449343
901.774972	0.448649
901.956953	0.448739
902.138917	0.448490
902.320862	0.447223
902.502790	0.446834
902.684699	0.446271
902.866589	0.445897
903.048462	0.445190
903.230316	0.444709
903.412152	0.444264
903.593970	0.443903
903.775770	0.443426
903.957551	0.443390
904.139314	0.443485
904.321059	0.443606
904.502786	0.442776
904.684494	0.442436
904.866185	0.442128
905.047857	0.442043
905.229510	0.441218
905.411146	0.441274
905.592763	0.441074
905.774363	0.441023
905.955943	0.440816
906.137506	0.440499
906.319051	0.440122
906.500577	0.439319
906.682085	0.438764
906.863575	0.438667
907.045046	0.437789
907.226500	0.437202
907.407935	0.436231
907.589352	0.435865
907.770750	0.435511
907.952131	0.434629
908.133493	0.434646
908.314837	0.434539
908.496163	0.434034
908.677470	0.433792
908.858760	0.433275
909.040031	0.432880
909.221284	0.432047
909.402518	0.431605
909.583735	0.431279
909.764933	0.430923
909.946113	0.429887
910.127275	0.429528
910.308418	0.428776
910.489544	0.428115
910.670651	0.427535
910.851740	0.426550
911.032810	0.426190
911.213863	0.426003
911.394897	0.425293
911.575913	0.425088
911.756911	0.424092
911.937890	0.423785
912.118851	0.423185
912.299794	0.422715
912.480719	0.422647
912.661626	0.421752
912.842514	0.421272
913.023384	0.420611
913.204236	0.420157
913.385070	0.419565
913.565886	0.418580
913.746683	0.417103
913.927462	0.416426
914.108223	0.416086
914.288965	0.415576
914.469690	0.414898
914.650396	0.414328
914.831084	0.413644
915.011754	0.413513
915.192405	0.413302
915.373038	0.414244
915.553653	0.413816
915.734250	0.413011
915.914829	0.412768
916.095389	0.411750
916.275931	0.411568
916.456455	0.410844
916.636961	0.409889
916.817448	0.408469
916.997917	0.407471
917.178368	0.406136
917.358801	0.405469
917.539216	0.404990
917.719612	0.404650
917.899990	0.403192
918.080350	0.402736
918.260692	0.401886
918.441015	0.401031
918.621320	0.400171
918.801607	0.399683
918.981876	0.398496
919.162127	0.397249
919.342359	0.395727
919.522573	0.394829
919.702769	0.393519
919.882947	0.392753
920.063106	0.392965
920.243247	0.392055
920.423370	0.391078
920.603475	0.390590
920.783562	0.390131
920.963630	0.390082
921.143680	0.389453
921.323712	0.388557
921.503725	0.388290
921.683721	0.387289
921.863698	0.387226
922.043657	0.386588
922.223598	0.386483
922.403520	0.385042
922.583424	0.384537
922.763311	0.383808
922.943178	0.383367
923.123028	0.382557
923.302859	0.380612
923.482673	0.378564
923.662467	0.378239
923.842244	0.376779
924.022003	0.375957
924.201743	0.373909
924.381465	0.373513
924.561169	0.372306
924.740854	0.370927
924.920522	0.370795
925.100171	0.370313
925.279802	0.369351
925.459414	0.368343
925.639009	0.367873
925.818585	0.367740
925.998143	0.366887
926.177683	0.365943
926.357205	0.365034
926.536708	0.364476
926.716193	0.363166
926.895660	0.361980
927.075109	0.361678
927.254539	0.360395
927.433951	0.359823
927.613345	0.357992
927.792721	0.357300
927.972079	0.356161
928.151418	0.355172
928.330739	0.354181
928.510042	0.353380
928.689327	0.351636
928.868593	0.350239
929.047841	0.348686
929.227071	0.347918
929.406283	0.347098
929.585476	0.345767
929.764652	0.344194
929.943809	0.342989
930.122948	0.341613
930.302068	0.340468
930.481171	0.340520
930.660255	0.339703
930.839321	0.339410
931.018369	0.337866
931.197398	0.337324
931.376409	0.336924
931.555402	0.336257
931.734377	0.335262
931.913334	0.334115
932.092272	0.333029
932.271192	0.331512
932.450094	0.330763
932.628978	0.330364
932.807844	0.329393
932.986691	0.327426
933.165520	0.326675
933.344331	0.325968
933.523123	0.326546
933.701898	0.325764
933.880654	0.325190
934.059392	0.322780
934.238111	0.321687
934.416813	0.321623
934.595496	0.321274
934.774161	0.320756
934.952808	0.320337
935.131437	0.317546
935.310047	0.316400
935.488639	0.315568
935.667213	0.314568
935.845769	0.313208
936.024306	0.311343
936.202825	0.309743
936.381326	0.308005
936.559809	0.306327
936.738274	0.307027
936.916720	0.305372
937.095148	0.303977
937.273558	0.303316
937.451950	0.302909
937.630323	0.301794
937.808678	0.300476
937.987015	0.299962
938.165334	0.299111
938.343635	0.297566
938.521917	0.297294
938.700181	0.296854
938.878427	0.295609
939.056655	0.294334
939.234864	0.293047
939.413055	0.292799
939.591228	0.291150
939.769383	0.290695
939.947519	0.289682
940.125638	0.288439
940.303738	0.286545
940.481820	0.285724
940.659883	0.282964
940.837929	0.281921
941.015956	0.281380
941.193965	0.280353
941.371955	0.276806
941.549928	0.274787
941.727882	0.273850
941.905818	0.272202
942.083736	0.270839
942.261636	0.270923
942.439517	0.269570
942.617380	0.268310
942.795225	0.267506
942.973052	0.268464
943.150860	0.267712
943.328651	0.267126
943.506423	0.266973
943.684176	0.266327
943.861912	0.266794
944.039629	0.266068
944.217328	0.264531
944.395009	0.263946
944.572672	0.262516
944.750317	0.261750
944.927943	0.259402
945.105551	0.258197
945.283141	0.256300
945.460712	0.254247
945.638265	0.252924
945.815801	0.251860
945.993317	0.250376
946.170816	0.247516
946.348297	0.246368
946.525759	0.244825
946.703203	0.242875
946.880629	0.241841
947.058036	0.239305
947.235425	0.236818
947.412797	0.235118
947.590149	0.234738
947.767484	0.234165
947.944800	0.232473
948.122099	0.231369
948.299379	0.230549
948.476640	0.230648
948.653884	0.229309
948.831109	0.228085
949.008316	0.226115
949.185505	0.225642
949.362676	0.225266
949.539828	0.224004
949.716962	0.220456
949.894078	0.219176
950.071176	0.217741
950.248256	0.216668
950.425317	0.216198
950.602360	0.215379
950.779385	0.211770
950.956391	0.210529
951.133380	0.208110
951.310350	0.207893
951.487302	0.206971
951.664235	0.204645
951.841151	0.205310
952.018048	0.204732
952.194927	0.204044
952.371788	0.205319
952.548631	0.204694
952.725455	0.203793
952.902261	0.205044
953.079049	0.203992
953.255819	0.202710
953.432570	0.200603
953.609303	0.200175
953.786018	0.199148
953.962715	0.195061
954.139394	0.193095
954.316054	0.192587
954.492696	0.192409
954.669320	0.192097
954.845926	0.193271
955.022513	0.192895
955.199083	0.192385
955.375634	0.192884
955.552166	0.194400
955.728681	0.194495
955.905177	0.194663
956.081655	0.192680
956.258115	0.191138
956.434557	0.187680
956.610980	0.188224
956.787385	0.185202
956.963772	0.184219
957.140141	0.184640
957.316492	0.185909
957.492824	0.185173
957.669138	0.184010
957.845434	0.184517
958.021712	0.184947
958.197971	0.184425
958.374212	0.187441
958.550435	0.186763
958.726640	0.186104
958.902826	0.184152
959.078995	0.181645
959.255145	0.181308
959.431277	0.181593
959.607390	0.178487
959.783486	0.176752
959.959563	0.172523
960.135622	0.171706
960.311662	0.169866
960.487685	0.169210
960.663689	0.168747
960.839675	0.167487
961.015643	0.165669
961.191593	0.167754
961.367524	0.167029
961.543437	0.166089
961.719332	0.165617
961.895209	0.165637
962.071067	0.165594
962.246907	0.166169
962.422730	0.166306
962.598533	0.166186
962.774319	0.167961
962.950086	0.168555
963.125835	0.171542
963.301566	0.172210
963.477279	0.173025
963.652973	0.172772
963.828650	0.172649
964.004308	0.173143
964.179947	0.173965
964.355569	0.172593
964.531172	0.173153
964.706757	0.172347
964.882324	0.171784
965.057873	0.170170
965.233403	0.168239
965.408916	0.170369
965.584410	0.170823
965.759885	0.169196
965.935343	0.167950
966.110782	0.166440
966.286203	0.166996
966.461606	0.168309
966.636991	0.166633
966.812357	0.165613
966.987705	0.162905
967.163035	0.163061
967.338347	0.163185
967.513641	0.162692
967.688916	0.161828
967.864173	0.161177
968.039412	0.158586
968.214632	0.159837
968.389835	0.160656
968.565019	0.160528
968.740185	0.160200
968.915333	0.160977
969.090462	0.161054
969.265573	0.163123
969.440667	0.164711
969.615741	0.165135
969.790798	0.163039
969.965836	0.165224
970.140856	0.165054
970.315858	0.164413
970.490842	0.163165
970.665808	0.163945
970.840755	0.161917
971.015684	0.159005
971.190595	0.159767
971.365487	0.162760
971.540362	0.160013
971.715218	0.160539
971.890056	0.158292
972.064875	0.156024
972.239677	0.155054
972.414460	0.153905
972.589225	0.153277
972.763972	0.151461
972.938700	0.151055
973.113411	0.149725
973.288103	0.149819
973.462777	0.149788
973.637432	0.150230
973.812070	0.151488
973.986689	0.154047
974.161290	0.156750
974.335873	0.159008
974.510437	0.158440
974.684984	0.162021
974.859512	0.160254
975.034022	0.159708
975.208513	0.161034
975.382987	0.160434
975.557442	0.161370
975.731879	0.159948
975.906298	0.157223
976.080698	0.155895
976.255080	0.154707
976.429445	0.156668
976.603790	0.159951
976.778118	0.161784
976.952427	0.161825
977.126719	0.160192
977.300992	0.160200
977.475246	0.162555
977.649483	0.164947
977.823701	0.164469
977.997901	0.167020
978.172083	0.167516
978.346247	0.166247
978.520392	0.168351
978.694519	0.168418
978.868628	0.169248
979.042719	0.168010
979.216791	0.166840
979.390845	0.167153
979.564882	0.162823
979.738899	0.161641
979.912899	0.159611
980.086880	0.158202
980.260843	0.158019
980.434788	0.157616
980.608715	0.156934
980.782623	0.156706
980.956514	0.156754
981.130386	0.159032
981.304240	0.158184
981.478075	0.160363
981.651892	0.158603
981.825692	0.159788
981.999472	0.159026
982.173235	0.159956
982.346980	0.159580
982.520706	0.157526
982.694414	0.157667
982.868104	0.160002
983.041775	0.160343
983.215428	0.162884
983.389064	0.162389
983.562680	0.163114
983.736279	0.162454
983.909860	0.165761
984.083422	0.169389
984.256966	0.167424
984.430491	0.165684
984.603999	0.163906
984.777488	0.163097
984.950959	0.161454
985.124412	0.160430
985.297847	0.160557
985.471263	0.156146
985.644661	0.155528
985.818041	0.156294
985.991403	0.157307
986.164747	0.158658
986.338072	0.158038
986.511379	0.160744
986.684668	0.160678
986.857938	0.157684
987.031191	0.159728
987.204425	0.158255
987.377641	0.159457
987.550839	0.155749
987.724018	0.156036
987.897179	0.156453
988.070322	0.154228
988.243447	0.154401
988.416554	0.157461
988.589642	0.156323
988.762712	0.157060
988.935764	0.156029
989.108798	0.158089
989.281813	0.156951
989.454811	0.156882
989.627790	0.157339
989.800751	0.157449
989.973693	0.158205
990.146617	0.159893
990.319524	0.159382
990.492412	0.160329
990.665281	0.158850
990.838133	0.158753
991.010966	0.158828
991.183781	0.156290
991.356578	0.158550
991.529356	0.155647
991.702117	0.153447
991.874859	0.154135
992.047583	0.153950
992.220288	0.156540
992.392976	0.156244
992.565645	0.155226
992.738296	0.157679
992.910929	0.155364
993.083543	0.157142
993.256139	0.159684
993.428718	0.158870
993.601277	0.156534
993.773819	0.155855
993.946342	0.158810
994.118848	0.160092
994.291335	0.160110
994.463803	0.160856
994.636254	0.162338
994.808686	0.159537
994.981100	0.160136
995.153496	0.162641
995.325874	0.164222
995.498233	0.161768
995.670574	0.159752
995.842897	0.160169
996.015202	0.159834
996.187488	0.159457
996.359757	0.161471
996.532007	0.161456
996.704239	0.160320
996.876452	0.156938
997.048648	0.156883
997.220825	0.159036
997.392984	0.157093
997.565124	0.157614
997.737247	0.157662
997.909351	0.156294
998.081437	0.157635
998.253505	0.157914
998.425554	0.158820
998.597586	0.157804
998.769599	0.156098
998.941594	0.155640
999.113571	0.155030
999.285529	0.153077
999.457469	0.153481
999.629391	0.150674
999.801295	0.150005
999.973181	0.150356
1000.145048	0.150200
1000.316897	0.149878
1000.488728	0.150957
1000.660541	0.150020
1000.832335	0.152197
1001.004111	0.151482
1001.175869	0.152289
1001.347609	0.153008
1001.519331	0.153338
1001.691034	0.154847
1001.862719	0.156534
1002.034386	0.156144
1002.206035	0.156794
1002.377665	0.156734
1002.549277	0.157807
1002.720871	0.158792
1002.892447	0.158210
1003.064004	0.157041
1003.235544	0.156810
1003.407065	0.156952
1003.578568	0.158101
1003.750052	0.158683
1003.921519	0.155822
1004.092967	0.154472
1004.264397	0.153464
1004.435809	0.154794
1004.607202	0.155020
1004.778577	0.155254
1004.949934	0.155073
1005.121273	0.153669
1005.292594	0.154170
1005.463896	0.157254
1005.635180	0.157962
1005.806446	0.157844
1005.977694	0.157069
1006.148923	0.158193
1006.320135	0.157919
1006.491328	0.155874
1006.662503	0.156259
1006.833659	0.154755
1007.004798	0.152835
1007.175918	0.152728
1007.347020	0.153542
1007.518103	0.153538
1007.689169	0.153723
1007.860216	0.153211
1008.031245	0.154252
1008.202256	0.154907
1008.373248	0.156756
1008.544223	0.156114
1008.715179	0.156850
1008.886117	0.156631
1009.057036	0.157356
1009.227938	0.157102
1009.398821	0.158339
1009.569686	0.159346
1009.740533	0.159213
1009.911361	0.156636
1010.082172	0.156749
1010.252964	0.155404
1010.423738	0.155530
1010.594493	0.153180
1010.765231	0.153891
1010.935950	0.152667
1011.106651	0.150397
1011.277334	0.150262
1011.447998	0.150058
1011.618645	0.152072
1011.789273	0.153242
1011.959882	0.153277
1012.130474	0.155753
1012.301048	0.153984
1012.471603	0.154183
1012.642140	0.156258
1012.812658	0.156372
1012.983159	0.156712
1013.153641	0.155942
1013.324105	0.154730
1013.494551	0.154568
1013.664979	0.153287
1013.835388	0.153468
1014.005779	0.152218
1014.176152	0.152595
1014.346507	0.150884
1014.516843	0.153115
1014.687162	0.152297
1014.857462	0.153282
1015.027744	0.154419
1015.198007	0.156492
1015.368252	0.155589
1015.538480	0.156381
1015.708689	0.155651
1015.878879	0.156441
1016.049052	0.153392
1016.219206	0.154810
1016.389342	0.153134
1016.559460	0.150291
1016.729559	0.150041
1016.899641	0.151527
1017.069704	0.153190
1017.239749	0.152903
1017.409775	0.153024
1017.579784	0.153257
1017.749774	0.152526
1017.919746	0.153553
1018.089700	0.156184
1018.259635	0.154632
1018.429553	0.152382
1018.599452	0.150017
1018.769333	0.150403
1018.939195	0.150367
1019.109040	0.151401
1019.278866	0.151037
1019.448674	0.150440
1019.618464	0.147849
1019.788235	0.147635
1019.957989	0.150515
1020.127724	0.152206
1020.297441	0.152103
1020.467139	0.152519
1020.636820	0.153107
1020.806482	0.153954
1020.976126	0.154699
1021.145752	0.154296
1021.315359	0.153633
1021.484948	0.151044
1021.654519	0.149673
1021.824072	0.149753
1021.993607	0.148313
1022.163123	0.148069
1022.332621	0.147677
1022.502101	0.146742
1022.671563	0.148791
1022.841007	0.149414
1023.010432	0.151689
1023.179839	0.151006
1023.349228	0.152870
1023.518598	0.152876
1023.687951	0.151098
1023.857285	0.152158
1024.026601	0.152404
1024.195899	0.151109
1024.365178	0.151283
1024.534439	0.151795
1024.703682	0.151829
1024.872907	0.148807
1025.042114	0.150669
1025.211302	0.152274
1025.380472	0.149973
1025.549624	0.150142
1025.718758	0.150396
1025.887873	0.150310
1026.056970	0.148955
1026.226049	0.148927
1026.395110	0.150451
1026.564153	0.149854
1026.733177	0.148640
1026.902183	0.150278
1027.071171	0.149605
1027.240141	0.148713
1027.409092	0.146817
1027.578026	0.147442
1027.746940	0.147708
1027.915837	0.146221
1028.084716	0.146358
1028.253576	0.149106
1028.422418	0.147671
1028.591242	0.147545
1028.760048	0.148489
1028.928835	0.152524
1029.097604	0.149930
1029.266355	0.151171
1029.435088	0.152842
1029.603803	0.152876
1029.772499	0.151414
1029.941177	0.150904
1030.109837	0.152917
1030.278478	0.154311
1030.447102	0.153062
1030.615707	0.154445
1030.784294	0.153669
1030.952863	0.152397
1031.121413	0.152862
1031.289945	0.153220
1031.458460	0.152418
1031.626955	0.150964
1031.795433	0.149573
1031.963892	0.147138
1032.132334	0.146690
1032.300756	0.146572
1032.469161	0.147042
1032.637548	0.147256
1032.805916	0.145700
1032.974266	0.148502
1033.142598	0.148399
1033.310911	0.147880
1033.479207	0.149617
1033.647484	0.152005
1033.815743	0.151362
1033.983983	0.148505
1034.152206	0.146174
1034.320410	0.145349
1034.488596	0.144767
1034.656764	0.144710
1034.824914	0.146714
1034.993045	0.145491
1035.161158	0.145153
1035.329253	0.148121
1035.497330	0.149728
1035.665388	0.150668
1035.833428	0.153099
1036.001450	0.151090
1036.169454	0.150646
1036.337440	0.149478
1036.505407	0.150663
1036.673356	0.148400
1036.841287	0.144894
1037.009200	0.146112
1037.177094	0.145455
1037.344970	0.144588
1037.512828	0.145474
1037.680668	0.145626
1037.848489	0.144682
1038.016293	0.143923
1038.184078	0.144612
1038.351845	0.146199
1038.519593	0.144853
1038.687324	0.146306
1038.855036	0.145099
1039.022730	0.145661
1039.190406	0.145438
1039.358063	0.145597
1039.525702	0.147295
1039.693323	0.148352
1039.860926	0.149221
1040.028511	0.150957
1040.196077	0.149508
1040.363625	0.150632
1040.531155	0.152123
1040.698667	0.152883
1040.866161	0.153440
1041.033636	0.151546
1041.201093	0.148697
1041.368532	0.148711
1041.535952	0.148544
1041.703355	0.148599
1041.870739	0.147879
1042.038105	0.146384
1042.205452	0.146833
1042.372782	0.147044
1042.540093	0.146929
1042.707386	0.148723
1042.874661	0.148046
1043.041918	0.147397
1043.209156	0.147820
1043.376376	0.149807
1043.543578	0.148730
1043.710762	0.148798
1043.877927	0.149795
1044.045074	0.151874
1044.212203	0.150300
1044.379314	0.149811
1044.546407	0.148658
1044.713481	0.148738
1044.880537	0.148462
1045.047575	0.150197
1045.214595	0.148589
1045.381596	0.145877
1045.548579	0.144646
1045.715544	0.148015
1045.882491	0.148891
1046.049420	0.149042
1046.216330	0.150028
1046.383222	0.148726
1046.550096	0.147636
1046.716951	0.150803
1046.883789	0.152780
1047.050608	0.152451
1047.217409	0.150791
1047.384192	0.150512
1047.550956	0.151357
1047.717703	0.151753
1047.884431	0.151560
1048.051140	0.151154
1048.217832	0.148879
1048.384505	0.149907
1048.551161	0.148458
1048.717798	0.149067
1048.884416	0.150001
1049.051017	0.150002
1049.217599	0.149679
1049.384163	0.149927
1049.550709	0.150864
1049.717237	0.149852
1049.883746	0.148374
1050.050237	0.150151
1050.216710	0.150336
1050.383165	0.148349
1050.549601	0.148108
1050.716019	0.148529
1050.882420	0.146415
1051.048801	0.145393
1051.215165	0.146121
1051.381510	0.147317
1051.547837	0.146456
1051.714146	0.146516
1051.880437	0.146800
1052.046709	0.146502
1052.212964	0.144111
1052.379200	0.146535
1052.545417	0.146510
1052.711617	0.145104
1052.877798	0.142690
1053.043961	0.141578
1053.210106	0.142001
1053.376233	0.142958
1053.542341	0.142427
1053.708432	0.142346
1053.874504	0.140851
1054.040557	0.142346
1054.206593	0.144039
1054.372610	0.145392
1054.538609	0.145994
1054.704590	0.143606
1054.870553	0.144558
1055.036497	0.146125
1055.202424	0.145133
1055.368331	0.146377
1055.534221	0.145777
1055.700093	0.145965
1055.865946	0.144937
1056.031781	0.144393
1056.197598	0.145937
1056.363397	0.145342
1056.529177	0.145726
1056.694939	0.148718
1056.860683	0.147680
1057.026409	0.148899
1057.192116	0.149638
1057.357806	0.150385
1057.523477	0.153965
1057.689130	0.153779
1057.854764	0.152347
1058.020381	0.150424
1058.185979	0.150415
1058.351559	0.150234
1058.517120	0.149104
1058.682664	0.149409
1058.848189	0.150507
1059.013696	0.150035
1059.179185	0.149139
1059.344656	0.148931
1059.510108	0.147922
1059.675542	0.147526
1059.840958	0.150616
1060.006356	0.151475
1060.171735	0.149928
1060.337096	0.148504
1060.502439	0.147887
1060.667764	0.149372
1060.833071	0.147161
1060.998359	0.149708
1061.163629	0.148110
1061.328881	0.146039
1061.494115	0.144585
1061.659330	0.145183
1061.824527	0.146597
1061.989706	0.145349
1062.154867	0.144556
1062.320010	0.146372
1062.485134	0.144795
1062.650240	0.144822
1062.815328	0.147238
1062.980398	0.147575
1063.145449	0.150378
1063.310482	0.149573
1063.475497	0.149522
1063.640494	0.148510
1063.805473	0.149840
1063.970433	0.151029
1064.135375	0.153130
1064.300299	0.149901
1064.465204	0.148498
1064.630092	0.146540
1064.794961	0.144993
1064.959812	0.144975
1065.124645	0.145917
1065.289459	0.146249
1065.454256	0.145934
1065.619034	0.144326
1065.783793	0.143696
1065.948535	0.147806
1066.113258	0.148848
1066.277964	0.148768
1066.442651	0.149881
1066.607319	0.150464
1066.771970	0.151585
1066.936602	0.152236
1067.101216	0.153072
1067.265812	0.155079
1067.430389	0.155645
1067.594949	0.155954
1067.759490	0.156826
1067.924013	0.155161
1068.088518	0.153945
1068.253004	0.151155
1068.417472	0.150797
1068.581922	0.153184
1068.746354	0.154151
1068.910768	0.150197
1069.075163	0.147134
1069.239540	0.148251
1069.403899	0.148082
1069.568240	0.147432
1069.732562	0.148196
1069.896866	0.145651
1070.061152	0.143317
1070.225420	0.142254
1070.389670	0.144220
1070.553901	0.143863
1070.718114	0.143370
1070.882309	0.145083
1071.046486	0.147723
1071.210644	0.147858
1071.374784	0.151662
1071.538906	0.152064
1071.703010	0.151717
1071.867096	0.149505
1072.031163	0.150654
1072.195212	0.151066
1072.359243	0.149704
1072.523256	0.149266
1072.687250	0.149652
1072.851226	0.149261
1073.015184	0.147739
1073.179124	0.150792
1073.343045	0.151174
1073.506949	0.148612
1073.670834	0.147954
1073.834701	0.149053
1073.998549	0.149187
1074.162380	0.148841
1074.326192	0.149453
1074.489986	0.153621
1074.653761	0.151880
1074.817519	0.153272
1074.981258	0.157566
1075.144979	0.158057
1075.308682	0.158549
1075.472367	0.158384
1075.636033	0.159272
1075.799681	0.158032
1075.963311	0.154003
1076.126923	0.153414
1076.290516	0.154225
1076.454092	0.152691
1076.617649	0.151970
1076.781187	0.153112
1076.944708	0.154487
1077.108210	0.153950
1077.271695	0.154977
1077.435160	0.156241
1077.598608	0.158301
1077.762038	0.156972
1077.925449	0.156056
1078.088842	0.158354
1078.252217	0.157717
1078.415573	0.156384
1078.578912	0.156723
1078.742232	0.157273
1078.905534	0.156198
1079.068817	0.154019
1079.232083	0.155218
1079.395330	0.155542
1079.558559	0.152711
1079.721770	0.151469
1079.884962	0.151166
1080.048136	0.152142
1080.211293	0.150376
1080.374430	0.153102
1080.537550	0.152457
1080.700651	0.151967
1080.863735	0.155493
1081.026800	0.155319
1081.189846	0.156578
1081.352875	0.156576
1081.515885	0.155720
1081.678877	0.157452
1081.841851	0.155690
1082.004807	0.157625
1082.167744	0.156927
1082.330663	0.155620
1082.493564	0.157799
1082.656447	0.156831
1082.819312	0.154692
1082.982158	0.155339
1083.144986	0.154658
1083.307796	0.155553
1083.470587	0.156369
1083.633361	0.157363
1083.796116	0.157188
1083.958853	0.155554
1084.121571	0.156644
1084.284272	0.160286
1084.446954	0.158394
1084.609618	0.154824
1084.772264	0.152469
1084.934892	0.150153
1085.097501	0.151357
1085.260092	0.152911
1085.422665	0.152869
1085.585220	0.148752
1085.747756	0.147009
1085.910274	0.146797
1086.072774	0.149392
1086.235256	0.152302
1086.397720	0.154761
1086.560165	0.152672
1086.722592	0.151006
1086.885001	0.150874
1087.047392	0.155261
1087.209764	0.156308
1087.372119	0.157844
1087.534455	0.157010
1087.696772	0.154930
1087.859072	0.151019
1088.021353	0.152625
1088.183616	0.153269
1088.345861	0.152777
1088.508088	0.153139
1088.670296	0.151313
1088.832486	0.150512
1088.994658	0.152383
1089.156812	0.152295
1089.318948	0.153000
1089.481065	0.149944
1089.643164	0.147955
1089.805245	0.150419
1089.967308	0.148630
1090.129352	0.149557
1090.291378	0.152017
1090.453386	0.149423
1090.615376	0.147869
1090.777347	0.149722
1090.939301	0.153165
1091.101236	0.153794
1091.263153	0.154068
1091.425051	0.154596
1091.586932	0.153166
1091.748794	0.151790
1091.910638	0.156653
1092.072463	0.156723
1092.234271	0.154652
1092.396060	0.152639
1092.557831	0.156024
1092.719584	0.155723
1092.881319	0.154488
1093.043035	0.156003
1093.204733	0.155413
1093.366413	0.152669
1093.528075	0.161808
1093.689718	0.162535
1093.851343	0.163288
1094.012950	0.158059
1094.174539	0.154289
1094.336110	0.153226
1094.497662	0.156156
1094.659196	0.156101
1094.820712	0.153380
1094.982210	0.147756
1095.143689	0.150144
1095.305151	0.148398
1095.466594	0.149285
1095.628018	0.152447
1095.789425	0.157759
1095.950813	0.153429
1096.112183	0.153334
1096.273535	0.154341
1096.434869	0.148413
1096.596184	0.146712
1096.757482	0.147967
1096.918761	0.148217
1097.080021	0.148030
1097.241264	0.141105
1097.402488	0.141610
1097.563694	0.138587
1097.724882	0.138801
1097.886052	0.141515
1098.047203	0.142937
1098.208336	0.143729
1098.369451	0.146521
1098.530548	0.146284
1098.691627	0.151252
1098.852687	0.151470
1099.013729	0.157126
1099.174753	0.158182
1099.335758	0.160756
1099.496746	0.159954
1099.657715	0.160909
1099.818666	0.158246
1099.979599	0.158216
1100.140513	0.160292
1100.301409	0.162807
1100.462287	0.159336
1100.623147	0.158413
1100.783989	0.160548
1100.944812	0.164675
1101.105617	0.162937
1101.266404	0.164249
1101.427173	0.163923
1101.587923	0.163650
1101.748656	0.161104
1101.909370	0.164279
1102.070066	0.163307
1102.230743	0.161178
1102.391403	0.149740
1102.552044	0.151127
1102.712667	0.149242
1102.873271	0.151903
1103.033858	0.150345
1103.194426	0.152145
1103.354976	0.150499
1103.515508	0.155433
1103.676021	0.155112
1103.836517	0.167235
1103.996994	0.161328
1104.157453	0.162130
1104.317893	0.159735
1104.478316	0.154687
1104.638720	0.149757
1104.799106	0.148743
1104.959474	0.143666
1105.119823	0.142109
1105.280155	0.138134
1105.440468	0.138691
1105.600763	0.139190
1105.761039	0.138552
1105.921298	0.139980
1106.081538	0.145826
1106.241760	0.148229
1106.401964	0.154832
1106.562149	0.160666
1106.722316	0.160108
1106.882465	0.163532
1107.042596	0.163973
1107.202709	0.166073
1107.362803	0.173912
1107.522879	0.175027
1107.682937	0.175087
1107.842977	0.171422
1108.002999	0.163081
1108.163002	0.163923
1108.322987	0.165932
1108.482954	0.167695
1108.642902	0.170174
1108.802833	0.162774
1108.962745	0.155673
1109.122639	0.157647
1109.282515	0.157606
1109.442372	0.161129
1109.602211	0.157844
1109.762032	0.156186
1109.921835	0.154898
1110.081620	0.148299
1110.241386	0.154177
1110.401134	0.158548
1110.560864	0.156228
1110.720576	0.156438
1110.880269	0.155465
1111.039945	0.157363
1111.199602	0.161492
1111.359240	0.159547
1111.518861	0.164781
1111.678463	0.166166
1111.838047	0.166107
1111.997613	0.158794
1112.157161	0.155260
1112.316690	0.155400
1112.476202	0.151150
1112.635695	0.142606
1112.795169	0.148861
1112.954626	0.153235
1113.114064	0.148515
1113.273484	0.145775
1113.432886	0.150456
1113.592270	0.151961
1113.751635	0.151694
1113.910983	0.159616
1114.070312	0.167992
1114.229622	0.158018
1114.388915	0.150000
1114.548189	0.150225
1114.707445	0.154858
1114.866683	0.153463
1115.025903	0.153810
1115.185104	0.155854
1115.344287	0.152562
1115.503452	0.151447
1115.662599	0.162317
1115.821727	0.161850
1115.980838	0.165701
1116.139930	0.166435
1116.299004	0.165173
1116.458059	0.163608
1116.617097	0.165383
1116.776116	0.166425
1116.935117	0.168060
1117.094099	0.158708
1117.253064	0.164468
1117.412010	0.158608
1117.570938	0.161836
1117.729848	0.171132
1117.888740	0.170610
1118.047613	0.169266
1118.206468	0.169815
1118.365305	0.165341
1118.524124	0.164199
1118.682924	0.159420
1118.841707	0.152529
1119.000471	0.141996
1119.159216	0.137417
1119.317944	0.136937
1119.476653	0.136797
1119.635344	0.137229
1119.794017	0.139983
1119.952672	0.141725
1120.111308	0.145743
1120.269927	0.155010
1120.428527	0.157611
1120.587108	0.154453
1120.745672	0.158127
1120.904217	0.158110
1121.062744	0.154552
1121.221253	0.147139
1121.379744	0.149877
1121.538216	0.147325
1121.696671	0.141661
1121.855107	0.140636
1122.013524	0.143732
1122.171924	0.143187
1122.330305	0.145871
1122.488668	0.147035
1122.647013	0.157696
1122.805340	0.154986
1122.963648	0.150283
1123.121938	0.156583
1123.280210	0.163572
1123.438464	0.168199
1123.596700	0.170960
1123.754917	0.171549
1123.913116	0.169267
1124.071297	0.163517
1124.229459	0.167621
1124.387604	0.169181
1124.545730	0.171296
1124.703838	0.164525
1124.861928	0.163199
1125.019999	0.161535
1125.178052	0.153129
1125.336088	0.155254
1125.494104	0.153925
1125.652103	0.151169
1125.810083	0.158533
1125.968045	0.157312
1126.125989	0.159737
1126.283915	0.158157
1126.441823	0.152072
1126.599712	0.155471
1126.757583	0.151741
1126.915436	0.150821
1127.073270	0.150421
1127.231087	0.145367
1127.388885	0.140485
1127.546665	0.151376
1127.704426	0.150889
1127.862170	0.158590
1128.019895	0.160798
1128.177602	0.164056
1128.335291	0.163785
1128.492961	0.161757
1128.650614	0.161981
1128.808248	0.161361
1128.965864	0.156165
1129.123461	0.152652
1129.281041	0.156906
1129.438602	0.153864
1129.596145	0.147462
1129.753670	0.152079
1129.911176	0.156360
1130.068665	0.158136
1130.226135	0.166417
1130.383587	0.162959
1130.541020	0.162928
1130.698436	0.157727
1130.855833	0.157332
1131.013212	0.171066
1131.170573	0.169933
1131.327915	0.173685
1131.485239	0.172220
1131.642545	0.165015
1131.799833	0.164587
1131.957103	0.170197
1132.114354	0.173124
1132.271588	0.166498
1132.428803	0.161453
1132.585999	0.155924
1132.743178	0.152366
1132.900338	0.146938
1133.057480	0.155711
1133.214604	0.154548
1133.371710	0.151293
1133.528797	0.139864
1133.685866	0.148028
1133.842917	0.151281
1133.999950	0.155448
1134.156964	0.150404
1134.313960	0.157011
1134.470938	0.145568
1134.627898	0.143073
1134.784840	0.145118
1134.941763	0.147016
1135.098668	0.150633
1135.255555	0.147114
1135.412424	0.145045
1135.569274	0.148980
1135.726107	0.149164
1135.882921	0.155796
1136.039716	0.148939
1136.196494	0.151584
1136.353253	0.161440
1136.509995	0.153115
1136.666717	0.147859
1136.823422	0.150646
1136.980109	0.156547
1137.136777	0.161183
1137.293427	0.153923
1137.450059	0.167289
1137.606672	0.161538
1137.763267	0.149439
1137.919844	0.149940
1138.076403	0.150802
1138.232944	0.155581
1138.389466	0.154498
1138.545971	0.147601
1138.702457	0.152021
1138.858924	0.138620
1139.015374	0.137834
1139.171805	0.143554
1139.328218	0.139548
1139.484613	0.147981
1139.640990	0.146514
1139.797348	0.138813
1139.953688	0.133932
1140.110010	0.132459
1140.266314	0.140103
1140.422600	0.140045
1140.578867	0.142243
1140.735116	0.146283
1140.891347	0.140794
1141.047559	0.131811
1141.203754	0.132079
1141.359930	0.136158
1141.516088	0.143719
1141.672228	0.143420
1141.828349	0.143413
1141.984452	0.146882
1142.140537	0.150460
1142.296604	0.151919
1142.452653	0.154790
1142.608683	0.157339
1142.764695	0.157150
1142.920689	0.143709
1143.076665	0.149709
1143.232622	0.153844
1143.388562	0.143831
1143.544483	0.145445
1143.700385	0.138784
1143.856270	0.143031
1144.012136	0.146858
1144.167985	0.153989
1144.323814	0.165868
1144.479626	0.162505
1144.635420	0.165462
1144.791195	0.166482
1144.946952	0.157613
1145.102691	0.162610
1145.258411	0.158799
1145.414113	0.149554
1145.569798	0.148294
1145.725463	0.145008
1145.881111	0.140391
1146.036741	0.126913
1146.192352	0.127731
1146.347945	0.137170
1146.503519	0.143452
1146.659076	0.141386
1146.814614	0.148580
1146.970134	0.136182
1147.125636	0.129612
1147.281120	0.132969
1147.436585	0.146471
1147.592032	0.148234
1147.747461	0.147166
1147.902872	0.133223
1148.058265	0.134004
1148.213639	0.127822
1148.368995	0.129580
1148.524333	0.125706
1148.679653	0.127808
1148.834954	0.120333
1148.990237	0.124735
1149.145502	0.132109
1149.300749	0.138927
1149.455977	0.149808
1149.611188	0.151836
1149.766380	0.162728
1149.921553	0.173228
1150.076709	0.173132
1150.231846	0.180318
1150.386966	0.173133
1150.542066	0.165959
1150.697149	0.169062
1150.852214	0.165347
1151.007260	0.164934
1151.162288	0.166531
1151.317298	0.165316
1151.472289	0.153703
1151.627263	0.145848
1151.782218	0.147703
1151.937155	0.140606
1152.092073	0.137352
1152.246974	0.132991
1152.401856	0.132103
1152.556720	0.118533
1152.711566	0.117741
1152.866393	0.111875
1153.021203	0.114829
1153.175994	0.116497
1153.330767	0.116685
1153.485521	0.123847
1153.640258	0.120584
1153.794976	0.116263
1153.949676	0.120847
1154.104358	0.116723
1154.259021	0.136685
1154.413667	0.131050
1154.568294	0.127928
1154.722903	0.126796
1154.877493	0.114694
1155.032066	0.111149
1155.186620	0.115586
1155.341156	0.118594
1155.495674	0.127966
1155.650173	0.119092
1155.804654	0.126062
1155.959118	0.132390
1156.113562	0.136706
1156.267989	0.143434
1156.422397	0.153003
1156.576788	0.142356
1156.731160	0.130608
1156.885513	0.127525
1157.039849	0.131059
1157.194166	0.132064
1157.348465	0.127991
1157.502746	0.131981
1157.657009	0.131817
1157.811253	0.133212
1157.965479	0.150199
1158.119687	0.163392
1158.273877	0.158805
1158.428048	0.150530
1158.582201	0.144854
1158.736337	0.146332
1158.890453	0.140768
1159.044552	0.151160
1159.198632	0.152098
1159.352694	0.148845
1159.506738	0.158426
1159.660764	0.156815
1159.814771	0.153873
1159.968761	0.155145
1160.122732	0.147456
1160.276685	0.147487
1160.430619	0.134074
1160.584535	0.115658
1160.738434	0.128192
1160.892313	0.122305
1161.046175	0.119676
1161.200019	0.130702
1161.353844	0.124895
1161.507651	0.129978
1161.661440	0.141383
1161.815210	0.135581
1161.968962	0.146660
1162.122697	0.126797
1162.276412	0.122965
1162.430110	0.124617
1162.583789	0.126988
1162.737451	0.139025
1162.891094	0.138472
1163.044718	0.130621
1163.198325	0.137924
1163.351913	0.137574
1163.505483	0.144951
1163.659035	0.149620
1163.812569	0.154026
1163.966084	0.146251
1164.119581	0.126005
1164.273060	0.125743
1164.426521	0.120132
1164.579964	0.118988
1164.733388	0.101347
1164.886794	0.097223
1165.040182	0.097201
1165.193551	0.091158
1165.346903	0.086105
1165.500236	0.093492
1165.653551	0.100572
1165.806848	0.105334
1165.960126	0.113235
1166.113386	0.125975
1166.266628	0.114919
1166.419852	0.098416
1166.573058	0.095550
1166.726245	0.106026
1166.879414	0.118811
1167.032565	0.101757
1167.185698	0.098897
1167.338812	0.091402
1167.491909	0.105067
1167.644987	0.117552
1167.798046	0.136633
1167.951088	0.155518
1168.104111	0.155320
1168.257117	0.146125
1168.410103	0.155713
1168.563072	0.157992
1168.716023	0.160380
1168.868955	0.141910
1169.021869	0.122445
1169.174765	0.115999
1169.327642	0.105330
1169.480501	0.093405
1169.633343	0.090938
1169.786165	0.088006
1169.938970	0.096180
1170.091757	0.092992
1170.244525	0.101021
1170.397275	0.122341
1170.550007	0.117428
1170.702720	0.112917
1170.855415	0.118066
1171.008092	0.117154
1171.160751	0.120603
1171.313392	0.108044
1171.466014	0.115873
1171.618619	0.098971
1171.771205	0.098971
1171.923772	0.098971
