sample name	sample
index	420
start time	 03-08-2021  11:33:40 AM


Wavelength (nm)	Absorbance
494.344910	NaN
494.563924	NaN
494.782919	NaN
495.001897	0.140378
495.220856	0.276275
495.439797	0.141299
495.658719	0.089243
495.877624	0.032074
496.096510	0.008790
496.315378	-0.043086
496.534227	-0.065173
496.753059	0.002644
496.971872	-0.030099
497.190667	0.130154
497.409444	0.139517
497.628203	0.138478
497.846943	0.138297
498.065665	0.139990
498.284369	0.142982
498.503055	0.143808
498.721723	0.142562
498.940372	0.144625
499.159003	0.143648
499.377616	0.144689
499.596210	0.146214
499.814787	0.147612
500.033345	0.147495
500.251885	0.147226
500.470406	0.146305
500.688910	0.146899
500.907395	0.145332
501.125862	0.145679
501.344311	0.145550
501.562742	0.145411
501.781154	0.145121
501.999548	0.145768
502.217924	0.146250
502.436282	0.147498
502.654621	0.147944
502.872942	0.148101
503.091245	0.148615
503.309530	0.148173
503.527797	0.147770
503.746045	0.147399
503.964275	0.147070
504.182487	0.146982
504.400681	0.147443
504.618856	0.147961
504.837013	0.147518
505.055152	0.147014
505.273273	0.148145
505.491376	0.148787
505.709460	0.148756
505.927526	0.148934
506.145574	0.149074
506.363604	0.148599
506.581615	0.148223
506.799608	0.149022
507.017583	0.148626
507.235540	0.148237
507.453478	0.148460
507.671399	0.148659
507.889301	0.149251
508.107185	0.148911
508.325050	0.149683
508.542898	0.150347
508.760727	0.151085
508.978538	0.151530
509.196330	0.152006
509.414105	0.151783
509.631861	0.152788
509.849599	0.152418
510.067319	0.153123
510.285021	0.152365
510.502704	0.152148
510.720369	0.152791
510.938016	0.153451
511.155645	0.152922
511.373255	0.153424
511.590848	0.153335
511.808422	0.153794
512.025977	0.154019
512.243515	0.154491
512.461034	0.154075
512.678536	0.152982
512.896018	0.152966
513.113483	0.153988
513.330930	0.153571
513.548358	0.153215
513.765768	0.153236
513.983160	0.153313
514.200533	0.153614
514.417889	0.154400
514.635226	0.155248
514.852545	0.155276
515.069845	0.155046
515.287128	0.155625
515.504392	0.156260
515.721638	0.155808
515.938866	0.155868
516.156075	0.155378
516.373267	0.156120
516.590440	0.156704
516.807594	0.156853
517.024731	0.156632
517.241850	0.156844
517.458950	0.157562
517.676032	0.159004
517.893095	0.159950
518.110141	0.161173
518.327168	0.161163
518.544177	0.160539
518.761168	0.160624
518.978141	0.160957
519.195095	0.161224
519.412031	0.161283
519.628949	0.161125
519.845849	0.160737
520.062731	0.160433
520.279594	0.161311
520.496439	0.161957
520.713266	0.162826
520.930074	0.163084
521.146865	0.162648
521.363637	0.162558
521.580391	0.163168
521.797127	0.162909
522.013844	0.163203
522.230543	0.162932
522.447224	0.162594
522.663887	0.162277
522.880532	0.162639
523.097158	0.163792
523.313766	0.164041
523.530356	0.163884
523.746928	0.165045
523.963481	0.165145
524.180017	0.165890
524.396534	0.166461
524.613032	0.167202
524.829513	0.167636
525.045975	0.167512
525.262420	0.168491
525.478845	0.168705
525.695253	0.168614
525.911643	0.169475
526.128014	0.168869
526.344367	0.169472
526.560702	0.169935
526.777018	0.170010
526.993316	0.170551
527.209597	0.170143
527.425858	0.170696
527.642102	0.171049
527.858328	0.171103
528.074535	0.171725
528.290724	0.172324
528.506894	0.171878
528.723047	0.172967
528.939181	0.173037
529.155297	0.173522
529.371395	0.173881
529.587475	0.174080
529.803536	0.174745
530.019579	0.174930
530.235604	0.174754
530.451611	0.175440
530.667600	0.175031
530.883570	0.176289
531.099522	0.176794
531.315456	0.177107
531.531372	0.177620
531.747269	0.178096
531.963148	0.178662
532.179009	0.179116
532.394852	0.179726
532.610676	0.180884
532.826482	0.181117
533.042271	0.180897
533.258040	0.181061
533.473792	0.181532
533.689525	0.181871
533.905240	0.182489
534.120937	0.182872
534.336616	0.182994
534.552277	0.182666
534.767919	0.182502
534.983543	0.183405
535.199149	0.183817
535.414736	0.184051
535.630306	0.183820
535.845857	0.183591
536.061390	0.184274
536.276904	0.184832
536.492401	0.185138
536.707879	0.185611
536.923339	0.185983
537.138781	0.186295
537.354204	0.186400
537.569610	0.187198
537.784997	0.187612
538.000366	0.187771
538.215716	0.188216
538.431049	0.188727
538.646363	0.189333
538.861659	0.189843
539.076937	0.189912
539.292196	0.190561
539.507438	0.190245
539.722661	0.190429
539.937866	0.190327
540.153052	0.189866
540.368221	0.190283
540.583371	0.190221
540.798503	0.189912
541.013617	0.190614
541.228712	0.189878
541.443789	0.190325
541.658848	0.191029
541.873889	0.191620
542.088912	0.192133
542.303916	0.192359
542.518902	0.192676
542.733870	0.192963
542.948820	0.193505
543.163752	0.194231
543.378665	0.195008
543.593560	0.195196
543.808437	0.195514
544.023295	0.196108
544.238136	0.196699
544.452958	0.196859
544.667762	0.197314
544.882548	0.197357
545.097315	0.197700
545.312064	0.197530
545.526795	0.197508
545.741508	0.198015
545.956203	0.198304
546.170879	0.198370
546.385537	0.198609
546.600177	0.199050
546.814799	0.198998
547.029402	0.199815
547.243988	0.200295
547.458555	0.200345
547.673103	0.200178
547.887634	0.200655
548.102146	0.200942
548.316640	0.201051
548.531116	0.201560
548.745574	0.202175
548.960013	0.202116
549.174435	0.202158
549.388838	0.202989
549.603222	0.203347
549.817589	0.203569
550.031937	0.203685
550.246267	0.204368
550.460579	0.204417
550.674873	0.204719
550.889148	0.205427
551.103405	0.206170
551.317644	0.206229
551.531865	0.206538
551.746068	0.206878
551.960252	0.206918
552.174418	0.206774
552.388566	0.206776
552.602696	0.206766
552.816807	0.206688
553.030900	0.206727
553.244975	0.207054
553.459032	0.206819
553.673070	0.206659
553.887091	0.206791
554.101093	0.207087
554.315077	0.207490
554.529042	0.208001
554.742990	0.207894
554.956919	0.207731
555.170830	0.207872
555.384722	0.208873
555.598597	0.209243
555.812453	0.209906
556.026291	0.210719
556.240111	0.211157
556.453913	0.211328
556.667696	0.211917
556.881461	0.212578
557.095208	0.212871
557.308937	0.213038
557.522647	0.213084
557.736339	0.212923
557.950013	0.212743
558.163669	0.213124
558.377307	0.213232
558.590926	0.213596
558.804527	0.213705
559.018110	0.213983
559.231675	0.214022
559.445221	0.214327
559.658749	0.214699
559.872259	0.214717
560.085751	0.214602
560.299225	0.214771
560.512680	0.214676
560.726117	0.215035
560.939536	0.215020
561.152937	0.215441
561.366319	0.215828
561.579683	0.215959
561.793029	0.216299
562.006357	0.216416
562.219667	0.216670
562.432958	0.216813
562.646231	0.216611
562.859486	0.216879
563.072723	0.216840
563.285941	0.217214
563.499141	0.217869
563.712323	0.218382
563.925487	0.218938
564.138632	0.219254
564.351760	0.219614
564.564869	0.220166
564.777960	0.220075
564.991032	0.220381
565.204087	0.220549
565.417123	0.220451
565.630141	0.220740
565.843140	0.220652
566.056122	0.221219
566.269085	0.221649
566.482030	0.221744
566.694957	0.222213
566.907866	0.222728
567.120756	0.222730
567.333628	0.223051
567.546482	0.222900
567.759318	0.223193
567.972135	0.223106
568.184935	0.223312
568.397716	0.223755
568.610478	0.223997
568.823223	0.223633
569.035949	0.223921
569.248657	0.223833
569.461347	0.224286
569.674019	0.224336
569.886672	0.224278
570.099308	0.224492
570.311925	0.224161
570.524523	0.225184
570.737104	0.225450
570.949666	0.225247
571.162210	0.225517
571.374736	0.225580
571.587244	0.225884
571.799733	0.226101
572.012205	0.226321
572.224658	0.226811
572.437092	0.226441
572.649509	0.226618
572.861907	0.227029
573.074287	0.227350
573.286649	0.227459
573.498993	0.227962
573.711318	0.228125
573.923625	0.228156
574.135914	0.228758
574.348185	0.229010
574.560438	0.229464
574.772672	0.229919
574.984888	0.230191
575.197086	0.230738
575.409266	0.230730
575.621427	0.230844
575.833570	0.231007
576.045695	0.230763
576.257802	0.230768
576.469890	0.230980
576.681961	0.230938
576.894013	0.230920
577.106046	0.230776
577.318062	0.230782
577.530059	0.230895
577.742039	0.230980
577.954000	0.231348
578.165942	0.231401
578.377867	0.231561
578.589773	0.231947
578.801661	0.232303
579.013531	0.232655
579.225382	0.232973
579.437216	0.233827
579.649031	0.233812
579.860828	0.234118
580.072606	0.234462
580.284367	0.234856
580.496109	0.235183
580.707833	0.235534
580.919539	0.235616
581.131227	0.236371
581.342896	0.236439
581.554547	0.237169
581.766180	0.237368
581.977795	0.237241
582.189391	0.237477
582.400969	0.237891
582.612529	0.238257
582.824071	0.238546
583.035595	0.238608
583.247100	0.238621
583.458587	0.238482
583.670056	0.238706
583.881506	0.239662
584.092939	0.239881
584.304353	0.239905
584.515749	0.239926
584.727127	0.240156
584.938486	0.240419
585.149828	0.240735
585.361151	0.241220
585.572456	0.241383
585.783742	0.241084
585.995011	0.240821
586.206261	0.241357
586.417493	0.241706
586.628706	0.242067
586.839902	0.241792
587.051079	0.241807
587.262238	0.242055
587.473379	0.241951
587.684502	0.242365
587.895606	0.242863
588.106692	0.242457
588.317760	0.242442
588.528810	0.242555
588.739841	0.242712
588.950855	0.243164
589.161850	0.243659
589.372827	0.243893
589.583785	0.243925
589.794726	0.244325
590.005648	0.245074
590.216552	0.244847
590.427437	0.244959
590.638305	0.245153
590.849154	0.245461
591.059985	0.245446
591.270798	0.245668
591.481592	0.246327
591.692369	0.246534
591.903127	0.246388
592.113867	0.247215
592.324588	0.247935
592.535292	0.248144
592.745977	0.248293
592.956644	0.248520
593.167293	0.248924
593.377923	0.249042
593.588536	0.249068
593.799130	0.249311
594.009706	0.249353
594.220263	0.249206
594.430803	0.249807
594.641324	0.250303
594.851827	0.250537
595.062312	0.250653
595.272778	0.250704
595.483227	0.250823
595.693657	0.250717
595.904069	0.251042
596.114462	0.251125
596.324838	0.251510
596.535195	0.251615
596.745534	0.251607
596.955855	0.251789
597.166157	0.252227
597.376441	0.252174
597.586707	0.252647
597.796955	0.252850
598.007185	0.253007
598.217396	0.252712
598.427589	0.252632
598.637764	0.253022
598.847921	0.253347
599.058060	0.253346
599.268180	0.253799
599.478282	0.253969
599.688366	0.254328
599.898431	0.254852
600.108479	0.255342
600.318508	0.255754
600.528519	0.256013
600.738511	0.256154
600.948486	0.256595
601.158442	0.257020
601.368380	0.257342
601.578300	0.257356
601.788202	0.256912
601.998085	0.256892
602.207950	0.256940
602.417797	0.256830
602.627626	0.257218
602.837436	0.257272
603.047228	0.257191
603.257002	0.257582
603.466758	0.257800
603.676496	0.258441
603.886215	0.258997
604.095916	0.259140
604.305599	0.259741
604.515264	0.260114
604.724910	0.260016
604.934538	0.260398
605.144148	0.260310
605.353740	0.260514
605.563314	0.260525
605.772869	0.260414
605.982406	0.260402
606.191925	0.260258
606.401425	0.260016
606.610908	0.260530
606.820372	0.260532
607.029818	0.260384
607.239246	0.260409
607.448655	0.260866
607.658047	0.260899
607.867420	0.261316
608.076775	0.261849
608.286111	0.261959
608.495430	0.262328
608.704730	0.262817
608.914012	0.263431
609.123275	0.263887
609.332521	0.263834
609.541748	0.264278
609.750957	0.264267
609.960148	0.264299
610.169321	0.264843
610.378475	0.264787
610.587611	0.264685
610.796729	0.264814
611.005829	0.264594
611.214910	0.264654
611.423974	0.264783
611.633019	0.265199
611.842045	0.265064
612.051054	0.265116
612.260044	0.265060
612.469017	0.265171
612.677970	0.265403
612.886906	0.265763
613.095824	0.266409
613.304723	0.266466
613.513604	0.266499
613.722467	0.266604
613.931311	0.266742
614.140138	0.266816
614.348946	0.266888
614.557736	0.266913
614.766507	0.267098
614.975261	0.266924
615.183996	0.267315
615.392713	0.267541
615.601412	0.268045
615.810092	0.268319
616.018754	0.268820
616.227399	0.269441
616.436024	0.269969
616.644632	0.270204
616.853222	0.270451
617.061793	0.270495
617.270346	0.270536
617.478880	0.270720
617.687397	0.270894
617.895895	0.271026
618.104375	0.271067
618.312837	0.270691
618.521281	0.271014
618.729706	0.271438
618.938113	0.271562
619.146502	0.271895
619.354873	0.272074
619.563226	0.272169
619.771560	0.272382
619.979876	0.272632
620.188174	0.273223
620.396453	0.273187
620.604715	0.272865
620.812958	0.273222
621.021183	0.273135
621.229390	0.273208
621.437578	0.273357
621.645748	0.273507
621.853900	0.273416
622.062034	0.273415
622.270150	0.273470
622.478247	0.273999
622.686326	0.273750
622.894387	0.274251
623.102430	0.274380
623.310454	0.274763
623.518461	0.275038
623.726449	0.275540
623.934418	0.275670
624.142370	0.275849
624.350303	0.275874
624.558218	0.276180
624.766115	0.276459
624.973994	0.276855
625.181855	0.276819
625.389697	0.276525
625.597521	0.276109
625.805327	0.276102
626.013114	0.276277
626.220883	0.276536
626.428634	0.276737
626.636367	0.276782
626.844082	0.276651
627.051778	0.276785
627.259457	0.277330
627.467117	0.277813
627.674758	0.278153
627.882382	0.278379
628.089987	0.278709
628.297574	0.279187
628.505143	0.279206
628.712694	0.279573
628.920226	0.279702
629.127740	0.279945
629.335236	0.280076
629.542714	0.280568
629.750174	0.280886
629.957615	0.280837
630.165038	0.280667
630.372443	0.281135
630.579829	0.281295
630.787198	0.281659
630.994548	0.281700
631.201880	0.282129
631.409194	0.282177
631.616489	0.282300
631.823766	0.282476
632.031025	0.282676
632.238266	0.282827
632.445489	0.283070
632.652693	0.282986
632.859879	0.283167
633.067047	0.283030
633.274197	0.283075
633.481329	0.283229
633.688442	0.283558
633.895537	0.283648
634.102614	0.283704
634.309672	0.283596
634.516713	0.284131
634.723735	0.284636
634.930739	0.284950
635.137724	0.285317
635.344692	0.285430
635.551641	0.285436
635.758572	0.285690
635.965485	0.285861
636.172379	0.286068
636.379256	0.285952
636.586114	0.285822
636.792954	0.286085
636.999775	0.286226
637.206579	0.286421
637.413364	0.286791
637.620131	0.287372
637.826880	0.287461
638.033610	0.287849
638.240323	0.288357
638.447017	0.288498
638.653692	0.288704
638.860350	0.288888
639.066990	0.289191
639.273611	0.289277
639.480214	0.289105
639.686798	0.289288
639.893365	0.289531
640.099913	0.289397
640.306443	0.289832
640.512955	0.290135
640.719449	0.290338
640.925924	0.290404
641.132381	0.290450
641.338820	0.290761
641.545241	0.291051
641.751644	0.291390
641.958028	0.291845
642.164394	0.291957
642.370742	0.292218
642.577071	0.292277
642.783383	0.292827
642.989676	0.292991
643.195951	0.293277
643.402207	0.293655
643.608446	0.293664
643.814666	0.293450
644.020868	0.293453
644.227052	0.293538
644.433218	0.293807
644.639365	0.293643
644.845494	0.293914
645.051605	0.293967
645.257698	0.293930
645.463772	0.294063
645.669828	0.294559
645.875866	0.294859
646.081886	0.295037
646.287888	0.295094
646.493871	0.295611
646.699836	0.295930
646.905783	0.296192
647.111712	0.296565
647.317622	0.296840
647.523514	0.297109
647.729388	0.297279
647.935244	0.297253
648.141082	0.297509
648.346901	0.297502
648.552702	0.297573
648.758485	0.298019
648.964250	0.297904
649.169996	0.297969
649.375724	0.297953
649.581434	0.298206
649.787126	0.298563
649.992800	0.298747
650.198455	0.299154
650.404092	0.299346
650.609711	0.299367
650.815311	0.299648
651.020894	0.299856
651.226458	0.300075
651.432004	0.300166
651.637532	0.300476
651.843041	0.300894
652.048532	0.300894
652.254006	0.301265
652.459460	0.301481
652.664897	0.301854
652.870315	0.302188
653.075716	0.302253
653.281097	0.302579
653.486461	0.302697
653.691807	0.302670
653.897134	0.302655
654.102443	0.302964
654.307734	0.302913
654.513006	0.303016
654.718261	0.303138
654.923497	0.303667
655.128715	0.303913
655.333915	0.303949
655.539096	0.304345
655.744259	0.304846
655.949404	0.304687
656.154531	0.305135
656.359640	0.305445
656.564730	0.305733
656.769802	0.305922
656.974856	0.305868
657.179892	0.306226
657.384909	0.306241
657.589908	0.306347
657.794889	0.306638
657.999852	0.306800
658.204797	0.306930
658.409723	0.307353
658.614631	0.307655
658.819521	0.307925
659.024393	0.308293
659.229246	0.308631
659.434081	0.308982
659.638898	0.309457
659.843697	0.309588
660.048478	0.309669
660.253240	0.309561
660.457984	0.309798
660.662710	0.310103
660.867417	0.310315
661.072107	0.310538
661.276778	0.310697
661.481431	0.310833
661.686066	0.311069
661.890682	0.311466
662.095281	0.311795
662.299861	0.312040
662.504422	0.312362
662.708966	0.312352
662.913491	0.312544
663.117999	0.312837
663.322488	0.313043
663.526958	0.313489
663.731411	0.313788
663.935845	0.313867
664.140261	0.313875
664.344659	0.314050
664.549038	0.314257
664.753400	0.314531
664.957743	0.314813
665.162068	0.314948
665.366375	0.314958
665.570663	0.314923
665.774933	0.315425
665.979185	0.315726
666.183419	0.316126
666.387635	0.316778
666.591832	0.317182
666.796011	0.317439
667.000172	0.317978
667.204315	0.318454
667.408439	0.319106
667.612545	0.319469
667.816634	0.319913
668.020703	0.320020
668.224755	0.320018
668.428788	0.320281
668.632803	0.320349
668.836800	0.320461
669.040779	0.320622
669.244739	0.320523
669.448681	0.320565
669.652605	0.320625
669.856511	0.320883
670.060399	0.321079
670.264268	0.321322
670.468119	0.321596
670.671952	0.321805
670.875767	0.321926
671.079563	0.322480
671.283341	0.322788
671.487101	0.322956
671.690843	0.323223
671.894567	0.323360
672.098272	0.323391
672.301959	0.323582
672.505628	0.323808
672.709278	0.324103
672.912911	0.324004
673.116525	0.324038
673.320121	0.324273
673.523699	0.324390
673.727258	0.324493
673.930799	0.324697
674.134322	0.325073
674.337827	0.325491
674.541314	0.325697
674.744782	0.326209
674.948232	0.326506
675.151664	0.326554
675.355078	0.326858
675.558474	0.327235
675.761851	0.327758
675.965210	0.327917
676.168551	0.327797
676.371873	0.328059
676.575178	0.328308
676.778464	0.328568
676.981732	0.328962
677.184981	0.329124
677.388213	0.329547
677.591426	0.329333
677.794621	0.329606
677.997798	0.329907
678.200956	0.330251
678.404097	0.330438
678.607219	0.330817
678.810323	0.331071
679.013408	0.331312
679.216476	0.331301
679.419525	0.331507
679.622556	0.331708
679.825569	0.332175
680.028563	0.332338
680.231540	0.332184
680.434498	0.332203
680.637438	0.332694
680.840359	0.332900
681.043263	0.333515
681.246148	0.334084
681.449015	0.334499
681.651864	0.334542
681.854694	0.334862
682.057506	0.335368
682.260301	0.335659
682.463076	0.335957
682.665834	0.336059
682.868573	0.336205
683.071295	0.336277
683.273998	0.336378
683.476682	0.336532
683.679349	0.336542
683.881997	0.336825
684.084627	0.336962
684.287239	0.336987
684.489833	0.337563
684.692408	0.337577
684.894965	0.337647
685.097504	0.337943
685.300025	0.338502
685.502527	0.338893
685.705012	0.338945
685.907478	0.339195
686.109925	0.339374
686.312355	0.339364
686.514766	0.339570
686.717159	0.340063
686.919534	0.340221
687.121891	0.340209
687.324230	0.340357
687.526550	0.340663
687.728852	0.341027
687.931136	0.341344
688.133401	0.341478
688.335649	0.341721
688.537878	0.341804
688.740089	0.341873
688.942281	0.342186
689.144456	0.342298
689.346612	0.342557
689.548750	0.342614
689.750870	0.342926
689.952971	0.343049
690.155055	0.343448
690.357120	0.343646
690.559167	0.343928
690.761195	0.344115
690.963206	0.344250
691.165198	0.344309
691.367172	0.344349
691.569128	0.344023
691.771065	0.344409
691.972984	0.344374
692.174885	0.344530
692.376768	0.344668
692.578633	0.344676
692.780479	0.344966
692.982308	0.345333
693.184118	0.345723
693.385909	0.346054
693.587683	0.346133
693.789438	0.346220
693.991175	0.346339
694.192894	0.346598
694.394595	0.346775
694.596277	0.346844
694.797941	0.346834
694.999587	0.347188
695.201215	0.347144
695.402824	0.347595
695.604416	0.347976
695.805989	0.348298
696.007543	0.348223
696.209080	0.348419
696.410598	0.348705
696.612099	0.348754
696.813580	0.348679
697.015044	0.349289
697.216490	0.349336
697.417917	0.349265
697.619326	0.349273
697.820717	0.349506
698.022089	0.349446
698.223444	0.349542
698.424780	0.349824
698.626098	0.350165
698.827397	0.350268
699.028679	0.350342
699.229942	0.350662
699.431187	0.350457
699.632414	0.350887
699.833622	0.351197
700.034813	0.351266
700.235985	0.351431
700.437139	0.351454
700.638274	0.351542
700.839392	0.351884
701.040491	0.352008
701.241572	0.352544
701.442635	0.352374
701.643679	0.352708
701.844706	0.353070
702.045714	0.353057
702.246704	0.353180
702.447675	0.353232
702.648629	0.353226
702.849564	0.353283
703.050481	0.353443
703.251380	0.353638
703.452260	0.353743
703.653122	0.353697
703.853966	0.353889
704.054792	0.354168
704.255600	0.354370
704.456389	0.354302
704.657160	0.354349
704.857913	0.354382
705.058648	0.354503
705.259365	0.354562
705.460063	0.354537
705.660743	0.354788
705.861405	0.354527
706.062048	0.354468
706.262674	0.354520
706.463281	0.354530
706.663870	0.354567
706.864441	0.354584
707.064993	0.354405
707.265527	0.354659
707.466043	0.354434
707.666541	0.354702
707.867021	0.354882
708.067482	0.355038
708.267925	0.355375
708.468350	0.355590
708.668757	0.355581
708.869145	0.355982
709.069516	0.356031
709.269868	0.356445
709.470201	0.356459
709.670517	0.356676
709.870814	0.356757
710.071093	0.356690
710.271354	0.356742
710.471597	0.356901
710.671821	0.356842
710.872028	0.356795
711.072216	0.356929
711.272385	0.356858
711.472537	0.356481
711.672670	0.356406
711.872785	0.356450
712.072882	0.356492
712.272961	0.356456
712.473021	0.356422
712.673063	0.356228
712.873087	0.355983
713.073093	0.355946
713.273081	0.356004
713.473050	0.356194
713.673001	0.356175
713.872934	0.356108
714.072849	0.356177
714.272745	0.356365
714.472623	0.356602
714.672483	0.356778
714.872325	0.356818
715.072148	0.356875
715.271954	0.356759
715.471741	0.356686
715.671509	0.356553
715.871260	0.356263
716.070992	0.355970
716.270707	0.355856
716.470403	0.355633
716.670080	0.355769
716.869740	0.355742
717.069381	0.355779
717.269004	0.355796
717.468609	0.355803
717.668195	0.356003
717.867764	0.356020
718.067314	0.356107
718.266846	0.356255
718.466360	0.355974
718.665855	0.355885
718.865332	0.355785
719.064791	0.355650
719.264232	0.355680
719.463655	0.355660
719.663059	0.355427
719.862445	0.355323
720.061813	0.354895
720.261163	0.354946
720.460494	0.354925
720.659807	0.354825
720.859102	0.354856
721.058379	0.354694
721.257638	0.354338
721.456878	0.354280
721.656100	0.354197
721.855304	0.354226
722.054490	0.354187
722.253657	0.354098
722.452806	0.354157
722.651937	0.354100
722.851050	0.353856
723.050145	0.353703
723.249221	0.353822
723.448279	0.353691
723.647319	0.353596
723.846340	0.353437
724.045344	0.353491
724.244329	0.353245
724.443296	0.353095
724.642245	0.353188
724.841175	0.353440
725.040088	0.353184
725.238982	0.353283
725.437857	0.353338
725.636715	0.353158
725.835554	0.353116
726.034376	0.353018
726.233179	0.353029
726.431963	0.352957
726.630730	0.352654
726.829478	0.352704
727.028208	0.352487
727.226920	0.352347
727.425614	0.352427
727.624289	0.352136
727.822946	0.352069
728.021585	0.352046
728.220206	0.351807
728.418808	0.351748
728.617392	0.351491
728.815958	0.351373
729.014506	0.351329
729.213036	0.351296
729.411547	0.351272
729.610040	0.351025
729.808515	0.350520
730.006972	0.350514
730.205410	0.350417
730.403831	0.350362
730.602233	0.350005
730.800616	0.349963
730.998982	0.349685
731.197329	0.349520
731.395658	0.349577
731.593969	0.349486
731.792262	0.349228
731.990536	0.349086
732.188793	0.348985
732.387031	0.349136
732.585250	0.348810
732.783452	0.348747
732.981635	0.348608
733.179800	0.348531
733.377947	0.348423
733.576076	0.348183
733.774186	0.347826
733.972278	0.347920
734.170352	0.347694
734.368408	0.347475
734.566446	0.347403
734.764465	0.347439
734.962466	0.347158
735.160449	0.347063
735.358413	0.347260
735.556360	0.347400
735.754288	0.347055
735.952198	0.346923
736.150090	0.346905
736.347963	0.346586
736.545818	0.346318
736.743655	0.346182
736.941474	0.346054
737.139275	0.345705
737.337057	0.345497
737.534821	0.345203
737.732567	0.345083
737.930295	0.344914
738.128005	0.345132
738.325696	0.344929
738.523369	0.344767
738.721024	0.344812
738.918660	0.344892
739.116279	0.344568
739.313879	0.344347
739.511461	0.343973
739.709024	0.343577
739.906570	0.343086
740.104097	0.342814
740.301606	0.342592
740.499097	0.342150
740.696569	0.341812
740.894024	0.341757
741.091460	0.341516
741.288878	0.341355
741.486277	0.341394
741.683659	0.341148
741.881022	0.340980
742.078367	0.340828
742.275694	0.340580
742.473002	0.340595
742.670293	0.340277
742.867565	0.340372
743.064819	0.340240
743.262054	0.339821
743.459272	0.339508
743.656471	0.339546
743.853652	0.339352
744.050815	0.339319
744.247959	0.339044
744.445085	0.338943
744.642194	0.338546
744.839283	0.338132
745.036355	0.338040
745.233408	0.337858
745.430444	0.337370
745.627461	0.337178
745.824459	0.336793
746.021440	0.336301
746.218402	0.335978
746.415346	0.335775
746.612272	0.335690
746.809180	0.335220
747.006069	0.335179
747.202940	0.334931
747.399793	0.334710
747.596628	0.334441
747.793444	0.334334
747.990243	0.334197
748.187023	0.333878
748.383784	0.333924
748.580528	0.334157
748.777253	0.333704
748.973960	0.333399
749.170649	0.333017
749.367320	0.332756
749.563973	0.332577
749.760607	0.332467
749.957223	0.332598
750.153821	0.332239
750.350400	0.331812
750.546962	0.331737
750.743505	0.331742
750.940030	0.331569
751.136536	0.331625
751.333025	0.331403
751.529495	0.331068
751.725947	0.330633
751.922381	0.330519
752.118796	0.330352
752.315194	0.330282
752.511573	0.329998
752.707934	0.329633
752.904276	0.329170
753.100601	0.329083
753.296907	0.329079
753.493195	0.328946
753.689465	0.328448
753.885716	0.328341
754.081949	0.327998
754.278164	0.327831
754.474361	0.327682
754.670540	0.327926
754.866700	0.327663
755.062843	0.327369
755.258967	0.327283
755.455072	0.327094
755.651160	0.327062
755.847229	0.326798
756.043280	0.326624
756.239313	0.326959
756.435328	0.326584
756.631324	0.326386
756.827302	0.326150
757.023262	0.325751
757.219204	0.325485
757.415127	0.324915
757.611033	0.324732
757.806920	0.324520
758.002788	0.324002
758.198639	0.323823
758.394471	0.323542
758.590286	0.323564
758.786081	0.323339
758.981859	0.323317
759.177619	0.323115
759.373360	0.322666
759.569083	0.322598
759.764788	0.322523
759.960474	0.322358
760.156143	0.322164
760.351793	0.321730
760.547425	0.321807
760.743038	0.321994
760.938634	0.322011
761.134211	0.322208
761.329770	0.321803
761.525311	0.321587
761.720833	0.321358
761.916338	0.321216
762.111824	0.321019
762.307292	0.320701
762.502741	0.320339
762.698173	0.320167
762.893586	0.319986
763.088981	0.320047
763.284358	0.319921
763.479716	0.319676
763.675057	0.319774
763.870379	0.319819
764.065683	0.319775
764.260968	0.319758
764.456236	0.319850
764.651485	0.319811
764.846716	0.319645
765.041929	0.319454
765.237123	0.319377
765.432299	0.318740
765.627457	0.318518
765.822597	0.318390
766.017719	0.318197
766.212822	0.317730
766.407907	0.317476
766.602974	0.317545
766.798023	0.317387
766.993054	0.317354
767.188066	0.317697
767.383060	0.317411
767.578036	0.317074
767.772993	0.316851
767.967933	0.317020
768.162854	0.316806
768.357757	0.316203
768.552642	0.316321
768.747508	0.316159
768.942356	0.315760
769.137186	0.316193
769.331998	0.316341
769.526792	0.316201
769.721567	0.315844
769.916324	0.315787
770.111063	0.315891
770.305784	0.315775
770.500486	0.315662
770.695171	0.315446
770.889837	0.314803
771.084484	0.314685
771.279114	0.314786
771.473725	0.314692
771.668318	0.314850
771.862893	0.315004
772.057450	0.314472
772.251988	0.314642
772.446509	0.314809
772.641011	0.314912
772.835494	0.314839
773.029960	0.314495
773.224407	0.314420
773.418836	0.314108
773.613247	0.313620
773.807640	0.313651
774.002014	0.313191
774.196370	0.313239
774.390708	0.313346
774.585028	0.313189
774.779330	0.313432
774.973613	0.313029
775.167878	0.312781
775.362125	0.313017
775.556354	0.313065
775.750564	0.313224
775.944756	0.313068
776.138930	0.312911
776.333086	0.312714
776.527223	0.312333
776.721343	0.312548
776.915444	0.312642
777.109526	0.312375
777.303591	0.312182
777.497637	0.311996
777.691666	0.311747
777.885676	0.311535
778.079667	0.311473
778.273641	0.311507
778.467596	0.311634
778.661533	0.311600
778.855452	0.311644
779.049352	0.311611
779.243235	0.311698
779.437099	0.311909
779.630945	0.312109
779.824773	0.312207
780.018582	0.312130
780.212373	0.311958
780.406146	0.312065
780.599901	0.312225
780.793638	0.312300
780.987356	0.311975
781.181056	0.311933
781.374738	0.311785
781.568402	0.311655
781.762047	0.311556
781.955674	0.311844
782.149283	0.311597
782.342874	0.311482
782.536447	0.311462
782.730001	0.311576
782.923537	0.311627
783.117055	0.311572
783.310555	0.311663
783.504036	0.311642
783.697499	0.311386
783.890944	0.311361
784.084371	0.311165
784.277780	0.311279
784.471170	0.311270
784.664542	0.311137
784.857896	0.311303
785.051231	0.311276
785.244549	0.311716
785.437848	0.311968
785.631129	0.312376
785.824392	0.312557
786.017636	0.312410
786.210863	0.312786
786.404071	0.312575
786.597260	0.312676
786.790432	0.312709
786.983585	0.312588
787.176721	0.312551
787.369838	0.312539
787.562936	0.312463
787.756017	0.312639
787.949079	0.312534
788.142123	0.312796
788.335149	0.312723
788.528156	0.312898
788.721146	0.312978
788.914117	0.313130
789.107070	0.313074
789.300005	0.313391
789.492921	0.313380
789.685819	0.313324
789.878699	0.313269
790.071561	0.313331
790.264405	0.312924
790.457230	0.312762
790.650037	0.312830
790.842826	0.312907
791.035597	0.312852
791.228349	0.313003
791.421084	0.313048
791.613800	0.313150
791.806497	0.313040
791.999177	0.313650
792.191838	0.313858
792.384481	0.313581
792.577106	0.313579
792.769713	0.313560
792.962301	0.313497
793.154871	0.313580
793.347423	0.313591
793.539957	0.313891
793.732473	0.313883
793.924970	0.313955
794.117449	0.314146
794.309910	0.314369
794.502353	0.314625
794.694777	0.314897
794.887183	0.314823
795.079571	0.314985
795.271941	0.314946
795.464293	0.315103
795.656626	0.315304
795.848941	0.315214
796.041238	0.315177
796.233516	0.315114
796.425777	0.315216
796.618019	0.315314
796.810243	0.315642
797.002449	0.315792
797.194636	0.315789
797.386805	0.315892
797.578956	0.316240
797.771089	0.316571
797.963204	0.316617
798.155300	0.316504
798.347378	0.316909
798.539438	0.317020
798.731480	0.317252
798.923503	0.317460
799.115509	0.317609
799.307496	0.317723
799.499465	0.317868
799.691415	0.318422
799.883348	0.318839
800.075262	0.319225
800.267158	0.319394
800.459035	0.319456
800.650895	0.319737
800.842736	0.319697
801.034559	0.320320
801.226364	0.320356
801.418150	0.320391
801.609919	0.320493
801.801669	0.320506
801.993401	0.320665
802.185114	0.320898
802.376810	0.320954
802.568487	0.321221
802.760146	0.321106
802.951787	0.321495
803.143409	0.321839
803.335014	0.321961
803.526600	0.321953
803.718168	0.322116
803.909717	0.322155
804.101249	0.322207
804.292762	0.322483
804.484257	0.322783
804.675734	0.322949
804.867192	0.323218
805.058632	0.323806
805.250054	0.324392
805.441458	0.324652
805.632844	0.325267
805.824211	0.325639
806.015561	0.325801
806.206891	0.325742
806.398204	0.325859
806.589499	0.325634
806.780775	0.325701
806.972033	0.325749
807.163273	0.326079
807.354495	0.325966
807.545698	0.325984
807.736883	0.326188
807.928050	0.326658
808.119199	0.326993
808.310329	0.327394
808.501441	0.327616
808.692535	0.327728
808.883611	0.327839
809.074669	0.328080
809.265708	0.328525
809.456729	0.328769
809.647732	0.328948
809.838717	0.328970
810.029683	0.329091
810.220632	0.329119
810.411562	0.329526
810.602474	0.329526
810.793367	0.330001
810.984242	0.330085
811.175100	0.330549
811.365938	0.330673
811.556759	0.330992
811.747562	0.331319
811.938346	0.331920
812.129112	0.332147
812.319860	0.332521
812.510589	0.332605
812.701300	0.333080
812.891994	0.333548
813.082668	0.333925
813.273325	0.334381
813.463964	0.334736
813.654584	0.334726
813.845186	0.335363
814.035769	0.335838
814.226335	0.336038
814.416882	0.336390
814.607411	0.336328
814.797922	0.336587
814.988415	0.336776
815.178889	0.337159
815.369345	0.337687
815.559783	0.337580
815.750203	0.337811
815.940605	0.338140
816.130988	0.338492
816.321353	0.338818
816.511700	0.339368
816.702028	0.339970
816.892339	0.340405
817.082631	0.340695
817.272905	0.340990
817.463161	0.341569
817.653398	0.341977
817.843617	0.342138
818.033819	0.342446
818.224001	0.342380
818.414166	0.342396
818.604312	0.342656
818.794440	0.342513
818.984550	0.342659
819.174642	0.342816
819.364716	0.343049
819.554771	0.343549
819.744808	0.343763
819.934827	0.344150
820.124827	0.344517
820.314810	0.344714
820.504774	0.345250
820.694720	0.345887
820.884647	0.346111
821.074557	0.346646
821.264448	0.346897
821.454321	0.347541
821.644176	0.347855
821.834012	0.348182
822.023831	0.348686
822.213631	0.349237
822.403413	0.349705
822.593176	0.350012
822.782922	0.350327
822.972649	0.350737
823.162358	0.351096
823.352049	0.351564
823.541721	0.351995
823.731376	0.352237
823.921012	0.352670
824.110629	0.352693
824.300229	0.353286
824.489811	0.353784
824.679374	0.354065
824.868919	0.354620
825.058445	0.355225
825.247954	0.355597
825.437444	0.355924
825.626916	0.356088
825.816370	0.356720
826.005806	0.357294
826.195223	0.357747
826.384622	0.358241
826.574003	0.358423
826.763366	0.358652
826.952711	0.359258
827.142037	0.359949
827.331345	0.360449
827.520635	0.360651
827.709906	0.360619
827.899160	0.360809
828.088395	0.361328
828.277612	0.361750
828.466810	0.362368
828.655991	0.362645
828.845153	0.362911
829.034297	0.363740
829.223423	0.364511
829.412531	0.365063
829.601620	0.365739
829.790691	0.366155
829.979744	0.366630
830.168779	0.366836
830.357795	0.366991
830.546793	0.367558
830.735773	0.367583
830.924735	0.367877
831.113679	0.368494
831.302604	0.368707
831.491511	0.368897
831.680400	0.369023
831.869271	0.369370
832.058123	0.369995
832.246957	0.370224
832.435773	0.370252
832.624571	0.370615
832.813351	0.371085
833.002112	0.371704
833.190855	0.372388
833.379580	0.372882
833.568287	0.373172
833.756975	0.373737
833.945645	0.374113
834.134297	0.374874
834.322931	0.375168
834.511547	0.375388
834.700144	0.375829
834.888723	0.375993
835.077284	0.376573
835.265826	0.377279
835.454351	0.377809
835.642857	0.378404
835.831345	0.379256
836.019815	0.379958
836.208266	0.380138
836.396699	0.380289
836.585114	0.380999
836.773511	0.381317
836.961890	0.381611
837.150250	0.381672
837.338592	0.382104
837.526916	0.382145
837.715222	0.382494
837.903510	0.383302
838.091779	0.384057
838.280030	0.384356
838.468263	0.384770
838.656477	0.385273
838.844674	0.385724
839.032852	0.385679
839.221012	0.386146
839.409153	0.386759
839.597277	0.387444
839.785382	0.387608
839.973469	0.388081
840.161538	0.388741
840.349589	0.389273
840.537621	0.389851
840.725635	0.390915
840.913631	0.391618
841.101609	0.391942
841.289568	0.392039
841.477509	0.392539
841.665432	0.393071
841.853337	0.393330
842.041224	0.393712
842.229092	0.394129
842.416942	0.394339
842.604774	0.394751
842.792588	0.395316
842.980383	0.395700
843.168160	0.396342
843.355919	0.396603
843.543660	0.397205
843.731382	0.397682
843.919087	0.398394
844.106773	0.398783
844.294441	0.399075
844.482090	0.399539
844.669722	0.400124
844.857335	0.400804
845.044930	0.401589
845.232507	0.402347
845.420065	0.403071
845.607605	0.403349
845.795127	0.404022
845.982631	0.404892
846.170117	0.405079
846.357584	0.405469
846.545033	0.405473
846.732464	0.405731
846.919877	0.405776
847.107272	0.406287
847.294648	0.406694
847.482006	0.406965
847.669346	0.407469
847.856667	0.408062
848.043971	0.409107
848.231256	0.409487
848.418523	0.409762
848.605771	0.410416
848.793002	0.410552
848.980214	0.410877
849.167408	0.411454
849.354584	0.411441
849.541742	0.411525
849.728881	0.411330
849.916002	0.412064
850.103105	0.412859
850.290190	0.413053
850.477256	0.413632
850.664304	0.414361
850.851334	0.414591
851.038346	0.415369
851.225340	0.416248
851.412315	0.416928
851.599272	0.417454
851.786211	0.417729
851.973132	0.418353
852.160034	0.418796
852.346918	0.418969
852.533784	0.419731
852.720632	0.419850
852.907462	0.420151
853.094273	0.420641
853.281066	0.420954
853.467841	0.421605
853.654598	0.422078
853.841336	0.422702
854.028056	0.423823
854.214758	0.424064
854.401442	0.424600
854.588107	0.425235
854.774755	0.425614
854.961384	0.426380
855.147995	0.426302
855.334587	0.426824
855.521162	0.427067
855.707718	0.426654
855.894256	0.426661
856.080775	0.427270
856.267277	0.427308
856.453760	0.427822
856.640225	0.427939
856.826672	0.428602
857.013101	0.429139
857.199511	0.429354
857.385903	0.429893
857.572277	0.430885
857.758633	0.430938
857.944970	0.431616
858.131290	0.431753
858.317591	0.431979
858.503873	0.432598
858.690138	0.432389
858.876384	0.432792
859.062612	0.433415
859.248822	0.433710
859.435014	0.434636
859.621188	0.434854
859.807343	0.435142
859.993480	0.435626
860.179599	0.435939
860.365699	0.436983
860.551781	0.437651
860.737846	0.438358
860.923891	0.438964
861.109919	0.438666
861.295929	0.438937
861.481920	0.439221
861.667893	0.439278
861.853848	0.439386
862.039784	0.439601
862.225702	0.439892
862.411603	0.439850
862.597484	0.439880
862.783348	0.440414
862.969193	0.441156
863.155021	0.441669
863.340830	0.442236
863.526620	0.443305
863.712393	0.443740
863.898147	0.444337
864.083883	0.444855
864.269601	0.445737
864.455301	0.446351
864.640982	0.446758
864.826645	0.447525
865.012290	0.448285
865.197917	0.448333
865.383526	0.448562
865.569116	0.449058
865.754688	0.449477
865.940242	0.449451
866.125777	0.449796
866.311295	0.449976
866.496794	0.450518
866.682275	0.450428
866.867737	0.450664
867.053182	0.451096
867.238608	0.451036
867.424016	0.451144
867.609406	0.451300
867.794778	0.451587
867.980131	0.452017
868.165466	0.451971
868.350783	0.452625
868.536082	0.452477
868.721362	0.452759
868.906625	0.453243
869.091869	0.453790
869.277094	0.454680
869.462302	0.454881
869.647491	0.455270
869.832662	0.455421
870.017815	0.455564
870.202950	0.456417
870.388066	0.456913
870.573165	0.456955
870.758245	0.457164
870.943306	0.456775
871.128350	0.456802
871.313375	0.457161
871.498382	0.457935
871.683371	0.458377
871.868342	0.458777
872.053294	0.458632
872.238229	0.459201
872.423144	0.459923
872.608042	0.460546
872.792922	0.461495
872.977783	0.461410
873.162626	0.461579
873.347451	0.461960
873.532258	0.461985
873.717046	0.462514
873.901816	0.462244
874.086568	0.462170
874.271302	0.462194
874.456017	0.462245
874.640715	0.462728
874.825394	0.462703
875.010055	0.462992
875.194697	0.463226
875.379322	0.463593
875.563928	0.464244
875.748516	0.464148
875.933085	0.464607
876.117637	0.464772
876.302170	0.464681
876.486685	0.464975
876.671182	0.464708
876.855661	0.464923
877.040121	0.465141
877.224563	0.465267
877.408987	0.465954
877.593393	0.466609
877.777780	0.466805
877.962150	0.467422
878.146501	0.467670
878.330833	0.468595
878.515148	0.468846
878.699444	0.468782
878.883722	0.468886
879.067982	0.468274
879.252224	0.467873
879.436447	0.467925
879.620653	0.468005
879.804840	0.468306
879.989008	0.468002
880.173159	0.468078
880.357291	0.468190
880.541405	0.468704
880.725501	0.469225
880.909579	0.469474
881.093638	0.469651
881.277680	0.469823
881.461703	0.469646
881.645707	0.469857
881.829694	0.469898
882.013662	0.470147
882.197612	0.470141
882.381544	0.470706
882.565458	0.470618
882.749353	0.470667
882.933230	0.470307
883.117089	0.470408
883.300930	0.470470
883.484753	0.470446
883.668557	0.470489
883.852343	0.470588
884.036111	0.470646
884.219861	0.470714
884.403592	0.470618
884.587305	0.470763
884.771000	0.470841
884.954677	0.470973
885.138335	0.470867
885.321976	0.470931
885.505598	0.470791
885.689201	0.470993
885.872787	0.470975
886.056354	0.471361
886.239904	0.472195
886.423434	0.472263
886.606947	0.472058
886.790442	0.472498
886.973918	0.472705
887.157376	0.473414
887.340816	0.473456
887.524237	0.473808
887.707641	0.473911
887.891026	0.473228
888.074393	0.473315
888.257741	0.473627
888.441072	0.474057
888.624384	0.473700
888.807678	0.473337
888.990954	0.472837
889.174211	0.472680
889.357451	0.472576
889.540672	0.473301
889.723875	0.472944
889.907059	0.472644
890.090226	0.471871
890.273374	0.472264
890.456504	0.472054
890.639616	0.471785
890.822709	0.472049
891.005785	0.471601
891.188842	0.471183
891.371881	0.471407
891.554901	0.471260
891.737904	0.470951
891.920888	0.470293
892.103854	0.469876
892.286802	0.470407
892.469731	0.470221
892.652643	0.471134
892.835536	0.470337
893.018410	0.470629
893.201267	0.470228
893.384106	0.470419
893.566926	0.469751
893.749728	0.469965
893.932511	0.469344
894.115277	0.469050
894.298024	0.468362
894.480753	0.468841
894.663464	0.467792
894.846157	0.468317
895.028831	0.468369
895.211487	0.469436
895.394125	0.469129
895.576745	0.468813
895.759346	0.469136
895.941930	0.469340
896.124495	0.469366
896.307041	0.469596
896.489570	0.469025
896.672080	0.468489
896.854573	0.467915
897.037046	0.467870
897.219502	0.467899
897.401940	0.467233
897.584359	0.466680
897.766760	0.465818
897.949143	0.465436
898.131507	0.465305
898.313854	0.465475
898.496182	0.465152
898.678492	0.465129
898.860783	0.464316
899.043057	0.463994
899.225312	0.463306
899.407549	0.463096
899.589768	0.463106
899.771968	0.462941
899.954151	0.462053
900.136315	0.461452
900.318461	0.460752
900.500588	0.460661
900.682698	0.460417
900.864789	0.460176
901.046862	0.460271
901.228917	0.459786
901.410953	0.459025
901.592971	0.458691
901.774972	0.458162
901.956953	0.458178
902.138917	0.458185
902.320862	0.457366
902.502790	0.457235
902.684699	0.456966
902.866589	0.456516
903.048462	0.456477
903.230316	0.456650
903.412152	0.456352
903.593970	0.455458
903.775770	0.454572
903.957551	0.454445
904.139314	0.454114
904.321059	0.453342
904.502786	0.453105
904.684494	0.452410
904.866185	0.451495
905.047857	0.451637
905.229510	0.451547
905.411146	0.451917
905.592763	0.451683
905.774363	0.451036
905.955943	0.450229
906.137506	0.449520
906.319051	0.449183
906.500577	0.449222
906.682085	0.448731
906.863575	0.447978
907.045046	0.447689
907.226500	0.446780
907.407935	0.446706
907.589352	0.447272
907.770750	0.447388
907.952131	0.446725
908.133493	0.445810
908.314837	0.445220
908.496163	0.444446
908.677470	0.443214
908.858760	0.443573
909.040031	0.441746
909.221284	0.441159
909.402518	0.440322
909.583735	0.440203
909.764933	0.440128
909.946113	0.440262
910.127275	0.440343
910.308418	0.440166
910.489544	0.439289
910.670651	0.440161
910.851740	0.439189
911.032810	0.438808
911.213863	0.438721
911.394897	0.438116
911.575913	0.436574
911.756911	0.435508
911.937890	0.434957
912.118851	0.434878
912.299794	0.433803
912.480719	0.433277
912.661626	0.431994
912.842514	0.431267
913.023384	0.430754
913.204236	0.430872
913.385070	0.430757
913.565886	0.429602
913.746683	0.428273
913.927462	0.427495
914.108223	0.426747
914.288965	0.426551
914.469690	0.425601
914.650396	0.425098
914.831084	0.423956
915.011754	0.423367
915.192405	0.423397
915.373038	0.422654
915.553653	0.421586
915.734250	0.421505
915.914829	0.421226
916.095389	0.420381
916.275931	0.419288
916.456455	0.418801
916.636961	0.418235
916.817448	0.417158
916.997917	0.416502
917.178368	0.416998
917.358801	0.415661
917.539216	0.414900
917.719612	0.414258
917.899990	0.413879
918.080350	0.413448
918.260692	0.412553
918.441015	0.412278
918.621320	0.412137
918.801607	0.411223
918.981876	0.410718
919.162127	0.409873
919.342359	0.409143
919.522573	0.407951
919.702769	0.406805
919.882947	0.405910
920.063106	0.405255
920.243247	0.404140
920.423370	0.403048
920.603475	0.401344
920.783562	0.400877
920.963630	0.399894
921.143680	0.399015
921.323712	0.398268
921.503725	0.397568
921.683721	0.396651
921.863698	0.395835
922.043657	0.394825
922.223598	0.394855
922.403520	0.393438
922.583424	0.392081
922.763311	0.391946
922.943178	0.391180
923.123028	0.390634
923.302859	0.388897
923.482673	0.387516
923.662467	0.387042
923.842244	0.386676
924.022003	0.386388
924.201743	0.385943
924.381465	0.384378
924.561169	0.383259
924.740854	0.382200
924.920522	0.382004
925.100171	0.381461
925.279802	0.380305
925.459414	0.378713
925.639009	0.377150
925.818585	0.375751
925.998143	0.375142
926.177683	0.374789
926.357205	0.373277
926.536708	0.372556
926.716193	0.371940
926.895660	0.370125
927.075109	0.368989
927.254539	0.368648
927.433951	0.368444
927.613345	0.367087
927.792721	0.365783
927.972079	0.365265
928.151418	0.364022
928.330739	0.363302
928.510042	0.363732
928.689327	0.363449
928.868593	0.361960
929.047841	0.361078
929.227071	0.360207
929.406283	0.359116
929.585476	0.358049
929.764652	0.356783
929.943809	0.355066
930.122948	0.354696
930.302068	0.353931
930.481171	0.353602
930.660255	0.352511
930.839321	0.351847
931.018369	0.349869
931.197398	0.348102
931.376409	0.346878
931.555402	0.345892
931.734377	0.343372
931.913334	0.340615
932.092272	0.338372
932.271192	0.336985
932.450094	0.336131
932.628978	0.336830
932.807844	0.335703
932.986691	0.335440
933.165520	0.334394
933.344331	0.333936
933.523123	0.333040
933.701898	0.332280
933.880654	0.331208
934.059392	0.329465
934.238111	0.327920
934.416813	0.328393
934.595496	0.326809
934.774161	0.325772
934.952808	0.324065
935.131437	0.322935
935.310047	0.322298
935.488639	0.321373
935.667213	0.321737
935.845769	0.319153
936.024306	0.317979
936.202825	0.317049
936.381326	0.316581
936.559809	0.315784
936.738274	0.316157
936.916720	0.314728
937.095148	0.313610
937.273558	0.311919
937.451950	0.311198
937.630323	0.309481
937.808678	0.308760
937.987015	0.307768
938.165334	0.306758
938.343635	0.304883
938.521917	0.303877
938.700181	0.303376
938.878427	0.301432
939.056655	0.301019
939.234864	0.299878
939.413055	0.298493
939.591228	0.296743
939.769383	0.296179
939.947519	0.296284
940.125638	0.295819
940.303738	0.295160
940.481820	0.294511
940.659883	0.293145
940.837929	0.291498
941.015956	0.289852
941.193965	0.288751
941.371955	0.287837
941.549928	0.285520
941.727882	0.283281
941.905818	0.280144
942.083736	0.278349
942.261636	0.277682
942.439517	0.276915
942.617380	0.276331
942.795225	0.273622
942.973052	0.270870
943.150860	0.269857
943.328651	0.268327
943.506423	0.267423
943.684176	0.267373
943.861912	0.265585
944.039629	0.264313
944.217328	0.263640
944.395009	0.263172
944.572672	0.262987
944.750317	0.261728
944.927943	0.261141
945.105551	0.260731
945.283141	0.258574
945.460712	0.256690
945.638265	0.254367
945.815801	0.251335
945.993317	0.249581
946.170816	0.247490
946.348297	0.244501
946.525759	0.242167
946.703203	0.240968
946.880629	0.239290
947.058036	0.237322
947.235425	0.236860
947.412797	0.235447
947.590149	0.233871
947.767484	0.231648
947.944800	0.231123
948.122099	0.230605
948.299379	0.229011
948.476640	0.228595
948.653884	0.230154
948.831109	0.229647
949.008316	0.228048
949.185505	0.229363
949.362676	0.228906
949.539828	0.227762
949.716962	0.227617
949.894078	0.227538
950.071176	0.226187
950.248256	0.223024
950.425317	0.220600
950.602360	0.221012
950.779385	0.217979
950.956391	0.217502
951.133380	0.217482
951.310350	0.215440
951.487302	0.212667
951.664235	0.212133
951.841151	0.212276
952.018048	0.211256
952.194927	0.208944
952.371788	0.207339
952.548631	0.206052
952.725455	0.205702
952.902261	0.204590
953.079049	0.203301
953.255819	0.202132
953.432570	0.199750
953.609303	0.197115
953.786018	0.196499
953.962715	0.195603
954.139394	0.193613
954.316054	0.190473
954.492696	0.188664
954.669320	0.186114
954.845926	0.184701
955.022513	0.182964
955.199083	0.182830
955.375634	0.181347
955.552166	0.181832
955.728681	0.180237
955.905177	0.181547
956.081655	0.180750
956.258115	0.181518
956.434557	0.179683
956.610980	0.179225
956.787385	0.179042
956.963772	0.178729
957.140141	0.176063
957.316492	0.176547
957.492824	0.172261
957.669138	0.171274
957.845434	0.170963
958.021712	0.169757
958.197971	0.168852
958.374212	0.167443
958.550435	0.166690
958.726640	0.166408
958.902826	0.165815
959.078995	0.164297
959.255145	0.164111
959.431277	0.162777
959.607390	0.162688
959.783486	0.162650
959.959563	0.160316
960.135622	0.158608
960.311662	0.158476
960.487685	0.157310
960.663689	0.158496
960.839675	0.158385
961.015643	0.158038
961.191593	0.154751
961.367524	0.153931
961.543437	0.155871
961.719332	0.156815
961.895209	0.155279
962.071067	0.154426
962.246907	0.153263
962.422730	0.153682
962.598533	0.150907
962.774319	0.152470
962.950086	0.150184
963.125835	0.150970
963.301566	0.148082
963.477279	0.149491
963.652973	0.149965
963.828650	0.151788
964.004308	0.152479
964.179947	0.153833
964.355569	0.152422
964.531172	0.152115
964.706757	0.149437
964.882324	0.147837
965.057873	0.145490
965.233403	0.143060
965.408916	0.140253
965.584410	0.137131
965.759885	0.135679
965.935343	0.135800
966.110782	0.134912
966.286203	0.136306
966.461606	0.140099
966.636991	0.138807
966.812357	0.139556
966.987705	0.141791
967.163035	0.141630
967.338347	0.143936
967.513641	0.144526
967.688916	0.144640
967.864173	0.145310
968.039412	0.143250
968.214632	0.144270
968.389835	0.144513
968.565019	0.143305
968.740185	0.142388
968.915333	0.141398
969.090462	0.141787
969.265573	0.144758
969.440667	0.142508
969.615741	0.142545
969.790798	0.140574
969.965836	0.140108
970.140856	0.139462
970.315858	0.142659
970.490842	0.142363
970.665808	0.142438
970.840755	0.140635
971.015684	0.142052
971.190595	0.141642
971.365487	0.143572
971.540362	0.142911
971.715218	0.144164
971.890056	0.140492
972.064875	0.139967
972.239677	0.139735
972.414460	0.143010
972.589225	0.143431
972.763972	0.144266
972.938700	0.145567
973.113411	0.145970
973.288103	0.141550
973.462777	0.143450
973.637432	0.143081
973.812070	0.140863
973.986689	0.138447
974.161290	0.136669
974.335873	0.135826
974.510437	0.135390
974.684984	0.136105
974.859512	0.139863
975.034022	0.140336
975.208513	0.141273
975.382987	0.143414
975.557442	0.142989
975.731879	0.144377
975.906298	0.145241
976.080698	0.145573
976.255080	0.144354
976.429445	0.143837
976.603790	0.142068
976.778118	0.144032
976.952427	0.143290
977.126719	0.144448
977.300992	0.143524
977.475246	0.143940
977.649483	0.142975
977.823701	0.144147
977.997901	0.142507
978.172083	0.141638
978.346247	0.138310
978.520392	0.137954
978.694519	0.138265
978.868628	0.137300
979.042719	0.135124
979.216791	0.135190
979.390845	0.134385
979.564882	0.135045
979.738899	0.136481
979.912899	0.138085
980.086880	0.138791
980.260843	0.136461
980.434788	0.136718
980.608715	0.137855
980.782623	0.137871
980.956514	0.136544
981.130386	0.138097
981.304240	0.137469
981.478075	0.136792
981.651892	0.136805
981.825692	0.137239
981.999472	0.136427
982.173235	0.137535
982.346980	0.137775
982.520706	0.138535
982.694414	0.137140
982.868104	0.138556
983.041775	0.138847
983.215428	0.138202
983.389064	0.139805
983.562680	0.139847
983.736279	0.138423
983.909860	0.138072
984.083422	0.137378
984.256966	0.137016
984.430491	0.135250
984.603999	0.135890
984.777488	0.135867
984.950959	0.134419
985.124412	0.136415
985.297847	0.138089
985.471263	0.138371
985.644661	0.138112
985.818041	0.138640
985.991403	0.140158
986.164747	0.136973
986.338072	0.136406
986.511379	0.138376
986.684668	0.137051
986.857938	0.135253
987.031191	0.135331
987.204425	0.137315
987.377641	0.136215
987.550839	0.133930
987.724018	0.137404
987.897179	0.136812
988.070322	0.134705
988.243447	0.133879
988.416554	0.136527
988.589642	0.138928
988.762712	0.139582
988.935764	0.140943
989.108798	0.143199
989.281813	0.142649
989.454811	0.144087
989.627790	0.144553
989.800751	0.145014
989.973693	0.144457
990.146617	0.140157
990.319524	0.138601
990.492412	0.140647
990.665281	0.139482
990.838133	0.140583
991.010966	0.139044
991.183781	0.140074
991.356578	0.141011
991.529356	0.138536
991.702117	0.138961
991.874859	0.139590
992.047583	0.138152
992.220288	0.138460
992.392976	0.136401
992.565645	0.137586
992.738296	0.136582
992.910929	0.136574
993.083543	0.138303
993.256139	0.140281
993.428718	0.140082
993.601277	0.138332
993.773819	0.138407
993.946342	0.137494
994.118848	0.137200
994.291335	0.136476
994.463803	0.136251
994.636254	0.134000
994.808686	0.133735
994.981100	0.131994
995.153496	0.132995
995.325874	0.131879
995.498233	0.133738
995.670574	0.134779
995.842897	0.135062
996.015202	0.135345
996.187488	0.138356
996.359757	0.137729
996.532007	0.140194
996.704239	0.142170
996.876452	0.143449
997.048648	0.141829
997.220825	0.141774
997.392984	0.140161
997.565124	0.139695
997.737247	0.138244
997.909351	0.139022
998.081437	0.139425
998.253505	0.136647
998.425554	0.135603
998.597586	0.138787
998.769599	0.140200
998.941594	0.140915
999.113571	0.141818
999.285529	0.141383
999.457469	0.140771
999.629391	0.140753
999.801295	0.141358
999.973181	0.141666
1000.145048	0.138110
1000.316897	0.136200
1000.488728	0.137646
1000.660541	0.134901
1000.832335	0.134950
1001.004111	0.135551
1001.175869	0.137213
1001.347609	0.136584
1001.519331	0.136458
1001.691034	0.137276
1001.862719	0.138533
1002.034386	0.139300
1002.206035	0.140893
1002.377665	0.140879
1002.549277	0.138691
1002.720871	0.135267
1002.892447	0.136963
1003.064004	0.137346
1003.235544	0.138714
1003.407065	0.137146
1003.578568	0.137412
1003.750052	0.139632
1003.921519	0.139991
1004.092967	0.141833
1004.264397	0.142482
1004.435809	0.143589
1004.607202	0.143949
1004.778577	0.143870
1004.949934	0.145174
1005.121273	0.144935
1005.292594	0.142029
1005.463896	0.141382
1005.635180	0.140721
1005.806446	0.140415
1005.977694	0.137897
1006.148923	0.137520
1006.320135	0.137524
1006.491328	0.136696
1006.662503	0.135447
1006.833659	0.136236
1007.004798	0.138694
1007.175918	0.138745
1007.347020	0.140583
1007.518103	0.141162
1007.689169	0.142577
1007.860216	0.142412
1008.031245	0.143113
1008.202256	0.143969
1008.373248	0.144368
1008.544223	0.141624
1008.715179	0.141467
1008.886117	0.139971
1009.057036	0.141562
1009.227938	0.141347
1009.398821	0.138456
1009.569686	0.139489
1009.740533	0.138165
1009.911361	0.138025
1010.082172	0.139188
1010.252964	0.139465
1010.423738	0.141592
1010.594493	0.140303
1010.765231	0.140319
1010.935950	0.144335
1011.106651	0.142588
1011.277334	0.143819
1011.447998	0.145153
1011.618645	0.145128
1011.789273	0.146175
1011.959882	0.143986
1012.130474	0.142972
1012.301048	0.142709
1012.471603	0.141030
1012.642140	0.140497
1012.812658	0.140164
1012.983159	0.139069
1013.153641	0.137892
1013.324105	0.137278
1013.494551	0.137811
1013.664979	0.138788
1013.835388	0.139575
1014.005779	0.139378
1014.176152	0.140169
1014.346507	0.139993
1014.516843	0.139671
1014.687162	0.140224
1014.857462	0.141052
1015.027744	0.140033
1015.198007	0.140795
1015.368252	0.141559
1015.538480	0.141622
1015.708689	0.140825
1015.878879	0.140740
1016.049052	0.142316
1016.219206	0.143030
1016.389342	0.141086
1016.559460	0.141304
1016.729559	0.139479
1016.899641	0.137965
1017.069704	0.136988
1017.239749	0.136508
1017.409775	0.135750
1017.579784	0.134528
1017.749774	0.133963
1017.919746	0.134004
1018.089700	0.133094
1018.259635	0.133012
1018.429553	0.131892
1018.599452	0.132792
1018.769333	0.135146
1018.939195	0.138001
1019.109040	0.137490
1019.278866	0.138196
1019.448674	0.139108
1019.618464	0.140386
1019.788235	0.140287
1019.957989	0.141397
1020.127724	0.142525
1020.297441	0.141123
1020.467139	0.139787
1020.636820	0.140033
1020.806482	0.139508
1020.976126	0.140049
1021.145752	0.141245
1021.315359	0.143663
1021.484948	0.145376
1021.654519	0.145258
1021.824072	0.144145
1021.993607	0.143787
1022.163123	0.143520
1022.332621	0.144306
1022.502101	0.144045
1022.671563	0.142648
1022.841007	0.140557
1023.010432	0.138844
1023.179839	0.138756
1023.349228	0.139231
1023.518598	0.137675
1023.687951	0.138618
1023.857285	0.139310
1024.026601	0.138750
1024.195899	0.138188
1024.365178	0.136956
1024.534439	0.136201
1024.703682	0.136850
1024.872907	0.138669
1025.042114	0.139769
1025.211302	0.139258
1025.380472	0.136652
1025.549624	0.137169
1025.718758	0.137270
1025.887873	0.137930
1026.056970	0.139077
1026.226049	0.136479
1026.395110	0.134705
1026.564153	0.134549
1026.733177	0.136112
1026.902183	0.137616
1027.071171	0.137476
1027.240141	0.136626
1027.409092	0.136673
1027.578026	0.135669
1027.746940	0.133809
1027.915837	0.135181
1028.084716	0.137271
1028.253576	0.135234
1028.422418	0.134399
1028.591242	0.132714
1028.760048	0.134658
1028.928835	0.138663
1029.097604	0.140450
1029.266355	0.141566
1029.435088	0.139359
1029.603803	0.138508
1029.772499	0.138001
1029.941177	0.137600
1030.109837	0.138557
1030.278478	0.137887
1030.447102	0.134429
1030.615707	0.133285
1030.784294	0.134232
1030.952863	0.136515
1031.121413	0.135049
1031.289945	0.135975
1031.458460	0.135595
1031.626955	0.135154
1031.795433	0.134277
1031.963892	0.135085
1032.132334	0.135131
1032.300756	0.136604
1032.469161	0.136089
1032.637548	0.138185
1032.805916	0.136244
1032.974266	0.137636
1033.142598	0.137318
1033.310911	0.140315
1033.479207	0.140048
1033.647484	0.139853
1033.815743	0.138500
1033.983983	0.139270
1034.152206	0.137388
1034.320410	0.138695
1034.488596	0.138525
1034.656764	0.139800
1034.824914	0.137806
1034.993045	0.137256
1035.161158	0.138186
1035.329253	0.137869
1035.497330	0.136796
1035.665388	0.136876
1035.833428	0.135639
1036.001450	0.136302
1036.169454	0.134831
1036.337440	0.133485
1036.505407	0.132622
1036.673356	0.131910
1036.841287	0.132576
1037.009200	0.133178
1037.177094	0.134873
1037.344970	0.136177
1037.512828	0.135560
1037.680668	0.138507
1037.848489	0.141529
1038.016293	0.144604
1038.184078	0.145484
1038.351845	0.145909
1038.519593	0.144913
1038.687324	0.144369
1038.855036	0.144411
1039.022730	0.144228
1039.190406	0.140997
1039.358063	0.139456
1039.525702	0.139890
1039.693323	0.137191
1039.860926	0.136284
1040.028511	0.136205
1040.196077	0.134077
1040.363625	0.133757
1040.531155	0.133361
1040.698667	0.135637
1040.866161	0.135336
1041.033636	0.132543
1041.201093	0.133974
1041.368532	0.135359
1041.535952	0.135755
1041.703355	0.136968
1041.870739	0.138889
1042.038105	0.139979
1042.205452	0.138429
1042.372782	0.139706
1042.540093	0.141886
1042.707386	0.142470
1042.874661	0.142239
1043.041918	0.141489
1043.209156	0.142066
1043.376376	0.140217
1043.543578	0.139561
1043.710762	0.139953
1043.877927	0.138397
1044.045074	0.138002
1044.212203	0.137653
1044.379314	0.139159
1044.546407	0.138036
1044.713481	0.137626
1044.880537	0.140481
1045.047575	0.139988
1045.214595	0.140469
1045.381596	0.139603
1045.548579	0.138965
1045.715544	0.140325
1045.882491	0.139296
1046.049420	0.141943
1046.216330	0.142011
1046.383222	0.140432
1046.550096	0.140184
1046.716951	0.139428
1046.883789	0.140736
1047.050608	0.140331
1047.217409	0.138078
1047.384192	0.137478
1047.550956	0.138183
1047.717703	0.138437
1047.884431	0.137483
1048.051140	0.137885
1048.217832	0.140232
1048.384505	0.139242
1048.551161	0.139694
1048.717798	0.138304
1048.884416	0.138384
1049.051017	0.136300
1049.217599	0.134661
1049.384163	0.136667
1049.550709	0.137290
1049.717237	0.135705
1049.883746	0.137592
1050.050237	0.137777
1050.216710	0.139550
1050.383165	0.139675
1050.549601	0.139898
1050.716019	0.142069
1050.882420	0.138558
1051.048801	0.137172
1051.215165	0.137471
1051.381510	0.135483
1051.547837	0.134897
1051.714146	0.134151
1051.880437	0.134477
1052.046709	0.137527
1052.212964	0.137702
1052.379200	0.138371
1052.545417	0.140529
1052.711617	0.141591
1052.877798	0.141686
1053.043961	0.140307
1053.210106	0.143536
1053.376233	0.143981
1053.542341	0.141572
1053.708432	0.140591
1053.874504	0.141852
1054.040557	0.141320
1054.206593	0.141135
1054.372610	0.140534
1054.538609	0.142698
1054.704590	0.139593
1054.870553	0.138325
1055.036497	0.137912
1055.202424	0.137891
1055.368331	0.138394
1055.534221	0.135868
1055.700093	0.134451
1055.865946	0.135776
1056.031781	0.134585
1056.197598	0.135399
1056.363397	0.136219
1056.529177	0.135804
1056.694939	0.135882
1056.860683	0.135851
1057.026409	0.138538
1057.192116	0.139324
1057.357806	0.141257
1057.523477	0.142975
1057.689130	0.143371
1057.854764	0.142956
1058.020381	0.142152
1058.185979	0.142004
1058.351559	0.139758
1058.517120	0.140346
1058.682664	0.141760
1058.848189	0.140854
1059.013696	0.140624
1059.179185	0.140749
1059.344656	0.139545
1059.510108	0.141975
1059.675542	0.142437
1059.840958	0.145478
1060.006356	0.143426
1060.171735	0.143117
1060.337096	0.141902
1060.502439	0.139492
1060.667764	0.140941
1060.833071	0.145067
1060.998359	0.144505
1061.163629	0.143048
1061.328881	0.141318
1061.494115	0.141501
1061.659330	0.139571
1061.824527	0.140378
1061.989706	0.141396
1062.154867	0.139054
1062.320010	0.135566
1062.485134	0.134069
1062.650240	0.135909
1062.815328	0.136146
1062.980398	0.136520
1063.145449	0.137393
1063.310482	0.135625
1063.475497	0.137101
1063.640494	0.137786
1063.805473	0.138197
1063.970433	0.139777
1064.135375	0.138217
1064.300299	0.140195
1064.465204	0.140001
1064.630092	0.138117
1064.794961	0.140784
1064.959812	0.141966
1065.124645	0.141779
1065.289459	0.143502
1065.454256	0.142786
1065.619034	0.143101
1065.783793	0.141629
1065.948535	0.142379
1066.113258	0.142359
1066.277964	0.140322
1066.442651	0.138861
1066.607319	0.140395
1066.771970	0.138256
1066.936602	0.138887
1067.101216	0.140224
1067.265812	0.139602
1067.430389	0.139608
1067.594949	0.140937
1067.759490	0.140399
1067.924013	0.140671
1068.088518	0.137085
1068.253004	0.140100
1068.417472	0.140213
1068.581922	0.140214
1068.746354	0.142259
1068.910768	0.141809
1069.075163	0.142249
1069.239540	0.143943
1069.403899	0.143678
1069.568240	0.146315
1069.732562	0.143915
1069.896866	0.143324
1070.061152	0.140697
1070.225420	0.140200
1070.389670	0.142534
1070.553901	0.141604
1070.718114	0.143697
1070.882309	0.142707
1071.046486	0.140862
1071.210644	0.141965
1071.374784	0.141536
1071.538906	0.144042
1071.703010	0.143356
1071.867096	0.141566
1072.031163	0.143186
1072.195212	0.141890
1072.359243	0.142467
1072.523256	0.144030
1072.687250	0.143801
1072.851226	0.144074
1073.015184	0.142534
1073.179124	0.141876
1073.343045	0.143419
1073.506949	0.141262
1073.670834	0.138151
1073.834701	0.137850
1073.998549	0.138319
1074.162380	0.136791
1074.326192	0.135069
1074.489986	0.138347
1074.653761	0.140441
1074.817519	0.140962
1074.981258	0.141502
1075.144979	0.145743
1075.308682	0.143728
1075.472367	0.145265
1075.636033	0.146762
1075.799681	0.150370
1075.963311	0.150545
1076.126923	0.148060
1076.290516	0.145101
1076.454092	0.146256
1076.617649	0.145292
1076.781187	0.146153
1076.944708	0.144823
1077.108210	0.143399
1077.271695	0.143711
1077.435160	0.145535
1077.598608	0.148527
1077.762038	0.150136
1077.925449	0.151448
1078.088842	0.150915
1078.252217	0.152866
1078.415573	0.152434
1078.578912	0.153510
1078.742232	0.154517
1078.905534	0.150738
1079.068817	0.149685
1079.232083	0.151830
1079.395330	0.150854
1079.558559	0.150281
1079.721770	0.152322
1079.884962	0.154474
1080.048136	0.157326
1080.211293	0.157068
1080.374430	0.157994
1080.537550	0.157513
1080.700651	0.155773
1080.863735	0.158029
1081.026800	0.160409
1081.189846	0.157591
1081.352875	0.157547
1081.515885	0.154597
1081.678877	0.152237
1081.841851	0.151381
1082.004807	0.151831
1082.167744	0.151498
1082.330663	0.150724
1082.493564	0.150506
1082.656447	0.151073
1082.819312	0.148864
1082.982158	0.148363
1083.144986	0.151388
1083.307796	0.150900
1083.470587	0.151352
1083.633361	0.153625
1083.796116	0.154175
1083.958853	0.155311
1084.121571	0.156201
1084.284272	0.155290
1084.446954	0.153760
1084.609618	0.153070
1084.772264	0.155449
1084.934892	0.154679
1085.097501	0.152796
1085.260092	0.149914
1085.422665	0.146447
1085.585220	0.145915
1085.747756	0.147729
1085.910274	0.148956
1086.072774	0.147484
1086.235256	0.147361
1086.397720	0.148641
1086.560165	0.149922
1086.722592	0.153108
1086.885001	0.156471
1087.047392	0.158135
1087.209764	0.161659
1087.372119	0.163826
1087.534455	0.165321
1087.696772	0.167275
1087.859072	0.168967
1088.021353	0.167826
1088.183616	0.165892
1088.345861	0.163765
1088.508088	0.164203
1088.670296	0.162159
1088.832486	0.161290
1088.994658	0.162079
1089.156812	0.161159
1089.318948	0.158966
1089.481065	0.157014
1089.643164	0.159237
1089.805245	0.160458
1089.967308	0.159067
1090.129352	0.158008
1090.291378	0.159799
1090.453386	0.155829
1090.615376	0.154990
1090.777347	0.154690
1090.939301	0.157190
1091.101236	0.153603
1091.263153	0.153893
1091.425051	0.151641
1091.586932	0.151320
1091.748794	0.151701
1091.910638	0.155364
1092.072463	0.154035
1092.234271	0.156563
1092.396060	0.156149
1092.557831	0.157195
1092.719584	0.156809
1092.881319	0.161546
1093.043035	0.160809
1093.204733	0.159461
1093.366413	0.156595
1093.528075	0.154998
1093.689718	0.155384
1093.851343	0.154899
1094.012950	0.154582
1094.174539	0.156174
1094.336110	0.154430
1094.497662	0.157115
1094.659196	0.156723
1094.820712	0.161307
1094.982210	0.163406
1095.143689	0.162201
1095.305151	0.162243
1095.466594	0.165307
1095.628018	0.165110
1095.789425	0.167470
1095.950813	0.165947
1096.112183	0.169178
1096.273535	0.165872
1096.434869	0.168707
1096.596184	0.166040
1096.757482	0.166208
1096.918761	0.162229
1097.080021	0.161225
1097.241264	0.161426
1097.402488	0.161876
1097.563694	0.158354
1097.724882	0.160128
1097.886052	0.154291
1098.047203	0.156560
1098.208336	0.159657
1098.369451	0.160281
1098.530548	0.157993
1098.691627	0.156722
1098.852687	0.151935
1099.013729	0.154902
1099.174753	0.155813
1099.335758	0.163497
1099.496746	0.165321
1099.657715	0.165756
1099.818666	0.168894
1099.979599	0.168586
1100.140513	0.166963
1100.301409	0.170377
1100.462287	0.172962
1100.623147	0.172574
1100.783989	0.167947
1100.944812	0.166498
1101.105617	0.163122
1101.266404	0.163694
1101.427173	0.164985
1101.587923	0.168352
1101.748656	0.172670
1101.909370	0.170078
1102.070066	0.169653
1102.230743	0.168023
1102.391403	0.168551
1102.552044	0.172400
1102.712667	0.169817
1102.873271	0.173037
1103.033858	0.169957
1103.194426	0.168078
1103.354976	0.167875
1103.515508	0.166031
1103.676021	0.167769
1103.836517	0.164990
1103.996994	0.160262
1104.157453	0.165219
1104.317893	0.165431
1104.478316	0.162639
1104.638720	0.164216
1104.799106	0.163263
1104.959474	0.165184
1105.119823	0.165929
1105.280155	0.171837
1105.440468	0.175531
1105.600763	0.171407
1105.761039	0.169540
1105.921298	0.170637
1106.081538	0.173158
1106.241760	0.175146
1106.401964	0.173285
1106.562149	0.176139
1106.722316	0.175144
1106.882465	0.179249
1107.042596	0.180360
1107.202709	0.180379
1107.362803	0.186583
1107.522879	0.184774
1107.682937	0.185716
1107.842977	0.190421
1108.002999	0.189100
1108.163002	0.189191
1108.322987	0.184525
1108.482954	0.189358
1108.642902	0.189320
1108.802833	0.189643
1108.962745	0.190184
1109.122639	0.189697
1109.282515	0.188038
1109.442372	0.182916
1109.602211	0.181062
1109.762032	0.177852
1109.921835	0.173107
1110.081620	0.175831
1110.241386	0.174765
1110.401134	0.172912
1110.560864	0.173052
1110.720576	0.171156
1110.880269	0.175789
1111.039945	0.173253
1111.199602	0.175292
1111.359240	0.178442
1111.518861	0.174103
1111.678463	0.171858
1111.838047	0.170743
1111.997613	0.168228
1112.157161	0.166110
1112.316690	0.164620
1112.476202	0.165664
1112.635695	0.168356
1112.795169	0.164581
1112.954626	0.165724
1113.114064	0.165107
1113.273484	0.164573
1113.432886	0.165163
1113.592270	0.169472
1113.751635	0.169641
1113.910983	0.169472
1114.070312	0.170035
1114.229622	0.169036
1114.388915	0.170868
1114.548189	0.170121
1114.707445	0.169887
1114.866683	0.168245
1115.025903	0.169699
1115.185104	0.169930
1115.344287	0.172453
1115.503452	0.168422
1115.662599	0.164806
1115.821727	0.165300
1115.980838	0.170439
1116.139930	0.168907
1116.299004	0.173492
1116.458059	0.170494
1116.617097	0.172498
1116.776116	0.167705
1116.935117	0.168127
1117.094099	0.178450
1117.253064	0.180601
1117.412010	0.184317
1117.570938	0.185445
1117.729848	0.189175
1117.888740	0.192271
1118.047613	0.189153
1118.206468	0.192035
1118.365305	0.190089
1118.524124	0.182766
1118.682924	0.182100
1118.841707	0.177944
1119.000471	0.177491
1119.159216	0.170079
1119.317944	0.167829
1119.476653	0.171749
1119.635344	0.167663
1119.794017	0.169461
1119.952672	0.169772
1120.111308	0.163832
1120.269927	0.163606
1120.428527	0.170007
1120.587108	0.172762
1120.745672	0.173311
1120.904217	0.173655
1121.062744	0.182527
1121.221253	0.184803
1121.379744	0.187179
1121.538216	0.190779
1121.696671	0.186588
1121.855107	0.180831
1122.013524	0.177895
1122.171924	0.181057
1122.330305	0.180726
1122.488668	0.177943
1122.647013	0.183074
1122.805340	0.186543
1122.963648	0.189818
1123.121938	0.194591
1123.280210	0.197866
1123.438464	0.201169
1123.596700	0.200175
1123.754917	0.198417
1123.913116	0.199337
1124.071297	0.193633
1124.229459	0.189568
1124.387604	0.187158
1124.545730	0.188985
1124.703838	0.186749
1124.861928	0.187918
1125.019999	0.185092
1125.178052	0.188184
1125.336088	0.186192
1125.494104	0.187096
1125.652103	0.189764
1125.810083	0.195479
1125.968045	0.191799
1126.125989	0.190964
1126.283915	0.188161
1126.441823	0.187106
1126.599712	0.185892
1126.757583	0.185179
1126.915436	0.188933
1127.073270	0.191234
1127.231087	0.185113
1127.388885	0.185254
1127.546665	0.187341
1127.704426	0.184282
1127.862170	0.186125
1128.019895	0.188744
1128.177602	0.190948
1128.335291	0.185633
1128.492961	0.185863
1128.650614	0.189322
1128.808248	0.186885
1128.965864	0.185568
1129.123461	0.187335
1129.281041	0.189053
1129.438602	0.192321
1129.596145	0.195225
1129.753670	0.201191
1129.911176	0.199377
1130.068665	0.201145
1130.226135	0.196191
1130.383587	0.201864
1130.541020	0.202960
1130.698436	0.198248
1130.855833	0.190107
1131.013212	0.186159
1131.170573	0.184939
1131.327915	0.180745
1131.485239	0.180408
1131.642545	0.186210
1131.799833	0.181197
1131.957103	0.186495
1132.114354	0.185154
1132.271588	0.188207
1132.428803	0.187677
1132.585999	0.184353
1132.743178	0.188294
1132.900338	0.181116
1133.057480	0.185515
1133.214604	0.188183
1133.371710	0.183220
1133.528797	0.193350
1133.685866	0.182614
1133.842917	0.192578
1133.999950	0.192895
1134.156964	0.187325
1134.313960	0.187676
1134.470938	0.184852
1134.627898	0.188145
1134.784840	0.194944
1134.941763	0.189661
1135.098668	0.200742
1135.255555	0.187231
1135.412424	0.184868
1135.569274	0.186647
1135.726107	0.190788
1135.882921	0.190071
1136.039716	0.186029
1136.196494	0.180305
1136.353253	0.181232
1136.509995	0.177315
1136.666717	0.174332
1136.823422	0.174044
1136.980109	0.187085
1137.136777	0.186176
1137.293427	0.186060
1137.450059	0.187265
1137.606672	0.186655
1137.763267	0.180408
1137.919844	0.185393
1138.076403	0.183644
1138.232944	0.187740
1138.389466	0.180525
1138.545971	0.180649
1138.702457	0.175251
1138.858924	0.179017
1139.015374	0.181436
1139.171805	0.186710
1139.328218	0.190151
1139.484613	0.202296
1139.640990	0.202374
1139.797348	0.195475
1139.953688	0.191788
1140.110010	0.194241
1140.266314	0.195293
1140.422600	0.190877
1140.578867	0.195767
1140.735116	0.190922
1140.891347	0.183933
1141.047559	0.181565
1141.203754	0.189216
1141.359930	0.194412
1141.516088	0.190798
1141.672228	0.183649
1141.828349	0.192359
1141.984452	0.190037
1142.140537	0.187716
1142.296604	0.191197
1142.452653	0.192967
1142.608683	0.192555
1142.764695	0.195008
1142.920689	0.195570
1143.076665	0.185629
1143.232622	0.179129
1143.388562	0.168519
1143.544483	0.172835
1143.700385	0.176373
1143.856270	0.177906
1144.012136	0.175818
1144.167985	0.170218
1144.323814	0.174198
1144.479626	0.185657
1144.635420	0.188991
1144.791195	0.198885
1144.946952	0.198271
1145.102691	0.190346
1145.258411	0.193225
1145.414113	0.192068
1145.569798	0.188687
1145.725463	0.189805
1145.881111	0.184910
1146.036741	0.177320
1146.192352	0.175438
1146.347945	0.171043
1146.503519	0.179613
1146.659076	0.171001
1146.814614	0.176849
1146.970134	0.186552
1147.125636	0.181135
1147.281120	0.181491
1147.436585	0.187450
1147.592032	0.182491
1147.747461	0.189776
1147.902872	0.183790
1148.058265	0.182733
1148.213639	0.168711
1148.368995	0.160035
1148.524333	0.169639
1148.679653	0.174578
1148.834954	0.172162
1148.990237	0.175282
1149.145502	0.169706
1149.300749	0.175580
1149.455977	0.190451
1149.611188	0.194500
1149.766380	0.189297
1149.921553	0.193438
1150.076709	0.182845
1150.231846	0.185544
1150.386966	0.189123
1150.542066	0.188622
1150.697149	0.180099
1150.852214	0.168183
1151.007260	0.175296
1151.162288	0.187955
1151.317298	0.177331
1151.472289	0.182654
1151.627263	0.188165
1151.782218	0.186642
1151.937155	0.183730
1152.092073	0.189410
1152.246974	0.187041
1152.401856	0.187792
1152.556720	0.186726
1152.711566	0.190025
1152.866393	0.188941
1153.021203	0.187422
1153.175994	0.186597
1153.330767	0.178933
1153.485521	0.169082
1153.640258	0.168177
1153.794976	0.150779
1153.949676	0.146872
1154.104358	0.140677
1154.259021	0.144302
1154.413667	0.133465
1154.568294	0.141530
1154.722903	0.150626
1154.877493	0.153858
1155.032066	0.151862
1155.186620	0.168630
1155.341156	0.171438
1155.495674	0.169486
1155.650173	0.172165
1155.804654	0.185653
1155.959118	0.177313
1156.113562	0.170591
1156.267989	0.172410
1156.422397	0.176417
1156.576788	0.176514
1156.731160	0.173298
1156.885513	0.177344
1157.039849	0.175603
1157.194166	0.167434
1157.348465	0.166215
1157.502746	0.173587
1157.657009	0.181468
1157.811253	0.193134
1157.965479	0.183600
1158.119687	0.201726
1158.273877	0.201613
1158.428048	0.202866
1158.582201	0.209633
1158.736337	0.213103
1158.890453	0.214202
1159.044552	0.203434
1159.198632	0.199281
1159.352694	0.202901
1159.506738	0.189958
1159.660764	0.186687
1159.814771	0.184883
1159.968761	0.181388
1160.122732	0.172203
1160.276685	0.169562
1160.430619	0.166884
1160.584535	0.169575
1160.738434	0.176555
1160.892313	0.178520
1161.046175	0.188307
1161.200019	0.189232
1161.353844	0.183088
1161.507651	0.182873
1161.661440	0.195572
1161.815210	0.209215
1161.968962	0.207056
1162.122697	0.194371
1162.276412	0.191326
1162.430110	0.186529
1162.583789	0.187109
1162.737451	0.197173
1162.891094	0.205007
1163.044718	0.187546
1163.198325	0.169582
1163.351913	0.165479
1163.505483	0.170086
1163.659035	0.162035
1163.812569	0.161159
1163.966084	0.160192
1164.119581	0.164434
1164.273060	0.168025
1164.426521	0.169561
1164.579964	0.176110
1164.733388	0.186332
1164.886794	0.194214
1165.040182	0.195982
1165.193551	0.186123
1165.346903	0.195564
1165.500236	0.183403
1165.653551	0.173454
1165.806848	0.174716
1165.960126	0.179021
1166.113386	0.154661
1166.266628	0.149564
1166.419852	0.149751
1166.573058	0.158912
1166.726245	0.144176
1166.879414	0.145833
1167.032565	0.135477
1167.185698	0.135196
1167.338812	0.128367
1167.491909	0.131056
1167.644987	0.130995
1167.798046	0.125205
1167.951088	0.124362
1168.104111	0.121485
1168.257117	0.123612
1168.410103	0.130848
1168.563072	0.139053
1168.716023	0.153804
1168.868955	0.159510
1169.021869	0.167133
1169.174765	0.175473
1169.327642	0.177420
1169.480501	0.171316
1169.633343	0.167074
1169.786165	0.179998
1169.938970	0.163886
1170.091757	0.173201
1170.244525	0.184151
1170.397275	0.165391
1170.550007	0.168302
1170.702720	0.164873
1170.855415	0.182823
1171.008092	0.190815
1171.160751	0.195367
1171.313392	0.213747
1171.466014	0.208310
1171.618619	0.251812
1171.771205	0.251812
1171.923772	0.251812
