sample name	sample
index	201
start time	 02-18-2021  12:26:46 PM
880	0.448934
Peak Time (s)	92.035
Peak Height 	0.4489
calc peak height	90,93
Baseline Time (s)	9.034
Baseline Value 	-0.002311
subtract baseline	10,4
Abs	0.320243
Peak Time (s)	90.535
Peak Height 	0.3202
calc peak height	90,93
Baseline Time (s)	8.537
Baseline Value 	0.001012
subtract baseline	10,3
PK_550	0.153292
Peak Time (s)	91.535
Peak Height 	0.1533
calc peak height	90,93
Baseline Time (s)	10.539
Baseline Value 	1.7904E-4
subtract baseline	10,2
PK_880	0.311836
Peak Time (s)	91.535
Peak Height 	0.3118
calc peak height	90,93
Baseline Time (s)	9.034
Baseline Value 	7.6599E-4
subtract baseline	10,1


Time (s)	A880-A510	A880-A775	A880-A975	A880	I510	I775	I975	I880	
0.035500	-0.002935	-0.000918	-0.004420	0.001204	6669.627323	43305.333534	3908.649190	22900.590634
0.535500	-0.000863	-0.000339	-0.006569	0.007237	6635.490975	42801.456990	3889.490609	22624.660159
1.035500	-0.002403	0.000075	-0.000626	0.003678	6652.849745	43167.820010	3911.770270	22786.954471
1.537000	-0.000936	-0.000645	-0.003240	0.000360	6694.318852	43409.277103	3913.441142	22939.486658
2.036500	0.000441	-0.000487	-0.004487	0.000192	6707.794167	43439.610994	3910.881523	22947.206188
2.536500	-0.003832	0.000023	-0.005640	0.004333	6634.926730	43102.399252	3898.419959	22756.989145
3.037000	0.001273	-0.000130	-0.005124	-0.001566	6730.519634	43637.361725	3913.541602	23028.556783
3.537000	0.000930	-0.000606	-0.001613	-0.000107	6714.696330	43456.404853	3918.426491	22961.045355
4.035000	-0.000370	0.000594	0.007398	0.000664	6696.593123	43496.496266	3938.271402	22925.444420
4.535500	-0.002779	0.000284	-0.005199	0.004195	6645.165743	43139.361041	3899.777677	22763.313448
5.035500	0.000060	-0.000229	-0.000101	-0.000508	6710.593008	43529.077353	3923.000034	22979.566239
5.535500	-0.000659	0.000876	-0.000077	0.000472	6695.754711	43540.768502	3920.712032	22934.302172
6.036000	0.000383	-0.000734	-0.003875	-0.000479	6713.166002	43479.160357	3913.925899	22978.226086
6.536500	0.002684	0.000697	0.000976	0.000035	6728.844440	43564.880003	3924.279241	22954.466269
7.036000	-0.001581	-0.000844	-0.002958	-0.000637	6697.384053	43483.660572	3916.484312	22985.545153
7.536500	-0.000444	-0.000091	-0.004342	-0.000206	6703.545386	43513.721652	3912.169371	22965.590686
8.037500	0.000134	0.000660	0.002022	0.000222	6704.859898	43543.949964	3926.343206	22945.853762
8.537000	-0.001160	-0.000066	0.000000	-0.000174	6697.009586	43513.058678	3922.440673	22964.113942
9.034500	0.000000	0.000014	0.000893	0.000000	6705.624543	43504.270449	3924.165940	22956.092550
9.535500	0.000766	-0.000018	-0.000514	0.000168	6710.851019	43485.674985	3920.393766	22948.338123
10.035500	-0.000372	0.000109	0.000719	-0.000162	6703.788673	43528.378197	3924.135661	22963.586113
10.538500	0.000553	0.000000	0.002043	0.000283	6707.990664	43476.597613	3926.247343	22943.036835
11.036000	-0.001068	0.000465	-0.001866	0.000010	6696.213567	43545.508752	3917.544353	22955.639623
11.536000	0.001867	-0.000588	-0.001115	-0.000572	6726.995329	43501.500300	3920.724873	22982.513387
12.036500	-0.000365	-0.000358	-0.003482	-0.000835	6709.732856	43547.650881	3915.706990	22994.703475
12.537000	-0.001815	-0.000072	0.000281	0.000681	6683.870150	43432.760841	3921.067169	22924.666627
13.034000	-0.000958	0.000318	-0.003782	-0.000763	6703.925337	43604.101073	3914.821703	22991.371230
13.534500	-0.001050	-0.000292	0.002071	-0.000832	6703.717723	43553.539047	3928.998843	22994.562546
14.035000	-0.000719	-0.000085	-0.001724	0.001981	6682.095250	43310.461696	3913.192299	22864.803379
14.538000	-0.002036	0.000247	-0.000234	0.002039	6670.169878	43335.924727	3916.597011	22862.132850
15.058500	-0.000258	0.000072	-0.001209	-0.000613	6708.732483	43567.096328	3920.600228	22984.427447
15.536000	0.000536	0.000565	-0.000629	-0.000153	6711.656969	43570.192151	3920.886786	22963.181349
16.036500	0.000106	-0.000233	-0.000414	-0.000346	6709.575786	43513.533254	3921.861929	22972.064099
16.536500	-0.001090	-0.000303	0.002443	0.002033	6678.434973	43285.387493	3923.007626	22862.449507
17.036500	0.001411	0.000982	0.000382	-0.000014	6718.099041	43596.166617	3922.972389	22956.743131
17.537000	0.001461	0.000567	0.002669	-0.000127	6719.526649	43567.925618	3928.740310	22961.966302
18.037500	-0.000856	0.000476	-0.000581	0.001354	6686.356778	43421.079361	3917.401376	22893.647904
18.534500	0.000321	0.000347	-0.000625	0.001285	6697.210580	43415.559881	3917.463742	22896.861988
19.038000	-0.001128	-0.000028	-0.001775	0.000778	6689.003293	43427.809634	3915.929461	22920.193907
19.535500	-0.001269	0.000162	0.000545	0.000805	6687.547720	43443.005409	3921.403319	22918.968694
20.036000	0.000113	0.000047	-0.001635	0.001003	6697.856052	43413.840747	3915.728181	22909.826257
20.536000	-0.001823	0.000394	0.004940	0.001380	6677.727494	43410.962656	3930.583164	22892.453341
21.036500	0.000153	-0.000826	-0.002643	0.000085	6706.222385	43418.044073	3915.514196	22952.179813
21.537000	-0.000632	0.000288	0.000390	0.000892	6692.321910	43446.550778	3920.822389	22914.921978
22.037000	-0.003742	-0.000032	0.000006	0.000917	6665.127696	43414.510570	3919.845594	22913.795245
22.537000	0.002081	0.000439	-0.000054	0.001572	6710.077974	43397.365934	3918.139107	22883.649763
23.037000	0.000258	-0.000439	-0.000586	0.000426	6704.151084	43422.260418	3919.603361	22936.413802
23.535000	-0.002449	0.000491	0.000188	0.000970	6675.861731	43458.293764	3920.153634	22911.343496
24.035500	0.000508	-0.000121	-0.001009	0.000860	6702.552276	43411.486250	3917.560878	22916.424293
24.536000	-0.000795	-0.000079	0.002462	0.001533	6685.335012	43352.753229	3924.253093	22885.439620
25.036000	-0.000873	0.000033	-0.001977	0.000836	6690.717025	43428.051079	3915.309989	22917.501841
25.536000	-0.000225	0.000468	0.003792	0.001045	6694.548107	43449.219010	3928.623256	22907.907562
26.036500	-0.000140	0.000575	-0.002833	0.001455	6691.708801	43420.818763	3911.809190	22888.997557
26.537000	-0.002581	0.000634	0.001580	0.000997	6674.478443	43469.052771	3923.419723	22910.093284
27.039500	0.002243	0.001261	0.004484	0.001537	6711.801193	43477.221878	3929.104553	22885.243317
27.537500	0.002468	0.000534	0.003232	-0.001989	6744.775109	43739.421675	3934.599154	23048.157376
28.035500	-0.000136	0.000367	-0.002026	-0.000505	6708.848395	43584.511120	3918.389601	22979.417580
28.535500	-0.000243	-0.000101	0.001067	0.000763	6696.845995	43422.424427	3922.754273	22920.905948
29.035500	0.000572	0.000573	-0.001863	0.000295	6708.054451	43529.069627	3916.873120	22942.495893
29.536000	0.001754	0.000334	0.004979	0.000380	6717.658564	43498.717974	3933.095669	22938.570852
30.036000	0.000051	-0.000247	-0.000972	-0.000213	6707.929645	43499.795539	3920.207066	22965.909871
30.536500	-0.003055	0.000592	-0.000265	0.000742	6672.585111	43489.013827	3919.618165	22921.870330
31.042000	0.000564	0.000248	0.001936	0.002670	6687.255963	43277.342806	3920.267606	22833.157562
31.537000	-0.001982	-0.000622	0.003956	0.000916	6680.380826	43359.599738	3929.327695	22913.843705
32.037000	-0.001913	0.000111	0.000280	-0.000286	6691.431866	43540.190598	3923.381026	22969.324175
32.537500	0.000546	0.000126	-0.001550	0.000053	6709.937852	43509.823401	3918.194173	22953.654694
33.035000	-0.001088	0.000053	0.001041	-0.000675	6702.021876	43571.047205	3926.140583	22987.292238
33.535500	0.001700	0.000812	-0.002525	0.000036	6720.197862	43575.554213	3915.912178	22954.448855
34.035500	0.000180	0.000706	0.004635	0.000959	6698.816997	43479.340223	3930.862888	22911.836903
34.536000	-0.002978	0.000697	0.001610	0.001677	6665.152993	43411.481800	3921.863202	22878.778176
35.036500	-0.000656	0.000485	-0.000157	0.001627	6685.722473	43396.470596	3917.761488	22881.082052
35.536000	-0.001314	0.000468	0.008472	0.001878	6677.831054	43371.480512	3937.931138	22869.556087
36.039500	-0.000141	0.000423	0.005660	0.001623	6690.238603	43391.057593	3931.735092	22881.280913
36.537000	-0.000974	0.000760	0.005099	0.001983	6679.867670	43388.981785	3929.512674	22864.739788
37.040000	-0.003126	0.000304	0.000331	0.001810	6662.729113	43362.566050	3918.489906	22872.673554
37.537500	-0.002597	0.000564	0.002148	0.001644	6668.733475	43402.212715	3923.231973	22880.294842
38.035000	-0.002156	0.000355	-0.002729	0.002145	6668.216416	43336.121365	3910.419764	22857.262524
38.535500	-0.001212	0.000493	0.002786	0.002293	6675.113490	43335.141048	3923.204551	22850.469690
39.036000	0.000516	0.000978	0.002734	0.002501	6688.318838	43361.018743	3922.581843	22840.934129
39.536000	-0.001807	0.000588	-0.000798	0.002174	6670.986599	43355.063890	3914.932302	22855.933683
40.036500	-0.001700	-0.000043	-0.003410	0.001431	6678.355673	43365.566859	3910.498276	22890.105639
40.536500	-0.001593	0.000211	-0.001515	0.001849	6675.656143	43350.258765	3914.002379	22870.884477
41.037500	0.000787	0.000248	-0.000572	0.002252	6692.843861	43316.284547	3915.286699	22852.373102
41.537500	-0.000309	0.000531	-0.002988	0.002250	6683.329671	43342.816830	3909.560917	22852.472636
42.034500	-0.002267	0.000114	0.001614	0.001777	6670.447405	43347.944570	3921.634345	22874.205258
42.535000	-0.000378	0.000497	-0.005559	0.001821	6686.459251	43379.526315	3904.506300	22872.190069
43.035000	-0.000478	0.000074	-0.003124	0.001679	6686.822503	43353.404979	3910.588734	22878.717082
43.538000	0.000443	0.000975	0.003824	0.002325	6689.208140	43377.050126	3925.619006	22848.994894
44.036000	0.001519	0.000050	0.003966	-0.003123	6746.413147	43800.430914	3939.134604	23100.823446
44.536500	-0.001058	0.000339	0.002216	0.000104	6695.482124	43524.977153	3927.092281	22951.274442
45.036500	-0.000512	0.000206	0.001036	-0.000274	6703.549388	43547.905638	3925.165130	22968.756371
45.536500	0.001957	0.000118	0.002787	-0.000796	6729.766847	43588.537400	3930.638610	22992.906967
46.037000	-0.001921	0.000346	0.000823	-0.000299	6691.469021	43563.275091	3924.712305	22969.882440
46.534000	0.001023	-0.000208	-0.002606	0.000685	6708.581145	43419.651000	3914.175860	22924.471103
47.034500	0.001293	-0.000183	0.000326	-0.000514	6721.445327	43533.874971	3924.037835	22979.829653
47.538000	-0.001478	0.000007	0.002849	0.002521	6670.840252	43268.890999	3922.810631	22840.024403
48.035500	0.000727	0.000702	-0.004693	0.002302	6691.888499	43353.852089	3905.413156	22850.083844
48.537000	0.000611	0.000388	0.001925	0.002080	6692.811746	43345.288332	3921.652901	22860.273233
49.036000	0.000414	0.000131	0.006198	-0.000612	6714.597414	43572.455882	3938.456536	22984.358922
49.536500	0.002081	0.000125	-0.003502	-0.000551	6728.696709	43566.218221	3914.983995	22981.542385
50.037000	0.001969	0.000975	0.002741	-0.002137	6741.685351	43794.795199	3933.769468	23055.026593
50.536500	-0.001808	0.000330	-0.000553	0.004373	6651.984998	43127.013106	3910.297890	22755.145864
51.037000	-0.000965	0.000032	0.004445	-0.000559	6702.082451	43558.232238	3934.075856	22981.936020
51.535000	-0.020849	-0.012919	-0.007743	0.215445	5112.854255	26913.227456	3504.205492	15112.713381
52.035000	-0.037334	-0.022924	-0.007900	0.046542	6039.007833	37506.427080	3799.524528	20917.986408
52.535000	-0.026412	-0.020903	-0.005419	-0.063833	7047.183344	47718.033960	4071.716021	26131.483395
53.035000	-0.001560	-0.029354	0.014566	-0.180111	8635.794033	60339.036336	4510.093362	33263.507602
53.536000	0.018314	-0.010156	0.033184	-0.106611	7970.689122	53592.078137	4316.850568	28536.215296
54.036000	0.026063	0.002159	0.045685	-0.012078	7054.050180	44854.967274	4069.933209	23521.670290
54.536000	0.052959	0.016372	0.058534	0.014326	7058.741414	43694.601107	4033.438158	22305.316215
55.036500	0.070779	0.025902	0.080635	0.031427	7065.616254	42990.165468	4046.766453	21556.076269
55.537000	0.100925	0.044228	0.111833	0.054467	7134.175768	42557.753030	4068.849120	20592.209691
56.037000	0.133826	0.065814	0.140310	0.102631	6988.294447	40205.584374	4016.261122	18735.057206
56.534500	0.163313	0.083164	0.168869	0.153683	6790.728872	37422.680684	3959.025132	16978.951448
57.035000	0.184562	0.095858	0.189126	0.209416	6494.506674	34168.833871	3874.567923	15283.442540
57.535500	0.206557	0.110366	0.213538	0.235187	6463.467395	33369.147859	3871.464573	14570.016291
58.036000	0.224718	0.119549	0.225168	0.262186	6391.891397	32145.957461	3837.072941	13866.672044
58.535500	0.236283	0.126532	0.240846	0.284867	6303.896673	31108.925048	3821.798785	13308.668849
59.035500	0.249312	0.135125	0.252943	0.323272	6111.269522	29239.791320	3766.575961	12427.810874
59.536500	0.256213	0.139552	0.263241	0.345340	6001.401726	28192.678841	3742.931816	11955.800343
60.039500	0.263430	0.142739	0.271770	0.381877	5799.582479	26325.707439	3689.180168	11225.182831
60.537000	0.268949	0.147450	0.278295	0.379468	5852.812823	26712.310571	3705.950890	11271.479085
61.034500	0.274581	0.149999	0.286846	0.383050	5866.742597	26655.851132	3715.430512	11202.730171
61.534500	0.277963	0.152253	0.286209	0.400114	5775.045846	25860.568252	3682.154368	10882.858008
62.035000	0.278137	0.154144	0.289615	0.403393	5754.635066	25787.422457	3682.389611	10822.823571
62.535500	0.279886	0.152814	0.282692	0.408440	5733.111855	25454.273744	3660.637982	10731.287590
63.036000	0.281509	0.156472	0.295263	0.363574	6052.083582	28116.387968	3770.693909	11583.498067
63.536000	0.284671	0.157626	0.290254	0.366678	6052.502862	28003.531602	3754.251970	11521.663967
64.039000	0.283015	0.158522	0.295765	0.372549	5998.505304	27717.974302	3753.530317	11405.900233
64.536500	0.288215	0.159069	0.292179	0.375704	6013.080155	27569.589270	3740.110669	11344.335657
65.037000	0.287532	0.158201	0.292844	0.378804	5986.169199	27345.598843	3735.315481	11284.294574
65.534500	0.287046	0.158327	0.290069	0.383068	5952.707127	27114.092541	3721.600926	11202.386981
66.034500	0.288824	0.158641	0.300833	0.390794	5911.322855	26704.955941	3727.492441	11056.009832
66.535000	0.286803	0.158017	0.298574	0.395272	5866.739040	26427.300723	3714.481965	10972.340895
67.035500	0.289751	0.158321	0.303333	0.399560	5857.626243	26212.753369	3715.383553	10893.035336
67.535500	0.293104	0.158182	0.300187	0.404375	5847.723950	25948.738820	3700.253132	10804.919732
68.036500	0.286360	0.157116	0.300735	0.410766	5760.204387	25557.014631	3689.321872	10689.466674
68.536000	0.292766	0.159230	0.301233	0.416808	5762.593434	25353.309524	3679.084446	10581.854822
69.036500	0.290738	0.158028	0.307474	0.418213	5740.130326	25219.097177	3688.005173	10557.034694
69.537000	0.294536	0.159452	0.307041	0.423965	5727.425782	24998.120027	3676.613410	10456.305228
70.036500	0.293315	0.158055	0.301008	0.430320	5678.709147	24607.837896	3654.276048	10346.561292
70.534500	0.292312	0.158871	0.309671	0.431928	5662.106129	24568.292599	3666.918460	10319.032074
71.034500	0.293787	0.158965	0.300029	0.434538	5654.923820	24443.375594	3645.091916	10274.588189
71.535000	0.294002	0.158334	0.308622	0.437546	5637.329865	24263.873725	3654.965546	10223.684425
72.035500	0.294538	0.159604	0.313510	0.440363	5623.039656	24188.011852	3658.658536	10176.342930
72.536000	0.291513	0.157522	0.295524	0.443379	5585.564926	23940.043499	3622.008716	10126.001885
73.035500	0.296229	0.158792	0.312338	0.443904	5611.507378	23976.064339	3650.279372	10117.261570
73.536000	0.296874	0.157939	0.313246	0.444211	5613.614203	23919.980159	3651.343923	10112.173432
74.036500	0.292696	0.157467	0.308339	0.449582	5554.820418	23639.536134	3633.355602	10023.537583
74.537000	0.297065	0.158754	0.310476	0.446383	5601.305965	23854.462867	3642.640641	10076.188279
75.037000	0.294954	0.157476	0.307520	0.446431	5587.965288	23790.709883	3637.400150	10075.402481
75.534500	0.300110	0.158692	0.306460	0.448451	5607.368234	23752.105058	3632.062057	10042.098984
76.035000	0.300667	0.158186	0.309813	0.449100	5606.797912	23696.817265	3636.745976	10031.435643
76.538000	0.298513	0.158840	0.318438	0.449139	5593.214146	23726.286324	3651.809900	10030.803468
77.035500	0.301960	0.158512	0.311332	0.449234	5614.007841	23706.027957	3639.156368	10029.244750
77.536000	0.300563	0.156758	0.318792	0.447795	5614.264024	23690.969420	3654.824892	10052.900215
78.036000	0.299706	0.157092	0.309337	0.448224	5606.268698	23686.416928	3637.441015	10045.832052
78.536000	0.298597	0.156847	0.311764	0.447807	5601.981329	23694.637616	3642.403005	10052.704661
79.036500	0.299112	0.156663	0.309735	0.446956	5610.459820	23726.540714	3640.344290	10066.735739
79.537000	0.302723	0.156827	0.311822	0.447749	5628.039100	23696.478645	3642.605628	10053.664054
80.037000	0.296904	0.155662	0.304945	0.446417	5600.100794	23704.454612	3632.960117	10075.627065
80.540000	0.300304	0.157486	0.311409	0.446357	5621.617483	23794.719372	3644.320533	10076.615031
81.038000	0.304265	0.156809	0.311131	0.447209	5641.098248	23721.410776	3642.341087	10062.559284
81.534500	0.299967	0.155551	0.313321	0.445946	5622.079749	23721.649346	3648.407977	10083.413463
82.035500	0.301104	0.155121	0.312596	0.450466	5601.038715	23486.094297	3639.211142	10009.047383
82.535500	0.303054	0.155555	0.309506	0.444945	5647.726985	23769.830875	3643.459586	10099.984490
83.036000	0.302688	0.155759	0.316246	0.444776	5646.486832	23787.718174	3655.667282	10102.788486
83.536500	0.305232	0.154485	0.319338	0.444403	5664.925869	23744.498198	3661.861812	10108.974387
84.037000	0.302764	0.155145	0.312408	0.449704	5616.090901	23523.346585	3640.213793	10021.536470
84.537500	0.305948	0.154294	0.313631	0.443923	5672.528693	23758.336438	3652.534256	10116.947228
85.034500	0.307105	0.154845	0.315621	0.444191	5678.186455	23771.943030	3655.595001	10112.499957
85.535000	0.306911	0.154346	0.311126	0.442814	5685.736314	23814.081779	3650.063666	10135.396218
86.035000	0.303506	0.153640	0.310595	0.447824	5632.476671	23541.088039	3640.330691	10052.426506
86.538500	0.304656	0.152205	0.320402	0.443162	5669.152960	23694.789064	3666.009951	10129.609788
87.036000	0.308699	0.154279	0.316250	0.443502	5692.781515	23777.847272	3657.947556	10123.957879
87.536000	0.306672	0.152682	0.314183	0.442378	5686.999688	23755.151388	3656.264135	10142.670345
88.036000	0.303811	0.152906	0.316192	0.448338	5631.161665	23481.963591	3649.255015	10043.966270
88.536500	0.308725	0.153383	0.318100	0.444895	5684.033007	23668.290894	3658.762438	10100.823530
89.036500	0.308857	0.152569	0.315802	0.443115	5696.274445	23714.431753	3657.837783	10130.390529
89.537000	0.309858	0.152393	0.319977	0.442819	5704.609206	23720.206337	3665.862843	10135.319964
90.034500	0.305228	0.151750	0.312549	0.448544	5638.763402	23417.646509	3642.486699	10040.582921
90.535000	0.308457	0.151707	0.320243	0.444272	5686.304462	23618.035516	3663.722999	10111.153969
91.035000	0.310808	0.152086	0.313868	0.443678	5705.190645	23664.435434	3653.390382	10121.024837
91.535500	0.311836	0.153292	0.315757	0.444487	5706.604814	23683.435290	3655.310922	10107.587760
92.035500	0.309059	0.151710	0.313016	0.448934	5660.465817	23397.364759	3642.620966	10034.162721
92.536000	0.311277	0.152238	0.317174	0.446018	5693.174559	23560.287426	3655.107921	10082.225850
93.039000	0.310532	0.151444	0.315920	0.443946	5701.692032	23621.054690	3656.565565	10116.571701
93.536500	0.312852	0.153819	0.317852	0.447095	5696.366987	23584.204597	3654.398145	10064.436888
94.037000	0.311808	0.151944	0.325768	0.451235	5663.303740	23300.172447	3661.139935	9996.471304
94.537000	0.314775	0.151024	0.319109	0.445846	5716.791601	23510.809941	3658.866358	10085.063116
95.034500	0.315389	0.151856	0.321782	0.446171	5718.664428	23534.863764	3663.075279	10079.688880
95.535000	0.313844	0.150866	0.329180	0.446312	5707.778907	23481.311127	3676.233244	10077.361060
96.035500	0.315130	0.150592	0.320872	0.446456	5715.146448	23461.554637	3660.930168	10074.985986
96.536000	0.315788	0.151602	0.322614	0.447355	5713.594331	23466.799658	3662.444240	10060.156836
