sample name	sample
index	434
start time	 03-08-2021  12:19:42 PM


Wavelength (nm)	Absorbance
494.344910	-0.358106
494.563924	-0.358106
494.782919	-0.358106
495.001897	0.258451
495.220856	-0.084899
495.439797	-0.012619
495.658719	-0.005631
495.877624	0.012272
496.096510	-0.079350
496.315378	0.006176
496.534227	-0.029171
496.753059	0.049741
496.971872	0.017818
497.190667	0.140070
497.409444	0.171299
497.628203	0.177410
497.846943	0.183203
498.065665	0.184070
498.284369	0.182725
498.503055	0.183685
498.721723	0.183134
498.940372	0.184400
499.159003	0.185742
499.377616	0.184970
499.596210	0.184135
499.814787	0.182569
500.033345	0.182737
500.251885	0.182871
500.470406	0.183616
500.688910	0.184091
500.907395	0.183762
501.125862	0.183514
501.344311	0.182194
501.562742	0.183919
501.781154	0.183914
501.999548	0.184668
502.217924	0.184800
502.436282	0.184602
502.654621	0.184538
502.872942	0.184363
503.091245	0.184244
503.309530	0.186594
503.527797	0.186362
503.746045	0.187476
503.964275	0.188141
504.182487	0.188522
504.400681	0.187876
504.618856	0.187698
504.837013	0.188965
505.055152	0.189694
505.273273	0.189651
505.491376	0.188901
505.709460	0.187802
505.927526	0.188118
506.145574	0.189189
506.363604	0.188897
506.581615	0.189704
506.799608	0.189371
507.017583	0.188823
507.235540	0.188352
507.453478	0.189320
507.671399	0.190597
507.889301	0.189762
508.107185	0.188559
508.325050	0.189530
508.542898	0.190341
508.760727	0.189753
508.978538	0.190484
509.196330	0.189879
509.414105	0.189676
509.631861	0.189146
509.849599	0.190065
510.067319	0.190063
510.285021	0.190534
510.502704	0.189650
510.720369	0.191000
510.938016	0.190571
511.155645	0.191174
511.373255	0.191822
511.590848	0.192329
511.808422	0.192749
512.025977	0.193481
512.243515	0.192613
512.461034	0.193972
512.678536	0.193070
512.896018	0.193397
513.113483	0.193609
513.330930	0.193776
513.548358	0.193423
513.765768	0.192844
513.983160	0.192968
514.200533	0.194115
514.417889	0.193847
514.635226	0.195291
514.852545	0.196505
515.069845	0.196558
515.287128	0.196570
515.504392	0.197106
515.721638	0.197708
515.938866	0.198280
516.156075	0.198402
516.373267	0.198675
516.590440	0.198142
516.807594	0.197103
517.024731	0.198153
517.241850	0.198292
517.458950	0.199081
517.676032	0.198414
517.893095	0.198439
518.110141	0.198525
518.327168	0.198883
518.544177	0.199903
518.761168	0.201170
518.978141	0.201080
519.195095	0.201664
519.412031	0.200739
519.628949	0.201860
519.845849	0.202072
520.062731	0.202427
520.279594	0.202130
520.496439	0.201511
520.713266	0.201331
520.930074	0.201692
521.146865	0.202436
521.363637	0.203711
521.580391	0.204117
521.797127	0.204601
522.013844	0.204918
522.230543	0.205496
522.447224	0.205554
522.663887	0.205631
522.880532	0.205558
523.097158	0.205452
523.313766	0.205372
523.530356	0.205403
523.746928	0.205381
523.963481	0.205335
524.180017	0.204533
524.396534	0.205266
524.613032	0.206142
524.829513	0.206885
525.045975	0.206410
525.262420	0.207223
525.478845	0.206954
525.695253	0.207159
525.911643	0.207939
526.128014	0.209399
526.344367	0.209529
526.560702	0.209822
526.777018	0.209586
526.993316	0.210304
527.209597	0.210180
527.425858	0.211113
527.642102	0.212361
527.858328	0.211919
528.074535	0.212185
528.290724	0.213426
528.506894	0.213786
528.723047	0.213867
528.939181	0.214678
529.155297	0.214994
529.371395	0.215158
529.587475	0.214738
529.803536	0.215181
530.019579	0.215441
530.235604	0.214947
530.451611	0.215770
530.667600	0.216767
530.883570	0.217098
531.099522	0.217805
531.315456	0.218888
531.531372	0.218969
531.747269	0.219368
531.963148	0.219761
532.179009	0.220687
532.394852	0.220488
532.610676	0.220565
532.826482	0.220290
533.042271	0.220296
533.258040	0.219744
533.473792	0.220854
533.689525	0.221826
533.905240	0.222114
534.120937	0.222319
534.336616	0.222213
534.552277	0.222938
534.767919	0.223819
534.983543	0.224512
535.199149	0.224651
535.414736	0.224532
535.630306	0.224639
535.845857	0.225247
536.061390	0.225433
536.276904	0.226327
536.492401	0.226615
536.707879	0.226890
536.923339	0.227198
537.138781	0.228082
537.354204	0.228229
537.569610	0.228171
537.784997	0.227835
538.000366	0.228248
538.215716	0.228517
538.431049	0.228659
538.646363	0.229099
538.861659	0.229477
539.076937	0.229569
539.292196	0.230187
539.507438	0.230930
539.722661	0.232054
539.937866	0.232425
540.153052	0.232493
540.368221	0.233117
540.583371	0.233079
540.798503	0.233075
541.013617	0.233035
541.228712	0.233138
541.443789	0.233368
541.658848	0.233168
541.873889	0.233804
542.088912	0.234378
542.303916	0.234529
542.518902	0.234729
542.733870	0.235319
542.948820	0.235760
543.163752	0.235980
543.378665	0.235939
543.593560	0.236220
543.808437	0.235904
544.023295	0.235781
544.238136	0.235998
544.452958	0.236367
544.667762	0.236289
544.882548	0.237035
545.097315	0.237809
545.312064	0.238363
545.526795	0.238888
545.741508	0.239145
545.956203	0.239554
546.170879	0.239600
546.385537	0.240239
546.600177	0.240776
546.814799	0.240926
547.029402	0.240888
547.243988	0.241231
547.458555	0.241585
547.673103	0.241774
547.887634	0.242547
548.102146	0.242489
548.316640	0.242297
548.531116	0.242756
548.745574	0.242679
548.960013	0.242860
549.174435	0.243190
549.388838	0.242828
549.603222	0.243544
549.817589	0.243782
550.031937	0.244695
550.246267	0.245380
550.460579	0.245348
550.674873	0.245422
550.889148	0.245552
551.103405	0.245869
551.317644	0.246275
551.531865	0.247028
551.746068	0.247578
551.960252	0.247969
552.174418	0.248130
552.388566	0.247952
552.602696	0.249088
552.816807	0.249953
553.030900	0.249898
553.244975	0.250058
553.459032	0.249764
553.673070	0.249378
553.887091	0.249492
554.101093	0.249802
554.315077	0.250868
554.529042	0.250972
554.742990	0.251027
554.956919	0.251399
555.170830	0.251799
555.384722	0.251983
555.598597	0.252090
555.812453	0.252324
556.026291	0.252645
556.240111	0.252406
556.453913	0.252088
556.667696	0.251921
556.881461	0.252242
557.095208	0.252817
557.308937	0.252901
557.522647	0.253296
557.736339	0.253306
557.950013	0.253330
558.163669	0.254040
558.377307	0.254555
558.590926	0.254812
558.804527	0.255202
559.018110	0.255249
559.231675	0.255983
559.445221	0.256445
559.658749	0.256598
559.872259	0.256801
560.085751	0.256652
560.299225	0.256527
560.512680	0.257297
560.726117	0.257498
560.939536	0.257978
561.152937	0.257760
561.366319	0.257753
561.579683	0.258037
561.793029	0.257995
562.006357	0.258249
562.219667	0.258514
562.432958	0.258263
562.646231	0.257955
562.859486	0.257774
563.072723	0.257999
563.285941	0.258344
563.499141	0.258610
563.712323	0.259204
563.925487	0.259536
564.138632	0.260072
564.351760	0.260123
564.564869	0.260628
564.777960	0.260933
564.991032	0.261189
565.204087	0.261417
565.417123	0.261734
565.630141	0.261709
565.843140	0.261675
566.056122	0.261900
566.269085	0.262401
566.482030	0.262317
566.694957	0.262673
566.907866	0.263163
567.120756	0.263461
567.333628	0.263534
567.546482	0.264313
567.759318	0.265256
567.972135	0.265776
568.184935	0.266017
568.397716	0.266899
568.610478	0.267243
568.823223	0.267000
569.035949	0.266838
569.248657	0.266775
569.461347	0.266363
569.674019	0.266111
569.886672	0.266239
570.099308	0.266395
570.311925	0.266175
570.524523	0.266285
570.737104	0.266835
570.949666	0.267342
571.162210	0.267928
571.374736	0.268178
571.587244	0.268236
571.799733	0.268534
572.012205	0.268934
572.224658	0.269261
572.437092	0.269535
572.649509	0.269897
572.861907	0.269679
573.074287	0.270283
573.286649	0.270472
573.498993	0.270563
573.711318	0.270519
573.923625	0.270712
574.135914	0.271138
574.348185	0.271181
574.560438	0.271297
574.772672	0.271714
574.984888	0.271570
575.197086	0.272039
575.409266	0.272499
575.621427	0.272527
575.833570	0.272244
576.045695	0.271983
576.257802	0.271887
576.469890	0.271749
576.681961	0.272187
576.894013	0.272420
577.106046	0.272587
577.318062	0.273117
577.530059	0.273257
577.742039	0.273650
577.954000	0.273877
578.165942	0.274017
578.377867	0.274137
578.589773	0.274360
578.801661	0.274603
579.013531	0.274706
579.225382	0.274430
579.437216	0.275007
579.649031	0.275391
579.860828	0.275947
580.072606	0.276834
580.284367	0.277335
580.496109	0.277321
580.707833	0.277901
580.919539	0.278310
581.131227	0.278726
581.342896	0.278823
581.554547	0.279072
581.766180	0.279383
581.977795	0.279753
582.189391	0.279755
582.400969	0.280083
582.612529	0.279971
582.824071	0.279780
583.035595	0.279519
583.247100	0.279408
583.458587	0.279819
583.670056	0.280014
583.881506	0.279868
584.092939	0.280755
584.304353	0.281134
584.515749	0.281219
584.727127	0.281586
584.938486	0.282101
585.149828	0.282904
585.361151	0.283061
585.572456	0.283312
585.783742	0.284050
585.995011	0.283906
586.206261	0.284048
586.417493	0.284362
586.628706	0.284560
586.839902	0.284879
587.051079	0.284895
587.262238	0.284689
587.473379	0.284574
587.684502	0.283907
587.895606	0.284055
588.106692	0.284412
588.317760	0.284560
588.528810	0.284899
588.739841	0.285188
588.950855	0.285612
589.161850	0.286150
589.372827	0.286407
589.583785	0.287400
589.794726	0.287715
590.005648	0.288254
590.216552	0.288555
590.427437	0.288770
590.638305	0.288889
590.849154	0.289057
591.059985	0.288903
591.270798	0.289391
591.481592	0.289056
591.692369	0.289453
591.903127	0.289221
592.113867	0.289101
592.324588	0.289173
592.535292	0.289487
592.745977	0.289499
592.956644	0.290165
593.167293	0.290239
593.377923	0.290585
593.588536	0.290326
593.799130	0.290768
594.009706	0.291315
594.220263	0.291756
594.430803	0.292122
594.641324	0.292459
594.851827	0.292757
595.062312	0.293058
595.272778	0.293745
595.483227	0.294122
595.693657	0.293791
595.904069	0.293852
596.114462	0.294019
596.324838	0.293986
596.535195	0.294188
596.745534	0.293956
596.955855	0.294099
597.166157	0.294009
597.376441	0.294098
597.586707	0.294715
597.796955	0.295190
598.007185	0.295635
598.217396	0.295684
598.427589	0.295995
598.637764	0.296870
598.847921	0.296821
599.058060	0.297068
599.268180	0.297596
599.478282	0.297774
599.688366	0.297863
599.898431	0.297667
600.108479	0.298041
600.318508	0.298107
600.528519	0.298249
600.738511	0.298689
600.948486	0.298967
601.158442	0.299146
601.368380	0.299118
601.578300	0.299389
601.788202	0.299580
601.998085	0.299916
602.207950	0.299956
602.417797	0.300158
602.627626	0.300322
602.837436	0.299952
603.047228	0.300050
603.257002	0.300007
603.466758	0.299918
603.676496	0.300452
603.886215	0.300686
604.095916	0.301018
604.305599	0.300963
604.515264	0.301326
604.724910	0.301995
604.934538	0.301950
605.144148	0.302797
605.353740	0.303310
605.563314	0.303204
605.772869	0.303349
605.982406	0.303592
606.191925	0.303829
606.401425	0.303814
606.610908	0.303542
606.820372	0.304108
607.029818	0.304241
607.239246	0.304452
607.448655	0.304621
607.658047	0.304568
607.867420	0.304802
608.076775	0.305011
608.286111	0.305081
608.495430	0.305493
608.704730	0.305642
608.914012	0.305711
609.123275	0.305664
609.332521	0.306151
609.541748	0.306377
609.750957	0.306579
609.960148	0.306570
610.169321	0.307059
610.378475	0.307338
610.587611	0.307433
610.796729	0.307514
611.005829	0.307627
611.214910	0.307383
611.423974	0.307544
611.633019	0.307189
611.842045	0.307533
612.051054	0.307679
612.260044	0.307678
612.469017	0.307736
612.677970	0.307718
612.886906	0.308128
613.095824	0.308593
613.304723	0.308465
613.513604	0.309126
613.722467	0.308836
613.931311	0.308679
614.140138	0.309021
614.348946	0.309111
614.557736	0.309172
614.766507	0.309181
614.975261	0.309438
615.183996	0.309918
615.392713	0.309806
615.601412	0.310252
615.810092	0.310481
616.018754	0.310651
616.227399	0.310896
616.436024	0.311236
616.644632	0.311286
616.853222	0.311266
617.061793	0.311435
617.270346	0.311549
617.478880	0.311683
617.687397	0.311887
617.895895	0.311582
618.104375	0.311698
618.312837	0.311983
618.521281	0.312324
618.729706	0.312420
618.938113	0.312877
619.146502	0.313339
619.354873	0.313562
619.563226	0.313889
619.771560	0.314433
619.979876	0.314625
620.188174	0.314772
620.396453	0.314813
620.604715	0.314901
620.812958	0.314891
621.021183	0.314540
621.229390	0.314434
621.437578	0.314459
621.645748	0.314577
621.853900	0.314575
622.062034	0.314729
622.270150	0.314848
622.478247	0.315338
622.686326	0.315734
622.894387	0.316057
623.102430	0.316626
623.310454	0.317064
623.518461	0.317156
623.726449	0.317642
623.934418	0.317864
624.142370	0.318249
624.350303	0.318164
624.558218	0.317942
624.766115	0.318273
624.973994	0.318332
625.181855	0.318483
625.389697	0.318764
625.597521	0.318874
625.805327	0.319009
626.013114	0.318939
626.220883	0.319324
626.428634	0.319459
626.636367	0.319751
626.844082	0.319971
627.051778	0.319725
627.259457	0.319655
627.467117	0.319649
627.674758	0.320021
627.882382	0.320610
628.089987	0.320826
628.297574	0.321273
628.505143	0.321489
628.712694	0.321817
628.920226	0.322198
629.127740	0.322777
629.335236	0.323459
629.542714	0.323635
629.750174	0.323536
629.957615	0.323642
630.165038	0.323918
630.372443	0.324058
630.579829	0.324247
630.787198	0.324542
630.994548	0.324355
631.201880	0.324332
631.409194	0.324548
631.616489	0.324995
631.823766	0.325087
632.031025	0.325239
632.238266	0.325517
632.445489	0.325787
632.652693	0.325619
632.859879	0.326142
633.067047	0.326236
633.274197	0.326152
633.481329	0.326315
633.688442	0.326533
633.895537	0.326347
634.102614	0.326287
634.309672	0.326025
634.516713	0.326387
634.723735	0.326407
634.930739	0.326462
635.137724	0.326683
635.344692	0.326650
635.551641	0.326964
635.758572	0.327218
635.965485	0.327360
636.172379	0.327625
636.379256	0.328068
636.586114	0.328179
636.792954	0.328406
636.999775	0.328621
637.206579	0.328873
637.413364	0.329091
637.620131	0.329455
637.826880	0.329669
638.033610	0.330091
638.240323	0.330033
638.447017	0.330211
638.653692	0.330381
638.860350	0.330512
639.066990	0.330782
639.273611	0.330700
639.480214	0.330857
639.686798	0.331169
639.893365	0.331316
640.099913	0.331611
640.306443	0.331777
640.512955	0.331908
640.719449	0.332132
640.925924	0.332246
641.132381	0.332265
641.338820	0.332505
641.545241	0.332679
641.751644	0.332719
641.958028	0.332689
642.164394	0.333088
642.370742	0.333274
642.577071	0.333233
642.783383	0.333526
642.989676	0.334069
643.195951	0.334194
643.402207	0.334440
643.608446	0.334317
643.814666	0.334524
644.020868	0.334505
644.227052	0.334605
644.433218	0.335053
644.639365	0.334864
644.845494	0.335105
645.051605	0.335206
645.257698	0.335344
645.463772	0.335673
645.669828	0.336059
645.875866	0.336426
646.081886	0.336947
646.287888	0.337098
646.493871	0.337679
646.699836	0.337360
646.905783	0.337698
647.111712	0.337637
647.317622	0.337913
647.523514	0.338187
647.729388	0.338104
647.935244	0.338175
648.141082	0.338287
648.346901	0.338269
648.552702	0.338860
648.758485	0.338715
648.964250	0.339174
649.169996	0.339773
649.375724	0.339878
649.581434	0.340614
649.787126	0.340928
649.992800	0.341378
650.198455	0.341710
650.404092	0.342106
650.609711	0.342490
650.815311	0.342787
651.020894	0.342824
651.226458	0.342971
651.432004	0.342901
651.637532	0.342904
651.843041	0.343097
652.048532	0.343365
652.254006	0.343566
652.459460	0.344107
652.664897	0.344134
652.870315	0.344343
653.075716	0.344546
653.281097	0.344801
653.486461	0.345184
653.691807	0.345128
653.897134	0.345165
654.102443	0.345368
654.307734	0.345417
654.513006	0.345940
654.718261	0.346274
654.923497	0.346597
655.128715	0.347062
655.333915	0.347322
655.539096	0.347785
655.744259	0.348137
655.949404	0.348403
656.154531	0.348910
656.359640	0.349173
656.564730	0.349477
656.769802	0.350206
656.974856	0.350192
657.179892	0.350538
657.384909	0.350715
657.589908	0.350802
657.794889	0.350879
657.999852	0.350702
658.204797	0.350568
658.409723	0.350671
658.614631	0.350404
658.819521	0.350702
659.024393	0.350797
659.229246	0.351244
659.434081	0.351486
659.638898	0.351844
659.843697	0.352004
660.048478	0.352430
660.253240	0.352595
660.457984	0.352781
660.662710	0.352841
660.867417	0.353202
661.072107	0.353206
661.276778	0.353359
661.481431	0.353462
661.686066	0.353949
661.890682	0.353926
662.095281	0.354341
662.299861	0.354501
662.504422	0.354814
662.708966	0.354817
662.913491	0.354842
663.117999	0.355226
663.322488	0.355625
663.526958	0.356100
663.731411	0.356556
663.935845	0.356472
664.140261	0.356724
664.344659	0.356969
664.549038	0.357311
664.753400	0.357769
664.957743	0.358206
665.162068	0.358380
665.366375	0.358450
665.570663	0.358741
665.774933	0.359226
665.979185	0.359554
666.183419	0.359843
666.387635	0.360180
666.591832	0.360428
666.796011	0.360629
667.000172	0.360991
667.204315	0.361092
667.408439	0.361262
667.612545	0.361224
667.816634	0.361740
668.020703	0.362170
668.224755	0.362380
668.428788	0.362643
668.632803	0.362873
668.836800	0.363039
669.040779	0.363402
669.244739	0.363733
669.448681	0.364201
669.652605	0.364307
669.856511	0.364402
670.060399	0.364782
670.264268	0.364997
670.468119	0.365356
670.671952	0.365383
670.875767	0.365321
671.079563	0.365710
671.283341	0.365857
671.487101	0.366123
671.690843	0.366380
671.894567	0.366344
672.098272	0.366529
672.301959	0.366632
672.505628	0.366863
672.709278	0.367267
672.912911	0.367185
673.116525	0.367527
673.320121	0.367725
673.523699	0.367824
673.727258	0.368079
673.930799	0.368304
674.134322	0.368366
674.337827	0.368639
674.541314	0.368921
674.744782	0.369468
674.948232	0.369666
675.151664	0.369769
675.355078	0.369876
675.558474	0.369997
675.761851	0.370395
675.965210	0.370832
676.168551	0.371260
676.371873	0.371584
676.575178	0.371737
676.778464	0.372175
676.981732	0.372608
677.184981	0.373174
677.388213	0.373769
677.591426	0.373837
677.794621	0.374018
677.997798	0.373987
678.200956	0.373980
678.404097	0.374244
678.607219	0.374327
678.810323	0.374417
679.013408	0.374359
679.216476	0.374444
679.419525	0.374562
679.622556	0.374566
679.825569	0.375070
680.028563	0.375493
680.231540	0.375515
680.434498	0.375607
680.637438	0.375991
680.840359	0.376218
681.043263	0.376286
681.246148	0.376733
681.449015	0.376965
681.651864	0.377107
681.854694	0.377072
682.057506	0.377515
682.260301	0.377754
682.463076	0.377748
682.665834	0.378198
682.868573	0.378533
683.071295	0.378805
683.273998	0.379454
683.476682	0.379697
683.679349	0.380250
683.881997	0.380545
684.084627	0.381121
684.287239	0.381279
684.489833	0.381534
684.692408	0.381930
684.894965	0.382263
685.097504	0.382234
685.300025	0.382454
685.502527	0.382307
685.705012	0.382407
685.907478	0.382354
686.109925	0.382826
686.312355	0.382973
686.514766	0.383171
686.717159	0.383241
686.919534	0.383602
687.121891	0.383929
687.324230	0.384694
687.526550	0.385112
687.728852	0.385378
687.931136	0.385691
688.133401	0.385700
688.335649	0.385648
688.537878	0.385885
688.740089	0.386094
688.942281	0.386136
689.144456	0.385874
689.346612	0.385600
689.548750	0.385497
689.750870	0.385481
689.952971	0.385939
690.155055	0.386275
690.357120	0.386302
690.559167	0.386504
690.761195	0.386603
690.963206	0.386936
691.165198	0.387305
691.367172	0.387688
691.569128	0.387925
691.771065	0.387821
691.972984	0.387956
692.174885	0.388391
692.376768	0.388629
692.578633	0.388713
692.780479	0.388819
692.982308	0.389129
693.184118	0.389152
693.385909	0.389233
693.587683	0.389882
693.789438	0.390203
693.991175	0.390272
694.192894	0.390362
694.394595	0.390724
694.596277	0.391094
694.797941	0.391324
694.999587	0.391493
695.201215	0.391871
695.402824	0.391674
695.604416	0.391548
695.805989	0.391692
696.007543	0.391852
696.209080	0.391735
696.410598	0.391452
696.612099	0.391343
696.813580	0.391759
697.015044	0.391906
697.216490	0.392273
697.417917	0.392617
697.619326	0.392612
697.820717	0.392419
698.022089	0.392724
698.223444	0.393340
698.424780	0.393570
698.626098	0.393609
698.827397	0.393599
699.028679	0.393735
699.229942	0.394031
699.431187	0.394250
699.632414	0.394889
699.833622	0.395009
700.034813	0.395141
700.235985	0.395317
700.437139	0.395545
700.638274	0.395669
700.839392	0.395759
701.040491	0.395878
701.241572	0.396192
701.442635	0.396246
701.643679	0.396737
701.844706	0.396898
702.045714	0.396936
702.246704	0.396933
702.447675	0.397365
702.648629	0.397475
702.849564	0.397175
703.050481	0.397351
703.251380	0.397353
703.452260	0.397442
703.653122	0.397708
703.853966	0.398029
704.054792	0.398388
704.255600	0.398297
704.456389	0.398455
704.657160	0.398977
704.857913	0.398782
705.058648	0.398800
705.259365	0.398636
705.460063	0.398336
705.660743	0.398483
705.861405	0.398484
706.062048	0.398392
706.262674	0.398356
706.463281	0.398016
706.663870	0.398150
706.864441	0.398152
707.064993	0.398313
707.265527	0.398482
707.466043	0.398467
707.666541	0.398555
707.867021	0.399036
708.067482	0.399402
708.267925	0.399939
708.468350	0.400479
708.668757	0.400675
708.869145	0.400790
709.069516	0.401129
709.269868	0.401220
709.470201	0.401389
709.670517	0.401421
709.870814	0.401462
710.071093	0.401318
710.271354	0.401022
710.471597	0.400940
710.671821	0.400880
710.872028	0.400625
711.072216	0.400844
711.272385	0.400577
711.472537	0.400623
711.672670	0.400628
711.872785	0.400666
712.072882	0.400501
712.272961	0.400463
712.473021	0.400681
712.673063	0.400549
712.873087	0.400169
713.073093	0.400281
713.273081	0.399905
713.473050	0.399624
713.673001	0.399641
713.872934	0.399617
714.072849	0.399992
714.272745	0.399773
714.472623	0.399922
714.672483	0.400181
714.872325	0.400246
715.072148	0.400748
715.271954	0.400870
715.471741	0.400825
715.671509	0.400788
715.871260	0.400568
716.070992	0.400358
716.270707	0.400398
716.470403	0.400227
716.670080	0.400322
716.869740	0.400073
717.069381	0.400048
717.269004	0.400197
717.468609	0.400517
717.668195	0.400583
717.867764	0.401040
718.067314	0.400650
718.266846	0.400727
718.466360	0.400604
718.665855	0.400511
718.865332	0.400512
719.064791	0.400075
719.264232	0.399886
719.463655	0.399937
719.663059	0.399610
719.862445	0.399970
720.061813	0.399889
720.261163	0.399849
720.460494	0.399567
720.659807	0.399476
720.859102	0.399612
721.058379	0.399726
721.257638	0.399587
721.456878	0.399607
721.656100	0.399374
721.855304	0.399151
722.054490	0.398750
722.253657	0.398710
722.452806	0.398486
722.651937	0.398596
722.851050	0.398202
723.050145	0.397733
723.249221	0.397526
723.448279	0.397461
723.647319	0.397258
723.846340	0.397382
724.045344	0.397304
724.244329	0.397190
724.443296	0.397014
724.642245	0.397345
724.841175	0.397650
725.040088	0.397726
725.238982	0.397795
725.437857	0.397502
725.636715	0.397328
725.835554	0.397357
726.034376	0.397428
726.233179	0.397240
726.431963	0.396879
726.630730	0.397080
726.829478	0.396916
727.028208	0.396874
727.226920	0.397439
727.425614	0.397596
727.624289	0.397485
727.822946	0.397288
728.021585	0.397493
728.220206	0.397325
728.418808	0.396843
728.617392	0.396983
728.815958	0.396834
729.014506	0.396728
729.213036	0.396643
729.411547	0.396485
729.610040	0.396517
729.808515	0.396514
730.006972	0.396450
730.205410	0.396146
730.403831	0.395952
730.602233	0.395864
730.800616	0.395454
730.998982	0.394988
731.197329	0.394476
731.395658	0.394265
731.593969	0.393508
731.792262	0.393266
731.990536	0.393269
732.188793	0.392723
732.387031	0.392226
732.585250	0.392069
732.783452	0.392132
732.981635	0.392384
733.179800	0.392455
733.377947	0.392522
733.576076	0.392198
733.774186	0.392036
733.972278	0.392069
734.170352	0.392115
734.368408	0.392066
734.566446	0.391818
734.764465	0.391520
734.962466	0.391332
735.160449	0.391172
735.358413	0.391601
735.556360	0.391497
735.754288	0.391437
735.952198	0.391409
736.150090	0.391470
736.347963	0.391529
736.545818	0.391662
736.743655	0.391268
736.941474	0.391154
737.139275	0.390638
737.337057	0.390175
737.534821	0.389838
737.732567	0.389528
737.930295	0.389124
738.128005	0.388551
738.325696	0.388137
738.523369	0.387889
738.721024	0.387813
738.918660	0.387697
739.116279	0.387676
739.313879	0.387793
739.511461	0.387587
739.709024	0.387289
739.906570	0.387017
740.104097	0.386863
740.301606	0.386422
740.499097	0.386206
740.696569	0.385878
740.894024	0.385659
741.091460	0.385101
741.288878	0.384883
741.486277	0.384628
741.683659	0.384853
741.881022	0.384590
742.078367	0.384827
742.275694	0.384710
742.473002	0.384866
742.670293	0.384808
742.867565	0.385000
743.064819	0.384733
743.262054	0.384610
743.459272	0.384250
743.656471	0.384318
743.853652	0.383874
744.050815	0.383644
744.247959	0.383222
744.445085	0.383127
744.642194	0.382826
744.839283	0.382809
745.036355	0.382487
745.233408	0.382560
745.430444	0.382166
745.627461	0.381909
745.824459	0.381426
746.021440	0.381063
746.218402	0.380405
746.415346	0.379990
746.612272	0.379651
746.809180	0.379418
747.006069	0.378953
747.202940	0.378400
747.399793	0.378554
747.596628	0.378437
747.793444	0.378137
747.990243	0.378138
748.187023	0.377879
748.383784	0.377561
748.580528	0.377602
748.777253	0.377187
748.973960	0.377065
749.170649	0.376567
749.367320	0.376311
749.563973	0.376234
749.760607	0.375979
749.957223	0.375825
750.153821	0.375443
750.350400	0.375049
750.546962	0.374634
750.743505	0.374543
750.940030	0.374571
751.136536	0.374189
751.333025	0.374121
751.529495	0.373977
751.725947	0.373731
751.922381	0.373686
752.118796	0.373602
752.315194	0.373760
752.511573	0.373872
752.707934	0.373515
752.904276	0.373618
753.100601	0.373271
753.296907	0.372932
753.493195	0.372777
753.689465	0.372512
753.885716	0.371944
754.081949	0.371708
754.278164	0.371554
754.474361	0.371297
754.670540	0.370864
754.866700	0.370459
755.062843	0.370387
755.258967	0.370152
755.455072	0.370084
755.651160	0.370182
755.847229	0.370014
756.043280	0.369665
756.239313	0.369589
756.435328	0.369438
756.631324	0.369374
756.827302	0.369312
757.023262	0.369352
757.219204	0.369315
757.415127	0.369001
757.611033	0.369113
757.806920	0.368778
758.002788	0.368621
758.198639	0.368673
758.394471	0.368789
758.590286	0.368456
758.786081	0.368086
758.981859	0.367688
759.177619	0.367733
759.373360	0.367165
759.569083	0.366834
759.764788	0.366806
759.960474	0.366546
760.156143	0.366194
760.351793	0.366126
760.547425	0.366015
760.743038	0.365880
760.938634	0.365520
761.134211	0.365487
761.329770	0.365576
761.525311	0.365041
761.720833	0.364686
761.916338	0.364529
762.111824	0.364182
762.307292	0.364138
762.502741	0.363961
762.698173	0.363841
762.893586	0.363816
763.088981	0.363348
763.284358	0.363559
763.479716	0.363477
763.675057	0.363040
763.870379	0.362894
764.065683	0.362684
764.260968	0.362711
764.456236	0.362744
764.651485	0.362298
764.846716	0.362481
765.041929	0.362163
765.237123	0.362077
765.432299	0.362382
765.627457	0.362077
765.822597	0.362154
766.017719	0.362081
766.212822	0.361562
766.407907	0.361462
766.602974	0.361042
766.798023	0.360669
766.993054	0.360406
767.188066	0.360087
767.383060	0.360179
767.578036	0.359747
767.772993	0.359407
767.967933	0.359513
768.162854	0.359483
768.357757	0.359204
768.552642	0.359138
768.747508	0.358845
768.942356	0.358770
769.137186	0.358643
769.331998	0.358543
769.526792	0.358652
769.721567	0.358487
769.916324	0.358390
770.111063	0.358561
770.305784	0.358642
770.500486	0.358931
770.695171	0.358587
770.889837	0.358303
771.084484	0.357985
771.279114	0.357731
771.473725	0.357696
771.668318	0.357515
771.862893	0.357608
772.057450	0.357259
772.251988	0.356959
772.446509	0.357057
772.641011	0.356950
772.835494	0.356976
773.029960	0.356884
773.224407	0.356704
773.418836	0.356865
773.613247	0.356566
773.807640	0.356503
774.002014	0.356479
774.196370	0.356358
774.390708	0.356276
774.585028	0.356166
774.779330	0.355931
774.973613	0.355777
775.167878	0.355516
775.362125	0.355549
775.556354	0.355786
775.750564	0.355820
775.944756	0.355779
776.138930	0.355793
776.333086	0.355639
776.527223	0.355904
776.721343	0.356022
776.915444	0.355933
777.109526	0.355817
777.303591	0.355750
777.497637	0.355322
777.691666	0.355100
777.885676	0.355129
778.079667	0.355121
778.273641	0.354839
778.467596	0.354712
778.661533	0.354662
778.855452	0.354621
779.049352	0.354315
779.243235	0.354363
779.437099	0.354403
779.630945	0.354269
779.824773	0.354445
780.018582	0.354350
780.212373	0.354514
780.406146	0.354499
780.599901	0.354574
780.793638	0.354538
780.987356	0.354798
781.181056	0.354886
781.374738	0.355056
781.568402	0.354929
781.762047	0.354881
781.955674	0.354802
782.149283	0.354721
782.342874	0.354591
782.536447	0.354623
782.730001	0.354517
782.923537	0.354427
783.117055	0.354146
783.310555	0.354026
783.504036	0.354249
783.697499	0.354058
783.890944	0.354317
784.084371	0.354145
784.277780	0.354316
784.471170	0.354509
784.664542	0.354490
784.857896	0.354808
785.051231	0.354790
785.244549	0.354359
785.437848	0.354383
785.631129	0.354149
785.824392	0.354228
786.017636	0.353856
786.210863	0.353444
786.404071	0.353381
786.597260	0.353174
786.790432	0.353106
786.983585	0.353253
787.176721	0.353273
787.369838	0.353427
787.562936	0.353617
787.756017	0.353813
787.949079	0.354139
788.142123	0.354329
788.335149	0.354255
788.528156	0.354484
788.721146	0.354823
788.914117	0.355047
789.107070	0.354868
789.300005	0.354861
789.492921	0.354984
789.685819	0.354991
789.878699	0.354802
790.071561	0.355018
790.264405	0.355161
790.457230	0.355061
790.650037	0.354985
790.842826	0.355342
791.035597	0.355412
791.228349	0.355211
791.421084	0.355053
791.613800	0.355282
791.806497	0.355344
791.999177	0.355120
792.191838	0.354968
792.384481	0.355190
792.577106	0.354908
792.769713	0.354808
792.962301	0.354955
793.154871	0.355492
793.347423	0.355671
793.539957	0.355609
793.732473	0.355813
793.924970	0.356256
794.117449	0.356401
794.309910	0.356590
794.502353	0.356861
794.694777	0.357180
794.887183	0.356918
795.079571	0.356797
795.271941	0.356978
795.464293	0.357007
795.656626	0.357515
795.848941	0.357469
796.041238	0.357564
796.233516	0.357604
796.425777	0.357724
796.618019	0.358074
796.810243	0.358617
797.002449	0.358915
797.194636	0.359586
797.386805	0.359432
797.578956	0.359643
797.771089	0.359810
797.963204	0.360082
798.155300	0.360394
798.347378	0.360523
798.539438	0.360354
798.731480	0.360721
798.923503	0.360742
799.115509	0.360682
799.307496	0.360639
799.499465	0.360896
799.691415	0.360944
799.883348	0.361010
800.075262	0.361017
800.267158	0.361534
800.459035	0.361572
800.650895	0.361188
800.842736	0.361297
801.034559	0.361553
801.226364	0.361737
801.418150	0.361879
801.609919	0.361543
801.801669	0.361679
801.993401	0.361732
802.185114	0.361999
802.376810	0.362460
802.568487	0.362721
802.760146	0.362875
802.951787	0.362983
803.143409	0.363421
803.335014	0.363867
803.526600	0.364265
803.718168	0.364196
803.909717	0.363913
804.101249	0.364310
804.292762	0.364681
804.484257	0.364866
804.675734	0.364979
804.867192	0.365081
805.058632	0.365345
805.250054	0.365272
805.441458	0.365741
805.632844	0.366234
805.824211	0.366614
806.015561	0.366528
806.206891	0.366923
806.398204	0.367442
806.589499	0.367874
806.780775	0.367948
806.972033	0.368336
807.163273	0.368081
807.354495	0.368343
807.545698	0.368438
807.736883	0.368771
807.928050	0.368714
808.119199	0.368972
808.310329	0.368893
808.501441	0.369281
808.692535	0.369540
808.883611	0.369963
809.074669	0.370211
809.265708	0.370217
809.456729	0.370477
809.647732	0.371117
809.838717	0.370960
810.029683	0.371203
810.220632	0.371604
810.411562	0.371612
810.602474	0.371749
810.793367	0.371736
810.984242	0.371954
811.175100	0.372297
811.365938	0.372120
811.556759	0.372316
811.747562	0.372710
811.938346	0.372835
812.129112	0.373287
812.319860	0.374049
812.510589	0.374356
812.701300	0.374702
812.891994	0.374804
813.082668	0.375062
813.273325	0.375704
813.463964	0.375964
813.654584	0.376390
813.845186	0.376702
814.035769	0.376745
814.226335	0.377397
814.416882	0.377634
814.607411	0.377695
814.797922	0.378290
814.988415	0.378413
815.178889	0.378739
815.369345	0.378993
815.559783	0.379026
815.750203	0.379443
815.940605	0.379487
816.130988	0.379958
816.321353	0.380470
816.511700	0.380767
816.702028	0.381266
816.892339	0.381444
817.082631	0.381642
817.272905	0.382280
817.463161	0.382686
817.653398	0.383285
817.843617	0.383398
818.033819	0.383734
818.224001	0.383832
818.414166	0.384050
818.604312	0.384496
818.794440	0.385153
818.984550	0.385342
819.174642	0.385703
819.364716	0.385820
819.554771	0.386174
819.744808	0.386605
819.934827	0.387303
820.124827	0.387678
820.314810	0.387753
820.504774	0.387757
820.694720	0.387776
820.884647	0.388041
821.074557	0.388245
821.264448	0.388825
821.454321	0.389075
821.644176	0.389240
821.834012	0.389541
822.023831	0.390123
822.213631	0.390484
822.403413	0.391209
822.593176	0.391301
822.782922	0.391305
822.972649	0.391429
823.162358	0.391922
823.352049	0.392278
823.541721	0.392395
823.731376	0.392660
823.921012	0.392950
824.110629	0.393110
824.300229	0.393418
824.489811	0.394454
824.679374	0.394773
824.868919	0.395244
825.058445	0.395331
825.247954	0.395648
825.437444	0.396298
825.626916	0.396667
825.816370	0.397218
826.005806	0.397298
826.195223	0.397597
826.384622	0.397963
826.574003	0.398278
826.763366	0.398599
826.952711	0.399101
827.142037	0.399352
827.331345	0.399688
827.520635	0.400059
827.709906	0.400593
827.899160	0.400934
828.088395	0.401528
828.277612	0.401697
828.466810	0.402185
828.655991	0.402815
828.845153	0.403060
829.034297	0.403834
829.223423	0.404272
829.412531	0.405060
829.601620	0.405429
829.790691	0.405524
829.979744	0.406147
830.168779	0.406650
830.357795	0.407240
830.546793	0.408074
830.735773	0.408350
830.924735	0.408447
831.113679	0.408854
831.302604	0.409503
831.491511	0.410030
831.680400	0.410284
831.869271	0.410806
832.058123	0.410964
832.246957	0.410903
832.435773	0.411331
832.624571	0.412142
832.813351	0.412353
833.002112	0.412617
833.190855	0.413244
833.379580	0.413816
833.568287	0.414322
833.756975	0.415084
833.945645	0.415805
834.134297	0.416180
834.322931	0.416614
834.511547	0.417053
834.700144	0.417464
834.888723	0.417903
835.077284	0.418219
835.265826	0.418618
835.454351	0.419038
835.642857	0.419242
835.831345	0.419783
836.019815	0.420259
836.208266	0.420753
836.396699	0.421007
836.585114	0.421560
836.773511	0.422095
836.961890	0.422489
837.150250	0.422603
837.338592	0.423186
837.526916	0.423876
837.715222	0.424552
837.903510	0.425158
838.091779	0.425446
838.280030	0.425634
838.468263	0.425842
838.656477	0.426558
838.844674	0.427018
839.032852	0.427349
839.221012	0.427212
839.409153	0.427066
839.597277	0.427554
839.785382	0.428643
839.973469	0.429107
840.161538	0.429663
840.349589	0.429748
840.537621	0.429898
840.725635	0.430115
840.913631	0.430791
841.101609	0.431339
841.289568	0.431726
841.477509	0.431856
841.665432	0.432400
841.853337	0.433108
842.041224	0.433709
842.229092	0.434375
842.416942	0.434808
842.604774	0.435412
842.792588	0.435794
842.980383	0.435931
843.168160	0.436284
843.355919	0.436834
843.543660	0.437186
843.731382	0.437761
843.919087	0.438792
844.106773	0.439844
844.294441	0.440416
844.482090	0.441039
844.669722	0.441839
844.857335	0.442185
845.044930	0.442408
845.232507	0.443133
845.420065	0.443584
845.607605	0.443366
845.795127	0.443737
845.982631	0.443878
846.170117	0.444448
846.357584	0.444841
846.545033	0.445512
846.732464	0.445868
846.919877	0.445972
847.107272	0.446431
847.294648	0.447384
847.482006	0.447390
847.669346	0.448134
847.856667	0.448730
848.043971	0.449090
848.231256	0.449612
848.418523	0.450375
848.605771	0.450878
848.793002	0.451201
848.980214	0.451413
849.167408	0.451998
849.354584	0.452615
849.541742	0.453229
849.728881	0.453893
849.916002	0.454480
850.103105	0.455076
850.290190	0.456081
850.477256	0.456521
850.664304	0.456699
850.851334	0.457484
851.038346	0.457394
851.225340	0.457753
851.412315	0.458146
851.599272	0.458610
851.786211	0.459064
851.973132	0.459433
852.160034	0.460088
852.346918	0.460762
852.533784	0.461346
852.720632	0.462016
852.907462	0.462278
853.094273	0.462777
853.281066	0.463206
853.467841	0.463675
853.654598	0.463709
853.841336	0.464191
854.028056	0.464860
854.214758	0.464656
854.401442	0.465263
854.588107	0.465762
854.774755	0.466266
854.961384	0.466542
855.147995	0.466960
855.334587	0.467750
855.521162	0.468249
855.707718	0.468429
855.894256	0.469277
856.080775	0.469303
856.267277	0.469692
856.453760	0.470210
856.640225	0.470597
856.826672	0.470621
857.013101	0.470373
857.199511	0.470358
857.385903	0.470743
857.572277	0.470792
857.758633	0.471794
857.944970	0.472120
858.131290	0.472591
858.317591	0.472620
858.503873	0.473050
858.690138	0.473732
858.876384	0.474613
859.062612	0.474978
859.248822	0.475454
859.435014	0.475458
859.621188	0.475983
859.807343	0.476562
859.993480	0.477109
860.179599	0.477772
860.365699	0.478120
860.551781	0.478118
860.737846	0.478388
860.923891	0.479004
861.109919	0.479558
861.295929	0.480219
861.481920	0.480504
861.667893	0.480991
861.853848	0.481318
862.039784	0.481992
862.225702	0.482398
862.411603	0.483314
862.597484	0.484127
862.783348	0.484656
862.969193	0.485233
863.155021	0.485524
863.340830	0.486265
863.526620	0.486953
863.712393	0.487320
863.898147	0.487857
864.083883	0.488176
864.269601	0.488034
864.455301	0.488298
864.640982	0.488207
864.826645	0.488380
865.012290	0.488470
865.197917	0.488533
865.383526	0.488602
865.569116	0.488999
865.754688	0.488828
865.940242	0.489221
866.125777	0.489521
866.311295	0.489749
866.496794	0.490085
866.682275	0.490864
866.867737	0.491138
867.053182	0.491796
867.238608	0.492224
867.424016	0.492935
867.609406	0.493305
867.794778	0.493645
867.980131	0.493980
868.165466	0.494766
868.350783	0.494474
868.536082	0.495090
868.721362	0.495426
868.906625	0.495184
869.091869	0.495628
869.277094	0.495947
869.462302	0.496620
869.647491	0.497083
869.832662	0.496916
870.017815	0.497528
870.202950	0.497887
870.388066	0.497806
870.573165	0.498802
870.758245	0.499293
870.943306	0.499326
871.128350	0.499117
871.313375	0.499263
871.498382	0.499674
871.683371	0.500037
871.868342	0.500420
872.053294	0.500727
872.238229	0.500342
872.423144	0.500774
872.608042	0.501612
872.792922	0.501993
872.977783	0.502448
873.162626	0.502447
873.347451	0.502835
873.532258	0.503042
873.717046	0.503474
873.901816	0.503772
874.086568	0.503273
874.271302	0.502962
874.456017	0.503164
874.640715	0.503634
874.825394	0.503382
875.010055	0.504009
875.194697	0.503749
875.379322	0.503714
875.563928	0.504225
875.748516	0.504980
875.933085	0.505420
876.117637	0.505701
876.302170	0.505715
876.486685	0.506728
876.671182	0.505873
876.855661	0.506378
877.040121	0.506710
877.224563	0.507136
877.408987	0.507353
877.593393	0.507438
877.777780	0.507598
877.962150	0.508085
878.146501	0.508052
878.330833	0.508852
878.515148	0.508934
878.699444	0.509345
878.883722	0.509543
879.067982	0.509479
879.252224	0.509904
879.436447	0.509687
879.620653	0.509742
879.804840	0.510308
879.989008	0.509872
880.173159	0.509807
880.357291	0.509845
880.541405	0.510126
880.725501	0.510074
880.909579	0.510012
881.093638	0.510563
881.277680	0.510304
881.461703	0.509892
881.645707	0.510520
881.829694	0.510666
882.013662	0.510819
882.197612	0.510816
882.381544	0.511538
882.565458	0.512222
882.749353	0.512856
882.933230	0.512570
883.117089	0.512981
883.300930	0.513009
883.484753	0.513493
883.668557	0.513689
883.852343	0.513898
884.036111	0.513983
884.219861	0.513813
884.403592	0.513087
884.587305	0.513792
884.771000	0.513613
884.954677	0.513860
885.138335	0.514118
885.321976	0.514491
885.505598	0.514296
885.689201	0.513928
885.872787	0.513994
886.056354	0.514524
886.239904	0.514491
886.423434	0.514548
886.606947	0.514854
886.790442	0.514374
886.973918	0.514338
887.157376	0.514755
887.340816	0.514842
887.524237	0.514570
887.707641	0.514253
887.891026	0.514442
888.074393	0.514389
888.257741	0.514014
888.441072	0.513827
888.624384	0.513324
888.807678	0.512958
888.990954	0.512975
889.174211	0.512870
889.357451	0.512856
889.540672	0.512827
889.723875	0.512762
889.907059	0.512900
890.090226	0.512801
890.273374	0.512625
890.456504	0.512495
890.639616	0.511941
890.822709	0.512387
891.005785	0.512480
891.188842	0.512399
891.371881	0.512137
891.554901	0.511771
891.737904	0.512240
891.920888	0.512349
892.103854	0.512429
892.286802	0.513092
892.469731	0.512466
892.652643	0.512329
892.835536	0.512104
893.018410	0.512414
893.201267	0.512084
893.384106	0.511425
893.566926	0.511675
893.749728	0.511502
893.932511	0.511098
894.115277	0.511328
894.298024	0.511363
894.480753	0.510846
894.663464	0.510467
894.846157	0.510613
895.028831	0.510719
895.211487	0.510305
895.394125	0.509855
895.576745	0.509453
895.759346	0.508860
895.941930	0.508184
896.124495	0.508388
896.307041	0.508509
896.489570	0.508079
896.672080	0.507736
896.854573	0.507025
897.037046	0.506902
897.219502	0.506732
897.401940	0.506607
897.584359	0.506934
897.766760	0.506206
897.949143	0.505945
898.131507	0.505889
898.313854	0.505649
898.496182	0.506004
898.678492	0.505465
898.860783	0.505170
899.043057	0.504704
899.225312	0.503931
899.407549	0.503705
899.589768	0.502845
899.771968	0.502291
899.954151	0.502024
900.136315	0.501275
900.318461	0.501205
900.500588	0.500713
900.682698	0.500726
900.864789	0.500468
901.046862	0.500206
901.228917	0.500349
901.410953	0.499909
901.592971	0.499527
901.774972	0.499467
901.956953	0.499093
902.138917	0.498985
902.320862	0.498315
902.502790	0.498145
902.684699	0.498037
902.866589	0.497957
903.048462	0.498282
903.230316	0.498348
903.412152	0.497604
903.593970	0.496772
903.775770	0.496544
903.957551	0.496181
904.139314	0.496294
904.321059	0.495098
904.502786	0.494404
904.684494	0.493820
904.866185	0.493085
905.047857	0.492887
905.229510	0.492945
905.411146	0.492168
905.592763	0.492001
905.774363	0.491503
905.955943	0.492165
906.137506	0.491487
906.319051	0.491438
906.500577	0.491501
906.682085	0.491569
906.863575	0.491072
907.045046	0.490720
907.226500	0.490105
907.407935	0.488724
907.589352	0.487900
907.770750	0.488071
907.952131	0.487083
908.133493	0.485750
908.314837	0.484737
908.496163	0.484255
908.677470	0.484048
908.858760	0.483353
909.040031	0.483575
909.221284	0.483155
909.402518	0.482135
909.583735	0.481383
909.764933	0.481191
909.946113	0.480932
910.127275	0.480254
910.308418	0.479475
910.489544	0.479806
910.670651	0.478877
910.851740	0.478641
911.032810	0.478803
911.213863	0.477991
911.394897	0.477304
911.575913	0.476515
911.756911	0.475724
911.937890	0.474880
912.118851	0.473365
912.299794	0.473101
912.480719	0.471431
912.661626	0.469675
912.842514	0.469219
913.023384	0.468706
913.204236	0.468069
913.385070	0.467575
913.565886	0.467616
913.746683	0.467341
913.927462	0.466490
914.108223	0.466013
914.288965	0.465337
914.469690	0.464572
914.650396	0.464127
914.831084	0.463681
915.011754	0.463365
915.192405	0.462238
915.373038	0.460724
915.553653	0.460236
915.734250	0.459950
915.914829	0.460461
916.095389	0.459969
916.275931	0.459166
916.456455	0.458601
916.636961	0.458028
916.817448	0.457784
916.997917	0.457783
917.178368	0.457127
917.358801	0.456077
917.539216	0.454756
917.719612	0.454327
917.899990	0.454001
918.080350	0.453195
918.260692	0.452274
918.441015	0.450838
918.621320	0.450206
918.801607	0.449439
918.981876	0.449022
919.162127	0.447603
919.342359	0.446657
919.522573	0.445457
919.702769	0.444980
919.882947	0.444306
920.063106	0.443858
920.243247	0.443127
920.423370	0.442429
920.603475	0.441687
920.783562	0.440749
920.963630	0.439879
921.143680	0.439620
921.323712	0.438785
921.503725	0.437744
921.683721	0.437351
921.863698	0.436705
922.043657	0.435318
922.223598	0.434824
922.403520	0.434566
922.583424	0.433697
922.763311	0.432409
922.943178	0.431155
923.123028	0.430356
923.302859	0.428895
923.482673	0.427600
923.662467	0.427207
923.842244	0.426285
924.022003	0.425451
924.201743	0.424725
924.381465	0.423273
924.561169	0.422294
924.740854	0.421344
924.920522	0.420907
925.100171	0.420818
925.279802	0.418893
925.459414	0.417160
925.639009	0.416274
925.818585	0.415444
925.998143	0.414326
926.177683	0.413709
926.357205	0.412431
926.536708	0.411313
926.716193	0.409884
926.895660	0.408964
927.075109	0.408738
927.254539	0.407816
927.433951	0.406320
927.613345	0.406098
927.792721	0.404564
927.972079	0.404042
928.151418	0.402711
928.330739	0.401918
928.510042	0.401534
928.689327	0.400574
928.868593	0.398931
929.047841	0.397741
929.227071	0.396149
929.406283	0.395153
929.585476	0.394388
929.764652	0.394168
929.943809	0.392617
930.122948	0.391447
930.302068	0.390490
930.481171	0.390065
930.660255	0.389472
930.839321	0.388540
931.018369	0.387694
931.197398	0.386432
931.376409	0.385021
931.555402	0.384426
931.734377	0.383369
931.913334	0.381526
932.092272	0.380000
932.271192	0.379494
932.450094	0.378776
932.628978	0.377728
932.807844	0.376315
932.986691	0.375383
933.165520	0.373713
933.344331	0.373244
933.523123	0.372594
933.701898	0.372632
933.880654	0.371190
934.059392	0.370657
934.238111	0.369838
934.416813	0.368099
934.595496	0.366640
934.774161	0.365380
934.952808	0.364152
935.131437	0.362249
935.310047	0.359615
935.488639	0.358515
935.667213	0.357158
935.845769	0.354924
936.024306	0.354024
936.202825	0.352197
936.381326	0.351750
936.559809	0.350846
936.738274	0.349096
936.916720	0.349112
937.095148	0.348241
937.273558	0.346178
937.451950	0.345448
937.630323	0.344793
937.808678	0.344290
937.987015	0.342881
938.165334	0.341124
938.343635	0.341151
938.521917	0.339508
938.700181	0.338052
938.878427	0.337708
939.056655	0.337084
939.234864	0.335067
939.413055	0.333374
939.591228	0.332084
939.769383	0.329658
939.947519	0.327468
940.125638	0.326746
940.303738	0.325659
940.481820	0.323811
940.659883	0.322535
940.837929	0.322312
941.015956	0.321244
941.193965	0.320776
941.371955	0.320771
941.549928	0.320944
941.727882	0.319191
941.905818	0.317216
942.083736	0.316105
942.261636	0.314882
942.439517	0.312717
942.617380	0.311654
942.795225	0.310592
942.973052	0.309553
943.150860	0.307550
943.328651	0.307273
943.506423	0.306428
943.684176	0.304363
943.861912	0.303044
944.039629	0.302610
944.217328	0.301014
944.395009	0.299307
944.572672	0.296763
944.750317	0.295904
944.927943	0.293142
945.105551	0.291617
945.283141	0.290221
945.460712	0.288721
945.638265	0.286798
945.815801	0.285027
945.993317	0.283863
946.170816	0.282793
946.348297	0.281808
946.525759	0.280986
946.703203	0.280192
946.880629	0.280188
947.058036	0.279075
947.235425	0.277818
947.412797	0.278365
947.590149	0.276165
947.767484	0.274718
947.944800	0.272310
948.122099	0.269912
948.299379	0.269372
948.476640	0.268327
948.653884	0.267057
948.831109	0.267046
949.008316	0.264584
949.185505	0.263670
949.362676	0.262787
949.539828	0.262108
949.716962	0.262171
949.894078	0.258530
950.071176	0.255962
950.248256	0.255247
950.425317	0.253962
950.602360	0.253008
950.779385	0.250611
950.956391	0.248328
951.133380	0.247718
951.310350	0.247965
951.487302	0.248511
951.664235	0.249388
951.841151	0.246298
952.018048	0.244868
952.194927	0.243881
952.371788	0.244858
952.548631	0.246888
952.725455	0.246343
952.902261	0.242571
953.079049	0.238591
953.255819	0.236087
953.432570	0.236499
953.609303	0.235905
953.786018	0.235496
953.962715	0.231946
954.139394	0.229959
954.316054	0.228045
954.492696	0.228993
954.669320	0.229892
954.845926	0.227209
955.022513	0.224997
955.199083	0.222440
955.375634	0.220598
955.552166	0.219480
955.728681	0.216759
955.905177	0.214530
956.081655	0.212579
956.258115	0.212213
956.434557	0.212932
956.610980	0.212403
956.787385	0.211651
956.963772	0.210997
957.140141	0.210899
957.316492	0.208442
957.492824	0.208280
957.669138	0.207465
957.845434	0.207264
958.021712	0.207170
958.197971	0.206905
958.374212	0.206629
958.550435	0.206471
958.726640	0.205563
958.902826	0.206706
959.078995	0.207078
959.255145	0.207636
959.431277	0.204778
959.607390	0.202492
959.783486	0.203100
959.959563	0.202486
960.135622	0.201082
960.311662	0.200411
960.487685	0.201228
960.663689	0.200429
960.839675	0.199341
961.015643	0.200380
961.191593	0.198147
961.367524	0.194529
961.543437	0.195235
961.719332	0.194936
961.895209	0.195737
962.071067	0.195226
962.246907	0.195090
962.422730	0.194275
962.598533	0.194288
962.774319	0.196377
962.950086	0.198641
963.125835	0.196143
963.301566	0.194593
963.477279	0.194640
963.652973	0.192491
963.828650	0.189677
964.004308	0.189490
964.179947	0.190892
964.355569	0.190766
964.531172	0.187222
964.706757	0.186696
964.882324	0.188383
965.057873	0.185092
965.233403	0.184216
965.408916	0.183550
965.584410	0.182392
965.759885	0.180017
965.935343	0.179699
966.110782	0.184181
966.286203	0.182463
966.461606	0.177656
966.636991	0.178621
966.812357	0.179544
966.987705	0.180584
967.163035	0.181200
967.338347	0.183769
967.513641	0.183006
967.688916	0.177430
967.864173	0.176344
968.039412	0.179083
968.214632	0.177468
968.389835	0.176640
968.565019	0.177272
968.740185	0.177087
968.915333	0.173910
969.090462	0.175316
969.265573	0.177389
969.440667	0.179494
969.615741	0.178434
969.790798	0.180203
969.965836	0.181131
970.140856	0.179440
970.315858	0.178629
970.490842	0.177906
970.665808	0.177260
970.840755	0.177272
971.015684	0.178471
971.190595	0.182704
971.365487	0.184073
971.540362	0.183003
971.715218	0.182607
971.890056	0.181504
972.064875	0.180872
972.239677	0.181162
972.414460	0.179231
972.589225	0.177842
972.763972	0.173807
972.938700	0.171299
973.113411	0.171076
973.288103	0.171686
973.462777	0.173568
973.637432	0.172888
973.812070	0.172185
973.986689	0.174342
974.161290	0.172990
974.335873	0.173103
974.510437	0.174830
974.684984	0.175949
974.859512	0.176405
975.034022	0.174688
975.208513	0.175603
975.382987	0.175667
975.557442	0.175763
975.731879	0.178319
975.906298	0.177714
976.080698	0.176460
976.255080	0.177088
976.429445	0.175368
976.603790	0.173482
976.778118	0.173765
976.952427	0.173446
977.126719	0.173447
977.300992	0.173738
977.475246	0.175388
977.649483	0.176292
977.823701	0.172816
977.997901	0.172542
978.172083	0.175543
978.346247	0.176225
978.520392	0.177189
978.694519	0.177514
978.868628	0.175787
979.042719	0.174111
979.216791	0.173889
979.390845	0.176242
979.564882	0.179817
979.738899	0.179478
979.912899	0.180576
980.086880	0.178667
980.260843	0.174953
980.434788	0.174192
980.608715	0.173970
980.782623	0.173740
980.956514	0.174471
981.130386	0.173469
981.304240	0.173485
981.478075	0.169765
981.651892	0.170430
981.825692	0.173609
981.999472	0.174486
982.173235	0.176484
982.346980	0.176685
982.520706	0.176379
982.694414	0.176040
982.868104	0.175619
983.041775	0.178190
983.215428	0.178069
983.389064	0.176954
983.562680	0.178591
983.736279	0.176663
983.909860	0.177353
984.083422	0.176889
984.256966	0.178062
984.430491	0.177382
984.603999	0.176571
984.777488	0.177050
984.950959	0.177802
985.124412	0.176343
985.297847	0.175813
985.471263	0.175012
985.644661	0.174398
985.818041	0.174406
985.991403	0.174540
986.164747	0.174027
986.338072	0.172705
986.511379	0.172755
986.684668	0.174564
986.857938	0.176310
987.031191	0.175839
987.204425	0.177454
987.377641	0.175821
987.550839	0.174990
987.724018	0.175729
987.897179	0.178160
988.070322	0.179992
988.243447	0.179211
988.416554	0.179851
988.589642	0.181101
988.762712	0.179024
988.935764	0.179039
989.108798	0.181082
989.281813	0.181131
989.454811	0.179027
989.627790	0.175279
989.800751	0.177162
989.973693	0.175654
990.146617	0.175423
990.319524	0.176346
990.492412	0.177385
990.665281	0.179786
990.838133	0.179568
991.010966	0.180029
991.183781	0.180024
991.356578	0.179150
991.529356	0.180332
991.702117	0.180182
991.874859	0.177453
992.047583	0.176656
992.220288	0.172540
992.392976	0.174393
992.565645	0.175095
992.738296	0.176384
992.910929	0.175154
993.083543	0.174320
993.256139	0.174781
993.428718	0.176641
993.601277	0.175818
993.773819	0.177261
993.946342	0.177428
994.118848	0.176840
994.291335	0.176630
994.463803	0.175582
994.636254	0.176518
994.808686	0.175363
994.981100	0.175479
995.153496	0.175216
995.325874	0.177018
995.498233	0.176367
995.670574	0.175001
995.842897	0.176397
996.015202	0.176957
996.187488	0.177361
996.359757	0.174985
996.532007	0.176331
996.704239	0.177718
996.876452	0.176026
997.048648	0.175933
997.220825	0.177889
997.392984	0.175658
997.565124	0.175705
997.737247	0.173378
997.909351	0.175139
998.081437	0.175111
998.253505	0.173653
998.425554	0.174363
998.597586	0.174753
998.769599	0.172102
998.941594	0.173937
999.113571	0.173794
999.285529	0.174971
999.457469	0.174006
999.629391	0.171775
999.801295	0.173368
999.973181	0.170012
1000.145048	0.169698
1000.316897	0.175066
1000.488728	0.174454
1000.660541	0.173438
1000.832335	0.173211
1001.004111	0.176128
1001.175869	0.179630
1001.347609	0.178833
1001.519331	0.182225
1001.691034	0.180884
1001.862719	0.175979
1002.034386	0.174665
1002.206035	0.176336
1002.377665	0.178252
1002.549277	0.174195
1002.720871	0.171444
1002.892447	0.171638
1003.064004	0.170739
1003.235544	0.171802
1003.407065	0.172015
1003.578568	0.172917
1003.750052	0.173452
1003.921519	0.172361
1004.092967	0.174809
1004.264397	0.175852
1004.435809	0.177073
1004.607202	0.175947
1004.778577	0.172627
1004.949934	0.174421
1005.121273	0.174125
1005.292594	0.171996
1005.463896	0.171023
1005.635180	0.171912
1005.806446	0.172955
1005.977694	0.172722
1006.148923	0.174768
1006.320135	0.177996
1006.491328	0.177531
1006.662503	0.177656
1006.833659	0.176888
1007.004798	0.175270
1007.175918	0.175047
1007.347020	0.172383
1007.518103	0.172735
1007.689169	0.172713
1007.860216	0.171074
1008.031245	0.172334
1008.202256	0.172754
1008.373248	0.173898
1008.544223	0.175294
1008.715179	0.174785
1008.886117	0.175631
1009.057036	0.173870
1009.227938	0.171665
1009.398821	0.171083
1009.569686	0.169577
1009.740533	0.170595
1009.911361	0.172568
1010.082172	0.173868
1010.252964	0.173691
1010.423738	0.173138
1010.594493	0.174559
1010.765231	0.175255
1010.935950	0.177689
1011.106651	0.176596
1011.277334	0.176213
1011.447998	0.175154
1011.618645	0.175685
1011.789273	0.174980
1011.959882	0.175846
1012.130474	0.173713
1012.301048	0.174725
1012.471603	0.174162
1012.642140	0.174412
1012.812658	0.175604
1012.983159	0.174364
1013.153641	0.175238
1013.324105	0.174979
1013.494551	0.175382
1013.664979	0.175039
1013.835388	0.173828
1014.005779	0.174468
1014.176152	0.173761
1014.346507	0.172801
1014.516843	0.173024
1014.687162	0.169845
1014.857462	0.171909
1015.027744	0.173060
1015.198007	0.174522
1015.368252	0.176421
1015.538480	0.173764
1015.708689	0.174339
1015.878879	0.172823
1016.049052	0.173388
1016.219206	0.174402
1016.389342	0.174849
1016.559460	0.172418
1016.729559	0.173817
1016.899641	0.172250
1017.069704	0.175534
1017.239749	0.175304
1017.409775	0.175153
1017.579784	0.175517
1017.749774	0.174744
1017.919746	0.174092
1018.089700	0.176200
1018.259635	0.176689
1018.429553	0.176626
1018.599452	0.174275
1018.769333	0.176504
1018.939195	0.177373
1019.109040	0.176698
1019.278866	0.178361
1019.448674	0.177667
1019.618464	0.176530
1019.788235	0.174796
1019.957989	0.177214
1020.127724	0.177125
1020.297441	0.177917
1020.467139	0.178653
1020.636820	0.177548
1020.806482	0.177438
1020.976126	0.177401
1021.145752	0.178357
1021.315359	0.178664
1021.484948	0.175823
1021.654519	0.176201
1021.824072	0.173617
1021.993607	0.173049
1022.163123	0.174047
1022.332621	0.174007
1022.502101	0.174851
1022.671563	0.172763
1022.841007	0.171964
1023.010432	0.172585
1023.179839	0.170801
1023.349228	0.171032
1023.518598	0.169347
1023.687951	0.170618
1023.857285	0.168420
1024.026601	0.166198
1024.195899	0.166392
1024.365178	0.167091
1024.534439	0.167155
1024.703682	0.168833
1024.872907	0.166504
1025.042114	0.168873
1025.211302	0.168619
1025.380472	0.168788
1025.549624	0.169903
1025.718758	0.170333
1025.887873	0.168673
1026.056970	0.167641
1026.226049	0.167165
1026.395110	0.170727
1026.564153	0.167751
1026.733177	0.168452
1026.902183	0.170970
1027.071171	0.170513
1027.240141	0.170940
1027.409092	0.172177
1027.578026	0.173500
1027.746940	0.173072
1027.915837	0.170791
1028.084716	0.172802
1028.253576	0.169580
1028.422418	0.168293
1028.591242	0.168170
1028.760048	0.168125
1028.928835	0.167619
1029.097604	0.166882
1029.266355	0.167650
1029.435088	0.169715
1029.603803	0.169580
1029.772499	0.171364
1029.941177	0.170849
1030.109837	0.171878
1030.278478	0.171145
1030.447102	0.171796
1030.615707	0.172119
1030.784294	0.169886
1030.952863	0.168881
1031.121413	0.167814
1031.289945	0.168071
1031.458460	0.168020
1031.626955	0.169559
1031.795433	0.170398
1031.963892	0.170706
1032.132334	0.170345
1032.300756	0.174002
1032.469161	0.175281
1032.637548	0.176534
1032.805916	0.177383
1032.974266	0.176602
1033.142598	0.173742
1033.310911	0.173706
1033.479207	0.172791
1033.647484	0.174321
1033.815743	0.172344
1033.983983	0.170840
1034.152206	0.172041
1034.320410	0.172506
1034.488596	0.173202
1034.656764	0.172530
1034.824914	0.171479
1034.993045	0.170385
1035.161158	0.169388
1035.329253	0.168305
1035.497330	0.168889
1035.665388	0.168480
1035.833428	0.166918
1036.001450	0.166759
1036.169454	0.167154
1036.337440	0.168691
1036.505407	0.169790
1036.673356	0.169638
1036.841287	0.171939
1037.009200	0.174140
1037.177094	0.174613
1037.344970	0.175638
1037.512828	0.176318
1037.680668	0.175349
1037.848489	0.175755
1038.016293	0.176299
1038.184078	0.177352
1038.351845	0.177747
1038.519593	0.175591
1038.687324	0.173420
1038.855036	0.173580
1039.022730	0.174984
1039.190406	0.180334
1039.358063	0.181470
1039.525702	0.181753
1039.693323	0.180560
1039.860926	0.180204
1040.028511	0.180149
1040.196077	0.178920
1040.363625	0.176444
1040.531155	0.175605
1040.698667	0.173667
1040.866161	0.171796
1041.033636	0.171685
1041.201093	0.172430
1041.368532	0.170344
1041.535952	0.169744
1041.703355	0.171209
1041.870739	0.171580
1042.038105	0.171117
1042.205452	0.169073
1042.372782	0.170600
1042.540093	0.169514
1042.707386	0.168206
1042.874661	0.168847
1043.041918	0.169155
1043.209156	0.168360
1043.376376	0.168441
1043.543578	0.167582
1043.710762	0.169152
1043.877927	0.167045
1044.045074	0.167408
1044.212203	0.166458
1044.379314	0.168445
1044.546407	0.168419
1044.713481	0.169780
1044.880537	0.169254
1045.047575	0.170875
1045.214595	0.169574
1045.381596	0.169255
1045.548579	0.169144
1045.715544	0.169063
1045.882491	0.168613
1046.049420	0.169413
1046.216330	0.169742
1046.383222	0.171517
1046.550096	0.170221
1046.716951	0.170210
1046.883789	0.169569
1047.050608	0.168978
1047.217409	0.171090
1047.384192	0.172149
1047.550956	0.170863
1047.717703	0.168650
1047.884431	0.167375
1048.051140	0.167519
1048.217832	0.167106
1048.384505	0.168159
1048.551161	0.168863
1048.717798	0.169523
1048.884416	0.169640
1049.051017	0.170297
1049.217599	0.172143
1049.384163	0.172583
1049.550709	0.173004
1049.717237	0.175199
1049.883746	0.176388
1050.050237	0.176971
1050.216710	0.174623
1050.383165	0.172112
1050.549601	0.171124
1050.716019	0.170794
1050.882420	0.171706
1051.048801	0.170823
1051.215165	0.170231
1051.381510	0.168538
1051.547837	0.168287
1051.714146	0.167260
1051.880437	0.167182
1052.046709	0.169411
1052.212964	0.168604
1052.379200	0.167633
1052.545417	0.168918
1052.711617	0.169165
1052.877798	0.170184
1053.043961	0.171045
1053.210106	0.170692
1053.376233	0.170784
1053.542341	0.170602
1053.708432	0.171100
1053.874504	0.171744
1054.040557	0.170420
1054.206593	0.169235
1054.372610	0.167251
1054.538609	0.167095
1054.704590	0.170213
1054.870553	0.171929
1055.036497	0.171825
1055.202424	0.172151
1055.368331	0.171309
1055.534221	0.171075
1055.700093	0.171296
1055.865946	0.173891
1056.031781	0.174355
1056.197598	0.174081
1056.363397	0.173416
1056.529177	0.172276
1056.694939	0.173105
1056.860683	0.173985
1057.026409	0.174526
1057.192116	0.173960
1057.357806	0.172746
1057.523477	0.171314
1057.689130	0.173445
1057.854764	0.174612
1058.020381	0.176232
1058.185979	0.175488
1058.351559	0.176283
1058.517120	0.176887
1058.682664	0.176802
1058.848189	0.179177
1059.013696	0.180424
1059.179185	0.177107
1059.344656	0.177593
1059.510108	0.176915
1059.675542	0.176667
1059.840958	0.174165
1060.006356	0.176401
1060.171735	0.178006
1060.337096	0.173228
1060.502439	0.173240
1060.667764	0.171214
1060.833071	0.167743
1060.998359	0.165185
1061.163629	0.165224
1061.328881	0.167490
1061.494115	0.165759
1061.659330	0.163432
1061.824527	0.164764
1061.989706	0.165009
1062.154867	0.166924
1062.320010	0.167353
1062.485134	0.169560
1062.650240	0.169588
1062.815328	0.168990
1062.980398	0.167550
1063.145449	0.169426
1063.310482	0.171498
1063.475497	0.172095
1063.640494	0.171880
1063.805473	0.172592
1063.970433	0.172470
1064.135375	0.171827
1064.300299	0.170991
1064.465204	0.171449
1064.630092	0.173051
1064.794961	0.172157
1064.959812	0.171834
1065.124645	0.173199
1065.289459	0.172336
1065.454256	0.171826
1065.619034	0.174318
1065.783793	0.174079
1065.948535	0.176099
1066.113258	0.172986
1066.277964	0.172419
1066.442651	0.173088
1066.607319	0.174621
1066.771970	0.176274
1066.936602	0.178171
1067.101216	0.178167
1067.265812	0.179932
1067.430389	0.177654
1067.594949	0.179940
1067.759490	0.181810
1067.924013	0.180268
1068.088518	0.180900
1068.253004	0.181636
1068.417472	0.181063
1068.581922	0.179036
1068.746354	0.179522
1068.910768	0.180369
1069.075163	0.181505
1069.239540	0.180758
1069.403899	0.180581
1069.568240	0.178698
1069.732562	0.178375
1069.896866	0.175541
1070.061152	0.176938
1070.225420	0.174433
1070.389670	0.174965
1070.553901	0.172967
1070.718114	0.171114
1070.882309	0.171507
1071.046486	0.171553
1071.210644	0.170547
1071.374784	0.172798
1071.538906	0.171076
1071.703010	0.170655
1071.867096	0.170051
1072.031163	0.169953
1072.195212	0.170984
1072.359243	0.171550
1072.523256	0.170116
1072.687250	0.171049
1072.851226	0.171461
1073.015184	0.174368
1073.179124	0.177950
1073.343045	0.177310
1073.506949	0.178084
1073.670834	0.178326
1073.834701	0.176914
1073.998549	0.180760
1074.162380	0.181506
1074.326192	0.182094
1074.489986	0.182232
1074.653761	0.179532
1074.817519	0.179178
1074.981258	0.176120
1075.144979	0.177527
1075.308682	0.175937
1075.472367	0.172888
1075.636033	0.173894
1075.799681	0.175645
1075.963311	0.174056
1076.126923	0.176590
1076.290516	0.175648
1076.454092	0.179806
1076.617649	0.181179
1076.781187	0.183879
1076.944708	0.183365
1077.108210	0.182849
1077.271695	0.180408
1077.435160	0.177866
1077.598608	0.177308
1077.762038	0.182036
1077.925449	0.182753
1078.088842	0.184434
1078.252217	0.186328
1078.415573	0.188097
1078.578912	0.188232
1078.742232	0.189647
1078.905534	0.191428
1079.068817	0.189206
1079.232083	0.185823
1079.395330	0.183646
1079.558559	0.180738
1079.721770	0.180379
1079.884962	0.180749
1080.048136	0.181594
1080.211293	0.179665
1080.374430	0.179515
1080.537550	0.183574
1080.700651	0.183608
1080.863735	0.186203
1081.026800	0.185132
1081.189846	0.184680
1081.352875	0.185009
1081.515885	0.182310
1081.678877	0.183866
1081.841851	0.186340
1082.004807	0.182895
1082.167744	0.182031
1082.330663	0.180708
1082.493564	0.183278
1082.656447	0.182588
1082.819312	0.180440
1082.982158	0.178904
1083.144986	0.178479
1083.307796	0.179800
1083.470587	0.179311
1083.633361	0.179431
1083.796116	0.179603
1083.958853	0.179664
1084.121571	0.182957
1084.284272	0.186150
1084.446954	0.189191
1084.609618	0.188653
1084.772264	0.185214
1084.934892	0.185572
1085.097501	0.187937
1085.260092	0.186172
1085.422665	0.184406
1085.585220	0.181921
1085.747756	0.181833
1085.910274	0.181220
1086.072774	0.180212
1086.235256	0.181207
1086.397720	0.183247
1086.560165	0.181806
1086.722592	0.183517
1086.885001	0.183591
1087.047392	0.181875
1087.209764	0.181479
1087.372119	0.181710
1087.534455	0.185249
1087.696772	0.183555
1087.859072	0.183824
1088.021353	0.186312
1088.183616	0.185918
1088.345861	0.184609
1088.508088	0.186508
1088.670296	0.185039
1088.832486	0.184986
1088.994658	0.185970
1089.156812	0.190110
1089.318948	0.189667
1089.481065	0.190414
1089.643164	0.192412
1089.805245	0.192038
1089.967308	0.190529
1090.129352	0.190916
1090.291378	0.193554
1090.453386	0.188414
1090.615376	0.188763
1090.777347	0.189693
1090.939301	0.189288
1091.101236	0.189530
1091.263153	0.190439
1091.425051	0.193175
1091.586932	0.193885
1091.748794	0.192211
1091.910638	0.197422
1092.072463	0.195375
1092.234271	0.197986
1092.396060	0.197118
1092.557831	0.191437
1092.719584	0.195559
1092.881319	0.191108
1093.043035	0.189085
1093.204733	0.186591
1093.366413	0.185100
1093.528075	0.186260
1093.689718	0.184976
1093.851343	0.186254
1094.012950	0.186951
1094.174539	0.182675
1094.336110	0.186152
1094.497662	0.186887
1094.659196	0.191631
1094.820712	0.192327
1094.982210	0.188917
1095.143689	0.188746
1095.305151	0.189174
1095.466594	0.191405
1095.628018	0.195597
1095.789425	0.198998
1095.950813	0.203139
1096.112183	0.200456
1096.273535	0.194585
1096.434869	0.197096
1096.596184	0.194332
1096.757482	0.193091
1096.918761	0.195664
1097.080021	0.194633
1097.241264	0.190792
1097.402488	0.188353
1097.563694	0.191474
1097.724882	0.194791
1097.886052	0.193374
1098.047203	0.195121
1098.208336	0.195911
1098.369451	0.196395
1098.530548	0.193029
1098.691627	0.189809
1098.852687	0.189869
1099.013729	0.186273
1099.174753	0.188769
1099.335758	0.190361
1099.496746	0.194653
1099.657715	0.193449
1099.818666	0.191289
1099.979599	0.192568
1100.140513	0.194959
1100.301409	0.196982
1100.462287	0.198134
1100.623147	0.198704
1100.783989	0.203136
1100.944812	0.196785
1101.105617	0.198043
1101.266404	0.197206
1101.427173	0.198319
1101.587923	0.201195
1101.748656	0.201496
1101.909370	0.199496
1102.070066	0.197735
1102.230743	0.189746
1102.391403	0.190576
1102.552044	0.191710
1102.712667	0.193935
1102.873271	0.194306
1103.033858	0.192720
1103.194426	0.191265
1103.354976	0.193054
1103.515508	0.193895
1103.676021	0.198164
1103.836517	0.199013
1103.996994	0.196839
1104.157453	0.198040
1104.317893	0.199727
1104.478316	0.203117
1104.638720	0.202036
1104.799106	0.204865
1104.959474	0.203072
1105.119823	0.200765
1105.280155	0.200000
1105.440468	0.202650
1105.600763	0.200028
1105.761039	0.197608
1105.921298	0.198038
1106.081538	0.196779
1106.241760	0.194641
1106.401964	0.194425
1106.562149	0.198257
1106.722316	0.203414
1106.882465	0.203912
1107.042596	0.206239
1107.202709	0.210053
1107.362803	0.207514
1107.522879	0.211114
1107.682937	0.217130
1107.842977	0.218363
1108.002999	0.215865
1108.163002	0.210884
1108.322987	0.206097
1108.482954	0.206864
1108.642902	0.201478
1108.802833	0.199364
1108.962745	0.196171
1109.122639	0.189812
1109.282515	0.188643
1109.442372	0.194087
1109.602211	0.194251
1109.762032	0.196024
1109.921835	0.192022
1110.081620	0.195910
1110.241386	0.196021
1110.401134	0.197379
1110.560864	0.194134
1110.720576	0.196394
1110.880269	0.192352
1111.039945	0.188801
1111.199602	0.187243
1111.359240	0.186749
1111.518861	0.185864
1111.678463	0.186717
1111.838047	0.190290
1111.997613	0.192694
1112.157161	0.193886
1112.316690	0.193858
1112.476202	0.201763
1112.635695	0.208643
1112.795169	0.210878
1112.954626	0.212663
1113.114064	0.206725
1113.273484	0.206349
1113.432886	0.211063
1113.592270	0.213082
1113.751635	0.211428
1113.910983	0.210249
1114.070312	0.208256
1114.229622	0.213440
1114.388915	0.213958
1114.548189	0.224404
1114.707445	0.223059
1114.866683	0.221884
1115.025903	0.214456
1115.185104	0.214382
1115.344287	0.217802
1115.503452	0.212597
1115.662599	0.210000
1115.821727	0.209082
1115.980838	0.211005
1116.139930	0.215239
1116.299004	0.216243
1116.458059	0.220224
1116.617097	0.224666
1116.776116	0.218735
1116.935117	0.227394
1117.094099	0.229583
1117.253064	0.228243
1117.412010	0.225372
1117.570938	0.218607
1117.729848	0.217695
1117.888740	0.219928
1118.047613	0.220257
1118.206468	0.226594
1118.365305	0.222195
1118.524124	0.222378
1118.682924	0.229255
1118.841707	0.226897
1119.000471	0.228810
1119.159216	0.229203
1119.317944	0.230959
1119.476653	0.229483
1119.635344	0.226275
1119.794017	0.223146
1119.952672	0.220420
1120.111308	0.216331
1120.269927	0.216836
1120.428527	0.213454
1120.587108	0.211377
1120.745672	0.204899
1120.904217	0.206502
1121.062744	0.204050
1121.221253	0.205409
1121.379744	0.200501
1121.538216	0.194218
1121.696671	0.201533
1121.855107	0.207327
1122.013524	0.209023
1122.171924	0.217684
1122.330305	0.215078
1122.488668	0.217359
1122.647013	0.215992
1122.805340	0.218060
1122.963648	0.226832
1123.121938	0.216735
1123.280210	0.215084
1123.438464	0.213769
1123.596700	0.207039
1123.754917	0.206176
1123.913116	0.210331
1124.071297	0.212428
1124.229459	0.214973
1124.387604	0.215882
1124.545730	0.214004
1124.703838	0.214694
1124.861928	0.212188
1125.019999	0.216302
1125.178052	0.219449
1125.336088	0.211203
1125.494104	0.210540
1125.652103	0.216700
1125.810083	0.211878
1125.968045	0.217179
1126.125989	0.221471
1126.283915	0.226412
1126.441823	0.231605
1126.599712	0.230215
1126.757583	0.233217
1126.915436	0.236733
1127.073270	0.235383
1127.231087	0.238683
1127.388885	0.241769
1127.546665	0.236661
1127.704426	0.229508
1127.862170	0.225063
1128.019895	0.225571
1128.177602	0.221068
1128.335291	0.217690
1128.492961	0.215530
1128.650614	0.216584
1128.808248	0.211576
1128.965864	0.214880
1129.123461	0.232936
1129.281041	0.231598
1129.438602	0.239662
1129.596145	0.255443
1129.753670	0.257957
1129.911176	0.256259
1130.068665	0.254067
1130.226135	0.248855
1130.383587	0.242493
1130.541020	0.226318
1130.698436	0.220565
1130.855833	0.205824
1131.013212	0.198859
1131.170573	0.194130
1131.327915	0.187799
1131.485239	0.183967
1131.642545	0.184781
1131.799833	0.183102
1131.957103	0.180175
1132.114354	0.188571
1132.271588	0.198180
1132.428803	0.196164
1132.585999	0.198629
1132.743178	0.204912
1132.900338	0.203229
1133.057480	0.204638
1133.214604	0.211178
1133.371710	0.228874
1133.528797	0.223941
1133.685866	0.217027
1133.842917	0.219133
1133.999950	0.219411
1134.156964	0.216638
1134.313960	0.223014
1134.470938	0.225482
1134.627898	0.218345
1134.784840	0.203593
1134.941763	0.203952
1135.098668	0.204483
1135.255555	0.201268
1135.412424	0.203000
1135.569274	0.204838
1135.726107	0.201917
1135.882921	0.203581
1136.039716	0.207816
1136.196494	0.209637
1136.353253	0.205583
1136.509995	0.215657
1136.666717	0.219080
1136.823422	0.215051
1136.980109	0.218203
1137.136777	0.217698
1137.293427	0.210632
1137.450059	0.214738
1137.606672	0.217342
1137.763267	0.227171
1137.919844	0.222888
1138.076403	0.224783
1138.232944	0.231598
1138.389466	0.228413
1138.545971	0.230598
1138.702457	0.236169
1138.858924	0.240708
1139.015374	0.244418
1139.171805	0.237881
1139.328218	0.234012
1139.484613	0.233402
1139.640990	0.234994
1139.797348	0.245243
1139.953688	0.252062
1140.110010	0.253230
1140.266314	0.243689
1140.422600	0.238325
1140.578867	0.236876
1140.735116	0.247032
1140.891347	0.239689
1141.047559	0.226866
1141.203754	0.222255
1141.359930	0.223202
1141.516088	0.227271
1141.672228	0.222913
1141.828349	0.224016
1141.984452	0.222466
1142.140537	0.210318
1142.296604	0.212403
1142.452653	0.219287
1142.608683	0.213716
1142.764695	0.208531
1142.920689	0.199263
1143.076665	0.205386
1143.232622	0.208451
1143.388562	0.212360
1143.544483	0.221066
1143.700385	0.223620
1143.856270	0.226666
1144.012136	0.229064
1144.167985	0.227514
1144.323814	0.238630
1144.479626	0.240237
1144.635420	0.240944
1144.791195	0.240458
1144.946952	0.225802
1145.102691	0.227792
1145.258411	0.222947
1145.414113	0.227567
1145.569798	0.231404
1145.725463	0.232890
1145.881111	0.236576
1146.036741	0.235357
1146.192352	0.238781
1146.347945	0.244573
1146.503519	0.239552
1146.659076	0.249406
1146.814614	0.244692
1146.970134	0.245056
1147.125636	0.238190
1147.281120	0.235357
1147.436585	0.229046
1147.592032	0.226861
1147.747461	0.233106
1147.902872	0.235637
1148.058265	0.231170
1148.213639	0.217424
1148.368995	0.211946
1148.524333	0.215829
1148.679653	0.211176
1148.834954	0.220262
1148.990237	0.223455
1149.145502	0.220765
1149.300749	0.228152
1149.455977	0.238646
1149.611188	0.245949
1149.766380	0.250317
1149.921553	0.249733
1150.076709	0.257889
1150.231846	0.259807
1150.386966	0.255504
1150.542066	0.253185
1150.697149	0.243709
1150.852214	0.226599
1151.007260	0.230862
1151.162288	0.229784
1151.317298	0.230504
1151.472289	0.223626
1151.627263	0.212215
1151.782218	0.212689
1151.937155	0.219938
1152.092073	0.225758
1152.246974	0.223876
1152.401856	0.225318
1152.556720	0.228966
1152.711566	0.224237
1152.866393	0.225567
1153.021203	0.231256
1153.175994	0.225894
1153.330767	0.226004
1153.485521	0.218892
1153.640258	0.226887
1153.794976	0.223245
1153.949676	0.229464
1154.104358	0.235216
1154.259021	0.225074
1154.413667	0.230264
1154.568294	0.235062
1154.722903	0.223444
1154.877493	0.212482
1155.032066	0.216586
1155.186620	0.217709
1155.341156	0.206985
1155.495674	0.200142
1155.650173	0.207408
1155.804654	0.196102
1155.959118	0.199664
1156.113562	0.210184
1156.267989	0.214687
1156.422397	0.211869
1156.576788	0.220892
1156.731160	0.228074
1156.885513	0.235306
1157.039849	0.228813
1157.194166	0.235522
1157.348465	0.234573
1157.502746	0.237165
1157.657009	0.248887
1157.811253	0.244090
1157.965479	0.239471
1158.119687	0.236000
1158.273877	0.233809
1158.428048	0.238851
1158.582201	0.233480
1158.736337	0.235033
1158.890453	0.221740
1159.044552	0.223312
1159.198632	0.232169
1159.352694	0.223348
1159.506738	0.221169
1159.660764	0.221636
1159.814771	0.220873
1159.968761	0.224167
1160.122732	0.213802
1160.276685	0.222526
1160.430619	0.212400
1160.584535	0.201947
1160.738434	0.205890
1160.892313	0.212352
1161.046175	0.193592
1161.200019	0.207209
1161.353844	0.206609
1161.507651	0.207726
1161.661440	0.209341
1161.815210	0.220096
1161.968962	0.231858
1162.122697	0.234387
1162.276412	0.227463
1162.430110	0.256084
1162.583789	0.250575
1162.737451	0.254181
1162.891094	0.258339
1163.044718	0.252417
1163.198325	0.238681
1163.351913	0.220995
1163.505483	0.220151
1163.659035	0.227629
1163.812569	0.200584
1163.966084	0.208404
1164.119581	0.204116
1164.273060	0.204801
1164.426521	0.206927
1164.579964	0.212590
1164.733388	0.214417
1164.886794	0.224053
1165.040182	0.211546
1165.193551	0.225643
1165.346903	0.211356
1165.500236	0.212820
1165.653551	0.229837
1165.806848	0.227953
1165.960126	0.218681
1166.113386	0.222756
1166.266628	0.213628
1166.419852	0.216310
1166.573058	0.220609
1166.726245	0.210119
1166.879414	0.214219
1167.032565	0.189605
1167.185698	0.187107
1167.338812	0.195882
1167.491909	0.196239
1167.644987	0.192414
1167.798046	0.215242
1167.951088	0.211631
1168.104111	0.200800
1168.257117	0.197660
1168.410103	0.205321
1168.563072	0.215716
1168.716023	0.233128
1168.868955	0.238962
1169.021869	0.239706
1169.174765	0.201682
1169.327642	0.201823
1169.480501	0.228168
1169.633343	0.232140
1169.786165	0.230280
1169.938970	0.222207
1170.091757	0.221367
1170.244525	0.216852
1170.397275	0.220184
1170.550007	0.227565
1170.702720	0.240881
1170.855415	0.252867
1171.008092	0.238907
1171.160751	0.231867
1171.313392	0.223715
1171.466014	0.366718
1171.618619	0.146134
1171.771205	0.146134
1171.923772	0.146134
