sample name	sample
index	854
start time	 04-08-2021  10:59:51 AM


Wavelength (nm)	Absorbance
494.344910	-0.085182
494.563924	-0.085182
494.782919	-0.085182
495.001897	-0.042727
495.220856	-0.035854
495.439797	-0.021812
495.658719	-0.017720
495.877624	-0.017238
496.096510	-0.014198
496.315378	-0.024276
496.534227	-0.025678
496.753059	-0.021607
496.971872	-0.022340
497.190667	0.047250
497.409444	0.074015
497.628203	0.084279
497.846943	0.088677
498.065665	0.092289
498.284369	0.094567
498.503055	0.098471
498.721723	0.099067
498.940372	0.099061
499.159003	0.099224
499.377616	0.099869
499.596210	0.100441
499.814787	0.101675
500.033345	0.101824
500.251885	0.102659
500.470406	0.100842
500.688910	0.101424
500.907395	0.102286
501.125862	0.102243
501.344311	0.102106
501.562742	0.102729
501.781154	0.102698
501.999548	0.103321
502.217924	0.103012
502.436282	0.103715
502.654621	0.103413
502.872942	0.103500
503.091245	0.103634
503.309530	0.104018
503.527797	0.103523
503.746045	0.104120
503.964275	0.103734
504.182487	0.104045
504.400681	0.103981
504.618856	0.104756
504.837013	0.105340
505.055152	0.105274
505.273273	0.104396
505.491376	0.105144
505.709460	0.104726
505.927526	0.104638
506.145574	0.104905
506.363604	0.104828
506.581615	0.104375
506.799608	0.104777
507.017583	0.105259
507.235540	0.105323
507.453478	0.104341
507.671399	0.104405
507.889301	0.105222
508.107185	0.105510
508.325050	0.105816
508.542898	0.106468
508.760727	0.106149
508.978538	0.106682
509.196330	0.107532
509.414105	0.108130
509.631861	0.108549
509.849599	0.108736
510.067319	0.109517
510.285021	0.110480
510.502704	0.110800
510.720369	0.111063
510.938016	0.111090
511.155645	0.111446
511.373255	0.111099
511.590848	0.111186
511.808422	0.111641
512.025977	0.111162
512.243515	0.110952
512.461034	0.110750
512.678536	0.110950
512.896018	0.110723
513.113483	0.111047
513.330930	0.111213
513.548358	0.111254
513.765768	0.110720
513.983160	0.110627
514.200533	0.110605
514.417889	0.110571
514.635226	0.110209
514.852545	0.110918
515.069845	0.111169
515.287128	0.112552
515.504392	0.113197
515.721638	0.113257
515.938866	0.113489
516.156075	0.114678
516.373267	0.115701
516.590440	0.116194
516.807594	0.116123
517.024731	0.115670
517.241850	0.116149
517.458950	0.115547
517.676032	0.116049
517.893095	0.116274
518.110141	0.116188
518.327168	0.116457
518.544177	0.116896
518.761168	0.116654
518.978141	0.116699
519.195095	0.115977
519.412031	0.117294
519.628949	0.117267
519.845849	0.118042
520.062731	0.117652
520.279594	0.117634
520.496439	0.117021
520.713266	0.117440
520.930074	0.117640
521.146865	0.118511
521.363637	0.118559
521.580391	0.119089
521.797127	0.118718
522.013844	0.118997
522.230543	0.119225
522.447224	0.120112
522.663887	0.119960
522.880532	0.120044
523.097158	0.119740
523.313766	0.119713
523.530356	0.119384
523.746928	0.119444
523.963481	0.119386
524.180017	0.119181
524.396534	0.119282
524.613032	0.120882
524.829513	0.121330
525.045975	0.122188
525.262420	0.122169
525.478845	0.122462
525.695253	0.122931
525.911643	0.123460
526.128014	0.123645
526.344367	0.123810
526.560702	0.123700
526.777018	0.123993
526.993316	0.123669
527.209597	0.123467
527.425858	0.123763
527.642102	0.124099
527.858328	0.123918
528.074535	0.124699
528.290724	0.125302
528.506894	0.125754
528.723047	0.126581
528.939181	0.126875
529.155297	0.127258
529.371395	0.128109
529.587475	0.128618
529.803536	0.128953
530.019579	0.129314
530.235604	0.129486
530.451611	0.129210
530.667600	0.129617
530.883570	0.129924
531.099522	0.130945
531.315456	0.131117
531.531372	0.131310
531.747269	0.131380
531.963148	0.131470
532.179009	0.131597
532.394852	0.132013
532.610676	0.131594
532.826482	0.131773
533.042271	0.131602
533.258040	0.131304
533.473792	0.131522
533.689525	0.132332
533.905240	0.132647
534.120937	0.133236
534.336616	0.133712
534.552277	0.134663
534.767919	0.135179
534.983543	0.135648
535.199149	0.136313
535.414736	0.136143
535.630306	0.136229
535.845857	0.136553
536.061390	0.136811
536.276904	0.136843
536.492401	0.136816
536.707879	0.136470
536.923339	0.136914
537.138781	0.137105
537.354204	0.137595
537.569610	0.137899
537.784997	0.137892
538.000366	0.137985
538.215716	0.137598
538.431049	0.137775
538.646363	0.138487
538.861659	0.138944
539.076937	0.139277
539.292196	0.139729
539.507438	0.140064
539.722661	0.140373
539.937866	0.140818
540.153052	0.141369
540.368221	0.141004
540.583371	0.141144
540.798503	0.141060
541.013617	0.141440
541.228712	0.141424
541.443789	0.141515
541.658848	0.142263
541.873889	0.142450
542.088912	0.142736
542.303916	0.143573
542.518902	0.143833
542.733870	0.144270
542.948820	0.144357
543.163752	0.144666
543.378665	0.145226
543.593560	0.144970
543.808437	0.144945
544.023295	0.145636
544.238136	0.145591
544.452958	0.145881
544.667762	0.145940
544.882548	0.146515
545.097315	0.146952
545.312064	0.147396
545.526795	0.147552
545.741508	0.147871
545.956203	0.147225
546.170879	0.147606
546.385537	0.147744
546.600177	0.148112
546.814799	0.148375
547.029402	0.148698
547.243988	0.148428
547.458555	0.148749
547.673103	0.148907
547.887634	0.150237
548.102146	0.150719
548.316640	0.151325
548.531116	0.151321
548.745574	0.151635
548.960013	0.151796
549.174435	0.152203
549.388838	0.152632
549.603222	0.152632
549.817589	0.152380
550.031937	0.153047
550.246267	0.152843
550.460579	0.152947
550.674873	0.152508
550.889148	0.152789
551.103405	0.152710
551.317644	0.152690
551.531865	0.153298
551.746068	0.153617
551.960252	0.152615
552.174418	0.152897
552.388566	0.153172
552.602696	0.153366
552.816807	0.152905
553.030900	0.153272
553.244975	0.153357
553.459032	0.153302
553.673070	0.153389
553.887091	0.154603
554.101093	0.154873
554.315077	0.154922
554.529042	0.155427
554.742990	0.155719
554.956919	0.155777
555.170830	0.155768
555.384722	0.156373
555.598597	0.156383
555.812453	0.155823
556.026291	0.155920
556.240111	0.156029
556.453913	0.155785
556.667696	0.156350
556.881461	0.156788
557.095208	0.157528
557.308937	0.157652
557.522647	0.157583
557.736339	0.158058
557.950013	0.158271
558.163669	0.158812
558.377307	0.159214
558.590926	0.159114
558.804527	0.159048
559.018110	0.158731
559.231675	0.158854
559.445221	0.158909
559.658749	0.159071
559.872259	0.159238
560.085751	0.158877
560.299225	0.159056
560.512680	0.159137
560.726117	0.159370
560.939536	0.159717
561.152937	0.159579
561.366319	0.160164
561.579683	0.160289
561.793029	0.160672
562.006357	0.161103
562.219667	0.161581
562.432958	0.162151
562.646231	0.162108
562.859486	0.162289
563.072723	0.162407
563.285941	0.163048
563.499141	0.163480
563.712323	0.163440
563.925487	0.163762
564.138632	0.163526
564.351760	0.163151
564.564869	0.163855
564.777960	0.163983
564.991032	0.164409
565.204087	0.164414
565.417123	0.164165
565.630141	0.164412
565.843140	0.164711
566.056122	0.165253
566.269085	0.165666
566.482030	0.165215
566.694957	0.165246
566.907866	0.165410
567.120756	0.165127
567.333628	0.165708
567.546482	0.165644
567.759318	0.165623
567.972135	0.165767
568.184935	0.166001
568.397716	0.166711
568.610478	0.167101
568.823223	0.167003
569.035949	0.167475
569.248657	0.167217
569.461347	0.167262
569.674019	0.167396
569.886672	0.167199
570.099308	0.167107
570.311925	0.167178
570.524523	0.167329
570.737104	0.167383
570.949666	0.167372
571.162210	0.167404
571.374736	0.167303
571.587244	0.167632
571.799733	0.167756
572.012205	0.167999
572.224658	0.167963
572.437092	0.167880
572.649509	0.167969
572.861907	0.167947
573.074287	0.168358
573.286649	0.168640
573.498993	0.168489
573.711318	0.168895
573.923625	0.168922
574.135914	0.168886
574.348185	0.169070
574.560438	0.169486
574.772672	0.169578
574.984888	0.169474
575.197086	0.169855
575.409266	0.170269
575.621427	0.170292
575.833570	0.170809
576.045695	0.171230
576.257802	0.171270
576.469890	0.171578
576.681961	0.171777
576.894013	0.172071
577.106046	0.171939
577.318062	0.171928
577.530059	0.171841
577.742039	0.171713
577.954000	0.171898
578.165942	0.172146
578.377867	0.172099
578.589773	0.172323
578.801661	0.172341
579.013531	0.172535
579.225382	0.172538
579.437216	0.172649
579.649031	0.172984
579.860828	0.172885
580.072606	0.172881
580.284367	0.172562
580.496109	0.172470
580.707833	0.172700
580.919539	0.172692
581.131227	0.172378
581.342896	0.172454
581.554547	0.172319
581.766180	0.172484
581.977795	0.172620
582.189391	0.172959
582.400969	0.173195
582.612529	0.173136
582.824071	0.173708
583.035595	0.174321
583.247100	0.174596
583.458587	0.174961
583.670056	0.174988
583.881506	0.175554
584.092939	0.175839
584.304353	0.176134
584.515749	0.176278
584.727127	0.176368
584.938486	0.176480
585.149828	0.176623
585.361151	0.176733
585.572456	0.176752
585.783742	0.176799
585.995011	0.176734
586.206261	0.176764
586.417493	0.176971
586.628706	0.177235
586.839902	0.177333
587.051079	0.177810
587.262238	0.177825
587.473379	0.178029
587.684502	0.177949
587.895606	0.178470
588.106692	0.178775
588.317760	0.178955
588.528810	0.178967
588.739841	0.179147
588.950855	0.178725
589.161850	0.178967
589.372827	0.179265
589.583785	0.179499
589.794726	0.179340
590.005648	0.179336
590.216552	0.179715
590.427437	0.179673
590.638305	0.179866
590.849154	0.180005
591.059985	0.180000
591.270798	0.179734
591.481592	0.180087
591.692369	0.180116
591.903127	0.180240
592.113867	0.179958
592.324588	0.180001
592.535292	0.179861
592.745977	0.180341
592.956644	0.180719
593.167293	0.181104
593.377923	0.181116
593.588536	0.181769
593.799130	0.181592
594.009706	0.182245
594.220263	0.182676
594.430803	0.182951
594.641324	0.183072
594.851827	0.183208
595.062312	0.183275
595.272778	0.183382
595.483227	0.183262
595.693657	0.183792
595.904069	0.183451
596.114462	0.183625
596.324838	0.183799
596.535195	0.183734
596.745534	0.183782
596.955855	0.184071
597.166157	0.184228
597.376441	0.184207
597.586707	0.183992
597.796955	0.184185
598.007185	0.184015
598.217396	0.184365
598.427589	0.184568
598.637764	0.184963
598.847921	0.185137
599.058060	0.185011
599.268180	0.185400
599.478282	0.185761
599.688366	0.186197
599.898431	0.186658
600.108479	0.186590
600.318508	0.186649
600.528519	0.186778
600.738511	0.186804
600.948486	0.187096
601.158442	0.187176
601.368380	0.187083
601.578300	0.187074
601.788202	0.186763
601.998085	0.186983
602.207950	0.187157
602.417797	0.186643
602.627626	0.186828
602.837436	0.186905
603.047228	0.186925
603.257002	0.187705
603.466758	0.187767
603.676496	0.187844
603.886215	0.187839
604.095916	0.188424
604.305599	0.189068
604.515264	0.188960
604.724910	0.188843
604.934538	0.188848
605.144148	0.188313
605.353740	0.188547
605.563314	0.188885
605.772869	0.189288
605.982406	0.188822
606.191925	0.188561
606.401425	0.188668
606.610908	0.189082
606.820372	0.189284
607.029818	0.189893
607.239246	0.189945
607.448655	0.190120
607.658047	0.190014
607.867420	0.190359
608.076775	0.190649
608.286111	0.190916
608.495430	0.190951
608.704730	0.191134
608.914012	0.190854
609.123275	0.190855
609.332521	0.190956
609.541748	0.191244
609.750957	0.191285
609.960148	0.190919
610.169321	0.191106
610.378475	0.191483
610.587611	0.191495
610.796729	0.191644
611.005829	0.191796
611.214910	0.191899
611.423974	0.191897
611.633019	0.192063
611.842045	0.192693
612.051054	0.192833
612.260044	0.192703
612.469017	0.192849
612.677970	0.193254
612.886906	0.193384
613.095824	0.193565
613.304723	0.193774
613.513604	0.193824
613.722467	0.194142
613.931311	0.194107
614.140138	0.194339
614.348946	0.194421
614.557736	0.194391
614.766507	0.194474
614.975261	0.194465
615.183996	0.193996
615.392713	0.193853
615.601412	0.193815
615.810092	0.193849
616.018754	0.193860
616.227399	0.194163
616.436024	0.194493
616.644632	0.194697
616.853222	0.194925
617.061793	0.195595
617.270346	0.195835
617.478880	0.195854
617.687397	0.196452
617.895895	0.196627
618.104375	0.196742
618.312837	0.196475
618.521281	0.196565
618.729706	0.196655
618.938113	0.196432
619.146502	0.196596
619.354873	0.196447
619.563226	0.196275
619.771560	0.196506
619.979876	0.196625
620.188174	0.196681
620.396453	0.196803
620.604715	0.196833
620.812958	0.197217
621.021183	0.197319
621.229390	0.197663
621.437578	0.197713
621.645748	0.197636
621.853900	0.197696
622.062034	0.197964
622.270150	0.198058
622.478247	0.198522
622.686326	0.198419
622.894387	0.199006
623.102430	0.199160
623.310454	0.199464
623.518461	0.199367
623.726449	0.199410
623.934418	0.199777
624.142370	0.199720
624.350303	0.199543
624.558218	0.199867
624.766115	0.199525
624.973994	0.199652
625.181855	0.199603
625.389697	0.199709
625.597521	0.199931
625.805327	0.199581
626.013114	0.200114
626.220883	0.200117
626.428634	0.200187
626.636367	0.200406
626.844082	0.200551
627.051778	0.200738
627.259457	0.201065
627.467117	0.201205
627.674758	0.201674
627.882382	0.201679
628.089987	0.201769
628.297574	0.201967
628.505143	0.202080
628.712694	0.202190
628.920226	0.202251
629.127740	0.202439
629.335236	0.202351
629.542714	0.202245
629.750174	0.202126
629.957615	0.202532
630.165038	0.202527
630.372443	0.202674
630.579829	0.202830
630.787198	0.202911
630.994548	0.202986
631.201880	0.203262
631.409194	0.203513
631.616489	0.203707
631.823766	0.203738
632.031025	0.203760
632.238266	0.203667
632.445489	0.203741
632.652693	0.204124
632.859879	0.204137
633.067047	0.204154
633.274197	0.204255
633.481329	0.204407
633.688442	0.204544
633.895537	0.204774
634.102614	0.205053
634.309672	0.205137
634.516713	0.205240
634.723735	0.205348
634.930739	0.205633
635.137724	0.205679
635.344692	0.205814
635.551641	0.205696
635.758572	0.206070
635.965485	0.206213
636.172379	0.206384
636.379256	0.206290
636.586114	0.206456
636.792954	0.206425
636.999775	0.206651
637.206579	0.206873
637.413364	0.207364
637.620131	0.207421
637.826880	0.207477
638.033610	0.207595
638.240323	0.207949
638.447017	0.208141
638.653692	0.208587
638.860350	0.208876
639.066990	0.208980
639.273611	0.209232
639.480214	0.209658
639.686798	0.209902
639.893365	0.210223
640.099913	0.210263
640.306443	0.210426
640.512955	0.210213
640.719449	0.210121
640.925924	0.210186
641.132381	0.210082
641.338820	0.209925
641.545241	0.209928
641.751644	0.209815
641.958028	0.209922
642.164394	0.210215
642.370742	0.210553
642.577071	0.210684
642.783383	0.210822
642.989676	0.211009
643.195951	0.210940
643.402207	0.211176
643.608446	0.211417
643.814666	0.211582
644.020868	0.211427
644.227052	0.211503
644.433218	0.211745
644.639365	0.211775
644.845494	0.211951
645.051605	0.212181
645.257698	0.212346
645.463772	0.212682
645.669828	0.212763
645.875866	0.213170
646.081886	0.213269
646.287888	0.213574
646.493871	0.214054
646.699836	0.214141
646.905783	0.214325
647.111712	0.214618
647.317622	0.214623
647.523514	0.214855
647.729388	0.215061
647.935244	0.215378
648.141082	0.215327
648.346901	0.215449
648.552702	0.215849
648.758485	0.215944
648.964250	0.216044
649.169996	0.216244
649.375724	0.216364
649.581434	0.216471
649.787126	0.216392
649.992800	0.216512
650.198455	0.216529
650.404092	0.216289
650.609711	0.216453
650.815311	0.216347
651.020894	0.216391
651.226458	0.216347
651.432004	0.216341
651.637532	0.216612
651.843041	0.216924
652.048532	0.217094
652.254006	0.217369
652.459460	0.217541
652.664897	0.217818
652.870315	0.217912
653.075716	0.218132
653.281097	0.218203
653.486461	0.218429
653.691807	0.218562
653.897134	0.218699
654.102443	0.218834
654.307734	0.219119
654.513006	0.219508
654.718261	0.219847
654.923497	0.220024
655.128715	0.220198
655.333915	0.220310
655.539096	0.220243
655.744259	0.220343
655.949404	0.220662
656.154531	0.220864
656.359640	0.221025
656.564730	0.221179
656.769802	0.221476
656.974856	0.221818
657.179892	0.222045
657.384909	0.222319
657.589908	0.222478
657.794889	0.222488
657.999852	0.222589
658.204797	0.222717
658.409723	0.222628
658.614631	0.222673
658.819521	0.222900
659.024393	0.222807
659.229246	0.222840
659.434081	0.223212
659.638898	0.223430
659.843697	0.223514
660.048478	0.223680
660.253240	0.223968
660.457984	0.224144
660.662710	0.224104
660.867417	0.224409
661.072107	0.224750
661.276778	0.224739
661.481431	0.224939
661.686066	0.225303
661.890682	0.225470
662.095281	0.225901
662.299861	0.226078
662.504422	0.226418
662.708966	0.226434
662.913491	0.226759
663.117999	0.226937
663.322488	0.227044
663.526958	0.226767
663.731411	0.226924
663.935845	0.227049
664.140261	0.227416
664.344659	0.227435
664.549038	0.227988
664.753400	0.228132
664.957743	0.228469
665.162068	0.228612
665.366375	0.229061
665.570663	0.229041
665.774933	0.228927
665.979185	0.229094
666.183419	0.229524
666.387635	0.229765
666.591832	0.229782
666.796011	0.229914
667.000172	0.230103
667.204315	0.230134
667.408439	0.230425
667.612545	0.230840
667.816634	0.230968
668.020703	0.230988
668.224755	0.230727
668.428788	0.231032
668.632803	0.231097
668.836800	0.231454
669.040779	0.231751
669.244739	0.231943
669.448681	0.232113
669.652605	0.232339
669.856511	0.232338
670.060399	0.232679
670.264268	0.232803
670.468119	0.232811
670.671952	0.232884
670.875767	0.232880
671.079563	0.233122
671.283341	0.232965
671.487101	0.232933
671.690843	0.233324
671.894567	0.233306
672.098272	0.233728
672.301959	0.234298
672.505628	0.234476
672.709278	0.234892
672.912911	0.234926
673.116525	0.235255
673.320121	0.235461
673.523699	0.235835
673.727258	0.236344
673.930799	0.236165
674.134322	0.236208
674.337827	0.236334
674.541314	0.236460
674.744782	0.236864
674.948232	0.237103
675.151664	0.237482
675.355078	0.237418
675.558474	0.237538
675.761851	0.237816
675.965210	0.238016
676.168551	0.238316
676.371873	0.238386
676.575178	0.238394
676.778464	0.238749
676.981732	0.238972
677.184981	0.239016
677.388213	0.239164
677.591426	0.239316
677.794621	0.239600
677.997798	0.239835
678.200956	0.240282
678.404097	0.240432
678.607219	0.240507
678.810323	0.240500
679.013408	0.240688
679.216476	0.240683
679.419525	0.240930
679.622556	0.240842
679.825569	0.241036
680.028563	0.241044
680.231540	0.241001
680.434498	0.241242
680.637438	0.241448
680.840359	0.241599
681.043263	0.241948
681.246148	0.242150
681.449015	0.242522
681.651864	0.242492
681.854694	0.242617
682.057506	0.242845
682.260301	0.242886
682.463076	0.243076
682.665834	0.243191
682.868573	0.243251
683.071295	0.243339
683.273998	0.243332
683.476682	0.243495
683.679349	0.243782
683.881997	0.244317
684.084627	0.244596
684.287239	0.244486
684.489833	0.244874
684.692408	0.244985
684.894965	0.245203
685.097504	0.245468
685.300025	0.245648
685.502527	0.245776
685.705012	0.245688
685.907478	0.245763
686.109925	0.246199
686.312355	0.246358
686.514766	0.246622
686.717159	0.246634
686.919534	0.246699
687.121891	0.246970
687.324230	0.247243
687.526550	0.247575
687.728852	0.247726
687.931136	0.248022
688.133401	0.248237
688.335649	0.248234
688.537878	0.248464
688.740089	0.248702
688.942281	0.248846
689.144456	0.248844
689.346612	0.248687
689.548750	0.248558
689.750870	0.248680
689.952971	0.248830
690.155055	0.249167
690.357120	0.249197
690.559167	0.249411
690.761195	0.249683
690.963206	0.249891
691.165198	0.250324
691.367172	0.250693
691.569128	0.250792
691.771065	0.250773
691.972984	0.250961
692.174885	0.251273
692.376768	0.251430
692.578633	0.251316
692.780479	0.251289
692.982308	0.251379
693.184118	0.251574
693.385909	0.251431
693.587683	0.251840
693.789438	0.251929
693.991175	0.251909
694.192894	0.251793
694.394595	0.251802
694.596277	0.251855
694.797941	0.251888
694.999587	0.251823
695.201215	0.252032
695.402824	0.251908
695.604416	0.252004
695.805989	0.252168
696.007543	0.252167
696.209080	0.252348
696.410598	0.252720
696.612099	0.252867
696.813580	0.253101
697.015044	0.253379
697.216490	0.253517
697.417917	0.253852
697.619326	0.254021
697.820717	0.254141
698.022089	0.254233
698.223444	0.254375
698.424780	0.254247
698.626098	0.254313
698.827397	0.254364
699.028679	0.254497
699.229942	0.254351
699.431187	0.254441
699.632414	0.254701
699.833622	0.254886
700.034813	0.254952
700.235985	0.255286
700.437139	0.255369
700.638274	0.255391
700.839392	0.255498
701.040491	0.255676
701.241572	0.255901
701.442635	0.255996
701.643679	0.256140
701.844706	0.256243
702.045714	0.256297
702.246704	0.256582
702.447675	0.256992
702.648629	0.256922
702.849564	0.256961
703.050481	0.256944
703.251380	0.257015
703.452260	0.257096
703.653122	0.257120
703.853966	0.257081
704.054792	0.257077
704.255600	0.257026
704.456389	0.256999
704.657160	0.256853
704.857913	0.256727
705.058648	0.256858
705.259365	0.256757
705.460063	0.256664
705.660743	0.256922
705.861405	0.256853
706.062048	0.256621
706.262674	0.256730
706.463281	0.256848
706.663870	0.257043
706.864441	0.257176
707.064993	0.257205
707.265527	0.257132
707.466043	0.257282
707.666541	0.257386
707.867021	0.257439
708.067482	0.257603
708.267925	0.257738
708.468350	0.257837
708.668757	0.257710
708.869145	0.257994
709.069516	0.258062
709.269868	0.258101
709.470201	0.258010
709.670517	0.258322
709.870814	0.258301
710.071093	0.258095
710.271354	0.258124
710.471597	0.257888
710.671821	0.257767
710.872028	0.257967
711.072216	0.257926
711.272385	0.258182
711.472537	0.258034
711.672670	0.258084
711.872785	0.258563
712.072882	0.258486
712.272961	0.258558
712.473021	0.258382
712.673063	0.258227
712.873087	0.257996
713.073093	0.257922
713.273081	0.257603
713.473050	0.257552
713.673001	0.257187
713.872934	0.257157
714.072849	0.257539
714.272745	0.257519
714.472623	0.257422
714.672483	0.257327
714.872325	0.257068
715.072148	0.257008
715.271954	0.256944
715.471741	0.256935
715.671509	0.256627
715.871260	0.256387
716.070992	0.256423
716.270707	0.256379
716.470403	0.256296
716.670080	0.256141
716.869740	0.256533
717.069381	0.256273
717.269004	0.256274
717.468609	0.256380
717.668195	0.256184
717.867764	0.256164
718.067314	0.256246
718.266846	0.256240
718.466360	0.256420
718.665855	0.255920
718.865332	0.256047
719.064791	0.255758
719.264232	0.255732
719.463655	0.255787
719.663059	0.255777
719.862445	0.255642
720.061813	0.255497
720.261163	0.255463
720.460494	0.255556
720.659807	0.255304
720.859102	0.255266
721.058379	0.255331
721.257638	0.255257
721.456878	0.255214
721.656100	0.254924
721.855304	0.255061
722.054490	0.254859
722.253657	0.254738
722.452806	0.254887
722.651937	0.255065
722.851050	0.254892
723.050145	0.254922
723.249221	0.254735
723.448279	0.254954
723.647319	0.254710
723.846340	0.254575
724.045344	0.254585
724.244329	0.254403
724.443296	0.254065
724.642245	0.254278
724.841175	0.253928
725.040088	0.253694
725.238982	0.253529
725.437857	0.253476
725.636715	0.253367
725.835554	0.253296
726.034376	0.253311
726.233179	0.253403
726.431963	0.253072
726.630730	0.253143
726.829478	0.253252
727.028208	0.253056
727.226920	0.252742
727.425614	0.252792
727.624289	0.252558
727.822946	0.252232
728.021585	0.252002
728.220206	0.251943
728.418808	0.251715
728.617392	0.251632
728.815958	0.251798
729.014506	0.251928
729.213036	0.251950
729.411547	0.251843
729.610040	0.251725
729.808515	0.251544
730.006972	0.251178
730.205410	0.251185
730.403831	0.250935
730.602233	0.250543
730.800616	0.250522
730.998982	0.250075
731.197329	0.250084
731.395658	0.250077
731.593969	0.250127
731.792262	0.250115
731.990536	0.249696
732.188793	0.249730
732.387031	0.249877
732.585250	0.249659
732.783452	0.249625
732.981635	0.249294
733.179800	0.249202
733.377947	0.249012
733.576076	0.248892
733.774186	0.248860
733.972278	0.248251
734.170352	0.247720
734.368408	0.247539
734.566446	0.247277
734.764465	0.247182
734.962466	0.247168
735.160449	0.246866
735.358413	0.246425
735.556360	0.246277
735.754288	0.246323
735.952198	0.246420
736.150090	0.246326
736.347963	0.246245
736.545818	0.246303
736.743655	0.245880
736.941474	0.246018
737.139275	0.246127
737.337057	0.245927
737.534821	0.245525
737.732567	0.245171
737.930295	0.245088
738.128005	0.245051
738.325696	0.244721
738.523369	0.244730
738.721024	0.244414
738.918660	0.244308
739.116279	0.244246
739.313879	0.244527
739.511461	0.244505
739.709024	0.244210
739.906570	0.243944
740.104097	0.243859
740.301606	0.243700
740.499097	0.243447
740.696569	0.243176
740.894024	0.243074
741.091460	0.242853
741.288878	0.242613
741.486277	0.242494
741.683659	0.242229
741.881022	0.241845
742.078367	0.241499
742.275694	0.241113
742.473002	0.241112
742.670293	0.240790
742.867565	0.240838
743.064819	0.240761
743.262054	0.240441
743.459272	0.240322
743.656471	0.240326
743.853652	0.240098
744.050815	0.240130
744.247959	0.239645
744.445085	0.239637
744.642194	0.239236
744.839283	0.239048
745.036355	0.239199
745.233408	0.239059
745.430444	0.238813
745.627461	0.238620
745.824459	0.238658
746.021440	0.238639
746.218402	0.238449
746.415346	0.237947
746.612272	0.237701
746.809180	0.237061
747.006069	0.236951
747.202940	0.236897
747.399793	0.236868
747.596628	0.236408
747.793444	0.236043
747.990243	0.235986
748.187023	0.236170
748.383784	0.236253
748.580528	0.236353
748.777253	0.235937
748.973960	0.235459
749.170649	0.235199
749.367320	0.235023
749.563973	0.234968
749.760607	0.234651
749.957223	0.234514
750.153821	0.234303
750.350400	0.234136
750.546962	0.234081
750.743505	0.234162
750.940030	0.234058
751.136536	0.233987
751.333025	0.233833
751.529495	0.233860
751.725947	0.233478
751.922381	0.233077
752.118796	0.232944
752.315194	0.233091
752.511573	0.232934
752.707934	0.232815
752.904276	0.232598
753.100601	0.232699
753.296907	0.232536
753.493195	0.232625
753.689465	0.232528
753.885716	0.232493
754.081949	0.232278
754.278164	0.232151
754.474361	0.231854
754.670540	0.231980
754.866700	0.231444
755.062843	0.230795
755.258967	0.230524
755.455072	0.230347
755.651160	0.230069
755.847229	0.229851
756.043280	0.229625
756.239313	0.229714
756.435328	0.229564
756.631324	0.229682
756.827302	0.229725
757.023262	0.229502
757.219204	0.229479
757.415127	0.229418
757.611033	0.229265
757.806920	0.229108
758.002788	0.228744
758.198639	0.228398
758.394471	0.228143
758.590286	0.228188
758.786081	0.228017
758.981859	0.227869
759.177619	0.227671
759.373360	0.227542
759.569083	0.227394
759.764788	0.227464
759.960474	0.227406
760.156143	0.227406
760.351793	0.227117
760.547425	0.227321
760.743038	0.227090
760.938634	0.226862
761.134211	0.226711
761.329770	0.226729
761.525311	0.226467
761.720833	0.226239
761.916338	0.225928
762.111824	0.225804
762.307292	0.225466
762.502741	0.225436
762.698173	0.225234
762.893586	0.225141
763.088981	0.224802
763.284358	0.224762
763.479716	0.225023
763.675057	0.224979
763.870379	0.225063
764.065683	0.225231
764.260968	0.225159
764.456236	0.225270
764.651485	0.225222
764.846716	0.225408
765.041929	0.225349
765.237123	0.225242
765.432299	0.225291
765.627457	0.225421
765.822597	0.225063
766.017719	0.225115
766.212822	0.224983
766.407907	0.224780
766.602974	0.224620
766.798023	0.224794
766.993054	0.224655
767.188066	0.224404
767.383060	0.224090
767.578036	0.224129
767.772993	0.223844
767.967933	0.223807
768.162854	0.223518
768.357757	0.223591
768.552642	0.223275
768.747508	0.223103
768.942356	0.223088
769.137186	0.222996
769.331998	0.222787
769.526792	0.222897
769.721567	0.222663
769.916324	0.222922
770.111063	0.222827
770.305784	0.222805
770.500486	0.222824
770.695171	0.223053
770.889837	0.222921
771.084484	0.222902
771.279114	0.222790
771.473725	0.222872
771.668318	0.222654
771.862893	0.222507
772.057450	0.222760
772.251988	0.222649
772.446509	0.222329
772.641011	0.222674
772.835494	0.222843
773.029960	0.222914
773.224407	0.222988
773.418836	0.223100
773.613247	0.223187
773.807640	0.222807
774.002014	0.222575
774.196370	0.222660
774.390708	0.222306
774.585028	0.222021
774.779330	0.221828
774.973613	0.221804
775.167878	0.221702
775.362125	0.221507
775.556354	0.221525
775.750564	0.221830
775.944756	0.221652
776.138930	0.221805
776.333086	0.222009
776.527223	0.221963
776.721343	0.221671
776.915444	0.221746
777.109526	0.221823
777.303591	0.221844
777.497637	0.221613
777.691666	0.221405
777.885676	0.221168
778.079667	0.220967
778.273641	0.220993
778.467596	0.221247
778.661533	0.221233
778.855452	0.221134
779.049352	0.221210
779.243235	0.221267
779.437099	0.221640
779.630945	0.221478
779.824773	0.221602
780.018582	0.221802
780.212373	0.221671
780.406146	0.221747
780.599901	0.221817
780.793638	0.221705
780.987356	0.221772
781.181056	0.221656
781.374738	0.221902
781.568402	0.221969
781.762047	0.221897
781.955674	0.222059
782.149283	0.221890
782.342874	0.221964
782.536447	0.221876
782.730001	0.221655
782.923537	0.221646
783.117055	0.221752
783.310555	0.221674
783.504036	0.221540
783.697499	0.221524
783.890944	0.221727
784.084371	0.221714
784.277780	0.222010
784.471170	0.222470
784.664542	0.222505
784.857896	0.222389
785.051231	0.222363
785.244549	0.222796
785.437848	0.222547
785.631129	0.222647
785.824392	0.222756
786.017636	0.222830
786.210863	0.222636
786.404071	0.222989
786.597260	0.223238
786.790432	0.223270
786.983585	0.223058
787.176721	0.223300
787.369838	0.223300
787.562936	0.223257
787.756017	0.223215
787.949079	0.223258
788.142123	0.223392
788.335149	0.223630
788.528156	0.224023
788.721146	0.223906
788.914117	0.224206
789.107070	0.224472
789.300005	0.224592
789.492921	0.224689
789.685819	0.225033
789.878699	0.225123
790.071561	0.225177
790.264405	0.225136
790.457230	0.225718
790.650037	0.225638
790.842826	0.225627
791.035597	0.225933
791.228349	0.226169
791.421084	0.226169
791.613800	0.226086
791.806497	0.226039
791.999177	0.226386
792.191838	0.226373
792.384481	0.226848
792.577106	0.227109
792.769713	0.227132
792.962301	0.226947
793.154871	0.227103
793.347423	0.227174
793.539957	0.227402
793.732473	0.227248
793.924970	0.227181
794.117449	0.227145
794.309910	0.226997
794.502353	0.227044
794.694777	0.227220
794.887183	0.227284
795.079571	0.227505
795.271941	0.227818
795.464293	0.227995
795.656626	0.228008
795.848941	0.228095
796.041238	0.228313
796.233516	0.228615
796.425777	0.229006
796.618019	0.229232
796.810243	0.229311
797.002449	0.229224
797.194636	0.229435
797.386805	0.229773
797.578956	0.230029
797.771089	0.230168
797.963204	0.230036
798.155300	0.230144
798.347378	0.230163
798.539438	0.230363
798.731480	0.230465
798.923503	0.230488
799.115509	0.230644
799.307496	0.230725
799.499465	0.231103
799.691415	0.231469
799.883348	0.231527
800.075262	0.231466
800.267158	0.231555
800.459035	0.231630
800.650895	0.231975
800.842736	0.232189
801.034559	0.232085
801.226364	0.231775
801.418150	0.231937
801.609919	0.232021
801.801669	0.232319
801.993401	0.232523
802.185114	0.232997
802.376810	0.233061
802.568487	0.233107
802.760146	0.233529
802.951787	0.234035
803.143409	0.234113
803.335014	0.234322
803.526600	0.234659
803.718168	0.234870
803.909717	0.234824
804.101249	0.234890
804.292762	0.235211
804.484257	0.235681
804.675734	0.235958
804.867192	0.236264
805.058632	0.236565
805.250054	0.236681
805.441458	0.237133
805.632844	0.237404
805.824211	0.237785
806.015561	0.238097
806.206891	0.238048
806.398204	0.238270
806.589499	0.238504
806.780775	0.238730
806.972033	0.238941
807.163273	0.238853
807.354495	0.239118
807.545698	0.239360
807.736883	0.239455
807.928050	0.239833
808.119199	0.239757
808.310329	0.239870
808.501441	0.240219
808.692535	0.240494
808.883611	0.240805
809.074669	0.240942
809.265708	0.241151
809.456729	0.241383
809.647732	0.241590
809.838717	0.241919
810.029683	0.242472
810.220632	0.242821
810.411562	0.242972
810.602474	0.243308
810.793367	0.243666
810.984242	0.243939
811.175100	0.244551
811.365938	0.244620
811.556759	0.245099
811.747562	0.245189
811.938346	0.245167
812.129112	0.245825
812.319860	0.246068
812.510589	0.246283
812.701300	0.246758
812.891994	0.246909
813.082668	0.246959
813.273325	0.247084
813.463964	0.247267
813.654584	0.247495
813.845186	0.247463
814.035769	0.247874
814.226335	0.248075
814.416882	0.248264
814.607411	0.248401
814.797922	0.248861
814.988415	0.249564
815.178889	0.249832
815.369345	0.250526
815.559783	0.250912
815.750203	0.251076
815.940605	0.251637
816.130988	0.251826
816.321353	0.252167
816.511700	0.252565
816.702028	0.252723
816.892339	0.252870
817.082631	0.253102
817.272905	0.253482
817.463161	0.253709
817.653398	0.253903
817.843617	0.254185
818.033819	0.254280
818.224001	0.254676
818.414166	0.254583
818.604312	0.254941
818.794440	0.255145
818.984550	0.255348
819.174642	0.256025
819.364716	0.256111
819.554771	0.256248
819.744808	0.256577
819.934827	0.256916
820.124827	0.257273
820.314810	0.257912
820.504774	0.258380
820.694720	0.258809
820.884647	0.258703
821.074557	0.259292
821.264448	0.259573
821.454321	0.259858
821.644176	0.260024
821.834012	0.260575
822.023831	0.260324
822.213631	0.260260
822.403413	0.260237
822.593176	0.260557
822.782922	0.260589
822.972649	0.261064
823.162358	0.261329
823.352049	0.261575
823.541721	0.261618
823.731376	0.262532
823.921012	0.263054
824.110629	0.263550
824.300229	0.263779
824.489811	0.264282
824.679374	0.264698
824.868919	0.265176
825.058445	0.265438
825.247954	0.265779
825.437444	0.265891
825.626916	0.266265
825.816370	0.266688
826.005806	0.267421
826.195223	0.267844
826.384622	0.268011
826.574003	0.268511
826.763366	0.269037
826.952711	0.269601
827.142037	0.269926
827.331345	0.270119
827.520635	0.270220
827.709906	0.270583
827.899160	0.270796
828.088395	0.271125
828.277612	0.271454
828.466810	0.271571
828.655991	0.271821
828.845153	0.272277
829.034297	0.272461
829.223423	0.273060
829.412531	0.273325
829.601620	0.273756
829.790691	0.274246
829.979744	0.274023
830.168779	0.274480
830.357795	0.274644
830.546793	0.274688
830.735773	0.275268
830.924735	0.275482
831.113679	0.275667
831.302604	0.276030
831.491511	0.276154
831.680400	0.276763
831.869271	0.277313
832.058123	0.277595
832.246957	0.278136
832.435773	0.278548
832.624571	0.279110
832.813351	0.279554
833.002112	0.279682
833.190855	0.280258
833.379580	0.280548
833.568287	0.280853
833.756975	0.281394
833.945645	0.281732
834.134297	0.281636
834.322931	0.281783
834.511547	0.282056
834.700144	0.282630
834.888723	0.282894
835.077284	0.283600
835.265826	0.283660
835.454351	0.284391
835.642857	0.285088
835.831345	0.285918
836.019815	0.286522
836.208266	0.286760
836.396699	0.287229
836.585114	0.287802
836.773511	0.288212
836.961890	0.288840
837.150250	0.289103
837.338592	0.289388
837.526916	0.289705
837.715222	0.290082
837.903510	0.290697
838.091779	0.291007
838.280030	0.291276
838.468263	0.291780
838.656477	0.292109
838.844674	0.292533
839.032852	0.292991
839.221012	0.293425
839.409153	0.293727
839.597277	0.293818
839.785382	0.294085
839.973469	0.294354
840.161538	0.294558
840.349589	0.295156
840.537621	0.295527
840.725635	0.295714
840.913631	0.295973
841.101609	0.296515
841.289568	0.297084
841.477509	0.297304
841.665432	0.297908
841.853337	0.298012
842.041224	0.298297
842.229092	0.298577
842.416942	0.298900
842.604774	0.299387
842.792588	0.299610
842.980383	0.300196
843.168160	0.300601
843.355919	0.300713
843.543660	0.301263
843.731382	0.301646
843.919087	0.301925
844.106773	0.302431
844.294441	0.302676
844.482090	0.303184
844.669722	0.303162
844.857335	0.303401
845.044930	0.303803
845.232507	0.304000
845.420065	0.304449
845.607605	0.304975
845.795127	0.305265
845.982631	0.305905
846.170117	0.306435
846.357584	0.307370
846.545033	0.308088
846.732464	0.308724
846.919877	0.309383
847.107272	0.309730
847.294648	0.309939
847.482006	0.310520
847.669346	0.310637
847.856667	0.310958
848.043971	0.311048
848.231256	0.311273
848.418523	0.311483
848.605771	0.312062
848.793002	0.312602
848.980214	0.313049
849.167408	0.313094
849.354584	0.313765
849.541742	0.314028
849.728881	0.314187
849.916002	0.314706
850.103105	0.315264
850.290190	0.315263
850.477256	0.315435
850.664304	0.316032
850.851334	0.316590
851.038346	0.317001
851.225340	0.317501
851.412315	0.318009
851.599272	0.318671
851.786211	0.318982
851.973132	0.319472
852.160034	0.319850
852.346918	0.320326
852.533784	0.320653
852.720632	0.320733
852.907462	0.321005
853.094273	0.321526
853.281066	0.321742
853.467841	0.322201
853.654598	0.322765
853.841336	0.323597
854.028056	0.323882
854.214758	0.324317
854.401442	0.324751
854.588107	0.325056
854.774755	0.325518
854.961384	0.325885
855.147995	0.326143
855.334587	0.326249
855.521162	0.326096
855.707718	0.326575
855.894256	0.327217
856.080775	0.327904
856.267277	0.328070
856.453760	0.328338
856.640225	0.328879
856.826672	0.329519
857.013101	0.330226
857.199511	0.330676
857.385903	0.330749
857.572277	0.330918
857.758633	0.330855
857.944970	0.331347
858.131290	0.331530
858.317591	0.331563
858.503873	0.331492
858.690138	0.331803
858.876384	0.332092
859.062612	0.332451
859.248822	0.332911
859.435014	0.333561
859.621188	0.333558
859.807343	0.334131
859.993480	0.334795
860.179599	0.335436
860.365699	0.335975
860.551781	0.336536
860.737846	0.336870
860.923891	0.337093
861.109919	0.337257
861.295929	0.338426
861.481920	0.338859
861.667893	0.339078
861.853848	0.339335
862.039784	0.339111
862.225702	0.339516
862.411603	0.339999
862.597484	0.340506
862.783348	0.340951
862.969193	0.340665
863.155021	0.341053
863.340830	0.341264
863.526620	0.342051
863.712393	0.342982
863.898147	0.343171
864.083883	0.343416
864.269601	0.343652
864.455301	0.344144
864.640982	0.344730
864.826645	0.344862
865.012290	0.345454
865.197917	0.345515
865.383526	0.345708
865.569116	0.345913
865.754688	0.346258
865.940242	0.346323
866.125777	0.346374
866.311295	0.346599
866.496794	0.347634
866.682275	0.347977
866.867737	0.348219
867.053182	0.348555
867.238608	0.348897
867.424016	0.349335
867.609406	0.349692
867.794778	0.350010
867.980131	0.350041
868.165466	0.349340
868.350783	0.349270
868.536082	0.349329
868.721362	0.349011
868.906625	0.348935
869.091869	0.348916
869.277094	0.349145
869.462302	0.349604
869.647491	0.350265
869.832662	0.350794
870.017815	0.351030
870.202950	0.351338
870.388066	0.351901
870.573165	0.352650
870.758245	0.352981
870.943306	0.353349
871.128350	0.353477
871.313375	0.353457
871.498382	0.353961
871.683371	0.354163
871.868342	0.354550
872.053294	0.354673
872.238229	0.354373
872.423144	0.354371
872.608042	0.354708
872.792922	0.354781
872.977783	0.355014
873.162626	0.354937
873.347451	0.355561
873.532258	0.355463
873.717046	0.355790
873.901816	0.356682
874.086568	0.357126
874.271302	0.357260
874.456017	0.357798
874.640715	0.358340
874.825394	0.358394
875.010055	0.358654
875.194697	0.358934
875.379322	0.359135
875.563928	0.359390
875.748516	0.359192
875.933085	0.359188
876.117637	0.359210
876.302170	0.359154
876.486685	0.359487
876.671182	0.359326
876.855661	0.359874
877.040121	0.360031
877.224563	0.360338
877.408987	0.361133
877.593393	0.361804
877.777780	0.361556
877.962150	0.361812
878.146501	0.361756
878.330833	0.362235
878.515148	0.362416
878.699444	0.362638
878.883722	0.362246
879.067982	0.362084
879.252224	0.362251
879.436447	0.362611
879.620653	0.362583
879.804840	0.362577
879.989008	0.362224
880.173159	0.361976
880.357291	0.361986
880.541405	0.362577
880.725501	0.363154
880.909579	0.363189
881.093638	0.363829
881.277680	0.364570
881.461703	0.364897
881.645707	0.365104
881.829694	0.365263
882.013662	0.365859
882.197612	0.365997
882.381544	0.365707
882.565458	0.365214
882.749353	0.364624
882.933230	0.364306
883.117089	0.364540
883.300930	0.365061
883.484753	0.365229
883.668557	0.364863
883.852343	0.364439
884.036111	0.364699
884.219861	0.365186
884.403592	0.365772
884.587305	0.365725
884.771000	0.365427
884.954677	0.365150
885.138335	0.364897
885.321976	0.365263
885.505598	0.365815
885.689201	0.365690
885.872787	0.365491
886.056354	0.365378
886.239904	0.365613
886.423434	0.366401
886.606947	0.366226
886.790442	0.366621
886.973918	0.366173
887.157376	0.365637
887.340816	0.365208
887.524237	0.365291
887.707641	0.365169
887.891026	0.365245
888.074393	0.364552
888.257741	0.364779
888.441072	0.364821
888.624384	0.364991
888.807678	0.364846
888.990954	0.365428
889.174211	0.365708
889.357451	0.365677
889.540672	0.365683
889.723875	0.366025
889.907059	0.366160
890.090226	0.366378
890.273374	0.366954
890.456504	0.367336
890.639616	0.367086
890.822709	0.366861
891.005785	0.367054
891.188842	0.367293
891.371881	0.367455
891.554901	0.367117
891.737904	0.366740
891.920888	0.366077
892.103854	0.366366
892.286802	0.366449
892.469731	0.366430
892.652643	0.366581
892.835536	0.366296
893.018410	0.366105
893.201267	0.366050
893.384106	0.365822
893.566926	0.366025
893.749728	0.365331
893.932511	0.365478
894.115277	0.365053
894.298024	0.364649
894.480753	0.364464
894.663464	0.364144
894.846157	0.364774
895.028831	0.365132
895.211487	0.364783
895.394125	0.364545
895.576745	0.364099
895.759346	0.364236
895.941930	0.364430
896.124495	0.364006
896.307041	0.363886
896.489570	0.363205
896.672080	0.362958
896.854573	0.362742
897.037046	0.362676
897.219502	0.362670
897.401940	0.362822
897.584359	0.362423
897.766760	0.362634
897.949143	0.362630
898.131507	0.362594
898.313854	0.362051
898.496182	0.361810
898.678492	0.361238
898.860783	0.361390
899.043057	0.360451
899.225312	0.360189
899.407549	0.359717
899.589768	0.359331
899.771968	0.359041
899.954151	0.358821
900.136315	0.358865
900.318461	0.359308
900.500588	0.358792
900.682698	0.358811
900.864789	0.357996
901.046862	0.357758
901.228917	0.357713
901.410953	0.357343
901.592971	0.357350
901.774972	0.356800
901.956953	0.356139
902.138917	0.355715
902.320862	0.355458
902.502790	0.355243
902.684699	0.354637
902.866589	0.354559
903.048462	0.354423
903.230316	0.353993
903.412152	0.354014
903.593970	0.354194
903.775770	0.353824
903.957551	0.353736
904.139314	0.353877
904.321059	0.354336
904.502786	0.353819
904.684494	0.353256
904.866185	0.353244
905.047857	0.352953
905.229510	0.352435
905.411146	0.352186
905.592763	0.351925
905.774363	0.352110
905.955943	0.351548
906.137506	0.350776
906.319051	0.350137
906.500577	0.349439
906.682085	0.348916
906.863575	0.348712
907.045046	0.348651
907.226500	0.348531
907.407935	0.347762
907.589352	0.347269
907.770750	0.347127
907.952131	0.346928
908.133493	0.346749
908.314837	0.346216
908.496163	0.345556
908.677470	0.344438
908.858760	0.344030
909.040031	0.343518
909.221284	0.342274
909.402518	0.342276
909.583735	0.341918
909.764933	0.341496
909.946113	0.341111
910.127275	0.340240
910.308418	0.340510
910.489544	0.339269
910.670651	0.339183
910.851740	0.339364
911.032810	0.339112
911.213863	0.339305
911.394897	0.338878
911.575913	0.338473
911.756911	0.338362
911.937890	0.337519
912.118851	0.337379
912.299794	0.336347
912.480719	0.335938
912.661626	0.335077
912.842514	0.333614
913.023384	0.332612
913.204236	0.332071
913.385070	0.331989
913.565886	0.331655
913.746683	0.331442
913.927462	0.331051
914.108223	0.330609
914.288965	0.330188
914.469690	0.330027
914.650396	0.329542
914.831084	0.329129
915.011754	0.328126
915.192405	0.327883
915.373038	0.326893
915.553653	0.325946
915.734250	0.325570
915.914829	0.324163
916.095389	0.323873
916.275931	0.323794
916.456455	0.322649
916.636961	0.321968
916.817448	0.320875
916.997917	0.320290
917.178368	0.320167
917.358801	0.319174
917.539216	0.318910
917.719612	0.318309
917.899990	0.317635
918.080350	0.317705
918.260692	0.317453
918.441015	0.317183
918.621320	0.317033
918.801607	0.316118
918.981876	0.315587
919.162127	0.315358
919.342359	0.314690
919.522573	0.313891
919.702769	0.313173
919.882947	0.312534
920.063106	0.311724
920.243247	0.310686
920.423370	0.309968
920.603475	0.309274
920.783562	0.308965
920.963630	0.308183
921.143680	0.307824
921.323712	0.307204
921.503725	0.306623
921.683721	0.306354
921.863698	0.306109
922.043657	0.306115
922.223598	0.305529
922.403520	0.304670
922.583424	0.304004
922.763311	0.303066
922.943178	0.302166
923.123028	0.301794
923.302859	0.300697
923.482673	0.300318
923.662467	0.299176
923.842244	0.298401
924.022003	0.297261
924.201743	0.296694
924.381465	0.296292
924.561169	0.295552
924.740854	0.294632
924.920522	0.293571
925.100171	0.291786
925.279802	0.291686
925.459414	0.290633
925.639009	0.289947
925.818585	0.288867
925.998143	0.288268
926.177683	0.287737
926.357205	0.286549
926.536708	0.285825
926.716193	0.285466
926.895660	0.284614
927.075109	0.283678
927.254539	0.282887
927.433951	0.282210
927.613345	0.280257
927.792721	0.278881
927.972079	0.277725
928.151418	0.277069
928.330739	0.275735
928.510042	0.274148
928.689327	0.273981
928.868593	0.273023
929.047841	0.272097
929.227071	0.271578
929.406283	0.270908
929.585476	0.270642
929.764652	0.269441
929.943809	0.269011
930.122948	0.268639
930.302068	0.267807
930.481171	0.267624
930.660255	0.266882
930.839321	0.266301
931.018369	0.266149
931.197398	0.264704
931.376409	0.264386
931.555402	0.263935
931.734377	0.262423
931.913334	0.261541
932.092272	0.260262
932.271192	0.260315
932.450094	0.259284
932.628978	0.258343
932.807844	0.258272
932.986691	0.257293
933.165520	0.256132
933.344331	0.256264
933.523123	0.255744
933.701898	0.254289
933.880654	0.252060
934.059392	0.250978
934.238111	0.249805
934.416813	0.248763
934.595496	0.247640
934.774161	0.247954
934.952808	0.246571
935.131437	0.245214
935.310047	0.245343
935.488639	0.245405
935.667213	0.245060
935.845769	0.244245
936.024306	0.243498
936.202825	0.243093
936.381326	0.241488
936.559809	0.240253
936.738274	0.239258
936.916720	0.237745
937.095148	0.236965
937.273558	0.236299
937.451950	0.235226
937.630323	0.233684
937.808678	0.232181
937.987015	0.230611
938.165334	0.229642
938.343635	0.228096
938.521917	0.227173
938.700181	0.225460
938.878427	0.223900
939.056655	0.222521
939.234864	0.222332
939.413055	0.221857
939.591228	0.221209
939.769383	0.220303
939.947519	0.220483
940.125638	0.219463
940.303738	0.218087
940.481820	0.216067
940.659883	0.215944
940.837929	0.214124
941.015956	0.212374
941.193965	0.210774
941.371955	0.209130
941.549928	0.207304
941.727882	0.207203
941.905818	0.206157
942.083736	0.206010
942.261636	0.204613
942.439517	0.203499
942.617380	0.202670
942.795225	0.201922
942.973052	0.200250
943.150860	0.199085
943.328651	0.195795
943.506423	0.195415
943.684176	0.194972
943.861912	0.193398
944.039629	0.192108
944.217328	0.191679
944.395009	0.191110
944.572672	0.190751
944.750317	0.190408
944.927943	0.190227
945.105551	0.188036
945.283141	0.186699
945.460712	0.184505
945.638265	0.184077
945.815801	0.182522
945.993317	0.180942
946.170816	0.179853
946.348297	0.178070
946.525759	0.177124
946.703203	0.177182
946.880629	0.176038
947.058036	0.176715
947.235425	0.175594
947.412797	0.175198
947.590149	0.172341
947.767484	0.172155
947.944800	0.171006
948.122099	0.168856
948.299379	0.168491
948.476640	0.167423
948.653884	0.166093
948.831109	0.165752
949.008316	0.163708
949.185505	0.164411
949.362676	0.163540
949.539828	0.161875
949.716962	0.162572
949.894078	0.161232
950.071176	0.159246
950.248256	0.156824
950.425317	0.154348
950.602360	0.153276
950.779385	0.152671
950.956391	0.151761
951.133380	0.151445
951.310350	0.150848
951.487302	0.147910
951.664235	0.147488
951.841151	0.147449
952.018048	0.148165
952.194927	0.146400
952.371788	0.145049
952.548631	0.145247
952.725455	0.143149
952.902261	0.141078
953.079049	0.141480
953.255819	0.140850
953.432570	0.138602
953.609303	0.136025
953.786018	0.134953
953.962715	0.133506
954.139394	0.131987
954.316054	0.132580
954.492696	0.133012
954.669320	0.131991
954.845926	0.132341
955.022513	0.132138
955.199083	0.130345
955.375634	0.130679
955.552166	0.130791
955.728681	0.128350
955.905177	0.126562
956.081655	0.124644
956.258115	0.122676
956.434557	0.120598
956.610980	0.121057
956.787385	0.121686
956.963772	0.121011
957.140141	0.118642
957.316492	0.116145
957.492824	0.116852
957.669138	0.115578
957.845434	0.114115
958.021712	0.113326
958.197971	0.112192
958.374212	0.111006
958.550435	0.109735
958.726640	0.109942
958.902826	0.110420
959.078995	0.106343
959.255145	0.105473
959.431277	0.104416
959.607390	0.103891
959.783486	0.102040
959.959563	0.102010
960.135622	0.100786
960.311662	0.099946
960.487685	0.101040
960.663689	0.101609
960.839675	0.101116
961.015643	0.102591
961.191593	0.101447
961.367524	0.103418
961.543437	0.102699
961.719332	0.102887
961.895209	0.102940
962.071067	0.100438
962.246907	0.099185
962.422730	0.098913
962.598533	0.096045
962.774319	0.094724
962.950086	0.092933
963.125835	0.090905
963.301566	0.089422
963.477279	0.088136
963.652973	0.088562
963.828650	0.091086
964.004308	0.090840
964.179947	0.091823
964.355569	0.091891
964.531172	0.090602
964.706757	0.089909
964.882324	0.090497
965.057873	0.091778
965.233403	0.092483
965.408916	0.091414
965.584410	0.091497
965.759885	0.091896
965.935343	0.092138
966.110782	0.093446
966.286203	0.094033
966.461606	0.093492
966.636991	0.092770
966.812357	0.093969
966.987705	0.093731
967.163035	0.092540
967.338347	0.092210
967.513641	0.092438
967.688916	0.092431
967.864173	0.094456
968.039412	0.094753
968.214632	0.093556
968.389835	0.091688
968.565019	0.091794
968.740185	0.091067
968.915333	0.090003
969.090462	0.088448
969.265573	0.088576
969.440667	0.088652
969.615741	0.087899
969.790798	0.088503
969.965836	0.089487
970.140856	0.089032
970.315858	0.090257
970.490842	0.092777
970.665808	0.093900
970.840755	0.091465
971.015684	0.090674
971.190595	0.090995
971.365487	0.090053
971.540362	0.088898
971.715218	0.090294
971.890056	0.089467
972.064875	0.087264
972.239677	0.086759
972.414460	0.088642
972.589225	0.088960
972.763972	0.090041
972.938700	0.089485
973.113411	0.088593
973.288103	0.087005
973.462777	0.087680
973.637432	0.089493
973.812070	0.091032
973.986689	0.090547
974.161290	0.091092
974.335873	0.090185
974.510437	0.091349
974.684984	0.092955
974.859512	0.093064
975.034022	0.093307
975.208513	0.092707
975.382987	0.090751
975.557442	0.091344
975.731879	0.089480
975.906298	0.092914
976.080698	0.094355
976.255080	0.095486
976.429445	0.095641
976.603790	0.094929
976.778118	0.096958
976.952427	0.099053
977.126719	0.099114
977.300992	0.099384
977.475246	0.096679
977.649483	0.094812
977.823701	0.091489
977.997901	0.091473
978.172083	0.090277
978.346247	0.087914
978.520392	0.087750
978.694519	0.086861
978.868628	0.088499
979.042719	0.088418
979.216791	0.087838
979.390845	0.087994
979.564882	0.087858
979.738899	0.088703
979.912899	0.089214
980.086880	0.087292
980.260843	0.086652
980.434788	0.084793
980.608715	0.084161
980.782623	0.085837
980.956514	0.086111
981.130386	0.084096
981.304240	0.084405
981.478075	0.084576
981.651892	0.086300
981.825692	0.086037
981.999472	0.087242
982.173235	0.087531
982.346980	0.087522
982.520706	0.087103
982.694414	0.090041
982.868104	0.090604
983.041775	0.089708
983.215428	0.088625
983.389064	0.089180
983.562680	0.088362
983.736279	0.088677
983.909860	0.086122
984.083422	0.088456
984.256966	0.088324
984.430491	0.087894
984.603999	0.088945
984.777488	0.089084
984.950959	0.090055
985.124412	0.090200
985.297847	0.090059
985.471263	0.092771
985.644661	0.089399
985.818041	0.086448
985.991403	0.087285
986.164747	0.087510
986.338072	0.087929
986.511379	0.087790
986.684668	0.087636
986.857938	0.087775
987.031191	0.087391
987.204425	0.089471
987.377641	0.092371
987.550839	0.092953
987.724018	0.092023
987.897179	0.091949
988.070322	0.091469
988.243447	0.091768
988.416554	0.091200
988.589642	0.091090
988.762712	0.091816
988.935764	0.092938
989.108798	0.091950
989.281813	0.090240
989.454811	0.090034
989.627790	0.090915
989.800751	0.092034
989.973693	0.093874
990.146617	0.094909
990.319524	0.094485
990.492412	0.093829
990.665281	0.094503
990.838133	0.096534
991.010966	0.097484
991.183781	0.095814
991.356578	0.095395
991.529356	0.094781
991.702117	0.092795
991.874859	0.093629
992.047583	0.093967
992.220288	0.094139
992.392976	0.094074
992.565645	0.094678
992.738296	0.096023
992.910929	0.095798
993.083543	0.095730
993.256139	0.095527
993.428718	0.095596
993.601277	0.094668
993.773819	0.093545
993.946342	0.094100
994.118848	0.093182
994.291335	0.093422
994.463803	0.092975
994.636254	0.093876
994.808686	0.095077
994.981100	0.094132
995.153496	0.093869
995.325874	0.093500
995.498233	0.093489
995.670574	0.093863
995.842897	0.093623
996.015202	0.095157
996.187488	0.093951
996.359757	0.092505
996.532007	0.093391
996.704239	0.093441
996.876452	0.093050
997.048648	0.090307
997.220825	0.091219
997.392984	0.090761
997.565124	0.088849
997.737247	0.088564
997.909351	0.089480
998.081437	0.090214
998.253505	0.090851
998.425554	0.094681
998.597586	0.097798
998.769599	0.095687
998.941594	0.097641
999.113571	0.098095
999.285529	0.098958
999.457469	0.099213
999.629391	0.098100
999.801295	0.097150
999.973181	0.093439
1000.145048	0.092327
1000.316897	0.093175
1000.488728	0.092448
1000.660541	0.094035
1000.832335	0.094495
1001.004111	0.094236
1001.175869	0.093801
1001.347609	0.093412
1001.519331	0.094168
1001.691034	0.093858
1001.862719	0.095139
1002.034386	0.093642
1002.206035	0.092334
1002.377665	0.092185
1002.549277	0.091653
1002.720871	0.091704
1002.892447	0.093154
1003.064004	0.094288
1003.235544	0.096032
1003.407065	0.096182
1003.578568	0.097479
1003.750052	0.097156
1003.921519	0.096690
1004.092967	0.097805
1004.264397	0.097846
1004.435809	0.096716
1004.607202	0.097700
1004.778577	0.095737
1004.949934	0.093638
1005.121273	0.093143
1005.292594	0.094647
1005.463896	0.093383
1005.635180	0.093476
1005.806446	0.092101
1005.977694	0.093597
1006.148923	0.090993
1006.320135	0.091744
1006.491328	0.092409
1006.662503	0.092979
1006.833659	0.091880
1007.004798	0.092853
1007.175918	0.092274
1007.347020	0.094848
1007.518103	0.094111
1007.689169	0.095152
1007.860216	0.095844
1008.031245	0.096407
1008.202256	0.095480
1008.373248	0.095499
1008.544223	0.095651
1008.715179	0.093871
1008.886117	0.092666
1009.057036	0.093440
1009.227938	0.093915
1009.398821	0.093111
1009.569686	0.092508
1009.740533	0.094203
1009.911361	0.093869
1010.082172	0.093294
1010.252964	0.095688
1010.423738	0.095538
1010.594493	0.095014
1010.765231	0.094785
1010.935950	0.095842
1011.106651	0.096183
1011.277334	0.094731
1011.447998	0.096874
1011.618645	0.097130
1011.789273	0.096644
1011.959882	0.098333
1012.130474	0.098612
1012.301048	0.099239
1012.471603	0.097885
1012.642140	0.098508
1012.812658	0.098268
1012.983159	0.096595
1013.153641	0.097061
1013.324105	0.096389
1013.494551	0.094643
1013.664979	0.094926
1013.835388	0.093964
1014.005779	0.096714
1014.176152	0.096296
1014.346507	0.096309
1014.516843	0.096541
1014.687162	0.095329
1014.857462	0.097668
1015.027744	0.097176
1015.198007	0.096627
1015.368252	0.097754
1015.538480	0.095583
1015.708689	0.094710
1015.878879	0.095753
1016.049052	0.096278
1016.219206	0.098417
1016.389342	0.097562
1016.559460	0.098638
1016.729559	0.097836
1016.899641	0.097675
1017.069704	0.097169
1017.239749	0.097006
1017.409775	0.096634
1017.579784	0.095956
1017.749774	0.095778
1017.919746	0.094310
1018.089700	0.094920
1018.259635	0.095463
1018.429553	0.094062
1018.599452	0.095568
1018.769333	0.096537
1018.939195	0.095198
1019.109040	0.095365
1019.278866	0.094604
1019.448674	0.095981
1019.618464	0.094375
1019.788235	0.094661
1019.957989	0.093065
1020.127724	0.091980
1020.297441	0.091832
1020.467139	0.094882
1020.636820	0.095161
1020.806482	0.095208
1020.976126	0.093683
1021.145752	0.093449
1021.315359	0.093266
1021.484948	0.096740
1021.654519	0.096990
1021.824072	0.096553
1021.993607	0.093799
1022.163123	0.093832
1022.332621	0.092706
1022.502101	0.093716
1022.671563	0.096128
1022.841007	0.095767
1023.010432	0.095526
1023.179839	0.095382
1023.349228	0.096964
1023.518598	0.097101
1023.687951	0.096792
1023.857285	0.096733
1024.026601	0.097009
1024.195899	0.096280
1024.365178	0.097879
1024.534439	0.097342
1024.703682	0.097717
1024.872907	0.094786
1025.042114	0.096434
1025.211302	0.096573
1025.380472	0.098678
1025.549624	0.099089
1025.718758	0.100006
1025.887873	0.097899
1026.056970	0.097825
1026.226049	0.097595
1026.395110	0.099591
1026.564153	0.099871
1026.733177	0.100180
1026.902183	0.098645
1027.071171	0.095875
1027.240141	0.095143
1027.409092	0.095058
1027.578026	0.093854
1027.746940	0.093361
1027.915837	0.093397
1028.084716	0.092427
1028.253576	0.092778
1028.422418	0.094687
1028.591242	0.095142
1028.760048	0.094009
1028.928835	0.095618
1029.097604	0.096500
1029.266355	0.096041
1029.435088	0.095538
1029.603803	0.094485
1029.772499	0.091800
1029.941177	0.089635
1030.109837	0.092808
1030.278478	0.093630
1030.447102	0.093099
1030.615707	0.092271
1030.784294	0.092831
1030.952863	0.094088
1031.121413	0.094892
1031.289945	0.097223
1031.458460	0.097508
1031.626955	0.095662
1031.795433	0.096273
1031.963892	0.096144
1032.132334	0.096481
1032.300756	0.096860
1032.469161	0.095516
1032.637548	0.095867
1032.805916	0.095087
1032.974266	0.096460
1033.142598	0.098471
1033.310911	0.097704
1033.479207	0.096996
1033.647484	0.095687
1033.815743	0.095835
1033.983983	0.095598
1034.152206	0.095125
1034.320410	0.095833
1034.488596	0.093992
1034.656764	0.093399
1034.824914	0.093022
1034.993045	0.093888
1035.161158	0.095381
1035.329253	0.096045
1035.497330	0.095809
1035.665388	0.095899
1035.833428	0.094624
1036.001450	0.094152
1036.169454	0.093151
1036.337440	0.092385
1036.505407	0.092858
1036.673356	0.092731
1036.841287	0.092485
1037.009200	0.093397
1037.177094	0.092818
1037.344970	0.092947
1037.512828	0.094299
1037.680668	0.093414
1037.848489	0.094322
1038.016293	0.094633
1038.184078	0.096371
1038.351845	0.096020
1038.519593	0.094325
1038.687324	0.095058
1038.855036	0.095862
1039.022730	0.095103
1039.190406	0.095264
1039.358063	0.093462
1039.525702	0.092653
1039.693323	0.090306
1039.860926	0.090049
1040.028511	0.091909
1040.196077	0.090311
1040.363625	0.090319
1040.531155	0.091648
1040.698667	0.091823
1040.866161	0.094022
1041.033636	0.093192
1041.201093	0.092309
1041.368532	0.091542
1041.535952	0.089612
1041.703355	0.092101
1041.870739	0.091114
1042.038105	0.090773
1042.205452	0.090072
1042.372782	0.090890
1042.540093	0.091368
1042.707386	0.093166
1042.874661	0.093463
1043.041918	0.095296
1043.209156	0.096235
1043.376376	0.098115
1043.543578	0.097877
1043.710762	0.098188
1043.877927	0.097098
1044.045074	0.097770
1044.212203	0.097212
1044.379314	0.097278
1044.546407	0.095857
1044.713481	0.093059
1044.880537	0.092415
1045.047575	0.091238
1045.214595	0.092267
1045.381596	0.092071
1045.548579	0.090460
1045.715544	0.091106
1045.882491	0.092013
1046.049420	0.092413
1046.216330	0.094549
1046.383222	0.094404
1046.550096	0.095060
1046.716951	0.094394
1046.883789	0.094923
1047.050608	0.095954
1047.217409	0.095538
1047.384192	0.095319
1047.550956	0.095087
1047.717703	0.093225
1047.884431	0.092488
1048.051140	0.093782
1048.217832	0.095965
1048.384505	0.094617
1048.551161	0.095268
1048.717798	0.096237
1048.884416	0.094867
1049.051017	0.095170
1049.217599	0.095230
1049.384163	0.094952
1049.550709	0.093061
1049.717237	0.092117
1049.883746	0.093926
1050.050237	0.093543
1050.216710	0.091980
1050.383165	0.093802
1050.549601	0.094679
1050.716019	0.096958
1050.882420	0.097418
1051.048801	0.096578
1051.215165	0.095343
1051.381510	0.094440
1051.547837	0.094902
1051.714146	0.096008
1051.880437	0.095212
1052.046709	0.095483
1052.212964	0.093413
1052.379200	0.092828
1052.545417	0.095711
1052.711617	0.095797
1052.877798	0.095474
1053.043961	0.094485
1053.210106	0.095946
1053.376233	0.094690
1053.542341	0.093736
1053.708432	0.092561
1053.874504	0.093224
1054.040557	0.091427
1054.206593	0.091283
1054.372610	0.090782
1054.538609	0.090680
1054.704590	0.089850
1054.870553	0.090491
1055.036497	0.089942
1055.202424	0.092852
1055.368331	0.091911
1055.534221	0.091325
1055.700093	0.092772
1055.865946	0.093008
1056.031781	0.093188
1056.197598	0.092575
1056.363397	0.092499
1056.529177	0.093860
1056.694939	0.092839
1056.860683	0.092809
1057.026409	0.093625
1057.192116	0.093641
1057.357806	0.094255
1057.523477	0.095095
1057.689130	0.093855
1057.854764	0.093695
1058.020381	0.092999
1058.185979	0.093127
1058.351559	0.094308
1058.517120	0.095066
1058.682664	0.095838
1058.848189	0.096179
1059.013696	0.093968
1059.179185	0.093256
1059.344656	0.093183
1059.510108	0.093394
1059.675542	0.093260
1059.840958	0.094470
1060.006356	0.094564
1060.171735	0.092995
1060.337096	0.093194
1060.502439	0.096500
1060.667764	0.098696
1060.833071	0.099580
1060.998359	0.099972
1061.163629	0.099626
1061.328881	0.098331
1061.494115	0.097848
1061.659330	0.097629
1061.824527	0.097154
1061.989706	0.095745
1062.154867	0.095793
1062.320010	0.096094
1062.485134	0.097156
1062.650240	0.097378
1062.815328	0.097049
1062.980398	0.097355
1063.145449	0.098204
1063.310482	0.098504
1063.475497	0.098197
1063.640494	0.098884
1063.805473	0.099026
1063.970433	0.096990
1064.135375	0.097458
1064.300299	0.097007
1064.465204	0.095972
1064.630092	0.094720
1064.794961	0.094031
1064.959812	0.093956
1065.124645	0.094229
1065.289459	0.093828
1065.454256	0.095012
1065.619034	0.094863
1065.783793	0.095395
1065.948535	0.097125
1066.113258	0.097157
1066.277964	0.096656
1066.442651	0.095924
1066.607319	0.093381
1066.771970	0.093566
1066.936602	0.093280
1067.101216	0.093844
1067.265812	0.093849
1067.430389	0.093581
1067.594949	0.095009
1067.759490	0.094548
1067.924013	0.096057
1068.088518	0.096201
1068.253004	0.096077
1068.417472	0.096759
1068.581922	0.093191
1068.746354	0.095085
1068.910768	0.095932
1069.075163	0.096443
1069.239540	0.096831
1069.403899	0.096279
1069.568240	0.096246
1069.732562	0.097469
1069.896866	0.096518
1070.061152	0.100628
1070.225420	0.097910
1070.389670	0.096009
1070.553901	0.095191
1070.718114	0.096400
1070.882309	0.095850
1071.046486	0.098761
1071.210644	0.099971
1071.374784	0.099754
1071.538906	0.099579
1071.703010	0.102923
1071.867096	0.104320
1072.031163	0.105300
1072.195212	0.105066
1072.359243	0.104970
1072.523256	0.103518
1072.687250	0.101169
1072.851226	0.104144
1073.015184	0.104255
1073.179124	0.102666
1073.343045	0.101494
1073.506949	0.099032
1073.670834	0.098707
1073.834701	0.099427
1073.998549	0.098581
1074.162380	0.098751
1074.326192	0.095958
1074.489986	0.095401
1074.653761	0.094188
1074.817519	0.093787
1074.981258	0.095673
1075.144979	0.095178
1075.308682	0.095168
1075.472367	0.096891
1075.636033	0.096709
1075.799681	0.097599
1075.963311	0.095890
1076.126923	0.099603
1076.290516	0.101955
1076.454092	0.101611
1076.617649	0.104387
1076.781187	0.104559
1076.944708	0.103316
1077.108210	0.102740
1077.271695	0.102318
1077.435160	0.104114
1077.598608	0.100714
1077.762038	0.099026
1077.925449	0.098291
1078.088842	0.099063
1078.252217	0.099721
1078.415573	0.100492
1078.578912	0.099224
1078.742232	0.100327
1078.905534	0.101043
1079.068817	0.100876
1079.232083	0.103936
1079.395330	0.103363
1079.558559	0.102336
1079.721770	0.101542
1079.884962	0.102121
1080.048136	0.105126
1080.211293	0.105306
1080.374430	0.104338
1080.537550	0.105713
1080.700651	0.100756
1080.863735	0.101705
1081.026800	0.101570
1081.189846	0.101544
1081.352875	0.100111
1081.515885	0.098247
1081.678877	0.097397
1081.841851	0.096154
1082.004807	0.094257
1082.167744	0.096627
1082.330663	0.097636
1082.493564	0.098052
1082.656447	0.099537
1082.819312	0.099337
1082.982158	0.100933
1083.144986	0.100656
1083.307796	0.100272
1083.470587	0.102339
1083.633361	0.101939
1083.796116	0.104049
1083.958853	0.103276
1084.121571	0.101476
1084.284272	0.104405
1084.446954	0.106315
1084.609618	0.104676
1084.772264	0.103187
1084.934892	0.102831
1085.097501	0.104278
1085.260092	0.101378
1085.422665	0.101287
1085.585220	0.099505
1085.747756	0.097186
1085.910274	0.093964
1086.072774	0.094589
1086.235256	0.096399
1086.397720	0.096119
1086.560165	0.096609
1086.722592	0.096266
1086.885001	0.094339
1087.047392	0.099930
1087.209764	0.099737
1087.372119	0.102003
1087.534455	0.102863
1087.696772	0.101796
1087.859072	0.103129
1088.021353	0.100719
1088.183616	0.103890
1088.345861	0.106202
1088.508088	0.103859
1088.670296	0.106790
1088.832486	0.106039
1088.994658	0.106669
1089.156812	0.107521
1089.318948	0.106766
1089.481065	0.108336
1089.643164	0.106688
1089.805245	0.105920
1089.967308	0.105920
1090.129352	0.101109
1090.291378	0.101194
1090.453386	0.101655
1090.615376	0.103538
1090.777347	0.103513
1090.939301	0.104975
1091.101236	0.106019
1091.263153	0.108720
1091.425051	0.108080
1091.586932	0.112562
1091.748794	0.114265
1091.910638	0.114000
1092.072463	0.113668
1092.234271	0.114134
1092.396060	0.112235
1092.557831	0.111580
1092.719584	0.107947
1092.881319	0.108044
1093.043035	0.106360
1093.204733	0.104503
1093.366413	0.105511
1093.528075	0.105656
1093.689718	0.104682
1093.851343	0.105012
1094.012950	0.103937
1094.174539	0.106145
1094.336110	0.107616
1094.497662	0.106486
1094.659196	0.107954
1094.820712	0.107018
1094.982210	0.107504
1095.143689	0.108568
1095.305151	0.110860
1095.466594	0.110301
1095.628018	0.112583
1095.789425	0.110678
1095.950813	0.112623
1096.112183	0.109389
1096.273535	0.107445
1096.434869	0.107658
1096.596184	0.107765
1096.757482	0.105676
1096.918761	0.105242
1097.080021	0.101927
1097.241264	0.101860
1097.402488	0.102092
1097.563694	0.103462
1097.724882	0.107086
1097.886052	0.108021
1098.047203	0.109196
1098.208336	0.111103
1098.369451	0.111095
1098.530548	0.111911
1098.691627	0.110510
1098.852687	0.108147
1099.013729	0.108838
1099.174753	0.105458
1099.335758	0.104021
1099.496746	0.101853
1099.657715	0.101273
1099.818666	0.104184
1099.979599	0.102699
1100.140513	0.103888
1100.301409	0.106999
1100.462287	0.107132
1100.623147	0.107797
1100.783989	0.104952
1100.944812	0.103974
1101.105617	0.101641
1101.266404	0.099162
1101.427173	0.099117
1101.587923	0.099442
1101.748656	0.095497
1101.909370	0.093550
1102.070066	0.094476
1102.230743	0.096045
1102.391403	0.099320
1102.552044	0.101435
1102.712667	0.102375
1102.873271	0.103028
1103.033858	0.104655
1103.194426	0.107348
1103.354976	0.109114
1103.515508	0.105918
1103.676021	0.106333
1103.836517	0.104561
1103.996994	0.104906
1104.157453	0.105091
1104.317893	0.107646
1104.478316	0.105872
1104.638720	0.104144
1104.799106	0.106043
1104.959474	0.106467
1105.119823	0.106209
1105.280155	0.109766
1105.440468	0.107341
1105.600763	0.107959
1105.761039	0.106183
1105.921298	0.107030
1106.081538	0.108020
1106.241760	0.104678
1106.401964	0.108146
1106.562149	0.109281
1106.722316	0.105326
1106.882465	0.105983
1107.042596	0.108629
1107.202709	0.109003
1107.362803	0.106499
1107.522879	0.108414
1107.682937	0.108298
1107.842977	0.106519
1108.002999	0.106987
1108.163002	0.108632
1108.322987	0.109648
1108.482954	0.106502
1108.642902	0.105032
1108.802833	0.109638
1108.962745	0.108154
1109.122639	0.112067
1109.282515	0.115078
1109.442372	0.114121
1109.602211	0.111443
1109.762032	0.111419
1109.921835	0.111373
1110.081620	0.111112
1110.241386	0.110931
1110.401134	0.113438
1110.560864	0.108669
1110.720576	0.106579
1110.880269	0.108990
1111.039945	0.110682
1111.199602	0.110149
1111.359240	0.110273
1111.518861	0.110153
1111.678463	0.107059
1111.838047	0.104968
1111.997613	0.105987
1112.157161	0.108093
1112.316690	0.107465
1112.476202	0.105876
1112.635695	0.105261
1112.795169	0.103307
1112.954626	0.101978
1113.114064	0.103725
1113.273484	0.103714
1113.432886	0.106443
1113.592270	0.108409
1113.751635	0.107658
1113.910983	0.108712
1114.070312	0.107948
1114.229622	0.107701
1114.388915	0.110872
1114.548189	0.110708
1114.707445	0.107192
1114.866683	0.106417
1115.025903	0.105475
1115.185104	0.106107
1115.344287	0.104891
1115.503452	0.105249
1115.662599	0.107199
1115.821727	0.104976
1115.980838	0.103093
1116.139930	0.106384
1116.299004	0.099968
1116.458059	0.098432
1116.617097	0.097902
1116.776116	0.097277
1116.935117	0.097572
1117.094099	0.098103
1117.253064	0.099100
1117.412010	0.099434
1117.570938	0.099244
1117.729848	0.104961
1117.888740	0.104801
1118.047613	0.103641
1118.206468	0.107736
1118.365305	0.107048
1118.524124	0.105128
1118.682924	0.106955
1118.841707	0.109846
1119.000471	0.111239
1119.159216	0.113135
1119.317944	0.108947
1119.476653	0.109335
1119.635344	0.105183
1119.794017	0.108576
1119.952672	0.109858
1120.111308	0.109158
1120.269927	0.109745
1120.428527	0.108252
1120.587108	0.110072
1120.745672	0.112751
1120.904217	0.113009
1121.062744	0.116269
1121.221253	0.113385
1121.379744	0.115157
1121.538216	0.109905
1121.696671	0.110603
1121.855107	0.110069
1122.013524	0.106157
1122.171924	0.105241
1122.330305	0.103298
1122.488668	0.100236
1122.647013	0.099667
1122.805340	0.096217
1122.963648	0.097449
1123.121938	0.094406
1123.280210	0.096216
1123.438464	0.096329
1123.596700	0.097498
1123.754917	0.097426
1123.913116	0.096508
1124.071297	0.099231
1124.229459	0.101131
1124.387604	0.102024
1124.545730	0.101529
1124.703838	0.099568
1124.861928	0.102234
1125.019999	0.104629
1125.178052	0.108534
1125.336088	0.113192
1125.494104	0.114239
1125.652103	0.116414
1125.810083	0.120174
1125.968045	0.120888
1126.125989	0.123976
1126.283915	0.122099
1126.441823	0.116409
1126.599712	0.114453
1126.757583	0.111939
1126.915436	0.109147
1127.073270	0.106511
1127.231087	0.105478
1127.388885	0.106666
1127.546665	0.105537
1127.704426	0.104568
1127.862170	0.108004
1128.019895	0.106249
1128.177602	0.104951
1128.335291	0.106234
1128.492961	0.104587
1128.650614	0.102990
1128.808248	0.099126
1128.965864	0.097266
1129.123461	0.098389
1129.281041	0.094622
1129.438602	0.096917
1129.596145	0.100234
1129.753670	0.098757
1129.911176	0.101104
1130.068665	0.101235
1130.226135	0.106853
1130.383587	0.109684
1130.541020	0.109268
1130.698436	0.114432
1130.855833	0.116465
1131.013212	0.117330
1131.170573	0.118282
1131.327915	0.115646
1131.485239	0.114297
1131.642545	0.111088
1131.799833	0.109562
1131.957103	0.106636
1132.114354	0.108127
1132.271588	0.104876
1132.428803	0.105773
1132.585999	0.106686
1132.743178	0.112073
1132.900338	0.112240
1133.057480	0.112873
1133.214604	0.113235
1133.371710	0.115480
1133.528797	0.110971
1133.685866	0.110546
1133.842917	0.107482
1133.999950	0.107544
1134.156964	0.104168
1134.313960	0.104190
1134.470938	0.102849
1134.627898	0.102827
1134.784840	0.101875
1134.941763	0.107239
1135.098668	0.105005
1135.255555	0.106631
1135.412424	0.104493
1135.569274	0.108714
1135.726107	0.109538
1135.882921	0.110738
1136.039716	0.107270
1136.196494	0.110578
1136.353253	0.106619
1136.509995	0.112357
1136.666717	0.106625
1136.823422	0.103876
1136.980109	0.099775
1137.136777	0.100965
1137.293427	0.101736
1137.450059	0.105159
1137.606672	0.105217
1137.763267	0.106155
1137.919844	0.101485
1138.076403	0.108162
1138.232944	0.106809
1138.389466	0.105996
1138.545971	0.104639
1138.702457	0.104854
1138.858924	0.105829
1139.015374	0.103755
1139.171805	0.100705
1139.328218	0.108559
1139.484613	0.103521
1139.640990	0.108910
1139.797348	0.106539
1139.953688	0.107403
1140.110010	0.108538
1140.266314	0.105486
1140.422600	0.108499
1140.578867	0.110292
1140.735116	0.102926
1140.891347	0.106612
1141.047559	0.104924
1141.203754	0.106445
1141.359930	0.102675
1141.516088	0.100014
1141.672228	0.101450
1141.828349	0.093067
1141.984452	0.090855
1142.140537	0.091592
1142.296604	0.091160
1142.452653	0.091123
1142.608683	0.089478
1142.764695	0.092137
1142.920689	0.092138
1143.076665	0.090304
1143.232622	0.094724
1143.388562	0.097519
1143.544483	0.099728
1143.700385	0.097988
1143.856270	0.099563
1144.012136	0.105428
1144.167985	0.106738
1144.323814	0.107128
1144.479626	0.110785
1144.635420	0.110770
1144.791195	0.113728
1144.946952	0.115085
1145.102691	0.111723
1145.258411	0.113350
1145.414113	0.108359
1145.569798	0.109942
1145.725463	0.105804
1145.881111	0.107256
1146.036741	0.106669
1146.192352	0.098763
1146.347945	0.098465
1146.503519	0.100578
1146.659076	0.097603
1146.814614	0.095743
1146.970134	0.094655
1147.125636	0.092924
1147.281120	0.093221
1147.436585	0.091005
1147.592032	0.092490
1147.747461	0.085655
1147.902872	0.085149
1148.058265	0.087225
1148.213639	0.091706
1148.368995	0.085930
1148.524333	0.092202
1148.679653	0.088974
1148.834954	0.091934
1148.990237	0.097776
1149.145502	0.102371
1149.300749	0.104857
1149.455977	0.101482
1149.611188	0.100453
1149.766380	0.101627
1149.921553	0.100268
1150.076709	0.097674
1150.231846	0.095662
1150.386966	0.089889
1150.542066	0.088506
1150.697149	0.085432
1150.852214	0.092375
1151.007260	0.092261
1151.162288	0.095866
1151.317298	0.096128
1151.472289	0.096536
1151.627263	0.097159
1151.782218	0.098009
1151.937155	0.096354
1152.092073	0.101773
1152.246974	0.095960
1152.401856	0.092233
1152.556720	0.092234
1152.711566	0.092414
1152.866393	0.088812
1153.021203	0.090603
1153.175994	0.090854
1153.330767	0.092952
1153.485521	0.087057
1153.640258	0.086361
1153.794976	0.093650
1153.949676	0.096324
1154.104358	0.095565
1154.259021	0.101195
1154.413667	0.101364
1154.568294	0.104111
1154.722903	0.107750
1154.877493	0.111502
1155.032066	0.114329
1155.186620	0.111483
1155.341156	0.108513
1155.495674	0.107118
1155.650173	0.102833
1155.804654	0.102734
1155.959118	0.098067
1156.113562	0.093330
1156.267989	0.094108
1156.422397	0.091361
1156.576788	0.086696
1156.731160	0.085071
1156.885513	0.084343
1157.039849	0.087988
1157.194166	0.089339
1157.348465	0.091223
1157.502746	0.089980
1157.657009	0.089226
1157.811253	0.087688
1157.965479	0.091342
1158.119687	0.098001
1158.273877	0.099486
1158.428048	0.096597
1158.582201	0.093992
1158.736337	0.089734
1158.890453	0.095403
1159.044552	0.094750
1159.198632	0.093029
1159.352694	0.092888
1159.506738	0.084914
1159.660764	0.080865
1159.814771	0.078837
1159.968761	0.074073
1160.122732	0.077114
1160.276685	0.071450
1160.430619	0.071826
1160.584535	0.077659
1160.738434	0.079894
1160.892313	0.084102
1161.046175	0.091917
1161.200019	0.100238
1161.353844	0.103897
1161.507651	0.104360
1161.661440	0.103214
1161.815210	0.110260
1161.968962	0.106273
1162.122697	0.105649
1162.276412	0.107994
1162.430110	0.101426
1162.583789	0.097171
1162.737451	0.098301
1162.891094	0.101390
1163.044718	0.107237
1163.198325	0.093516
1163.351913	0.095593
1163.505483	0.095297
1163.659035	0.091158
1163.812569	0.094287
1163.966084	0.093596
1164.119581	0.097377
1164.273060	0.095699
1164.426521	0.095386
1164.579964	0.100741
1164.733388	0.098655
1164.886794	0.090989
1165.040182	0.088302
1165.193551	0.089912
1165.346903	0.089491
1165.500236	0.089149
1165.653551	0.087830
1165.806848	0.084095
1165.960126	0.085664
1166.113386	0.084862
1166.266628	0.091828
1166.419852	0.096160
1166.573058	0.090178
1166.726245	0.087470
1166.879414	0.079591
1167.032565	0.081485
1167.185698	0.080587
1167.338812	0.076916
1167.491909	0.082861
1167.644987	0.082017
1167.798046	0.081279
1167.951088	0.085818
1168.104111	0.094234
1168.257117	0.096974
1168.410103	0.095716
1168.563072	0.096337
1168.716023	0.100081
1168.868955	0.098407
1169.021869	0.094600
1169.174765	0.094808
1169.327642	0.089998
1169.480501	0.086458
1169.633343	0.087434
1169.786165	0.087091
1169.938970	0.083818
1170.091757	0.081509
1170.244525	0.078626
1170.397275	0.085411
1170.550007	0.086471
1170.702720	0.088945
1170.855415	0.085710
1171.008092	0.087975
1171.160751	0.090986
1171.313392	0.097213
1171.466014	0.076306
1171.618619	0.104688
1171.771205	0.104688
1171.923772	0.104688
