sample name	sample
index	1458
start time	 05-10-2021  01:48:34 PM


Wavelength (nm)	Absorbance
494.344910	0.049042
494.563924	0.049042
494.782919	0.049042
495.001897	0.016734
495.220856	0.020939
495.439797	0.010464
495.658719	-0.001248
495.877624	-0.012644
496.096510	-0.011546
496.315378	-0.014162
496.534227	-0.011482
496.753059	-0.014089
496.971872	-0.021792
497.190667	0.035067
497.409444	0.067377
497.628203	0.077824
497.846943	0.087226
498.065665	0.092607
498.284369	0.096087
498.503055	0.097386
498.721723	0.098791
498.940372	0.099664
499.159003	0.099560
499.377616	0.099877
499.596210	0.100035
499.814787	0.099264
500.033345	0.098931
500.251885	0.098078
500.470406	0.097133
500.688910	0.097892
500.907395	0.099066
501.125862	0.099149
501.344311	0.099329
501.562742	0.099978
501.781154	0.099835
501.999548	0.099020
502.217924	0.099222
502.436282	0.100623
502.654621	0.100598
502.872942	0.099867
503.091245	0.100914
503.309530	0.101163
503.527797	0.101666
503.746045	0.102438
503.964275	0.102801
504.182487	0.103796
504.400681	0.102818
504.618856	0.103487
504.837013	0.104078
505.055152	0.104078
505.273273	0.103997
505.491376	0.104111
505.709460	0.103980
505.927526	0.103711
506.145574	0.102485
506.363604	0.102884
506.581615	0.103020
506.799608	0.102916
507.017583	0.102352
507.235540	0.101965
507.453478	0.101694
507.671399	0.102606
507.889301	0.102883
508.107185	0.103146
508.325050	0.103316
508.542898	0.102196
508.760727	0.102297
508.978538	0.102775
509.196330	0.104054
509.414105	0.104561
509.631861	0.103600
509.849599	0.103972
510.067319	0.104134
510.285021	0.104073
510.502704	0.105117
510.720369	0.104784
510.938016	0.104516
511.155645	0.103793
511.373255	0.103532
511.590848	0.104229
511.808422	0.104589
512.025977	0.105723
512.243515	0.105848
512.461034	0.105750
512.678536	0.105543
512.896018	0.106324
513.113483	0.106171
513.330930	0.106329
513.548358	0.105723
513.765768	0.105035
513.983160	0.104233
514.200533	0.104911
514.417889	0.104932
514.635226	0.105672
514.852545	0.105000
515.069845	0.104513
515.287128	0.104738
515.504392	0.104503
515.721638	0.104577
515.938866	0.104923
516.156075	0.104918
516.373267	0.104544
516.590440	0.104626
516.807594	0.105465
517.024731	0.106361
517.241850	0.106719
517.458950	0.107023
517.676032	0.107316
517.893095	0.106834
518.110141	0.106275
518.327168	0.106863
518.544177	0.106778
518.761168	0.106800
518.978141	0.107112
519.195095	0.107216
519.412031	0.107765
519.628949	0.107775
519.845849	0.108201
520.062731	0.108572
520.279594	0.108846
520.496439	0.108453
520.713266	0.107854
520.930074	0.107571
521.146865	0.107665
521.363637	0.107427
521.580391	0.107467
521.797127	0.107796
522.013844	0.107843
522.230543	0.107141
522.447224	0.107578
522.663887	0.108282
522.880532	0.108880
523.097158	0.108532
523.313766	0.108701
523.530356	0.108595
523.746928	0.108543
523.963481	0.108996
524.180017	0.109588
524.396534	0.109984
524.613032	0.109400
524.829513	0.109483
525.045975	0.109314
525.262420	0.109296
525.478845	0.109548
525.695253	0.109184
525.911643	0.109085
526.128014	0.109291
526.344367	0.109692
526.560702	0.110099
526.777018	0.109681
526.993316	0.110386
527.209597	0.110619
527.425858	0.110940
527.642102	0.112193
527.858328	0.112409
528.074535	0.113079
528.290724	0.113138
528.506894	0.113535
528.723047	0.114318
528.939181	0.114655
529.155297	0.115131
529.371395	0.115353
529.587475	0.114588
529.803536	0.114462
530.019579	0.113707
530.235604	0.113640
530.451611	0.113668
530.667600	0.113744
530.883570	0.113437
531.099522	0.112846
531.315456	0.112253
531.531372	0.112640
531.747269	0.113195
531.963148	0.113827
532.179009	0.113981
532.394852	0.114436
532.610676	0.114500
532.826482	0.114457
533.042271	0.115624
533.258040	0.116357
533.473792	0.116899
533.689525	0.117204
533.905240	0.117627
534.120937	0.117775
534.336616	0.117794
534.552277	0.117939
534.767919	0.117847
534.983543	0.118208
535.199149	0.118673
535.414736	0.118350
535.630306	0.118450
535.845857	0.118409
536.061390	0.118205
536.276904	0.117626
536.492401	0.117623
536.707879	0.118142
536.923339	0.117901
537.138781	0.117859
537.354204	0.117923
537.569610	0.117917
537.784997	0.117781
538.000366	0.118216
538.215716	0.118472
538.431049	0.118293
538.646363	0.118586
538.861659	0.118191
539.076937	0.117986
539.292196	0.118391
539.507438	0.118767
539.722661	0.118117
539.937866	0.117753
540.153052	0.118186
540.368221	0.118344
540.583371	0.118648
540.798503	0.119306
541.013617	0.119371
541.228712	0.118981
541.443789	0.118328
541.658848	0.119195
541.873889	0.119947
542.088912	0.119995
542.303916	0.120232
542.518902	0.120164
542.733870	0.120055
542.948820	0.120712
543.163752	0.121189
543.378665	0.121707
543.593560	0.121961
543.808437	0.121973
544.023295	0.122093
544.238136	0.122346
544.452958	0.121868
544.667762	0.122023
544.882548	0.122135
545.097315	0.122275
545.312064	0.122119
545.526795	0.122042
545.741508	0.121670
545.956203	0.122052
546.170879	0.121786
546.385537	0.122410
546.600177	0.122408
546.814799	0.122177
547.029402	0.122467
547.243988	0.122859
547.458555	0.123399
547.673103	0.123552
547.887634	0.123758
548.102146	0.123961
548.316640	0.123695
548.531116	0.124204
548.745574	0.124732
548.960013	0.124986
549.174435	0.125246
549.388838	0.124884
549.603222	0.125720
549.817589	0.125902
550.031937	0.126221
550.246267	0.126856
550.460579	0.126581
550.674873	0.126263
550.889148	0.125719
551.103405	0.125739
551.317644	0.126153
551.531865	0.126140
551.746068	0.125896
551.960252	0.126118
552.174418	0.126057
552.388566	0.126112
552.602696	0.126109
552.816807	0.126606
553.030900	0.126430
553.244975	0.126193
553.459032	0.125895
553.673070	0.125725
553.887091	0.125954
554.101093	0.125702
554.315077	0.126008
554.529042	0.126221
554.742990	0.126382
554.956919	0.126367
555.170830	0.126661
555.384722	0.126953
555.598597	0.126996
555.812453	0.126853
556.026291	0.126916
556.240111	0.126560
556.453913	0.126895
556.667696	0.126507
556.881461	0.126697
557.095208	0.126604
557.308937	0.126523
557.522647	0.126818
557.736339	0.126634
557.950013	0.127193
558.163669	0.127238
558.377307	0.127066
558.590926	0.127283
558.804527	0.127335
559.018110	0.127030
559.231675	0.126494
559.445221	0.126126
559.658749	0.125985
559.872259	0.125639
560.085751	0.125588
560.299225	0.125552
560.512680	0.125537
560.726117	0.125770
560.939536	0.126367
561.152937	0.127223
561.366319	0.127402
561.579683	0.127622
561.793029	0.127751
562.006357	0.128186
562.219667	0.128403
562.432958	0.129037
562.646231	0.129273
562.859486	0.129195
563.072723	0.128722
563.285941	0.129335
563.499141	0.129453
563.712323	0.129754
563.925487	0.130033
564.138632	0.129737
564.351760	0.129186
564.564869	0.129049
564.777960	0.128996
564.991032	0.129248
565.204087	0.128841
565.417123	0.128737
565.630141	0.128972
565.843140	0.128677
566.056122	0.128965
566.269085	0.129271
566.482030	0.129380
566.694957	0.129874
566.907866	0.130123
567.120756	0.130521
567.333628	0.130717
567.546482	0.130219
567.759318	0.130269
567.972135	0.130657
568.184935	0.130821
568.397716	0.130590
568.610478	0.130392
568.823223	0.130446
569.035949	0.130452
569.248657	0.130630
569.461347	0.130809
569.674019	0.130949
569.886672	0.130942
570.099308	0.130710
570.311925	0.130804
570.524523	0.131010
570.737104	0.130735
570.949666	0.130525
571.162210	0.130964
571.374736	0.131340
571.587244	0.131526
571.799733	0.131461
572.012205	0.131887
572.224658	0.132423
572.437092	0.132139
572.649509	0.132448
572.861907	0.132952
573.074287	0.132570
573.286649	0.132572
573.498993	0.132520
573.711318	0.132836
573.923625	0.132956
574.135914	0.133122
574.348185	0.133287
574.560438	0.133514
574.772672	0.133532
574.984888	0.133882
575.197086	0.133867
575.409266	0.134077
575.621427	0.134160
575.833570	0.134229
576.045695	0.134399
576.257802	0.134443
576.469890	0.134792
576.681961	0.135094
576.894013	0.134960
577.106046	0.135236
577.318062	0.135213
577.530059	0.135106
577.742039	0.135149
577.954000	0.134887
578.165942	0.135176
578.377867	0.134848
578.589773	0.134788
578.801661	0.135217
579.013531	0.134963
579.225382	0.135038
579.437216	0.135319
579.649031	0.135623
579.860828	0.135829
580.072606	0.135763
580.284367	0.136029
580.496109	0.135989
580.707833	0.135823
580.919539	0.136181
581.131227	0.136338
581.342896	0.135970
581.554547	0.135391
581.766180	0.135290
581.977795	0.135635
582.189391	0.135942
582.400969	0.135969
582.612529	0.136361
582.824071	0.136680
583.035595	0.137039
583.247100	0.137539
583.458587	0.138107
583.670056	0.138491
583.881506	0.138291
584.092939	0.138172
584.304353	0.138768
584.515749	0.138844
584.727127	0.139005
584.938486	0.139096
585.149828	0.139283
585.361151	0.139477
585.572456	0.139600
585.783742	0.140311
585.995011	0.140380
586.206261	0.140213
586.417493	0.140321
586.628706	0.140132
586.839902	0.140115
587.051079	0.140078
587.262238	0.140020
587.473379	0.140141
587.684502	0.140040
587.895606	0.140279
588.106692	0.140340
588.317760	0.140575
588.528810	0.140731
588.739841	0.140682
588.950855	0.141036
589.161850	0.141351
589.372827	0.141379
589.583785	0.141447
589.794726	0.141916
590.005648	0.142516
590.216552	0.142787
590.427437	0.142999
590.638305	0.143342
590.849154	0.143330
591.059985	0.143271
591.270798	0.143258
591.481592	0.143425
591.692369	0.143002
591.903127	0.142658
592.113867	0.142676
592.324588	0.142851
592.535292	0.142889
592.745977	0.142835
592.956644	0.142975
593.167293	0.143362
593.377923	0.143216
593.588536	0.143493
593.799130	0.143352
594.009706	0.142943
594.220263	0.142927
594.430803	0.143128
594.641324	0.143166
594.851827	0.143294
595.062312	0.143170
595.272778	0.143612
595.483227	0.143747
595.693657	0.144169
595.904069	0.144569
596.114462	0.144622
596.324838	0.144412
596.535195	0.144469
596.745534	0.144745
596.955855	0.144736
597.166157	0.144401
597.376441	0.144274
597.586707	0.144545
597.796955	0.144607
598.007185	0.144651
598.217396	0.144969
598.427589	0.145180
598.637764	0.144989
598.847921	0.145011
599.058060	0.145018
599.268180	0.145228
599.478282	0.144828
599.688366	0.144887
599.898431	0.145240
600.108479	0.145083
600.318508	0.145141
600.528519	0.144980
600.738511	0.145146
600.948486	0.145410
601.158442	0.145464
601.368380	0.145428
601.578300	0.145338
601.788202	0.145173
601.998085	0.145276
602.207950	0.144901
602.417797	0.145122
602.627626	0.145049
602.837436	0.145253
603.047228	0.145046
603.257002	0.145256
603.466758	0.145290
603.676496	0.145372
603.886215	0.145439
604.095916	0.145905
604.305599	0.145991
604.515264	0.146313
604.724910	0.145967
604.934538	0.145956
605.144148	0.145839
605.353740	0.145939
605.563314	0.145795
605.772869	0.145887
605.982406	0.146048
606.191925	0.146191
606.401425	0.146011
606.610908	0.146336
606.820372	0.146582
607.029818	0.146948
607.239246	0.147162
607.448655	0.147462
607.658047	0.147770
607.867420	0.147956
608.076775	0.148011
608.286111	0.148569
608.495430	0.148720
608.704730	0.148771
608.914012	0.148832
609.123275	0.148986
609.332521	0.148967
609.541748	0.149044
609.750957	0.148993
609.960148	0.149149
610.169321	0.148922
610.378475	0.149041
610.587611	0.149245
610.796729	0.149302
611.005829	0.149160
611.214910	0.149401
611.423974	0.149596
611.633019	0.149844
611.842045	0.150135
612.051054	0.150243
612.260044	0.150384
612.469017	0.150488
612.677970	0.150884
612.886906	0.151030
613.095824	0.151119
613.304723	0.150966
613.513604	0.150845
613.722467	0.150686
613.931311	0.150666
614.140138	0.150576
614.348946	0.150657
614.557736	0.150442
614.766507	0.150699
614.975261	0.150769
615.183996	0.150737
615.392713	0.150827
615.601412	0.151084
615.810092	0.151534
616.018754	0.151662
616.227399	0.151964
616.436024	0.152248
616.644632	0.152168
616.853222	0.152392
617.061793	0.152694
617.270346	0.152847
617.478880	0.153018
617.687397	0.152899
617.895895	0.153082
618.104375	0.153121
618.312837	0.152952
618.521281	0.153229
618.729706	0.153089
618.938113	0.153031
619.146502	0.153091
619.354873	0.152916
619.563226	0.153219
619.771560	0.153271
619.979876	0.153210
620.188174	0.153480
620.396453	0.153278
620.604715	0.153380
620.812958	0.153432
621.021183	0.153333
621.229390	0.153661
621.437578	0.153376
621.645748	0.153348
621.853900	0.153316
622.062034	0.153471
622.270150	0.153635
622.478247	0.153761
622.686326	0.154035
622.894387	0.154333
623.102430	0.154202
623.310454	0.154301
623.518461	0.154863
623.726449	0.155135
623.934418	0.154904
624.142370	0.155019
624.350303	0.155094
624.558218	0.154839
624.766115	0.154935
624.973994	0.154804
625.181855	0.154700
625.389697	0.154239
625.597521	0.154133
625.805327	0.154165
626.013114	0.154223
626.220883	0.154250
626.428634	0.154300
626.636367	0.153973
626.844082	0.154252
627.051778	0.154254
627.259457	0.154275
627.467117	0.154341
627.674758	0.154099
627.882382	0.153837
628.089987	0.153715
628.297574	0.154070
628.505143	0.154374
628.712694	0.154474
628.920226	0.154663
629.127740	0.154683
629.335236	0.154472
629.542714	0.154951
629.750174	0.155132
629.957615	0.155350
630.165038	0.155203
630.372443	0.155261
630.579829	0.155129
630.787198	0.155275
630.994548	0.155377
631.201880	0.155637
631.409194	0.155513
631.616489	0.156005
631.823766	0.155992
632.031025	0.156150
632.238266	0.156323
632.445489	0.156355
632.652693	0.156658
632.859879	0.156828
633.067047	0.157054
633.274197	0.157485
633.481329	0.157388
633.688442	0.157625
633.895537	0.157567
634.102614	0.157713
634.309672	0.158017
634.516713	0.157973
634.723735	0.157862
634.930739	0.158079
635.137724	0.157973
635.344692	0.158085
635.551641	0.158303
635.758572	0.158548
635.965485	0.158359
636.172379	0.158442
636.379256	0.158529
636.586114	0.158704
636.792954	0.158578
636.999775	0.158818
637.206579	0.158598
637.413364	0.158502
637.620131	0.158537
637.826880	0.158639
638.033610	0.158453
638.240323	0.158410
638.447017	0.158658
638.653692	0.158926
638.860350	0.158972
639.066990	0.159064
639.273611	0.159213
639.480214	0.159303
639.686798	0.159437
639.893365	0.159718
640.099913	0.159905
640.306443	0.159906
640.512955	0.160017
640.719449	0.160030
640.925924	0.160328
641.132381	0.160321
641.338820	0.160475
641.545241	0.160723
641.751644	0.160810
641.958028	0.160842
642.164394	0.161016
642.370742	0.160961
642.577071	0.160982
642.783383	0.161122
642.989676	0.161219
643.195951	0.161420
643.402207	0.161346
643.608446	0.161623
643.814666	0.161743
644.020868	0.161954
644.227052	0.162294
644.433218	0.162205
644.639365	0.162200
644.845494	0.162333
645.051605	0.162351
645.257698	0.162708
645.463772	0.162507
645.669828	0.162598
645.875866	0.162441
646.081886	0.162450
646.287888	0.162833
646.493871	0.163134
646.699836	0.163138
646.905783	0.163193
647.111712	0.162937
647.317622	0.163308
647.523514	0.163497
647.729388	0.163947
647.935244	0.163956
648.141082	0.164043
648.346901	0.163868
648.552702	0.164014
648.758485	0.164162
648.964250	0.164378
649.169996	0.164168
649.375724	0.164056
649.581434	0.163707
649.787126	0.163734
649.992800	0.163666
650.198455	0.163779
650.404092	0.163855
650.609711	0.163737
650.815311	0.163686
651.020894	0.163763
651.226458	0.163883
651.432004	0.164291
651.637532	0.164336
651.843041	0.164369
652.048532	0.164362
652.254006	0.164415
652.459460	0.164530
652.664897	0.164754
652.870315	0.164902
653.075716	0.164879
653.281097	0.164660
653.486461	0.164562
653.691807	0.164588
653.897134	0.165062
654.102443	0.165347
654.307734	0.165485
654.513006	0.165758
654.718261	0.165979
654.923497	0.166234
655.128715	0.166667
655.333915	0.166994
655.539096	0.167280
655.744259	0.167197
655.949404	0.167140
656.154531	0.167134
656.359640	0.167137
656.564730	0.167054
656.769802	0.166971
656.974856	0.166926
657.179892	0.167207
657.384909	0.167350
657.589908	0.167433
657.794889	0.167488
657.999852	0.167879
658.204797	0.167855
658.409723	0.168023
658.614631	0.168330
658.819521	0.168361
659.024393	0.168220
659.229246	0.168450
659.434081	0.168467
659.638898	0.168758
659.843697	0.168718
660.048478	0.168924
660.253240	0.169158
660.457984	0.169254
660.662710	0.169315
660.867417	0.169376
661.072107	0.169324
661.276778	0.169690
661.481431	0.169523
661.686066	0.169625
661.890682	0.169552
662.095281	0.169526
662.299861	0.169532
662.504422	0.169651
662.708966	0.169791
662.913491	0.169813
663.117999	0.169594
663.322488	0.170039
663.526958	0.170163
663.731411	0.170248
663.935845	0.170408
664.140261	0.170423
664.344659	0.170655
664.549038	0.170635
664.753400	0.170835
664.957743	0.170987
665.162068	0.170778
665.366375	0.170924
665.570663	0.171289
665.774933	0.171112
665.979185	0.171342
666.183419	0.171291
666.387635	0.171434
666.591832	0.171270
666.796011	0.171455
667.000172	0.171469
667.204315	0.171497
667.408439	0.171540
667.612545	0.171736
667.816634	0.171873
668.020703	0.171989
668.224755	0.171923
668.428788	0.172121
668.632803	0.172140
668.836800	0.172127
669.040779	0.172005
669.244739	0.171764
669.448681	0.171962
669.652605	0.171932
669.856511	0.171760
670.060399	0.172110
670.264268	0.172235
670.468119	0.172260
670.671952	0.172429
670.875767	0.172684
671.079563	0.172823
671.283341	0.172889
671.487101	0.173092
671.690843	0.173419
671.894567	0.173385
672.098272	0.173543
672.301959	0.173757
672.505628	0.173819
672.709278	0.173907
672.912911	0.174365
673.116525	0.174218
673.320121	0.174416
673.523699	0.174458
673.727258	0.174728
673.930799	0.174926
674.134322	0.175087
674.337827	0.175235
674.541314	0.175494
674.744782	0.175724
674.948232	0.176096
675.151664	0.175986
675.355078	0.176023
675.558474	0.176168
675.761851	0.176079
675.965210	0.176202
676.168551	0.176298
676.371873	0.176204
676.575178	0.175945
676.778464	0.175961
676.981732	0.176016
677.184981	0.176183
677.388213	0.176303
677.591426	0.176269
677.794621	0.176253
677.997798	0.176506
678.200956	0.176414
678.404097	0.176558
678.607219	0.176687
678.810323	0.177036
679.013408	0.177185
679.216476	0.177088
679.419525	0.177354
679.622556	0.177474
679.825569	0.177591
680.028563	0.177870
680.231540	0.177968
680.434498	0.178089
680.637438	0.178187
680.840359	0.178269
681.043263	0.178538
681.246148	0.178611
681.449015	0.178499
681.651864	0.178552
681.854694	0.178569
682.057506	0.178561
682.260301	0.178665
682.463076	0.178637
682.665834	0.178699
682.868573	0.178829
683.071295	0.179054
683.273998	0.179327
683.476682	0.179450
683.679349	0.179848
683.881997	0.180143
684.084627	0.180193
684.287239	0.180262
684.489833	0.180338
684.692408	0.179997
684.894965	0.180041
685.097504	0.180202
685.300025	0.180190
685.502527	0.180024
685.705012	0.179986
685.907478	0.180051
686.109925	0.179934
686.312355	0.180027
686.514766	0.180162
686.717159	0.180119
686.919534	0.180186
687.121891	0.180061
687.324230	0.180241
687.526550	0.180132
687.728852	0.180041
687.931136	0.180034
688.133401	0.180026
688.335649	0.180207
688.537878	0.180056
688.740089	0.179882
688.942281	0.180047
689.144456	0.179940
689.346612	0.179929
689.548750	0.180327
689.750870	0.180401
689.952971	0.180409
690.155055	0.180648
690.357120	0.180906
690.559167	0.181300
690.761195	0.181475
690.963206	0.181625
691.165198	0.181877
691.367172	0.181729
691.569128	0.181895
691.771065	0.182200
691.972984	0.182196
692.174885	0.182430
692.376768	0.182215
692.578633	0.182000
692.780479	0.182217
692.982308	0.182189
693.184118	0.182110
693.385909	0.182196
693.587683	0.182344
693.789438	0.182436
693.991175	0.182384
694.192894	0.182499
694.394595	0.182949
694.596277	0.182677
694.797941	0.182984
694.999587	0.183089
695.201215	0.183300
695.402824	0.183140
695.604416	0.183167
695.805989	0.183423
696.007543	0.183587
696.209080	0.183610
696.410598	0.183728
696.612099	0.183786
696.813580	0.184020
697.015044	0.184176
697.216490	0.184332
697.417917	0.184416
697.619326	0.184456
697.820717	0.184510
698.022089	0.184464
698.223444	0.184546
698.424780	0.184778
698.626098	0.184836
698.827397	0.185033
699.028679	0.185213
699.229942	0.185290
699.431187	0.185121
699.632414	0.185183
699.833622	0.185418
700.034813	0.185613
700.235985	0.185620
700.437139	0.185955
700.638274	0.185835
700.839392	0.185853
701.040491	0.185941
701.241572	0.186388
701.442635	0.186404
701.643679	0.186296
701.844706	0.186458
702.045714	0.186483
702.246704	0.186573
702.447675	0.186698
702.648629	0.186781
702.849564	0.186912
703.050481	0.187016
703.251380	0.187266
703.452260	0.187466
703.653122	0.187416
703.853966	0.187324
704.054792	0.186945
704.255600	0.186859
704.456389	0.186641
704.657160	0.186664
704.857913	0.186354
705.058648	0.186182
705.259365	0.186030
705.460063	0.185988
705.660743	0.186031
705.861405	0.186098
706.062048	0.186119
706.262674	0.186289
706.463281	0.186154
706.663870	0.186226
706.864441	0.186294
707.064993	0.186311
707.265527	0.186487
707.466043	0.186531
707.666541	0.186495
707.867021	0.186643
708.067482	0.186507
708.267925	0.186600
708.468350	0.186745
708.668757	0.186727
708.869145	0.186942
709.069516	0.186756
709.269868	0.186554
709.470201	0.186681
709.670517	0.186493
709.870814	0.186780
710.071093	0.186729
710.271354	0.186697
710.471597	0.186721
710.671821	0.186708
710.872028	0.186833
711.072216	0.187107
711.272385	0.187245
711.472537	0.187176
711.672670	0.187285
711.872785	0.187306
712.072882	0.187272
712.272961	0.187348
712.473021	0.187362
712.673063	0.187440
712.873087	0.187397
713.073093	0.187538
713.273081	0.187832
713.473050	0.187720
713.673001	0.187640
713.872934	0.187665
714.072849	0.187804
714.272745	0.188071
714.472623	0.188075
714.672483	0.188219
714.872325	0.188102
715.072148	0.188086
715.271954	0.188264
715.471741	0.188647
715.671509	0.188660
715.871260	0.188454
716.070992	0.188134
716.270707	0.188219
716.470403	0.188132
716.670080	0.188391
716.869740	0.188399
717.069381	0.188325
717.269004	0.188228
717.468609	0.188257
717.668195	0.188426
717.867764	0.188613
718.067314	0.188610
718.266846	0.188730
718.466360	0.188579
718.665855	0.188661
718.865332	0.188606
719.064791	0.188552
719.264232	0.188580
719.463655	0.188363
719.663059	0.188123
719.862445	0.187948
720.061813	0.187969
720.261163	0.187704
720.460494	0.187655
720.659807	0.187560
720.859102	0.187525
721.058379	0.187466
721.257638	0.187386
721.456878	0.187512
721.656100	0.187763
721.855304	0.187479
722.054490	0.187774
722.253657	0.187760
722.452806	0.187869
722.651937	0.187841
722.851050	0.187647
723.050145	0.187829
723.249221	0.187673
723.448279	0.187586
723.647319	0.187513
723.846340	0.187342
724.045344	0.187171
724.244329	0.187013
724.443296	0.186864
724.642245	0.186973
724.841175	0.186742
725.040088	0.186678
725.238982	0.186516
725.437857	0.186169
725.636715	0.185892
725.835554	0.185672
726.034376	0.185299
726.233179	0.185160
726.431963	0.184841
726.630730	0.184832
726.829478	0.184784
727.028208	0.184660
727.226920	0.184700
727.425614	0.184740
727.624289	0.184672
727.822946	0.184789
728.021585	0.184650
728.220206	0.184837
728.418808	0.184627
728.617392	0.184551
728.815958	0.184264
729.014506	0.184404
729.213036	0.184284
729.411547	0.184227
729.610040	0.184272
729.808515	0.184393
730.006972	0.184085
730.205410	0.184055
730.403831	0.183899
730.602233	0.183953
730.800616	0.183692
730.998982	0.183568
731.197329	0.183463
731.395658	0.183180
731.593969	0.182924
731.792262	0.182936
731.990536	0.183103
732.188793	0.183055
732.387031	0.182938
732.585250	0.182967
732.783452	0.182903
732.981635	0.183002
733.179800	0.182937
733.377947	0.182936
733.576076	0.182796
733.774186	0.182647
733.972278	0.182661
734.170352	0.182632
734.368408	0.182575
734.566446	0.182556
734.764465	0.182293
734.962466	0.182318
735.160449	0.182090
735.358413	0.182049
735.556360	0.181826
735.754288	0.181518
735.952198	0.181491
736.150090	0.181133
736.347963	0.180609
736.545818	0.180678
736.743655	0.180473
736.941474	0.180457
737.139275	0.180251
737.337057	0.180101
737.534821	0.180023
737.732567	0.179699
737.930295	0.179925
738.128005	0.180350
738.325696	0.180246
738.523369	0.180329
738.721024	0.180289
738.918660	0.180182
739.116279	0.180263
739.313879	0.180362
739.511461	0.180634
739.709024	0.180644
739.906570	0.180349
740.104097	0.180154
740.301606	0.180056
740.499097	0.179910
740.696569	0.179932
740.894024	0.179676
741.091460	0.179262
741.288878	0.178860
741.486277	0.178429
741.683659	0.178342
741.881022	0.178246
742.078367	0.178172
742.275694	0.177931
742.473002	0.177728
742.670293	0.177535
742.867565	0.177732
743.064819	0.177870
743.262054	0.177820
743.459272	0.177929
743.656471	0.177837
743.853652	0.177672
744.050815	0.177778
744.247959	0.177692
744.445085	0.177584
744.642194	0.177544
744.839283	0.177264
745.036355	0.177431
745.233408	0.177260
745.430444	0.177168
745.627461	0.177282
745.824459	0.177249
746.021440	0.177342
746.218402	0.177729
746.415346	0.177443
746.612272	0.177494
746.809180	0.177518
747.006069	0.177392
747.202940	0.177431
747.399793	0.177419
747.596628	0.177465
747.793444	0.177378
747.990243	0.177165
748.187023	0.177363
748.383784	0.177332
748.580528	0.177004
748.777253	0.177233
748.973960	0.177349
749.170649	0.177092
749.367320	0.176902
749.563973	0.176910
749.760607	0.176664
749.957223	0.176500
750.153821	0.176479
750.350400	0.176595
750.546962	0.176367
750.743505	0.176002
750.940030	0.175958
751.136536	0.175886
751.333025	0.175742
751.529495	0.175727
751.725947	0.175841
751.922381	0.175899
752.118796	0.175760
752.315194	0.175441
752.511573	0.175278
752.707934	0.175121
752.904276	0.174969
753.100601	0.175004
753.296907	0.174863
753.493195	0.174563
753.689465	0.174145
753.885716	0.174014
754.081949	0.174117
754.278164	0.174134
754.474361	0.174072
754.670540	0.174005
754.866700	0.173815
755.062843	0.173762
755.258967	0.173565
755.455072	0.173685
755.651160	0.173888
755.847229	0.173842
756.043280	0.173901
756.239313	0.173787
756.435328	0.173819
756.631324	0.173919
756.827302	0.173868
757.023262	0.173981
757.219204	0.173951
757.415127	0.173657
757.611033	0.173670
757.806920	0.173493
758.002788	0.173323
758.198639	0.173322
758.394471	0.173051
758.590286	0.173117
758.786081	0.172866
758.981859	0.172638
759.177619	0.172616
759.373360	0.172380
759.569083	0.172372
759.764788	0.172240
759.960474	0.172019
760.156143	0.171962
760.351793	0.171757
760.547425	0.171748
760.743038	0.171809
760.938634	0.171530
761.134211	0.171289
761.329770	0.171005
761.525311	0.170897
761.720833	0.170845
761.916338	0.170865
762.111824	0.170896
762.307292	0.170858
762.502741	0.170792
762.698173	0.170789
762.893586	0.170896
763.088981	0.171050
763.284358	0.171238
763.479716	0.171215
763.675057	0.171249
763.870379	0.171073
764.065683	0.171076
764.260968	0.171088
764.456236	0.171000
764.651485	0.170925
764.846716	0.170878
765.041929	0.170986
765.237123	0.171114
765.432299	0.170970
765.627457	0.171012
765.822597	0.170875
766.017719	0.170815
766.212822	0.170824
766.407907	0.170874
766.602974	0.170858
766.798023	0.170485
766.993054	0.170169
767.188066	0.169978
767.383060	0.169936
767.578036	0.170041
767.772993	0.169931
767.967933	0.170087
768.162854	0.170085
768.357757	0.169943
768.552642	0.169882
768.747508	0.169968
768.942356	0.170031
769.137186	0.169808
769.331998	0.169565
769.526792	0.169412
769.721567	0.169295
769.916324	0.169079
770.111063	0.168871
770.305784	0.168839
770.500486	0.168766
770.695171	0.168897
770.889837	0.168893
771.084484	0.169064
771.279114	0.169040
771.473725	0.168873
771.668318	0.168985
771.862893	0.169083
772.057450	0.169263
772.251988	0.169127
772.446509	0.168738
772.641011	0.168738
772.835494	0.168769
773.029960	0.168776
773.224407	0.168761
773.418836	0.168800
773.613247	0.168895
773.807640	0.168867
774.002014	0.168770
774.196370	0.168817
774.390708	0.168958
774.585028	0.168808
774.779330	0.168743
774.973613	0.168833
775.167878	0.168735
775.362125	0.168621
775.556354	0.168580
775.750564	0.168722
775.944756	0.168726
776.138930	0.168589
776.333086	0.168491
776.527223	0.168384
776.721343	0.168273
776.915444	0.168132
777.109526	0.168171
777.303591	0.167981
777.497637	0.167839
777.691666	0.167796
777.885676	0.167882
778.079667	0.168107
778.273641	0.168399
778.467596	0.168471
778.661533	0.168525
778.855452	0.168546
779.049352	0.168683
779.243235	0.168662
779.437099	0.168795
779.630945	0.168745
779.824773	0.168504
780.018582	0.168320
780.212373	0.168068
780.406146	0.168088
780.599901	0.168200
780.793638	0.168319
780.987356	0.168366
781.181056	0.168510
781.374738	0.168469
781.568402	0.168675
781.762047	0.168680
781.955674	0.169008
782.149283	0.168876
782.342874	0.168881
782.536447	0.168687
782.730001	0.169007
782.923537	0.168909
783.117055	0.168899
783.310555	0.168881
783.504036	0.168869
783.697499	0.168776
783.890944	0.168920
784.084371	0.168759
784.277780	0.169101
784.471170	0.168861
784.664542	0.169147
784.857896	0.169195
785.051231	0.169242
785.244549	0.169318
785.437848	0.169666
785.631129	0.169823
785.824392	0.169951
786.017636	0.170067
786.210863	0.170178
786.404071	0.169978
786.597260	0.170170
786.790432	0.170219
786.983585	0.170165
787.176721	0.170149
787.369838	0.170189
787.562936	0.170293
787.756017	0.170087
787.949079	0.170279
788.142123	0.170348
788.335149	0.170441
788.528156	0.170440
788.721146	0.170604
788.914117	0.170399
789.107070	0.170559
789.300005	0.170617
789.492921	0.170470
789.685819	0.170530
789.878699	0.170581
790.071561	0.170577
790.264405	0.170628
790.457230	0.170624
790.650037	0.170817
790.842826	0.170793
791.035597	0.170625
791.228349	0.170794
791.421084	0.170652
791.613800	0.170709
791.806497	0.170887
791.999177	0.170831
792.191838	0.170995
792.384481	0.171109
792.577106	0.171247
792.769713	0.171322
792.962301	0.171468
793.154871	0.171629
793.347423	0.171831
793.539957	0.171692
793.732473	0.171855
793.924970	0.172042
794.117449	0.171994
794.309910	0.172126
794.502353	0.172489
794.694777	0.172938
794.887183	0.173257
795.079571	0.173516
795.271941	0.173702
795.464293	0.173704
795.656626	0.173563
795.848941	0.173742
796.041238	0.173609
796.233516	0.173495
796.425777	0.173227
796.618019	0.173105
796.810243	0.173184
797.002449	0.173462
797.194636	0.173724
797.386805	0.174182
797.578956	0.174305
797.771089	0.174714
797.963204	0.174874
798.155300	0.174866
798.347378	0.174990
798.539438	0.174947
798.731480	0.174891
798.923503	0.175040
799.115509	0.174961
799.307496	0.175046
799.499465	0.175160
799.691415	0.175352
799.883348	0.175634
800.075262	0.175533
800.267158	0.175369
800.459035	0.175573
800.650895	0.175467
800.842736	0.175391
801.034559	0.175543
801.226364	0.175415
801.418150	0.175804
801.609919	0.175953
801.801669	0.176331
801.993401	0.176341
802.185114	0.176259
802.376810	0.176594
802.568487	0.176859
802.760146	0.176855
802.951787	0.177090
803.143409	0.177082
803.335014	0.177147
803.526600	0.177206
803.718168	0.177843
803.909717	0.178167
804.101249	0.178305
804.292762	0.178581
804.484257	0.178935
804.675734	0.179057
804.867192	0.179012
805.058632	0.179247
805.250054	0.179549
805.441458	0.179514
805.632844	0.179702
805.824211	0.179666
806.015561	0.179692
806.206891	0.179733
806.398204	0.179995
806.589499	0.180239
806.780775	0.180214
806.972033	0.180384
807.163273	0.180656
807.354495	0.180854
807.545698	0.181231
807.736883	0.181678
807.928050	0.182073
808.119199	0.182146
808.310329	0.182497
808.501441	0.182958
808.692535	0.183124
808.883611	0.183383
809.074669	0.183477
809.265708	0.183676
809.456729	0.183677
809.647732	0.183598
809.838717	0.183904
810.029683	0.183984
810.220632	0.183901
810.411562	0.183981
810.602474	0.184171
810.793367	0.184239
810.984242	0.184348
811.175100	0.184367
811.365938	0.184830
811.556759	0.184849
811.747562	0.185191
811.938346	0.185698
812.129112	0.186087
812.319860	0.186169
812.510589	0.186659
812.701300	0.187086
812.891994	0.187574
813.082668	0.187773
813.273325	0.187892
813.463964	0.187812
813.654584	0.187932
813.845186	0.188298
814.035769	0.188477
814.226335	0.188657
814.416882	0.188679
814.607411	0.188740
814.797922	0.188905
814.988415	0.189391
815.178889	0.189856
815.369345	0.189925
815.559783	0.189940
815.750203	0.190238
815.940605	0.190423
816.130988	0.190869
816.321353	0.191060
816.511700	0.191201
816.702028	0.191287
816.892339	0.191488
817.082631	0.191942
817.272905	0.192074
817.463161	0.192304
817.653398	0.192277
817.843617	0.192117
818.033819	0.192415
818.224001	0.192573
818.414166	0.192726
818.604312	0.192789
818.794440	0.192809
818.984550	0.192988
819.174642	0.192920
819.364716	0.192870
819.554771	0.193208
819.744808	0.193157
819.934827	0.193251
820.124827	0.193465
820.314810	0.193499
820.504774	0.193663
820.694720	0.193814
820.884647	0.193986
821.074557	0.194505
821.264448	0.194788
821.454321	0.195238
821.644176	0.195376
821.834012	0.195471
822.023831	0.195919
822.213631	0.196359
822.403413	0.196488
822.593176	0.196659
822.782922	0.196711
822.972649	0.196893
823.162358	0.196986
823.352049	0.197489
823.541721	0.197630
823.731376	0.197461
823.921012	0.197427
824.110629	0.197312
824.300229	0.197646
824.489811	0.197900
824.679374	0.197849
824.868919	0.198131
825.058445	0.198208
825.247954	0.198654
825.437444	0.198918
825.626916	0.199181
825.816370	0.199801
826.005806	0.199910
826.195223	0.199983
826.384622	0.200418
826.574003	0.200603
826.763366	0.200827
826.952711	0.201096
827.142037	0.201190
827.331345	0.201448
827.520635	0.201775
827.709906	0.202047
827.899160	0.202556
828.088395	0.202680
828.277612	0.203089
828.466810	0.202859
828.655991	0.203089
828.845153	0.203766
829.034297	0.203792
829.223423	0.203764
829.412531	0.204305
829.601620	0.204397
829.790691	0.204763
829.979744	0.204892
830.168779	0.205628
830.357795	0.205853
830.546793	0.206033
830.735773	0.206214
830.924735	0.206568
831.113679	0.206609
831.302604	0.207074
831.491511	0.206890
831.680400	0.207141
831.869271	0.207172
832.058123	0.207126
832.246957	0.207319
832.435773	0.207771
832.624571	0.207916
832.813351	0.207897
833.002112	0.207928
833.190855	0.208628
833.379580	0.208880
833.568287	0.209536
833.756975	0.209882
833.945645	0.210126
834.134297	0.210270
834.322931	0.210648
834.511547	0.211278
834.700144	0.211633
834.888723	0.211816
835.077284	0.212048
835.265826	0.211734
835.454351	0.212064
835.642857	0.212253
835.831345	0.212591
836.019815	0.212733
836.208266	0.212750
836.396699	0.213006
836.585114	0.213241
836.773511	0.213479
836.961890	0.214004
837.150250	0.214475
837.338592	0.214835
837.526916	0.215163
837.715222	0.215611
837.903510	0.216043
838.091779	0.216165
838.280030	0.216554
838.468263	0.216952
838.656477	0.217081
838.844674	0.217293
839.032852	0.217576
839.221012	0.217887
839.409153	0.217956
839.597277	0.218017
839.785382	0.218453
839.973469	0.218820
840.161538	0.218723
840.349589	0.219165
840.537621	0.219242
840.725635	0.219670
840.913631	0.220127
841.101609	0.220509
841.289568	0.221144
841.477509	0.221465
841.665432	0.221550
841.853337	0.222101
842.041224	0.222579
842.229092	0.222541
842.416942	0.222837
842.604774	0.222869
842.792588	0.223043
842.980383	0.223260
843.168160	0.223107
843.355919	0.223134
843.543660	0.223370
843.731382	0.223788
843.919087	0.224447
844.106773	0.224680
844.294441	0.225257
844.482090	0.226032
844.669722	0.225957
844.857335	0.226662
845.044930	0.227462
845.232507	0.228014
845.420065	0.227908
845.607605	0.228282
845.795127	0.228364
845.982631	0.228302
846.170117	0.228359
846.357584	0.229022
846.545033	0.229124
846.732464	0.229112
846.919877	0.229223
847.107272	0.229724
847.294648	0.230075
847.482006	0.230060
847.669346	0.230719
847.856667	0.230813
848.043971	0.231171
848.231256	0.231655
848.418523	0.232171
848.605771	0.232563
848.793002	0.232869
848.980214	0.232986
849.167408	0.233826
849.354584	0.233994
849.541742	0.234167
849.728881	0.234284
849.916002	0.234507
850.103105	0.234668
850.290190	0.234888
850.477256	0.235037
850.664304	0.235644
850.851334	0.235689
851.038346	0.235590
851.225340	0.236035
851.412315	0.236248
851.599272	0.236358
851.786211	0.236539
851.973132	0.236708
852.160034	0.236793
852.346918	0.236735
852.533784	0.237112
852.720632	0.237707
852.907462	0.238176
853.094273	0.238410
853.281066	0.238619
853.467841	0.239111
853.654598	0.239116
853.841336	0.239302
854.028056	0.239228
854.214758	0.239285
854.401442	0.239216
854.588107	0.239165
854.774755	0.239565
854.961384	0.239857
855.147995	0.239978
855.334587	0.240664
855.521162	0.241257
855.707718	0.241787
855.894256	0.242188
856.080775	0.242756
856.267277	0.243134
856.453760	0.243406
856.640225	0.243799
856.826672	0.243898
857.013101	0.243923
857.199511	0.244325
857.385903	0.244478
857.572277	0.244654
857.758633	0.244706
857.944970	0.244966
858.131290	0.245019
858.317591	0.245459
858.503873	0.245755
858.690138	0.246020
858.876384	0.246034
859.062612	0.246466
859.248822	0.246484
859.435014	0.246910
859.621188	0.247187
859.807343	0.247349
859.993480	0.247600
860.179599	0.248049
860.365699	0.248288
860.551781	0.248464
860.737846	0.248585
860.923891	0.248942
861.109919	0.249297
861.295929	0.249752
861.481920	0.250048
861.667893	0.250187
861.853848	0.250300
862.039784	0.250898
862.225702	0.251479
862.411603	0.251948
862.597484	0.252455
862.783348	0.252513
862.969193	0.252738
863.155021	0.253051
863.340830	0.253294
863.526620	0.253354
863.712393	0.253413
863.898147	0.253425
864.083883	0.253530
864.269601	0.253686
864.455301	0.254115
864.640982	0.254449
864.826645	0.254606
865.012290	0.254972
865.197917	0.255175
865.383526	0.255278
865.569116	0.255563
865.754688	0.255684
865.940242	0.256010
866.125777	0.255764
866.311295	0.255898
866.496794	0.256393
866.682275	0.256263
866.867737	0.256600
867.053182	0.256835
867.238608	0.256745
867.424016	0.257385
867.609406	0.257441
867.794778	0.257740
867.980131	0.257596
868.165466	0.257684
868.350783	0.257875
868.536082	0.258226
868.721362	0.258194
868.906625	0.258356
869.091869	0.257987
869.277094	0.257994
869.462302	0.258102
869.647491	0.258322
869.832662	0.258389
870.017815	0.258510
870.202950	0.258794
870.388066	0.259198
870.573165	0.259502
870.758245	0.259847
870.943306	0.260260
871.128350	0.260881
871.313375	0.261628
871.498382	0.262000
871.683371	0.262599
871.868342	0.262921
872.053294	0.263265
872.238229	0.263755
872.423144	0.264177
872.608042	0.264824
872.792922	0.264717
872.977783	0.264861
873.162626	0.265222
873.347451	0.265263
873.532258	0.265224
873.717046	0.265229
873.901816	0.265406
874.086568	0.265521
874.271302	0.265282
874.456017	0.265802
874.640715	0.265488
874.825394	0.265911
875.010055	0.266282
875.194697	0.266409
875.379322	0.266339
875.563928	0.266558
875.748516	0.266607
875.933085	0.266993
876.117637	0.267286
876.302170	0.267462
876.486685	0.267296
876.671182	0.267597
876.855661	0.267714
877.040121	0.268289
877.224563	0.268159
877.408987	0.268549
877.593393	0.268696
877.777780	0.268555
877.962150	0.268908
878.146501	0.268655
878.330833	0.268518
878.515148	0.268533
878.699444	0.268613
878.883722	0.268350
879.067982	0.268181
879.252224	0.267937
879.436447	0.267923
879.620653	0.267636
879.804840	0.267672
879.989008	0.267548
880.173159	0.267887
880.357291	0.267930
880.541405	0.268461
880.725501	0.268514
880.909579	0.268784
881.093638	0.269050
881.277680	0.269195
881.461703	0.269338
881.645707	0.269548
881.829694	0.269405
882.013662	0.269682
882.197612	0.269565
882.381544	0.269733
882.565458	0.269657
882.749353	0.269324
882.933230	0.269633
883.117089	0.269938
883.300930	0.270001
883.484753	0.270306
883.668557	0.270130
883.852343	0.270302
884.036111	0.270638
884.219861	0.270902
884.403592	0.271118
884.587305	0.270957
884.771000	0.271063
884.954677	0.271127
885.138335	0.270912
885.321976	0.270846
885.505598	0.270963
885.689201	0.270803
885.872787	0.270854
886.056354	0.271285
886.239904	0.271737
886.423434	0.271414
886.606947	0.271565
886.790442	0.271655
886.973918	0.271956
887.157376	0.271868
887.340816	0.271802
887.524237	0.271706
887.707641	0.271402
887.891026	0.271043
888.074393	0.271263
888.257741	0.271250
888.441072	0.271183
888.624384	0.270813
888.807678	0.270809
888.990954	0.270670
889.174211	0.270306
889.357451	0.270541
889.540672	0.270675
889.723875	0.271323
889.907059	0.271369
890.090226	0.271571
890.273374	0.271465
890.456504	0.271885
890.639616	0.272106
890.822709	0.272703
891.005785	0.273034
891.188842	0.273176
891.371881	0.272910
891.554901	0.273125
891.737904	0.273247
891.920888	0.274166
892.103854	0.274002
892.286802	0.274152
892.469731	0.274366
892.652643	0.273836
892.835536	0.274051
893.018410	0.274109
893.201267	0.273601
893.384106	0.273468
893.566926	0.272825
893.749728	0.272622
893.932511	0.272802
894.115277	0.272363
894.298024	0.272369
894.480753	0.272177
894.663464	0.271694
894.846157	0.272027
895.028831	0.271774
895.211487	0.271846
895.394125	0.271727
895.576745	0.271609
895.759346	0.271543
895.941930	0.271170
896.124495	0.270626
896.307041	0.270692
896.489570	0.270593
896.672080	0.271122
896.854573	0.270920
897.037046	0.270998
897.219502	0.270702
897.401940	0.270449
897.584359	0.270726
897.766760	0.271397
897.949143	0.271380
898.131507	0.271111
898.313854	0.270620
898.496182	0.270587
898.678492	0.270720
898.860783	0.270919
899.043057	0.270769
899.225312	0.270548
899.407549	0.269908
899.589768	0.269456
899.771968	0.269055
899.954151	0.268851
900.136315	0.268427
900.318461	0.267696
900.500588	0.267251
900.682698	0.266904
900.864789	0.267079
901.046862	0.266685
901.228917	0.266696
901.410953	0.266798
901.592971	0.266497
901.774972	0.266187
901.956953	0.266142
902.138917	0.265605
902.320862	0.265392
902.502790	0.264896
902.684699	0.265090
902.866589	0.264399
903.048462	0.264355
903.230316	0.264273
903.412152	0.264474
903.593970	0.264087
903.775770	0.264067
903.957551	0.264006
904.139314	0.263463
904.321059	0.263251
904.502786	0.263517
904.684494	0.262557
904.866185	0.261936
905.047857	0.261794
905.229510	0.262138
905.411146	0.261849
905.592763	0.262069
905.774363	0.262036
905.955943	0.261552
906.137506	0.260750
906.319051	0.261118
906.500577	0.260846
906.682085	0.260111
906.863575	0.259387
907.045046	0.259432
907.226500	0.258572
907.407935	0.258190
907.589352	0.258371
907.770750	0.258851
907.952131	0.258563
908.133493	0.258743
908.314837	0.258550
908.496163	0.258089
908.677470	0.257504
908.858760	0.257575
909.040031	0.257834
909.221284	0.257442
909.402518	0.256783
909.583735	0.256426
909.764933	0.255973
909.946113	0.255523
910.127275	0.255330
910.308418	0.255068
910.489544	0.254582
910.670651	0.253833
910.851740	0.253400
911.032810	0.252967
911.213863	0.252305
911.394897	0.252151
911.575913	0.251417
911.756911	0.250785
911.937890	0.250298
912.118851	0.249437
912.299794	0.248777
912.480719	0.248078
912.661626	0.247855
912.842514	0.247568
913.023384	0.246949
913.204236	0.247145
913.385070	0.247335
913.565886	0.246989
913.746683	0.247140
913.927462	0.247309
914.108223	0.247412
914.288965	0.247269
914.469690	0.246750
914.650396	0.246365
914.831084	0.245860
915.011754	0.245037
915.192405	0.244682
915.373038	0.244013
915.553653	0.243069
915.734250	0.242359
915.914829	0.241665
916.095389	0.241828
916.275931	0.241063
916.456455	0.240669
916.636961	0.241139
916.817448	0.240400
916.997917	0.240251
917.178368	0.239652
917.358801	0.239136
917.539216	0.238648
917.719612	0.237896
917.899990	0.238418
918.080350	0.237900
918.260692	0.236199
918.441015	0.236283
918.621320	0.235669
918.801607	0.235553
918.981876	0.235020
919.162127	0.234559
919.342359	0.234017
919.522573	0.233078
919.702769	0.232904
919.882947	0.232957
920.063106	0.232443
920.243247	0.232095
920.423370	0.231451
920.603475	0.231254
920.783562	0.230778
920.963630	0.230064
921.143680	0.229501
921.323712	0.228894
921.503725	0.227964
921.683721	0.226748
921.863698	0.226324
922.043657	0.225724
922.223598	0.225145
922.403520	0.224680
922.583424	0.224774
922.763311	0.224249
922.943178	0.222974
923.123028	0.222514
923.302859	0.222160
923.482673	0.221309
923.662467	0.221105
923.842244	0.220146
924.022003	0.219694
924.201743	0.219120
924.381465	0.218705
924.561169	0.218578
924.740854	0.218753
924.920522	0.218764
925.100171	0.218626
925.279802	0.217770
925.459414	0.217523
925.639009	0.216948
925.818585	0.216200
925.998143	0.215560
926.177683	0.215197
926.357205	0.214556
926.536708	0.214251
926.716193	0.213018
926.895660	0.213107
927.075109	0.212877
927.254539	0.212237
927.433951	0.211531
927.613345	0.211533
927.792721	0.210805
927.972079	0.209743
928.151418	0.207880
928.330739	0.207980
928.510042	0.206466
928.689327	0.205824
928.868593	0.204536
929.047841	0.203902
929.227071	0.202117
929.406283	0.202066
929.585476	0.201478
929.764652	0.201261
929.943809	0.201034
930.122948	0.201171
930.302068	0.200021
930.481171	0.199711
930.660255	0.199222
930.839321	0.198927
931.018369	0.197224
931.197398	0.197255
931.376409	0.196738
931.555402	0.194983
931.734377	0.194001
931.913334	0.193263
932.092272	0.192603
932.271192	0.191583
932.450094	0.191501
932.628978	0.191243
932.807844	0.189690
932.986691	0.188951
933.165520	0.188989
933.344331	0.188726
933.523123	0.188025
933.701898	0.187318
933.880654	0.186383
934.059392	0.184678
934.238111	0.184096
934.416813	0.183927
934.595496	0.183764
934.774161	0.183294
934.952808	0.181938
935.131437	0.181773
935.310047	0.181417
935.488639	0.180836
935.667213	0.180546
935.845769	0.180169
936.024306	0.179750
936.202825	0.178236
936.381326	0.177724
936.559809	0.177136
936.738274	0.175930
936.916720	0.174431
937.095148	0.174817
937.273558	0.174807
937.451950	0.173780
937.630323	0.172433
937.808678	0.172549
937.987015	0.170244
938.165334	0.169388
938.343635	0.169467
938.521917	0.170365
938.700181	0.168096
938.878427	0.166765
939.056655	0.166004
939.234864	0.165663
939.413055	0.164624
939.591228	0.164436
939.769383	0.164911
939.947519	0.163537
940.125638	0.161414
940.303738	0.161958
940.481820	0.160498
940.659883	0.160362
940.837929	0.159568
941.015956	0.158882
941.193965	0.159074
941.371955	0.156557
941.549928	0.154961
941.727882	0.153749
941.905818	0.152015
942.083736	0.152022
942.261636	0.150416
942.439517	0.149449
942.617380	0.148231
942.795225	0.146899
942.973052	0.145680
943.150860	0.145239
943.328651	0.145406
943.506423	0.145679
943.684176	0.144820
943.861912	0.145107
944.039629	0.144133
944.217328	0.142745
944.395009	0.142439
944.572672	0.142995
944.750317	0.141875
944.927943	0.141416
945.105551	0.140443
945.283141	0.140345
945.460712	0.139412
945.638265	0.138728
945.815801	0.138281
945.993317	0.137679
946.170816	0.137577
946.348297	0.137639
946.525759	0.137351
946.703203	0.136698
946.880629	0.135094
947.058036	0.134071
947.235425	0.132938
947.412797	0.133560
947.590149	0.132294
947.767484	0.130346
947.944800	0.129122
948.122099	0.127439
948.299379	0.126074
948.476640	0.126534
948.653884	0.127033
948.831109	0.126390
949.008316	0.125624
949.185505	0.123146
949.362676	0.123305
949.539828	0.123461
949.716962	0.123513
949.894078	0.122520
950.071176	0.120396
950.248256	0.118809
950.425317	0.118784
950.602360	0.117681
950.779385	0.120040
950.956391	0.119916
951.133380	0.118754
951.310350	0.118246
951.487302	0.119012
951.664235	0.120127
951.841151	0.117566
952.018048	0.118648
952.194927	0.118091
952.371788	0.116633
952.548631	0.115323
952.725455	0.115408
952.902261	0.115441
953.079049	0.114112
953.255819	0.110804
953.432570	0.111645
953.609303	0.109840
953.786018	0.107964
953.962715	0.107604
954.139394	0.106843
954.316054	0.106464
954.492696	0.105560
954.669320	0.105869
954.845926	0.107501
955.022513	0.107207
955.199083	0.106515
955.375634	0.107916
955.552166	0.107317
955.728681	0.108768
955.905177	0.108732
956.081655	0.106859
956.258115	0.104287
956.434557	0.102074
956.610980	0.101342
956.787385	0.100348
956.963772	0.099963
957.140141	0.098542
957.316492	0.096192
957.492824	0.095190
957.669138	0.096581
957.845434	0.096437
958.021712	0.097697
958.197971	0.097516
958.374212	0.096485
958.550435	0.095345
958.726640	0.094351
958.902826	0.094483
959.078995	0.094475
959.255145	0.095315
959.431277	0.097392
959.607390	0.097299
959.783486	0.096959
959.959563	0.099418
960.135622	0.100914
960.311662	0.101681
960.487685	0.099514
960.663689	0.097579
960.839675	0.095497
961.015643	0.093634
961.191593	0.093906
961.367524	0.092456
961.543437	0.091743
961.719332	0.090939
961.895209	0.090485
962.071067	0.092034
962.246907	0.091032
962.422730	0.091074
962.598533	0.092826
962.774319	0.091460
962.950086	0.093004
963.125835	0.092035
963.301566	0.092135
963.477279	0.091934
963.652973	0.091449
963.828650	0.092692
964.004308	0.092675
964.179947	0.091807
964.355569	0.091155
964.531172	0.091516
964.706757	0.092209
964.882324	0.091885
965.057873	0.092542
965.233403	0.091826
965.408916	0.092393
965.584410	0.091504
965.759885	0.090977
965.935343	0.090257
966.110782	0.090046
966.286203	0.090351
966.461606	0.089585
966.636991	0.090013
966.812357	0.090977
966.987705	0.092033
967.163035	0.093899
967.338347	0.093860
967.513641	0.095372
967.688916	0.094348
967.864173	0.093256
968.039412	0.095554
968.214632	0.096669
968.389835	0.096098
968.565019	0.094201
968.740185	0.093463
968.915333	0.094086
969.090462	0.093536
969.265573	0.092821
969.440667	0.093817
969.615741	0.091808
969.790798	0.092600
969.965836	0.090621
970.140856	0.090489
970.315858	0.090356
970.490842	0.088298
970.665808	0.088000
970.840755	0.089263
971.015684	0.088875
971.190595	0.089069
971.365487	0.087418
971.540362	0.090555
971.715218	0.088934
971.890056	0.089167
972.064875	0.091810
972.239677	0.093712
972.414460	0.094082
972.589225	0.094012
972.763972	0.091743
972.938700	0.091172
973.113411	0.090318
973.288103	0.091953
973.462777	0.090153
973.637432	0.089155
973.812070	0.089651
973.986689	0.088162
974.161290	0.087155
974.335873	0.089421
974.510437	0.088319
974.684984	0.089026
974.859512	0.088423
975.034022	0.088708
975.208513	0.088520
975.382987	0.088038
975.557442	0.088384
975.731879	0.090185
975.906298	0.089479
976.080698	0.090510
976.255080	0.089632
976.429445	0.091426
976.603790	0.093538
976.778118	0.093429
976.952427	0.092333
977.126719	0.092994
977.300992	0.092184
977.475246	0.090265
977.649483	0.088878
977.823701	0.088157
977.997901	0.086727
978.172083	0.085936
978.346247	0.085980
978.520392	0.086770
978.694519	0.088326
978.868628	0.089539
979.042719	0.091549
979.216791	0.092310
979.390845	0.094957
979.564882	0.095812
979.738899	0.095020
979.912899	0.094419
980.086880	0.095238
980.260843	0.092990
980.434788	0.091387
980.608715	0.091597
980.782623	0.090441
980.956514	0.089002
981.130386	0.089294
981.304240	0.089939
981.478075	0.091017
981.651892	0.090772
981.825692	0.091282
981.999472	0.094022
982.173235	0.094894
982.346980	0.096599
982.520706	0.096719
982.694414	0.096979
982.868104	0.098180
983.041775	0.096047
983.215428	0.095067
983.389064	0.094821
983.562680	0.090351
983.736279	0.089799
983.909860	0.091289
984.083422	0.091804
984.256966	0.089813
984.430491	0.087636
984.603999	0.089796
984.777488	0.088756
984.950959	0.089249
985.124412	0.091960
985.297847	0.093033
985.471263	0.091992
985.644661	0.090652
985.818041	0.091887
985.991403	0.091391
986.164747	0.091495
986.338072	0.093058
986.511379	0.094552
986.684668	0.092699
986.857938	0.092074
987.031191	0.091084
987.204425	0.091709
987.377641	0.091282
987.550839	0.093224
987.724018	0.092653
987.897179	0.092619
988.070322	0.091225
988.243447	0.090500
988.416554	0.090079
988.589642	0.089764
988.762712	0.090825
988.935764	0.093001
989.108798	0.092141
989.281813	0.092332
989.454811	0.091105
989.627790	0.092042
989.800751	0.091412
989.973693	0.092680
990.146617	0.094115
990.319524	0.092997
990.492412	0.092627
990.665281	0.092437
990.838133	0.092906
991.010966	0.093197
991.183781	0.091642
991.356578	0.093760
991.529356	0.090672
991.702117	0.091551
991.874859	0.092229
992.047583	0.090488
992.220288	0.092874
992.392976	0.093140
992.565645	0.091814
992.738296	0.091803
992.910929	0.091263
993.083543	0.089740
993.256139	0.087819
993.428718	0.087637
993.601277	0.087276
993.773819	0.086699
993.946342	0.084047
994.118848	0.086137
994.291335	0.087890
994.463803	0.086988
994.636254	0.090202
994.808686	0.090402
994.981100	0.090849
995.153496	0.092037
995.325874	0.090504
995.498233	0.091484
995.670574	0.092488
995.842897	0.090913
996.015202	0.093632
996.187488	0.093576
996.359757	0.094674
996.532007	0.094340
996.704239	0.093513
996.876452	0.094249
997.048648	0.093801
997.220825	0.092813
997.392984	0.093180
997.565124	0.092570
997.737247	0.091828
997.909351	0.092114
998.081437	0.090797
998.253505	0.091250
998.425554	0.089530
998.597586	0.090411
998.769599	0.088733
998.941594	0.089917
999.113571	0.089124
999.285529	0.089617
999.457469	0.087849
999.629391	0.089933
999.801295	0.089421
999.973181	0.090183
1000.145048	0.091179
1000.316897	0.090532
1000.488728	0.089390
1000.660541	0.090203
1000.832335	0.090337
1001.004111	0.089989
1001.175869	0.088769
1001.347609	0.089234
1001.519331	0.090530
1001.691034	0.089875
1001.862719	0.093289
1002.034386	0.094524
1002.206035	0.092745
1002.377665	0.092611
1002.549277	0.094534
1002.720871	0.094728
1002.892447	0.094942
1003.064004	0.093448
1003.235544	0.093612
1003.407065	0.091660
1003.578568	0.090330
1003.750052	0.089932
1003.921519	0.089903
1004.092967	0.087785
1004.264397	0.087229
1004.435809	0.085515
1004.607202	0.085403
1004.778577	0.084227
1004.949934	0.083017
1005.121273	0.083598
1005.292594	0.085314
1005.463896	0.085796
1005.635180	0.085993
1005.806446	0.085502
1005.977694	0.085975
1006.148923	0.086383
1006.320135	0.086768
1006.491328	0.087166
1006.662503	0.086884
1006.833659	0.084324
1007.004798	0.083891
1007.175918	0.084167
1007.347020	0.084423
1007.518103	0.084748
1007.689169	0.084785
1007.860216	0.084078
1008.031245	0.083961
1008.202256	0.083490
1008.373248	0.086118
1008.544223	0.086235
1008.715179	0.085707
1008.886117	0.086019
1009.057036	0.088706
1009.227938	0.088817
1009.398821	0.089429
1009.569686	0.089765
1009.740533	0.090255
1009.911361	0.088780
1010.082172	0.088255
1010.252964	0.089338
1010.423738	0.089613
1010.594493	0.088125
1010.765231	0.087240
1010.935950	0.087126
1011.106651	0.087287
1011.277334	0.085722
1011.447998	0.085024
1011.618645	0.084520
1011.789273	0.084387
1011.959882	0.084093
1012.130474	0.084137
1012.301048	0.083043
1012.471603	0.083431
1012.642140	0.083441
1012.812658	0.084914
1012.983159	0.085816
1013.153641	0.086371
1013.324105	0.086052
1013.494551	0.086463
1013.664979	0.086276
1013.835388	0.087948
1014.005779	0.087257
1014.176152	0.087541
1014.346507	0.087979
1014.516843	0.089730
1014.687162	0.092456
1014.857462	0.093052
1015.027744	0.093433
1015.198007	0.092349
1015.368252	0.091843
1015.538480	0.092835
1015.708689	0.091871
1015.878879	0.090733
1016.049052	0.088819
1016.219206	0.087407
1016.389342	0.088553
1016.559460	0.087879
1016.729559	0.088685
1016.899641	0.089351
1017.069704	0.090086
1017.239749	0.091383
1017.409775	0.090128
1017.579784	0.092316
1017.749774	0.091215
1017.919746	0.089925
1018.089700	0.088529
1018.259635	0.088613
1018.429553	0.088786
1018.599452	0.086744
1018.769333	0.086256
1018.939195	0.087614
1019.109040	0.086240
1019.278866	0.086699
1019.448674	0.086463
1019.618464	0.087515
1019.788235	0.086213
1019.957989	0.085648
1020.127724	0.086981
1020.297441	0.086123
1020.467139	0.086171
1020.636820	0.086158
1020.806482	0.085747
1020.976126	0.085827
1021.145752	0.086946
1021.315359	0.088565
1021.484948	0.088173
1021.654519	0.089090
1021.824072	0.088509
1021.993607	0.089515
1022.163123	0.089455
1022.332621	0.088860
1022.502101	0.087352
1022.671563	0.086342
1022.841007	0.085081
1023.010432	0.085465
1023.179839	0.083397
1023.349228	0.084326
1023.518598	0.082894
1023.687951	0.081019
1023.857285	0.081163
1024.026601	0.083801
1024.195899	0.084090
1024.365178	0.085384
1024.534439	0.085222
1024.703682	0.086915
1024.872907	0.087678
1025.042114	0.087717
1025.211302	0.088989
1025.380472	0.090430
1025.549624	0.089893
1025.718758	0.088398
1025.887873	0.087017
1026.056970	0.086611
1026.226049	0.087010
1026.395110	0.086379
1026.564153	0.085996
1026.733177	0.087773
1026.902183	0.087782
1027.071171	0.087680
1027.240141	0.088553
1027.409092	0.088933
1027.578026	0.089483
1027.746940	0.088095
1027.915837	0.087467
1028.084716	0.088383
1028.253576	0.086926
1028.422418	0.085812
1028.591242	0.086678
1028.760048	0.085732
1028.928835	0.085627
1029.097604	0.084601
1029.266355	0.085522
1029.435088	0.086042
1029.603803	0.084289
1029.772499	0.082870
1029.941177	0.082927
1030.109837	0.081305
1030.278478	0.084062
1030.447102	0.084306
1030.615707	0.083721
1030.784294	0.083211
1030.952863	0.084804
1031.121413	0.086410
1031.289945	0.087895
1031.458460	0.088093
1031.626955	0.088551
1031.795433	0.086625
1031.963892	0.085548
1032.132334	0.087164
1032.300756	0.087920
1032.469161	0.086231
1032.637548	0.085789
1032.805916	0.083941
1032.974266	0.083206
1033.142598	0.082747
1033.310911	0.082229
1033.479207	0.083760
1033.647484	0.082451
1033.815743	0.081341
1033.983983	0.082358
1034.152206	0.082584
1034.320410	0.083700
1034.488596	0.084459
1034.656764	0.082312
1034.824914	0.083145
1034.993045	0.082162
1035.161158	0.083221
1035.329253	0.083682
1035.497330	0.083188
1035.665388	0.083215
1035.833428	0.081664
1036.001450	0.080189
1036.169454	0.082088
1036.337440	0.082621
1036.505407	0.083902
1036.673356	0.083412
1036.841287	0.082866
1037.009200	0.083249
1037.177094	0.083657
1037.344970	0.086091
1037.512828	0.087477
1037.680668	0.085776
1037.848489	0.085415
1038.016293	0.084445
1038.184078	0.084604
1038.351845	0.085531
1038.519593	0.084879
1038.687324	0.084970
1038.855036	0.083921
1039.022730	0.082850
1039.190406	0.084860
1039.358063	0.084090
1039.525702	0.084319
1039.693323	0.085317
1039.860926	0.084597
1040.028511	0.085748
1040.196077	0.082893
1040.363625	0.083947
1040.531155	0.086029
1040.698667	0.085944
1040.866161	0.087422
1041.033636	0.086972
1041.201093	0.087123
1041.368532	0.087266
1041.535952	0.085570
1041.703355	0.087116
1041.870739	0.087037
1042.038105	0.085482
1042.205452	0.085888
1042.372782	0.084602
1042.540093	0.085801
1042.707386	0.084640
1042.874661	0.083839
1043.041918	0.084968
1043.209156	0.084389
1043.376376	0.083978
1043.543578	0.084054
1043.710762	0.082920
1043.877927	0.082175
1044.045074	0.080350
1044.212203	0.080667
1044.379314	0.080426
1044.546407	0.081068
1044.713481	0.081882
1044.880537	0.082922
1045.047575	0.084547
1045.214595	0.084918
1045.381596	0.085244
1045.548579	0.085342
1045.715544	0.086218
1045.882491	0.086146
1046.049420	0.085567
1046.216330	0.085267
1046.383222	0.083585
1046.550096	0.082588
1046.716951	0.083609
1046.883789	0.083435
1047.050608	0.084064
1047.217409	0.083229
1047.384192	0.082602
1047.550956	0.080641
1047.717703	0.081087
1047.884431	0.081703
1048.051140	0.081223
1048.217832	0.079853
1048.384505	0.080317
1048.551161	0.080861
1048.717798	0.080318
1048.884416	0.081848
1049.051017	0.083434
1049.217599	0.084088
1049.384163	0.083606
1049.550709	0.084587
1049.717237	0.084229
1049.883746	0.084211
1050.050237	0.083940
1050.216710	0.084518
1050.383165	0.084305
1050.549601	0.084657
1050.716019	0.084417
1050.882420	0.084143
1051.048801	0.082186
1051.215165	0.083526
1051.381510	0.084288
1051.547837	0.082886
1051.714146	0.082907
1051.880437	0.082832
1052.046709	0.081552
1052.212964	0.081134
1052.379200	0.081676
1052.545417	0.082484
1052.711617	0.079915
1052.877798	0.077270
1053.043961	0.078786
1053.210106	0.079543
1053.376233	0.078125
1053.542341	0.077755
1053.708432	0.076480
1053.874504	0.075511
1054.040557	0.076767
1054.206593	0.078647
1054.372610	0.079689
1054.538609	0.078939
1054.704590	0.077258
1054.870553	0.078580
1055.036497	0.079176
1055.202424	0.080921
1055.368331	0.082027
1055.534221	0.081313
1055.700093	0.082635
1055.865946	0.083022
1056.031781	0.083547
1056.197598	0.083196
1056.363397	0.083391
1056.529177	0.084097
1056.694939	0.084158
1056.860683	0.085378
1057.026409	0.085985
1057.192116	0.083938
1057.357806	0.083037
1057.523477	0.084562
1057.689130	0.085676
1057.854764	0.085438
1058.020381	0.083947
1058.185979	0.084920
1058.351559	0.084525
1058.517120	0.083273
1058.682664	0.085241
1058.848189	0.087025
1059.013696	0.085680
1059.179185	0.084447
1059.344656	0.084053
1059.510108	0.084656
1059.675542	0.083125
1059.840958	0.082735
1060.006356	0.081566
1060.171735	0.081048
1060.337096	0.080942
1060.502439	0.081726
1060.667764	0.082317
1060.833071	0.080877
1060.998359	0.081893
1061.163629	0.082881
1061.328881	0.083079
1061.494115	0.084435
1061.659330	0.083095
1061.824527	0.082767
1061.989706	0.081720
1062.154867	0.081987
1062.320010	0.084702
1062.485134	0.084048
1062.650240	0.082820
1062.815328	0.081699
1062.980398	0.081990
1063.145449	0.082685
1063.310482	0.082567
1063.475497	0.081674
1063.640494	0.082866
1063.805473	0.079745
1063.970433	0.079102
1064.135375	0.081276
1064.300299	0.081723
1064.465204	0.080379
1064.630092	0.080965
1064.794961	0.082295
1064.959812	0.082465
1065.124645	0.081262
1065.289459	0.083075
1065.454256	0.083670
1065.619034	0.082504
1065.783793	0.081083
1065.948535	0.082084
1066.113258	0.082965
1066.277964	0.081478
1066.442651	0.082130
1066.607319	0.083606
1066.771970	0.083035
1066.936602	0.082647
1067.101216	0.081597
1067.265812	0.084102
1067.430389	0.084699
1067.594949	0.083009
1067.759490	0.083840
1067.924013	0.082334
1068.088518	0.080958
1068.253004	0.081138
1068.417472	0.081527
1068.581922	0.081615
1068.746354	0.080210
1068.910768	0.078225
1069.075163	0.079700
1069.239540	0.078582
1069.403899	0.080131
1069.568240	0.080530
1069.732562	0.080670
1069.896866	0.081676
1070.061152	0.082324
1070.225420	0.084336
1070.389670	0.086166
1070.553901	0.084496
1070.718114	0.086831
1070.882309	0.084385
1071.046486	0.083639
1071.210644	0.084375
1071.374784	0.083258
1071.538906	0.083793
1071.703010	0.081827
1071.867096	0.080867
1072.031163	0.079600
1072.195212	0.077705
1072.359243	0.080410
1072.523256	0.082766
1072.687250	0.082947
1072.851226	0.083585
1073.015184	0.082666
1073.179124	0.082469
1073.343045	0.082905
1073.506949	0.082494
1073.670834	0.081766
1073.834701	0.082814
1073.998549	0.081983
1074.162380	0.083590
1074.326192	0.084940
1074.489986	0.083912
1074.653761	0.083041
1074.817519	0.083691
1074.981258	0.087203
1075.144979	0.090052
1075.308682	0.090266
1075.472367	0.089884
1075.636033	0.088064
1075.799681	0.086353
1075.963311	0.088726
1076.126923	0.091888
1076.290516	0.089505
1076.454092	0.088295
1076.617649	0.084200
1076.781187	0.082432
1076.944708	0.082755
1077.108210	0.082058
1077.271695	0.083629
1077.435160	0.081213
1077.598608	0.079567
1077.762038	0.079309
1077.925449	0.079630
1078.088842	0.080243
1078.252217	0.081345
1078.415573	0.080862
1078.578912	0.082510
1078.742232	0.080320
1078.905534	0.078915
1079.068817	0.080548
1079.232083	0.082399
1079.395330	0.082260
1079.558559	0.082462
1079.721770	0.082660
1079.884962	0.084223
1080.048136	0.085222
1080.211293	0.084461
1080.374430	0.086299
1080.537550	0.083620
1080.700651	0.084197
1080.863735	0.084984
1081.026800	0.087105
1081.189846	0.085898
1081.352875	0.084143
1081.515885	0.080704
1081.678877	0.083197
1081.841851	0.085480
1082.004807	0.085671
1082.167744	0.086394
1082.330663	0.084437
1082.493564	0.084519
1082.656447	0.084646
1082.819312	0.084700
1082.982158	0.086667
1083.144986	0.087354
1083.307796	0.087599
1083.470587	0.088652
1083.633361	0.089749
1083.796116	0.092781
1083.958853	0.093522
1084.121571	0.091283
1084.284272	0.091393
1084.446954	0.089187
1084.609618	0.088384
1084.772264	0.087108
1084.934892	0.087381
1085.097501	0.084696
1085.260092	0.083162
1085.422665	0.081125
1085.585220	0.083138
1085.747756	0.083498
1085.910274	0.084769
1086.072774	0.084821
1086.235256	0.086615
1086.397720	0.084681
1086.560165	0.085921
1086.722592	0.084051
1086.885001	0.086404
1087.047392	0.087134
1087.209764	0.085798
1087.372119	0.084607
1087.534455	0.084857
1087.696772	0.084170
1087.859072	0.083320
1088.021353	0.082034
1088.183616	0.084652
1088.345861	0.083116
1088.508088	0.081678
1088.670296	0.084170
1088.832486	0.085888
1088.994658	0.086513
1089.156812	0.084946
1089.318948	0.085647
1089.481065	0.085098
1089.643164	0.084696
1089.805245	0.084700
1089.967308	0.086914
1090.129352	0.085764
1090.291378	0.085440
1090.453386	0.082108
1090.615376	0.083976
1090.777347	0.086172
1090.939301	0.086201
1091.101236	0.084773
1091.263153	0.085413
1091.425051	0.081497
1091.586932	0.083405
1091.748794	0.082560
1091.910638	0.083733
1092.072463	0.083630
1092.234271	0.084955
1092.396060	0.085308
1092.557831	0.085150
1092.719584	0.081615
1092.881319	0.082781
1093.043035	0.080419
1093.204733	0.079662
1093.366413	0.082157
1093.528075	0.077050
1093.689718	0.076053
1093.851343	0.078059
1094.012950	0.077730
1094.174539	0.081524
1094.336110	0.083720
1094.497662	0.084227
1094.659196	0.086154
1094.820712	0.082259
1094.982210	0.083829
1095.143689	0.085699
1095.305151	0.082831
1095.466594	0.083821
1095.628018	0.083435
1095.789425	0.081240
1095.950813	0.079919
1096.112183	0.080820
1096.273535	0.083991
1096.434869	0.081834
1096.596184	0.078494
1096.757482	0.079051
1096.918761	0.079133
1097.080021	0.078158
1097.241264	0.078931
1097.402488	0.075040
1097.563694	0.074692
1097.724882	0.075707
1097.886052	0.080317
1098.047203	0.083950
1098.208336	0.085561
1098.369451	0.087165
1098.530548	0.087608
1098.691627	0.087702
1098.852687	0.094733
1099.013729	0.092725
1099.174753	0.089307
1099.335758	0.088170
1099.496746	0.084267
1099.657715	0.082306
1099.818666	0.079162
1099.979599	0.076627
1100.140513	0.078093
1100.301409	0.073844
1100.462287	0.074147
1100.623147	0.072629
1100.783989	0.074487
1100.944812	0.076913
1101.105617	0.082106
1101.266404	0.082496
1101.427173	0.083311
1101.587923	0.081111
1101.748656	0.084728
1101.909370	0.084905
1102.070066	0.086511
1102.230743	0.082909
1102.391403	0.080915
1102.552044	0.076487
1102.712667	0.075827
1102.873271	0.076358
1103.033858	0.079694
1103.194426	0.075187
1103.354976	0.074579
1103.515508	0.074772
1103.676021	0.077517
1103.836517	0.078234
1103.996994	0.079259
1104.157453	0.083373
1104.317893	0.081201
1104.478316	0.078222
1104.638720	0.081786
1104.799106	0.083762
1104.959474	0.084207
1105.119823	0.084271
1105.280155	0.082861
1105.440468	0.079543
1105.600763	0.076333
1105.761039	0.079103
1105.921298	0.080451
1106.081538	0.077101
1106.241760	0.077028
1106.401964	0.076858
1106.562149	0.074453
1106.722316	0.072427
1106.882465	0.074251
1107.042596	0.073269
1107.202709	0.072764
1107.362803	0.070630
1107.522879	0.075158
1107.682937	0.074349
1107.842977	0.075147
1108.002999	0.074722
1108.163002	0.077124
1108.322987	0.079427
1108.482954	0.079222
1108.642902	0.081200
1108.802833	0.084588
1108.962745	0.082420
1109.122639	0.084407
1109.282515	0.086247
1109.442372	0.086924
1109.602211	0.089046
1109.762032	0.084707
1109.921835	0.086625
1110.081620	0.081335
1110.241386	0.075910
1110.401134	0.075449
1110.560864	0.070739
1110.720576	0.068518
1110.880269	0.070267
1111.039945	0.070316
1111.199602	0.071039
1111.359240	0.070962
1111.518861	0.077627
1111.678463	0.079761
1111.838047	0.076034
1111.997613	0.078264
1112.157161	0.076843
1112.316690	0.074658
1112.476202	0.072801
1112.635695	0.073410
1112.795169	0.074189
1112.954626	0.066276
1113.114064	0.068239
1113.273484	0.071858
1113.432886	0.075932
1113.592270	0.079709
1113.751635	0.082562
1113.910983	0.085192
1114.070312	0.087913
1114.229622	0.085236
1114.388915	0.086002
1114.548189	0.087770
1114.707445	0.085832
1114.866683	0.082468
1115.025903	0.078264
1115.185104	0.076177
1115.344287	0.070799
1115.503452	0.068635
1115.662599	0.071066
1115.821727	0.076691
1115.980838	0.076839
1116.139930	0.075814
1116.299004	0.074339
1116.458059	0.071809
1116.617097	0.073434
1116.776116	0.076559
1116.935117	0.076586
1117.094099	0.075679
1117.253064	0.071171
1117.412010	0.068322
1117.570938	0.073626
1117.729848	0.071953
1117.888740	0.079999
1118.047613	0.082480
1118.206468	0.083139
1118.365305	0.086819
1118.524124	0.086807
1118.682924	0.089124
1118.841707	0.087390
1119.000471	0.085702
1119.159216	0.088756
1119.317944	0.080720
1119.476653	0.074585
1119.635344	0.069600
1119.794017	0.066697
1119.952672	0.065288
1120.111308	0.068396
1120.269927	0.067529
1120.428527	0.065402
1120.587108	0.064411
1120.745672	0.066195
1120.904217	0.062520
1121.062744	0.065389
1121.221253	0.063275
1121.379744	0.065179
1121.538216	0.064998
1121.696671	0.066072
1121.855107	0.064590
1122.013524	0.063033
1122.171924	0.064013
1122.330305	0.068907
1122.488668	0.068412
1122.647013	0.070712
1122.805340	0.067987
1122.963648	0.066535
1123.121938	0.064082
1123.280210	0.065578
1123.438464	0.063209
1123.596700	0.063590
1123.754917	0.061248
1123.913116	0.064090
1124.071297	0.064238
1124.229459	0.067362
1124.387604	0.068331
1124.545730	0.073414
1124.703838	0.072587
1124.861928	0.075934
1125.019999	0.075656
1125.178052	0.080425
1125.336088	0.082050
1125.494104	0.077683
1125.652103	0.081171
1125.810083	0.077778
1125.968045	0.074527
1126.125989	0.078872
1126.283915	0.078703
1126.441823	0.075726
1126.599712	0.072036
1126.757583	0.071030
1126.915436	0.073314
1127.073270	0.066030
1127.231087	0.062631
1127.388885	0.065205
1127.546665	0.061738
1127.704426	0.062089
1127.862170	0.066097
1128.019895	0.067363
1128.177602	0.068021
1128.335291	0.066660
1128.492961	0.070917
1128.650614	0.073391
1128.808248	0.071300
1128.965864	0.071020
1129.123461	0.072119
1129.281041	0.071371
1129.438602	0.071271
1129.596145	0.068248
1129.753670	0.064394
1129.911176	0.058912
1130.068665	0.061047
1130.226135	0.061983
1130.383587	0.063764
1130.541020	0.062570
1130.698436	0.062280
1130.855833	0.064120
1131.013212	0.061414
1131.170573	0.068190
1131.327915	0.068853
1131.485239	0.065870
1131.642545	0.066257
1131.799833	0.061092
1131.957103	0.061970
1132.114354	0.061106
1132.271588	0.061449
1132.428803	0.064513
1132.585999	0.063114
1132.743178	0.067081
1132.900338	0.069709
1133.057480	0.072955
1133.214604	0.076114
1133.371710	0.081622
1133.528797	0.080393
1133.685866	0.081133
1133.842917	0.080250
1133.999950	0.080548
1134.156964	0.079390
1134.313960	0.077461
1134.470938	0.068211
1134.627898	0.070011
1134.784840	0.061493
1134.941763	0.061237
1135.098668	0.061246
1135.255555	0.061428
1135.412424	0.061389
1135.569274	0.060293
1135.726107	0.062901
1135.882921	0.066196
1136.039716	0.065056
1136.196494	0.065551
1136.353253	0.065887
1136.509995	0.058756
1136.666717	0.055169
1136.823422	0.051044
1136.980109	0.052233
1137.136777	0.051511
1137.293427	0.053754
1137.450059	0.050872
1137.606672	0.053679
1137.763267	0.050796
1137.919844	0.058783
1138.076403	0.060553
1138.232944	0.064782
1138.389466	0.063578
1138.545971	0.062149
1138.702457	0.059141
1138.858924	0.057197
1139.015374	0.059976
1139.171805	0.062521
1139.328218	0.056835
1139.484613	0.058612
1139.640990	0.058308
1139.797348	0.056000
1139.953688	0.055566
1140.110010	0.057082
1140.266314	0.061837
1140.422600	0.061465
1140.578867	0.060088
1140.735116	0.063477
1140.891347	0.066038
1141.047559	0.065611
1141.203754	0.069303
1141.359930	0.065314
1141.516088	0.062235
1141.672228	0.059984
1141.828349	0.057512
1141.984452	0.059514
1142.140537	0.063347
1142.296604	0.061816
1142.452653	0.064219
1142.608683	0.060078
1142.764695	0.066539
1142.920689	0.068878
1143.076665	0.077244
1143.232622	0.078985
1143.388562	0.076335
1143.544483	0.067606
1143.700385	0.065400
1143.856270	0.063947
1144.012136	0.063098
1144.167985	0.063108
1144.323814	0.064361
1144.479626	0.054501
1144.635420	0.051245
1144.791195	0.059460
1144.946952	0.060675
1145.102691	0.057994
1145.258411	0.060104
1145.414113	0.067946
1145.569798	0.067596
1145.725463	0.067658
1145.881111	0.075581
1146.036741	0.078096
1146.192352	0.078946
1146.347945	0.083646
1146.503519	0.085472
1146.659076	0.078677
1146.814614	0.074029
1146.970134	0.076860
1147.125636	0.072889
1147.281120	0.064193
1147.436585	0.057442
1147.592032	0.048479
1147.747461	0.046228
1147.902872	0.045140
1148.058265	0.049292
1148.213639	0.047096
1148.368995	0.043421
1148.524333	0.044968
1148.679653	0.049672
1148.834954	0.052991
1148.990237	0.050644
1149.145502	0.048925
1149.300749	0.056621
1149.455977	0.052348
1149.611188	0.061916
1149.766380	0.064496
1149.921553	0.069000
1150.076709	0.070628
1150.231846	0.069084
1150.386966	0.070003
1150.542066	0.071350
1150.697149	0.059214
1150.852214	0.061061
1151.007260	0.051798
1151.162288	0.055275
1151.317298	0.050014
1151.472289	0.045628
1151.627263	0.046062
1151.782218	0.053425
1151.937155	0.056346
1152.092073	0.059991
1152.246974	0.058511
1152.401856	0.060212
1152.556720	0.050829
1152.711566	0.050650
1152.866393	0.056856
1153.021203	0.057435
1153.175994	0.057543
1153.330767	0.054052
1153.485521	0.053625
1153.640258	0.051711
1153.794976	0.051124
1153.949676	0.055873
1154.104358	0.053964
1154.259021	0.050216
1154.413667	0.049587
1154.568294	0.047790
1154.722903	0.048565
1154.877493	0.054302
1155.032066	0.058698
1155.186620	0.062254
1155.341156	0.065064
1155.495674	0.065814
1155.650173	0.066700
1155.804654	0.065995
1155.959118	0.067612
1156.113562	0.069564
1156.267989	0.068484
1156.422397	0.061383
1156.576788	0.057406
1156.731160	0.052471
1156.885513	0.061579
1157.039849	0.061605
1157.194166	0.068293
1157.348465	0.065333
1157.502746	0.063635
1157.657009	0.059839
1157.811253	0.070462
1157.965479	0.071288
1158.119687	0.073334
1158.273877	0.064587
1158.428048	0.063263
1158.582201	0.052735
1158.736337	0.049168
1158.890453	0.052021
1159.044552	0.051931
1159.198632	0.043824
1159.352694	0.041553
1159.506738	0.037571
1159.660764	0.039043
1159.814771	0.038451
1159.968761	0.040194
1160.122732	0.043708
1160.276685	0.037316
1160.430619	0.040231
1160.584535	0.050093
1160.738434	0.056412
1160.892313	0.058859
1161.046175	0.064494
1161.200019	0.071231
1161.353844	0.084850
1161.507651	0.083319
1161.661440	0.081374
1161.815210	0.078988
1161.968962	0.071836
1162.122697	0.067727
1162.276412	0.065860
1162.430110	0.060264
1162.583789	0.045903
1162.737451	0.037285
1162.891094	0.030595
1163.044718	0.033271
1163.198325	0.033126
1163.351913	0.032240
1163.505483	0.034113
1163.659035	0.028918
1163.812569	0.027685
1163.966084	0.032755
1164.119581	0.034962
1164.273060	0.044052
1164.426521	0.045234
1164.579964	0.048618
1164.733388	0.049096
1164.886794	0.041116
1165.040182	0.044986
1165.193551	0.043271
1165.346903	0.043347
1165.500236	0.040414
1165.653551	0.038496
1165.806848	0.033063
1165.960126	0.027277
1166.113386	0.020470
1166.266628	0.022560
1166.419852	0.024659
1166.573058	0.029455
1166.726245	0.032565
1166.879414	0.029669
1167.032565	0.031577
1167.185698	0.028778
1167.338812	0.027185
1167.491909	0.030770
1167.644987	0.033605
1167.798046	0.027912
1167.951088	0.020886
1168.104111	0.018325
1168.257117	0.024069
1168.410103	0.022302
1168.563072	0.024718
1168.716023	0.027491
1168.868955	0.034914
1169.021869	0.032051
1169.174765	0.041517
1169.327642	0.040900
1169.480501	0.038974
1169.633343	0.034371
1169.786165	0.029939
1169.938970	0.040912
1170.091757	0.040612
1170.244525	0.036483
1170.397275	0.035212
1170.550007	0.033984
1170.702720	0.038155
1170.855415	0.042128
1171.008092	0.041529
1171.160751	0.042492
1171.313392	0.034460
1171.466014	0.052517
1171.618619	0.026375
1171.771205	0.026375
1171.923772	0.026375
