sample name	sample
index	162
start time	 02-15-2021  03:13:31 PM


Wavelength (nm)	Absorbance
494.344910	-0.920590
494.563924	-0.920590
494.782919	-0.920590
495.001897	-0.268845
495.220856	NaN
495.439797	NaN
495.658719	NaN
495.877624	-0.341894
496.096510	NaN
496.315378	NaN
496.534227	NaN
496.753059	NaN
496.971872	NaN
497.190667	0.165424
497.409444	0.108608
497.628203	0.093400
497.846943	0.097580
498.065665	0.083490
498.284369	0.076265
498.503055	0.078543
498.721723	0.073222
498.940372	0.074037
499.159003	0.079475
499.377616	0.080711
499.596210	0.084243
499.814787	0.083836
500.033345	0.086177
500.251885	0.088071
500.470406	0.087524
500.688910	0.090167
500.907395	0.089391
501.125862	0.089151
501.344311	0.085702
501.562742	0.084072
501.781154	0.082832
501.999548	0.082179
502.217924	0.081721
502.436282	0.081298
502.654621	0.081001
502.872942	0.084987
503.091245	0.082666
503.309530	0.084247
503.527797	0.082862
503.746045	0.084248
503.964275	0.083921
504.182487	0.085871
504.400681	0.086911
504.618856	0.086465
504.837013	0.083317
505.055152	0.084312
505.273273	0.083011
505.491376	0.083780
505.709460	0.086278
505.927526	0.087238
506.145574	0.087994
506.363604	0.088440
506.581615	0.089063
506.799608	0.088730
507.017583	0.088252
507.235540	0.090454
507.453478	0.091314
507.671399	0.089616
507.889301	0.091658
508.107185	0.090533
508.325050	0.090143
508.542898	0.088247
508.760727	0.087724
508.978538	0.088217
509.196330	0.087479
509.414105	0.088851
509.631861	0.089480
509.849599	0.088372
510.067319	0.088749
510.285021	0.090852
510.502704	0.093873
510.720369	0.095311
510.938016	0.095663
511.155645	0.096213
511.373255	0.095472
511.590848	0.092788
511.808422	0.093421
512.025977	0.092914
512.243515	0.089350
512.461034	0.087954
512.678536	0.088746
512.896018	0.089480
513.113483	0.087384
513.330930	0.087469
513.548358	0.089098
513.765768	0.088260
513.983160	0.091014
514.200533	0.093548
514.417889	0.093878
514.635226	0.092755
514.852545	0.093297
515.069845	0.095776
515.287128	0.097164
515.504392	0.098380
515.721638	0.100029
515.938866	0.098777
516.156075	0.097434
516.373267	0.098434
516.590440	0.099887
516.807594	0.097578
517.024731	0.097253
517.241850	0.096356
517.458950	0.094955
517.676032	0.096370
517.893095	0.097722
518.110141	0.098186
518.327168	0.097109
518.544177	0.095193
518.761168	0.097680
518.978141	0.096741
519.195095	0.094661
519.412031	0.096184
519.628949	0.091772
519.845849	0.089582
520.062731	0.090127
520.279594	0.090957
520.496439	0.091295
520.713266	0.089122
520.930074	0.092686
521.146865	0.094612
521.363637	0.094452
521.580391	0.096952
521.797127	0.097101
522.013844	0.098096
522.230543	0.097561
522.447224	0.097861
522.663887	0.099960
522.880532	0.097476
523.097158	0.097959
523.313766	0.100303
523.530356	0.100733
523.746928	0.101173
523.963481	0.101193
524.180017	0.103385
524.396534	0.104792
524.613032	0.104641
524.829513	0.105708
525.045975	0.103967
525.262420	0.099591
525.478845	0.099062
525.695253	0.100097
525.911643	0.099623
526.128014	0.099654
526.344367	0.100097
526.560702	0.101738
526.777018	0.101057
526.993316	0.104130
527.209597	0.106965
527.425858	0.109500
527.642102	0.109820
527.858328	0.110753
528.074535	0.111357
528.290724	0.113034
528.506894	0.112239
528.723047	0.113308
528.939181	0.112675
529.155297	0.112238
529.371395	0.110589
529.587475	0.111638
529.803536	0.111515
530.019579	0.110094
530.235604	0.108630
530.451611	0.110172
530.667600	0.112366
530.883570	0.113515
531.099522	0.115885
531.315456	0.117830
531.531372	0.116311
531.747269	0.116390
531.963148	0.118158
532.179009	0.119225
532.394852	0.117287
532.610676	0.117470
532.826482	0.116606
533.042271	0.116517
533.258040	0.114942
533.473792	0.117056
533.689525	0.118767
533.905240	0.117874
534.120937	0.116414
534.336616	0.118197
534.552277	0.116784
534.767919	0.116851
534.983543	0.115930
535.199149	0.118011
535.414736	0.117914
535.630306	0.117245
535.845857	0.118662
536.061390	0.120365
536.276904	0.120188
536.492401	0.120934
536.707879	0.121207
536.923339	0.121940
537.138781	0.120098
537.354204	0.119529
537.569610	0.119767
537.784997	0.120039
538.000366	0.118912
538.215716	0.119365
538.431049	0.119053
538.646363	0.119186
538.861659	0.119834
539.076937	0.120930
539.292196	0.121945
539.507438	0.121287
539.722661	0.121238
539.937866	0.123767
540.153052	0.124126
540.368221	0.125467
540.583371	0.126270
540.798503	0.126060
541.013617	0.127131
541.228712	0.127088
541.443789	0.128561
541.658848	0.128678
541.873889	0.127614
542.088912	0.127951
542.303916	0.127138
542.518902	0.128133
542.733870	0.129934
542.948820	0.129764
543.163752	0.130430
543.378665	0.130528
543.593560	0.131455
543.808437	0.131989
544.023295	0.132345
544.238136	0.132894
544.452958	0.132966
544.667762	0.133439
544.882548	0.134253
545.097315	0.133957
545.312064	0.133794
545.526795	0.132762
545.741508	0.134602
545.956203	0.134625
546.170879	0.135245
546.385537	0.135966
546.600177	0.134943
546.814799	0.135337
547.029402	0.136505
547.243988	0.137088
547.458555	0.137889
547.673103	0.137504
547.887634	0.138617
548.102146	0.139011
548.316640	0.139183
548.531116	0.138484
548.745574	0.138744
548.960013	0.138293
549.174435	0.137575
549.388838	0.138485
549.603222	0.137468
549.817589	0.136736
550.031937	0.137496
550.246267	0.137081
550.460579	0.138539
550.674873	0.137978
550.889148	0.139122
551.103405	0.141047
551.317644	0.140338
551.531865	0.140305
551.746068	0.140806
551.960252	0.140594
552.174418	0.140815
552.388566	0.141041
552.602696	0.141111
552.816807	0.140030
553.030900	0.139971
553.244975	0.140721
553.459032	0.142092
553.673070	0.142596
553.887091	0.142551
554.101093	0.142713
554.315077	0.142486
554.529042	0.142924
554.742990	0.143599
554.956919	0.143146
555.170830	0.143213
555.384722	0.143451
555.598597	0.143328
555.812453	0.144248
556.026291	0.145362
556.240111	0.145689
556.453913	0.145622
556.667696	0.147462
556.881461	0.148152
557.095208	0.148354
557.308937	0.147545
557.522647	0.147380
557.736339	0.146984
557.950013	0.146153
558.163669	0.147296
558.377307	0.148325
558.590926	0.147280
558.804527	0.148541
559.018110	0.148676
559.231675	0.148963
559.445221	0.149073
559.658749	0.149063
559.872259	0.149316
560.085751	0.149504
560.299225	0.149029
560.512680	0.149319
560.726117	0.148381
560.939536	0.148490
561.152937	0.147828
561.366319	0.147389
561.579683	0.147811
561.793029	0.148838
562.006357	0.148316
562.219667	0.149082
562.432958	0.149003
562.646231	0.149236
562.859486	0.150411
563.072723	0.151725
563.285941	0.153320
563.499141	0.153037
563.712323	0.153383
563.925487	0.153109
564.138632	0.153921
564.351760	0.154637
564.564869	0.154937
564.777960	0.153929
564.991032	0.155179
565.204087	0.156507
565.417123	0.156892
565.630141	0.157329
565.843140	0.157895
566.056122	0.156144
566.269085	0.155344
566.482030	0.155355
566.694957	0.155170
566.907866	0.154144
567.120756	0.153472
567.333628	0.154481
567.546482	0.153471
567.759318	0.153737
567.972135	0.154419
568.184935	0.154514
568.397716	0.154860
568.610478	0.156097
568.823223	0.157470
569.035949	0.156471
569.248657	0.155268
569.461347	0.156309
569.674019	0.155846
569.886672	0.157536
570.099308	0.158096
570.311925	0.159139
570.524523	0.158884
570.737104	0.158694
570.949666	0.161225
571.162210	0.162145
571.374736	0.161377
571.587244	0.161861
571.799733	0.160665
572.012205	0.161092
572.224658	0.160355
572.437092	0.161146
572.649509	0.161700
572.861907	0.160951
573.074287	0.161311
573.286649	0.161910
573.498993	0.162621
573.711318	0.162773
573.923625	0.163346
574.135914	0.163292
574.348185	0.162285
574.560438	0.162474
574.772672	0.162136
574.984888	0.162599
575.197086	0.163275
575.409266	0.163116
575.621427	0.164285
575.833570	0.163852
576.045695	0.163668
576.257802	0.164461
576.469890	0.163893
576.681961	0.163878
576.894013	0.163165
577.106046	0.163168
577.318062	0.164163
577.530059	0.164425
577.742039	0.164426
577.954000	0.164907
578.165942	0.166423
578.377867	0.167335
578.589773	0.168091
578.801661	0.168494
579.013531	0.169064
579.225382	0.168537
579.437216	0.168493
579.649031	0.169167
579.860828	0.169999
580.072606	0.168750
580.284367	0.168500
580.496109	0.168924
580.707833	0.169211
580.919539	0.168964
581.131227	0.169241
581.342896	0.169408
581.554547	0.169388
581.766180	0.169146
581.977795	0.170286
582.189391	0.169880
582.400969	0.169661
582.612529	0.170708
582.824071	0.170930
583.035595	0.171399
583.247100	0.171462
583.458587	0.171248
583.670056	0.171702
583.881506	0.171077
584.092939	0.170744
584.304353	0.170713
584.515749	0.170663
584.727127	0.170434
584.938486	0.169805
585.149828	0.170210
585.361151	0.171857
585.572456	0.170619
585.783742	0.171218
585.995011	0.172621
586.206261	0.173166
586.417493	0.172717
586.628706	0.173060
586.839902	0.173320
587.051079	0.172696
587.262238	0.171833
587.473379	0.173429
587.684502	0.173451
587.895606	0.173713
588.106692	0.173733
588.317760	0.174420
588.528810	0.173875
588.739841	0.174746
588.950855	0.175489
589.161850	0.175833
589.372827	0.175669
589.583785	0.175758
589.794726	0.175745
590.005648	0.176234
590.216552	0.176956
590.427437	0.178211
590.638305	0.178186
590.849154	0.178507
591.059985	0.179109
591.270798	0.178958
591.481592	0.179177
591.692369	0.178916
591.903127	0.178062
592.113867	0.177436
592.324588	0.178039
592.535292	0.179058
592.745977	0.180186
592.956644	0.179984
593.167293	0.181417
593.377923	0.181793
593.588536	0.181844
593.799130	0.182827
594.009706	0.183801
594.220263	0.182616
594.430803	0.182684
594.641324	0.181405
594.851827	0.181660
595.062312	0.181860
595.272778	0.181312
595.483227	0.181614
595.693657	0.181687
595.904069	0.181888
596.114462	0.183245
596.324838	0.182877
596.535195	0.184102
596.745534	0.184089
596.955855	0.184154
597.166157	0.184759
597.376441	0.185493
597.586707	0.185858
597.796955	0.185403
598.007185	0.185789
598.217396	0.185860
598.427589	0.186370
598.637764	0.186514
598.847921	0.186729
599.058060	0.187018
599.268180	0.186431
599.478282	0.185978
599.688366	0.185675
599.898431	0.185224
600.108479	0.184955
600.318508	0.184768
600.528519	0.185505
600.738511	0.185209
600.948486	0.185260
601.158442	0.186323
601.368380	0.186799
601.578300	0.187615
601.788202	0.189239
601.998085	0.189588
602.207950	0.188910
602.417797	0.188841
602.627626	0.188481
602.837436	0.189422
603.047228	0.189861
603.257002	0.190307
603.466758	0.190696
603.676496	0.189878
603.886215	0.190158
604.095916	0.190240
604.305599	0.191387
604.515264	0.192224
604.724910	0.192473
604.934538	0.191870
605.144148	0.191799
605.353740	0.191944
605.563314	0.191432
605.772869	0.192424
605.982406	0.193052
606.191925	0.192228
606.401425	0.192939
606.610908	0.192888
606.820372	0.192674
607.029818	0.193046
607.239246	0.192544
607.448655	0.192739
607.658047	0.192641
607.867420	0.192547
608.076775	0.193229
608.286111	0.192611
608.495430	0.192393
608.704730	0.193202
608.914012	0.193317
609.123275	0.193717
609.332521	0.194460
609.541748	0.194451
609.750957	0.195331
609.960148	0.195254
610.169321	0.195215
610.378475	0.196027
610.587611	0.196152
610.796729	0.196472
611.005829	0.196859
611.214910	0.196647
611.423974	0.197225
611.633019	0.197135
611.842045	0.196583
612.051054	0.197018
612.260044	0.196514
612.469017	0.196614
612.677970	0.196337
612.886906	0.196549
613.095824	0.196730
613.304723	0.196576
613.513604	0.197310
613.722467	0.198056
613.931311	0.198530
614.140138	0.199082
614.348946	0.199385
614.557736	0.199870
614.766507	0.199485
614.975261	0.200221
615.183996	0.200135
615.392713	0.199280
615.601412	0.200092
615.810092	0.199254
616.018754	0.199466
616.227399	0.198867
616.436024	0.199114
616.644632	0.199780
616.853222	0.198987
617.061793	0.199552
617.270346	0.200041
617.478880	0.199284
617.687397	0.200125
617.895895	0.200009
618.104375	0.201214
618.312837	0.201166
618.521281	0.201405
618.729706	0.201935
618.938113	0.201700
619.146502	0.201934
619.354873	0.203062
619.563226	0.202474
619.771560	0.202350
619.979876	0.201909
620.188174	0.201983
620.396453	0.202158
620.604715	0.202710
620.812958	0.202991
621.021183	0.203169
621.229390	0.202220
621.437578	0.203297
621.645748	0.204293
621.853900	0.204851
622.062034	0.204380
622.270150	0.204863
622.478247	0.204434
622.686326	0.204659
622.894387	0.204655
623.102430	0.204412
623.310454	0.204691
623.518461	0.204330
623.726449	0.204210
623.934418	0.205324
624.142370	0.205688
624.350303	0.205828
624.558218	0.205582
624.766115	0.205760
624.973994	0.206254
625.181855	0.206891
625.389697	0.207703
625.597521	0.208298
625.805327	0.208718
626.013114	0.208810
626.220883	0.209662
626.428634	0.210425
626.636367	0.211200
626.844082	0.212245
627.051778	0.211529
627.259457	0.210601
627.467117	0.211011
627.674758	0.210969
627.882382	0.210996
628.089987	0.210663
628.297574	0.210785
628.505143	0.209920
628.712694	0.209529
628.920226	0.209841
629.127740	0.211023
629.335236	0.211043
629.542714	0.210905
629.750174	0.209949
629.957615	0.210628
630.165038	0.210951
630.372443	0.211763
630.579829	0.211897
630.787198	0.211919
630.994548	0.211212
631.201880	0.210926
631.409194	0.211107
631.616489	0.211987
631.823766	0.211939
632.031025	0.211925
632.238266	0.212093
632.445489	0.212096
632.652693	0.212439
632.859879	0.213064
633.067047	0.213764
633.274197	0.214085
633.481329	0.214496
633.688442	0.214699
633.895537	0.215134
634.102614	0.215426
634.309672	0.216009
634.516713	0.216616
634.723735	0.217149
634.930739	0.216976
635.137724	0.217369
635.344692	0.217811
635.551641	0.217929
635.758572	0.218552
635.965485	0.218421
636.172379	0.218557
636.379256	0.218967
636.586114	0.218856
636.792954	0.219109
636.999775	0.219536
637.206579	0.219483
637.413364	0.220086
637.620131	0.219976
637.826880	0.220564
638.033610	0.220590
638.240323	0.220281
638.447017	0.220319
638.653692	0.220674
638.860350	0.220634
639.066990	0.220993
639.273611	0.220810
639.480214	0.220179
639.686798	0.220712
639.893365	0.220960
640.099913	0.221271
640.306443	0.221839
640.512955	0.222052
640.719449	0.222397
640.925924	0.222810
641.132381	0.223443
641.338820	0.223932
641.545241	0.223530
641.751644	0.224025
641.958028	0.224462
642.164394	0.224873
642.370742	0.224986
642.577071	0.224908
642.783383	0.224992
642.989676	0.225079
643.195951	0.225376
643.402207	0.225508
643.608446	0.225817
643.814666	0.225839
644.020868	0.225601
644.227052	0.225780
644.433218	0.226578
644.639365	0.226022
644.845494	0.226375
645.051605	0.226742
645.257698	0.227084
645.463772	0.227399
645.669828	0.227507
645.875866	0.227517
646.081886	0.227790
646.287888	0.227233
646.493871	0.228032
646.699836	0.228097
646.905783	0.227889
647.111712	0.228522
647.317622	0.228434
647.523514	0.228750
647.729388	0.229203
647.935244	0.229366
648.141082	0.229562
648.346901	0.229941
648.552702	0.229746
648.758485	0.230403
648.964250	0.230966
649.169996	0.231446
649.375724	0.231520
649.581434	0.232018
649.787126	0.231991
649.992800	0.232181
650.198455	0.232864
650.404092	0.233594
650.609711	0.233421
650.815311	0.232854
651.020894	0.233056
651.226458	0.233771
651.432004	0.233881
651.637532	0.234418
651.843041	0.235120
652.048532	0.235299
652.254006	0.235228
652.459460	0.235438
652.664897	0.236280
652.870315	0.236441
653.075716	0.236222
653.281097	0.236402
653.486461	0.236852
653.691807	0.236725
653.897134	0.236866
654.102443	0.237157
654.307734	0.237599
654.513006	0.237476
654.718261	0.237936
654.923497	0.238418
655.128715	0.238549
655.333915	0.238617
655.539096	0.238987
655.744259	0.238555
655.949404	0.238579
656.154531	0.239643
656.359640	0.239855
656.564730	0.240180
656.769802	0.240127
656.974856	0.240258
657.179892	0.240215
657.384909	0.240750
657.589908	0.241371
657.794889	0.242131
657.999852	0.241579
658.204797	0.242152
658.409723	0.242215
658.614631	0.242866
658.819521	0.243253
659.024393	0.243772
659.229246	0.243956
659.434081	0.244036
659.638898	0.244196
659.843697	0.244727
660.048478	0.244896
660.253240	0.245238
660.457984	0.244914
660.662710	0.245193
660.867417	0.245660
661.072107	0.246252
661.276778	0.246527
661.481431	0.246562
661.686066	0.247204
661.890682	0.247127
662.095281	0.247334
662.299861	0.248484
662.504422	0.249405
662.708966	0.249408
662.913491	0.249449
663.117999	0.249488
663.322488	0.250488
663.526958	0.250662
663.731411	0.251236
663.935845	0.251185
664.140261	0.250914
664.344659	0.251025
664.549038	0.251473
664.753400	0.252145
664.957743	0.252869
665.162068	0.252956
665.366375	0.253528
665.570663	0.253383
665.774933	0.254002
665.979185	0.254778
666.183419	0.254978
666.387635	0.254987
666.591832	0.255247
666.796011	0.255245
667.000172	0.255424
667.204315	0.254996
667.408439	0.255557
667.612545	0.255484
667.816634	0.255433
668.020703	0.255264
668.224755	0.255955
668.428788	0.255930
668.632803	0.256339
668.836800	0.255907
669.040779	0.256298
669.244739	0.256462
669.448681	0.256299
669.652605	0.256052
669.856511	0.256216
670.060399	0.255517
670.264268	0.255567
670.468119	0.255930
670.671952	0.255919
670.875767	0.255625
671.079563	0.255751
671.283341	0.256161
671.487101	0.256758
671.690843	0.257364
671.894567	0.257696
672.098272	0.257868
672.301959	0.257754
672.505628	0.258325
672.709278	0.259171
672.912911	0.259953
673.116525	0.260274
673.320121	0.260521
673.523699	0.260330
673.727258	0.261302
673.930799	0.261611
674.134322	0.261822
674.337827	0.262310
674.541314	0.262346
674.744782	0.262530
674.948232	0.262749
675.151664	0.262728
675.355078	0.263142
675.558474	0.262867
675.761851	0.263045
675.965210	0.263355
676.168551	0.263568
676.371873	0.264068
676.575178	0.263901
676.778464	0.264694
676.981732	0.265434
677.184981	0.265668
677.388213	0.266516
677.591426	0.267593
677.794621	0.268356
677.997798	0.269074
678.200956	0.269358
678.404097	0.270434
678.607219	0.270831
678.810323	0.270820
679.013408	0.270946
679.216476	0.271155
679.419525	0.271159
679.622556	0.271682
679.825569	0.271821
680.028563	0.271643
680.231540	0.271835
680.434498	0.271921
680.637438	0.272410
680.840359	0.272522
681.043263	0.273091
681.246148	0.272923
681.449015	0.272739
681.651864	0.272910
681.854694	0.273276
682.057506	0.272815
682.260301	0.272826
682.463076	0.273116
682.665834	0.273564
682.868573	0.274004
683.071295	0.273961
683.273998	0.274652
683.476682	0.274893
683.679349	0.275101
683.881997	0.275576
684.084627	0.276125
684.287239	0.276419
684.489833	0.276615
684.692408	0.276902
684.894965	0.277338
685.097504	0.277069
685.300025	0.277056
685.502527	0.277477
685.705012	0.277193
685.907478	0.277281
686.109925	0.277047
686.312355	0.278100
686.514766	0.277521
686.717159	0.277674
686.919534	0.277521
687.121891	0.277973
687.324230	0.278639
687.526550	0.279092
687.728852	0.279525
687.931136	0.279999
688.133401	0.279743
688.335649	0.280031
688.537878	0.280705
688.740089	0.281465
688.942281	0.281314
689.144456	0.281163
689.346612	0.281672
689.548750	0.281894
689.750870	0.282224
689.952971	0.282572
690.155055	0.282845
690.357120	0.282503
690.559167	0.282448
690.761195	0.283467
690.963206	0.283765
691.165198	0.283694
691.367172	0.283567
691.569128	0.283533
691.771065	0.283595
691.972984	0.283580
692.174885	0.284058
692.376768	0.284413
692.578633	0.284416
692.780479	0.284576
692.982308	0.285337
693.184118	0.285844
693.385909	0.286737
693.587683	0.286448
693.789438	0.287179
693.991175	0.287526
694.192894	0.287685
694.394595	0.287190
694.596277	0.287464
694.797941	0.287316
694.999587	0.287471
695.201215	0.286771
695.402824	0.287518
695.604416	0.287279
695.805989	0.286956
696.007543	0.287093
696.209080	0.287956
696.410598	0.288009
696.612099	0.287992
696.813580	0.288370
697.015044	0.288929
697.216490	0.288729
697.417917	0.289372
697.619326	0.290316
697.820717	0.290510
698.022089	0.290226
698.223444	0.290197
698.424780	0.290522
698.626098	0.290489
698.827397	0.290447
699.028679	0.291112
699.229942	0.290626
699.431187	0.289869
699.632414	0.290118
699.833622	0.290432
700.034813	0.290811
700.235985	0.291181
700.437139	0.291194
700.638274	0.291240
700.839392	0.291092
701.040491	0.291660
701.241572	0.292434
701.442635	0.292577
701.643679	0.292648
701.844706	0.292693
702.045714	0.292527
702.246704	0.292665
702.447675	0.292940
702.648629	0.293540
702.849564	0.293605
703.050481	0.293106
703.251380	0.293085
703.452260	0.292881
703.653122	0.292546
703.853966	0.292587
704.054792	0.292340
704.255600	0.292420
704.456389	0.291568
704.657160	0.291582
704.857913	0.291887
705.058648	0.291673
705.259365	0.291607
705.460063	0.291420
705.660743	0.290881
705.861405	0.291487
706.062048	0.291685
706.262674	0.291923
706.463281	0.291575
706.663870	0.291521
706.864441	0.291684
707.064993	0.291980
707.265527	0.292420
707.466043	0.293021
707.666541	0.292406
707.867021	0.292159
708.067482	0.292167
708.267925	0.292593
708.468350	0.292398
708.668757	0.292627
708.869145	0.292916
709.069516	0.292836
709.269868	0.292448
709.470201	0.292770
709.670517	0.292861
709.870814	0.292672
710.071093	0.292584
710.271354	0.292767
710.471597	0.292732
710.671821	0.291897
710.872028	0.291891
711.072216	0.291775
711.272385	0.291296
711.472537	0.290962
711.672670	0.290581
711.872785	0.290098
712.072882	0.290095
712.272961	0.289584
712.473021	0.289086
712.673063	0.288995
712.873087	0.289372
713.073093	0.289376
713.273081	0.289684
713.473050	0.290129
713.673001	0.289873
713.872934	0.289805
714.072849	0.289827
714.272745	0.290753
714.472623	0.290545
714.672483	0.289999
714.872325	0.289818
715.072148	0.288929
715.271954	0.288973
715.471741	0.289190
715.671509	0.289308
715.871260	0.289060
716.070992	0.288529
716.270707	0.288710
716.470403	0.288872
716.670080	0.288773
716.869740	0.289633
717.069381	0.289188
717.269004	0.289217
717.468609	0.288590
717.668195	0.288569
717.867764	0.288963
718.067314	0.288655
718.266846	0.288556
718.466360	0.289197
718.665855	0.288671
718.865332	0.289220
719.064791	0.289482
719.264232	0.289535
719.463655	0.289613
719.663059	0.289334
719.862445	0.289496
720.061813	0.289401
720.261163	0.289079
720.460494	0.289142
720.659807	0.288589
720.859102	0.288417
721.058379	0.288328
721.257638	0.288516
721.456878	0.288485
721.656100	0.288561
721.855304	0.288770
722.054490	0.288495
722.253657	0.288520
722.452806	0.288255
722.651937	0.287972
722.851050	0.288202
723.050145	0.288171
723.249221	0.288153
723.448279	0.288086
723.647319	0.287286
723.846340	0.287065
724.045344	0.286287
724.244329	0.286383
724.443296	0.286464
724.642245	0.286028
724.841175	0.285488
725.040088	0.285113
725.238982	0.284871
725.437857	0.284873
725.636715	0.284380
725.835554	0.284378
726.034376	0.284352
726.233179	0.283928
726.431963	0.283491
726.630730	0.283219
726.829478	0.283320
727.028208	0.282875
727.226920	0.282970
727.425614	0.282943
727.624289	0.282546
727.822946	0.282058
728.021585	0.281447
728.220206	0.281690
728.418808	0.281746
728.617392	0.281361
728.815958	0.281452
729.014506	0.281769
729.213036	0.281821
729.411547	0.282043
729.610040	0.282514
729.808515	0.283240
730.006972	0.283062
730.205410	0.282413
730.403831	0.282145
730.602233	0.281418
730.800616	0.280751
730.998982	0.280541
731.197329	0.280219
731.395658	0.279785
731.593969	0.279347
731.792262	0.279163
731.990536	0.278739
732.188793	0.278901
732.387031	0.278780
732.585250	0.278675
732.783452	0.278965
732.981635	0.279533
733.179800	0.278990
733.377947	0.279076
733.576076	0.278748
733.774186	0.278865
733.972278	0.278582
734.170352	0.278740
734.368408	0.277902
734.566446	0.277057
734.764465	0.276561
734.962466	0.276286
735.160449	0.276079
735.358413	0.275479
735.556360	0.275238
735.754288	0.274961
735.952198	0.274790
736.150090	0.275448
736.347963	0.275537
736.545818	0.275058
736.743655	0.275494
736.941474	0.275366
737.139275	0.275454
737.337057	0.275239
737.534821	0.274760
737.732567	0.274095
737.930295	0.273673
738.128005	0.273469
738.325696	0.273055
738.523369	0.272485
738.721024	0.271321
738.918660	0.270676
739.116279	0.270718
739.313879	0.270806
739.511461	0.271036
739.709024	0.270740
739.906570	0.270708
740.104097	0.270844
740.301606	0.270634
740.499097	0.270391
740.696569	0.270690
740.894024	0.270232
741.091460	0.270584
741.288878	0.270184
741.486277	0.269952
741.683659	0.269299
741.881022	0.268809
742.078367	0.268798
742.275694	0.268666
742.473002	0.268162
742.670293	0.267468
742.867565	0.266152
743.064819	0.265543
743.262054	0.265326
743.459272	0.264626
743.656471	0.264398
743.853652	0.263617
744.050815	0.263028
744.247959	0.262793
744.445085	0.263114
744.642194	0.262645
744.839283	0.262750
745.036355	0.261886
745.233408	0.262132
745.430444	0.261678
745.627461	0.261445
745.824459	0.261992
746.021440	0.261946
746.218402	0.261532
746.415346	0.261168
746.612272	0.260426
746.809180	0.261120
747.006069	0.260458
747.202940	0.261215
747.399793	0.261431
747.596628	0.260835
747.793444	0.260554
747.990243	0.260150
748.187023	0.260233
748.383784	0.260975
748.580528	0.260224
748.777253	0.260470
748.973960	0.258963
749.170649	0.258435
749.367320	0.258464
749.563973	0.258460
749.760607	0.259115
749.957223	0.259449
750.153821	0.258992
750.350400	0.258483
750.546962	0.258416
750.743505	0.258935
750.940030	0.258814
751.136536	0.258763
751.333025	0.258328
751.529495	0.257845
751.725947	0.257975
751.922381	0.257582
752.118796	0.257644
752.315194	0.258118
752.511573	0.257879
752.707934	0.257819
752.904276	0.257045
753.100601	0.257314
753.296907	0.256706
753.493195	0.256048
753.689465	0.255889
753.885716	0.256210
754.081949	0.256103
754.278164	0.255948
754.474361	0.255929
754.670540	0.256516
754.866700	0.256449
755.062843	0.256607
755.258967	0.256434
755.455072	0.256960
755.651160	0.257368
755.847229	0.256882
756.043280	0.256946
756.239313	0.256443
756.435328	0.256077
756.631324	0.255361
756.827302	0.255219
757.023262	0.254960
757.219204	0.254630
757.415127	0.253617
757.611033	0.253199
757.806920	0.252738
758.002788	0.252630
758.198639	0.252481
758.394471	0.252266
758.590286	0.251785
758.786081	0.251429
758.981859	0.250496
759.177619	0.250528
759.373360	0.249768
759.569083	0.249081
759.764788	0.249152
759.960474	0.248747
760.156143	0.248896
760.351793	0.249130
760.547425	0.249268
760.743038	0.249474
760.938634	0.249320
761.134211	0.249802
761.329770	0.250423
761.525311	0.250541
761.720833	0.250367
761.916338	0.250082
762.111824	0.249907
762.307292	0.249300
762.502741	0.248724
762.698173	0.248403
762.893586	0.247794
763.088981	0.247599
763.284358	0.246902
763.479716	0.247064
763.675057	0.247153
763.870379	0.247598
764.065683	0.248090
764.260968	0.247687
764.456236	0.247770
764.651485	0.247659
764.846716	0.247346
765.041929	0.246867
765.237123	0.246447
765.432299	0.246370
765.627457	0.245049
765.822597	0.244940
766.017719	0.245715
766.212822	0.245562
766.407907	0.245486
766.602974	0.245232
766.798023	0.245082
766.993054	0.244805
767.188066	0.244205
767.383060	0.244250
767.578036	0.243214
767.772993	0.242311
767.967933	0.241967
768.162854	0.241707
768.357757	0.241564
768.552642	0.241472
768.747508	0.241337
768.942356	0.241244
769.137186	0.241376
769.331998	0.242027
769.526792	0.241778
769.721567	0.241692
769.916324	0.241762
770.111063	0.241444
770.305784	0.241837
770.500486	0.242359
770.695171	0.242892
770.889837	0.243109
771.084484	0.242700
771.279114	0.243443
771.473725	0.243656
771.668318	0.243857
771.862893	0.243898
772.057450	0.243540
772.251988	0.242413
772.446509	0.241895
772.641011	0.242044
772.835494	0.242261
773.029960	0.241657
773.224407	0.241261
773.418836	0.240844
773.613247	0.240603
773.807640	0.240682
774.002014	0.240709
774.196370	0.240455
774.390708	0.240106
774.585028	0.240181
774.779330	0.240327
774.973613	0.240073
775.167878	0.240221
775.362125	0.240246
775.556354	0.240152
775.750564	0.240752
775.944756	0.241141
776.138930	0.240579
776.333086	0.240597
776.527223	0.240570
776.721343	0.240767
776.915444	0.240491
777.109526	0.240449
777.303591	0.240496
777.497637	0.240076
777.691666	0.239880
777.885676	0.239989
778.079667	0.240274
778.273641	0.240297
778.467596	0.240088
778.661533	0.240190
778.855452	0.240199
779.049352	0.239634
779.243235	0.239400
779.437099	0.239265
779.630945	0.239381
779.824773	0.238595
780.018582	0.238669
780.212373	0.238326
780.406146	0.238905
780.599901	0.239015
780.793638	0.239281
780.987356	0.239516
781.181056	0.239391
781.374738	0.239171
781.568402	0.239042
781.762047	0.238530
781.955674	0.238382
782.149283	0.238167
782.342874	0.238549
782.536447	0.238770
782.730001	0.238645
782.923537	0.238596
783.117055	0.238919
783.310555	0.239089
783.504036	0.239358
783.697499	0.240519
783.890944	0.240439
784.084371	0.240294
784.277780	0.240189
784.471170	0.240472
784.664542	0.240996
784.857896	0.241054
785.051231	0.241529
785.244549	0.241768
785.437848	0.241031
785.631129	0.241356
785.824392	0.241075
786.017636	0.240815
786.210863	0.240635
786.404071	0.240329
786.597260	0.239957
786.790432	0.239119
786.983585	0.239247
787.176721	0.239001
787.369838	0.238906
787.562936	0.239023
787.756017	0.239158
787.949079	0.239213
788.142123	0.239335
788.335149	0.239467
788.528156	0.239857
788.721146	0.239527
788.914117	0.240244
789.107070	0.240088
789.300005	0.240347
789.492921	0.240758
789.685819	0.241476
789.878699	0.241419
790.071561	0.241065
790.264405	0.241771
790.457230	0.242040
790.650037	0.241742
790.842826	0.240813
791.035597	0.240407
791.228349	0.240076
791.421084	0.239459
791.613800	0.239577
791.806497	0.240405
791.999177	0.240207
792.191838	0.239998
792.384481	0.240101
792.577106	0.240993
792.769713	0.241356
792.962301	0.241401
793.154871	0.241413
793.347423	0.241594
793.539957	0.241894
793.732473	0.242285
793.924970	0.243013
794.117449	0.243028
794.309910	0.242993
794.502353	0.243544
794.694777	0.243555
794.887183	0.243774
795.079571	0.243684
795.271941	0.243531
795.464293	0.243007
795.656626	0.242704
795.848941	0.243502
796.041238	0.243532
796.233516	0.243341
796.425777	0.243858
796.618019	0.243957
796.810243	0.245395
797.002449	0.245760
797.194636	0.246036
797.386805	0.245949
797.578956	0.245953
797.771089	0.246443
797.963204	0.246661
798.155300	0.247044
798.347378	0.248299
798.539438	0.247209
798.731480	0.246525
798.923503	0.247040
799.115509	0.247196
799.307496	0.247345
799.499465	0.248037
799.691415	0.247992
799.883348	0.247577
800.075262	0.246482
800.267158	0.246951
800.459035	0.248227
800.650895	0.248362
800.842736	0.248648
801.034559	0.248928
801.226364	0.248949
801.418150	0.249567
801.609919	0.250080
801.801669	0.251100
801.993401	0.251309
802.185114	0.251151
802.376810	0.251297
802.568487	0.251507
802.760146	0.251244
802.951787	0.251006
803.143409	0.250570
803.335014	0.250945
803.526600	0.250623
803.718168	0.250912
803.909717	0.250638
804.101249	0.250678
804.292762	0.251328
804.484257	0.251976
804.675734	0.251669
804.867192	0.251740
805.058632	0.251955
805.250054	0.252108
805.441458	0.251997
805.632844	0.251944
805.824211	0.252194
806.015561	0.252037
806.206891	0.252046
806.398204	0.252657
806.589499	0.253297
806.780775	0.253408
806.972033	0.253738
807.163273	0.253581
807.354495	0.254098
807.545698	0.254102
807.736883	0.254350
807.928050	0.254475
808.119199	0.255124
808.310329	0.255996
808.501441	0.256564
808.692535	0.256825
808.883611	0.257520
809.074669	0.258213
809.265708	0.259114
809.456729	0.259875
809.647732	0.260028
809.838717	0.260426
810.029683	0.260499
810.220632	0.260799
810.411562	0.261486
810.602474	0.261268
810.793367	0.261802
810.984242	0.261777
811.175100	0.261926
811.365938	0.262396
811.556759	0.263032
811.747562	0.263124
811.938346	0.263244
812.129112	0.263587
812.319860	0.264446
812.510589	0.264538
812.701300	0.264746
812.891994	0.265227
813.082668	0.265347
813.273325	0.265072
813.463964	0.265364
813.654584	0.265997
813.845186	0.266302
814.035769	0.267245
814.226335	0.268111
814.416882	0.268944
814.607411	0.268963
814.797922	0.269447
814.988415	0.269513
815.178889	0.269991
815.369345	0.270234
815.559783	0.270332
815.750203	0.269902
815.940605	0.269650
816.130988	0.269490
816.321353	0.270134
816.511700	0.270482
816.702028	0.271414
816.892339	0.272034
817.082631	0.272533
817.272905	0.273171
817.463161	0.273053
817.653398	0.273100
817.843617	0.273666
818.033819	0.273438
818.224001	0.273906
818.414166	0.273704
818.604312	0.273700
818.794440	0.272936
818.984550	0.272714
819.174642	0.273871
819.364716	0.274461
819.554771	0.274682
819.744808	0.275269
819.934827	0.275241
820.124827	0.274701
820.314810	0.274810
820.504774	0.276291
820.694720	0.276609
820.884647	0.276495
821.074557	0.276597
821.264448	0.276642
821.454321	0.276906
821.644176	0.277651
821.834012	0.279328
822.023831	0.279410
822.213631	0.278532
822.403413	0.279048
822.593176	0.279091
822.782922	0.279418
822.972649	0.279817
823.162358	0.280109
823.352049	0.280215
823.541721	0.279351
823.731376	0.279993
823.921012	0.281211
824.110629	0.281239
824.300229	0.281934
824.489811	0.283192
824.679374	0.283491
824.868919	0.283690
825.058445	0.284161
825.247954	0.285005
825.437444	0.285295
825.626916	0.285171
825.816370	0.286180
826.005806	0.286594
826.195223	0.286359
826.384622	0.287217
826.574003	0.287371
826.763366	0.287117
826.952711	0.288026
827.142037	0.288891
827.331345	0.289630
827.520635	0.289756
827.709906	0.289783
827.899160	0.289677
828.088395	0.289292
828.277612	0.290174
828.466810	0.291574
828.655991	0.291550
828.845153	0.291420
829.034297	0.291968
829.223423	0.292064
829.412531	0.293243
829.601620	0.293202
829.790691	0.294407
829.979744	0.294256
830.168779	0.294191
830.357795	0.294995
830.546793	0.295148
830.735773	0.294752
830.924735	0.294753
831.113679	0.294465
831.302604	0.295737
831.491511	0.295300
831.680400	0.296372
831.869271	0.295764
832.058123	0.295589
832.246957	0.295178
832.435773	0.296107
832.624571	0.296447
832.813351	0.296894
833.002112	0.296607
833.190855	0.297512
833.379580	0.297556
833.568287	0.298459
833.756975	0.298715
833.945645	0.299979
834.134297	0.300569
834.322931	0.301561
834.511547	0.301169
834.700144	0.302702
834.888723	0.303195
835.077284	0.303683
835.265826	0.303926
835.454351	0.304172
835.642857	0.304810
835.831345	0.305302
836.019815	0.305954
836.208266	0.307400
836.396699	0.307225
836.585114	0.307791
836.773511	0.308532
836.961890	0.308902
837.150250	0.310362
837.338592	0.310626
837.526916	0.310830
837.715222	0.310928
837.903510	0.312353
838.091779	0.312503
838.280030	0.312713
838.468263	0.313179
838.656477	0.314514
838.844674	0.314254
839.032852	0.315043
839.221012	0.315379
839.409153	0.315878
839.597277	0.315485
839.785382	0.316127
839.973469	0.316694
840.161538	0.316710
840.349589	0.316584
840.537621	0.317050
840.725635	0.317343
840.913631	0.317980
841.101609	0.318923
841.289568	0.319929
841.477509	0.320373
841.665432	0.320640
841.853337	0.320626
842.041224	0.321324
842.229092	0.321569
842.416942	0.321295
842.604774	0.322109
842.792588	0.321934
842.980383	0.322303
843.168160	0.323211
843.355919	0.323818
843.543660	0.324753
843.731382	0.325681
843.919087	0.326189
844.106773	0.327371
844.294441	0.327575
844.482090	0.328966
844.669722	0.328777
844.857335	0.328857
845.044930	0.329535
845.232507	0.330340
845.420065	0.330496
845.607605	0.331283
845.795127	0.331812
845.982631	0.331761
846.170117	0.331059
846.357584	0.331209
846.545033	0.332597
846.732464	0.332897
846.919877	0.333082
847.107272	0.333338
847.294648	0.333925
847.482006	0.334318
847.669346	0.335051
847.856667	0.335640
848.043971	0.336761
848.231256	0.337116
848.418523	0.337349
848.605771	0.337328
848.793002	0.338235
848.980214	0.338761
849.167408	0.339329
849.354584	0.339592
849.541742	0.340529
849.728881	0.340752
849.916002	0.340253
850.103105	0.339654
850.290190	0.340255
850.477256	0.340032
850.664304	0.339758
850.851334	0.339711
851.038346	0.340370
851.225340	0.340460
851.412315	0.340706
851.599272	0.340868
851.786211	0.342105
851.973132	0.343192
852.160034	0.343980
852.346918	0.344943
852.533784	0.345806
852.720632	0.346280
852.907462	0.348053
853.094273	0.349665
853.281066	0.351094
853.467841	0.351607
853.654598	0.352302
853.841336	0.352940
854.028056	0.353167
854.214758	0.353572
854.401442	0.354096
854.588107	0.353564
854.774755	0.353200
854.961384	0.353185
855.147995	0.354448
855.334587	0.355088
855.521162	0.355380
855.707718	0.356430
855.894256	0.356869
856.080775	0.358276
856.267277	0.359200
856.453760	0.359714
856.640225	0.360198
856.826672	0.360550
857.013101	0.361078
857.199511	0.361937
857.385903	0.362525
857.572277	0.363438
857.758633	0.362511
857.944970	0.362518
858.131290	0.362603
858.317591	0.362108
858.503873	0.362006
858.690138	0.361435
858.876384	0.361177
859.062612	0.361406
859.248822	0.361309
859.435014	0.361305
859.621188	0.360969
859.807343	0.360992
859.993480	0.362389
860.179599	0.362744
860.365699	0.363646
860.551781	0.364922
860.737846	0.365293
860.923891	0.365715
861.109919	0.367246
861.295929	0.369673
861.481920	0.370823
861.667893	0.371728
861.853848	0.371966
862.039784	0.372233
862.225702	0.371659
862.411603	0.372018
862.597484	0.373239
862.783348	0.373085
862.969193	0.372164
863.155021	0.371423
863.340830	0.371256
863.526620	0.372475
863.712393	0.373073
863.898147	0.374489
864.083883	0.374574
864.269601	0.375363
864.455301	0.375279
864.640982	0.374697
864.826645	0.376194
865.012290	0.376589
865.197917	0.377055
865.383526	0.377664
865.569116	0.377504
865.754688	0.378879
865.940242	0.377902
866.125777	0.378606
866.311295	0.379540
866.496794	0.378770
866.682275	0.379352
866.867737	0.378507
867.053182	0.379310
867.238608	0.379521
867.424016	0.378765
867.609406	0.379428
867.794778	0.380893
867.980131	0.381727
868.165466	0.383866
868.350783	0.384953
868.536082	0.385855
868.721362	0.384673
868.906625	0.384840
869.091869	0.386159
869.277094	0.386838
869.462302	0.387169
869.647491	0.387362
869.832662	0.386914
870.017815	0.385973
870.202950	0.386510
870.388066	0.387968
870.573165	0.388679
870.758245	0.388629
870.943306	0.387983
871.128350	0.387747
871.313375	0.387825
871.498382	0.388499
871.683371	0.388241
871.868342	0.388963
872.053294	0.388600
872.238229	0.389075
872.423144	0.389108
872.608042	0.390744
872.792922	0.390635
872.977783	0.390211
873.162626	0.389077
873.347451	0.389942
873.532258	0.390032
873.717046	0.391143
873.901816	0.391513
874.086568	0.391588
874.271302	0.391904
874.456017	0.392011
874.640715	0.392511
874.825394	0.392994
875.010055	0.393741
875.194697	0.392207
875.379322	0.391756
875.563928	0.391382
875.748516	0.392002
875.933085	0.390530
876.117637	0.391265
876.302170	0.390814
876.486685	0.391826
876.671182	0.391343
876.855661	0.392046
877.040121	0.391632
877.224563	0.391971
877.408987	0.391580
877.593393	0.391851
877.777780	0.392213
877.962150	0.393547
878.146501	0.393270
878.330833	0.394154
878.515148	0.395339
878.699444	0.395977
878.883722	0.397230
879.067982	0.396925
879.252224	0.397593
879.436447	0.398119
879.620653	0.397895
879.804840	0.398833
879.989008	0.398613
880.173159	0.397874
880.357291	0.398597
880.541405	0.398005
880.725501	0.398979
880.909579	0.399810
881.093638	0.398882
881.277680	0.399754
881.461703	0.399073
881.645707	0.399753
881.829694	0.399846
882.013662	0.399599
882.197612	0.399514
882.381544	0.399567
882.565458	0.398460
882.749353	0.398513
882.933230	0.400178
883.117089	0.400240
883.300930	0.400057
883.484753	0.400890
883.668557	0.401778
883.852343	0.401107
884.036111	0.402035
884.219861	0.402869
884.403592	0.403792
884.587305	0.404299
884.771000	0.405312
884.954677	0.405063
885.138335	0.406051
885.321976	0.405923
885.505598	0.406089
885.689201	0.404468
885.872787	0.405342
886.056354	0.405575
886.239904	0.403226
886.423434	0.400984
886.606947	0.400999
886.790442	0.399678
886.973918	0.398853
887.157376	0.399177
887.340816	0.400826
887.524237	0.401037
887.707641	0.400574
887.891026	0.401098
888.074393	0.403260
888.257741	0.403394
888.441072	0.404156
888.624384	0.403052
888.807678	0.402230
888.990954	0.401855
889.174211	0.400156
889.357451	0.399942
889.540672	0.400713
889.723875	0.401869
889.907059	0.403239
890.090226	0.402601
890.273374	0.402920
890.456504	0.403726
890.639616	0.401998
890.822709	0.402035
891.005785	0.401379
891.188842	0.399187
891.371881	0.396628
891.554901	0.394801
891.737904	0.393816
891.920888	0.393959
892.103854	0.394090
892.286802	0.395995
892.469731	0.396505
892.652643	0.395807
892.835536	0.395634
893.018410	0.396856
893.201267	0.397645
893.384106	0.398714
893.566926	0.400188
893.749728	0.399542
893.932511	0.398596
894.115277	0.398768
894.298024	0.399933
894.480753	0.400926
894.663464	0.400467
894.846157	0.399607
895.028831	0.400240
895.211487	0.398969
895.394125	0.399729
895.576745	0.400841
895.759346	0.401333
895.941930	0.401377
896.124495	0.402209
896.307041	0.401860
896.489570	0.402093
896.672080	0.400680
896.854573	0.400588
897.037046	0.399883
897.219502	0.398965
897.401940	0.398248
897.584359	0.396813
897.766760	0.395949
897.949143	0.396725
898.131507	0.395594
898.313854	0.395170
898.496182	0.394396
898.678492	0.393245
898.860783	0.391264
899.043057	0.390634
899.225312	0.391991
899.407549	0.391252
899.589768	0.390125
899.771968	0.390020
899.954151	0.391986
900.136315	0.391765
900.318461	0.393776
900.500588	0.394371
900.682698	0.393200
900.864789	0.391370
901.046862	0.389894
901.228917	0.390139
901.410953	0.389275
901.592971	0.387040
901.774972	0.387110
901.956953	0.385611
902.138917	0.385382
902.320862	0.385361
902.502790	0.386583
902.684699	0.388491
902.866589	0.387656
903.048462	0.387891
903.230316	0.388262
903.412152	0.387185
903.593970	0.385863
903.775770	0.384197
903.957551	0.385265
904.139314	0.384179
904.321059	0.383868
904.502786	0.384313
904.684494	0.384850
904.866185	0.384087
905.047857	0.383889
905.229510	0.384808
905.411146	0.386141
905.592763	0.384832
905.774363	0.383822
905.955943	0.382383
906.137506	0.381829
906.319051	0.380793
906.500577	0.377913
906.682085	0.376179
906.863575	0.375022
907.045046	0.374642
907.226500	0.375485
907.407935	0.375905
907.589352	0.376658
907.770750	0.374942
907.952131	0.374554
908.133493	0.376956
908.314837	0.379235
908.496163	0.379357
908.677470	0.379344
908.858760	0.377806
909.040031	0.376974
909.221284	0.375572
909.402518	0.375235
909.583735	0.374139
909.764933	0.371824
909.946113	0.371403
910.127275	0.371298
910.308418	0.370784
910.489544	0.370043
910.670651	0.369235
910.851740	0.367960
911.032810	0.367441
911.213863	0.367989
911.394897	0.369560
911.575913	0.367414
911.756911	0.366264
911.937890	0.366530
912.118851	0.366005
912.299794	0.365742
912.480719	0.365436
912.661626	0.366427
912.842514	0.364193
913.023384	0.363475
913.204236	0.362915
913.385070	0.362559
913.565886	0.359704
913.746683	0.357854
913.927462	0.355954
914.108223	0.355290
914.288965	0.353107
914.469690	0.354158
914.650396	0.352498
914.831084	0.352196
915.011754	0.353912
915.192405	0.354297
915.373038	0.354898
915.553653	0.354255
915.734250	0.354327
915.914829	0.354224
916.095389	0.353241
916.275931	0.353373
916.456455	0.354499
916.636961	0.350216
916.817448	0.348228
916.997917	0.347081
917.178368	0.348826
917.358801	0.347070
917.539216	0.346529
917.719612	0.345919
917.899990	0.345679
918.080350	0.343774
918.260692	0.343765
918.441015	0.343267
918.621320	0.343433
918.801607	0.339843
918.981876	0.339726
919.162127	0.337890
919.342359	0.337315
919.522573	0.335435
919.702769	0.334420
919.882947	0.334032
920.063106	0.334307
920.243247	0.332974
920.423370	0.334148
920.603475	0.332696
920.783562	0.332988
920.963630	0.332576
921.143680	0.333838
921.323712	0.332989
921.503725	0.333240
921.683721	0.331305
921.863698	0.330919
922.043657	0.329790
922.223598	0.330164
922.403520	0.329425
922.583424	0.327921
922.763311	0.326645
922.943178	0.326436
923.123028	0.324732
923.302859	0.324234
923.482673	0.323913
923.662467	0.325125
923.842244	0.325343
924.022003	0.324248
924.201743	0.325017
924.381465	0.322807
924.561169	0.320676
924.740854	0.321403
924.920522	0.320325
925.100171	0.318102
925.279802	0.313541
925.459414	0.312120
925.639009	0.313658
925.818585	0.310411
925.998143	0.308392
926.177683	0.310462
926.357205	0.309063
926.536708	0.309569
926.716193	0.309918
926.895660	0.311881
927.075109	0.309509
927.254539	0.305372
927.433951	0.307253
927.613345	0.305825
927.792721	0.304828
927.972079	0.303145
928.151418	0.301335
928.330739	0.300271
928.510042	0.300242
928.689327	0.298770
928.868593	0.300152
929.047841	0.297367
929.227071	0.300777
929.406283	0.297356
929.585476	0.298308
929.764652	0.298294
929.943809	0.296791
930.122948	0.293424
930.302068	0.293303
930.481171	0.289835
930.660255	0.289995
930.839321	0.286045
931.018369	0.285995
931.197398	0.281681
931.376409	0.280061
931.555402	0.280447
931.734377	0.282913
931.913334	0.281815
932.092272	0.281959
932.271192	0.279906
932.450094	0.279939
932.628978	0.279508
932.807844	0.279173
932.986691	0.279198
933.165520	0.275358
933.344331	0.269189
933.523123	0.269907
933.701898	0.270679
933.880654	0.271046
934.059392	0.267207
934.238111	0.264202
934.416813	0.262453
934.595496	0.261303
934.774161	0.261004
934.952808	0.260860
935.131437	0.259104
935.310047	0.256266
935.488639	0.252955
935.667213	0.255271
935.845769	0.252698
936.024306	0.254857
936.202825	0.255509
936.381326	0.255727
936.559809	0.258212
936.738274	0.256407
936.916720	0.254725
937.095148	0.254565
937.273558	0.251924
937.451950	0.255291
937.630323	0.254160
937.808678	0.251135
937.987015	0.249286
938.165334	0.246840
938.343635	0.246327
938.521917	0.242483
938.700181	0.243129
938.878427	0.243257
939.056655	0.242727
939.234864	0.243141
939.413055	0.243323
939.591228	0.243907
939.769383	0.241973
939.947519	0.240649
940.125638	0.240510
940.303738	0.235237
940.481820	0.233635
940.659883	0.229811
940.837929	0.226445
941.015956	0.224457
941.193965	0.223905
941.371955	0.222945
941.549928	0.225766
941.727882	0.227295
941.905818	0.230094
942.083736	0.229076
942.261636	0.228319
942.439517	0.227210
942.617380	0.224195
942.795225	0.218728
942.973052	0.218756
943.150860	0.213682
943.328651	0.212734
943.506423	0.209206
943.684176	0.208500
943.861912	0.207426
944.039629	0.206312
944.217328	0.204302
944.395009	0.206456
944.572672	0.205999
944.750317	0.204910
944.927943	0.208437
945.105551	0.208109
945.283141	0.205599
945.460712	0.202822
945.638265	0.201292
945.815801	0.202185
945.993317	0.199328
946.170816	0.196639
946.348297	0.194030
946.525759	0.184293
946.703203	0.181228
946.880629	0.180810
947.058036	0.178677
947.235425	0.174067
947.412797	0.169569
947.590149	0.169406
947.767484	0.167512
947.944800	0.166474
948.122099	0.164098
948.299379	0.161739
948.476640	0.156643
948.653884	0.156166
948.831109	0.154418
949.008316	0.153844
949.185505	0.147054
949.362676	0.147799
949.539828	0.140783
949.716962	0.146336
949.894078	0.146429
950.071176	0.151334
950.248256	0.146035
950.425317	0.145974
950.602360	0.145768
950.779385	0.150273
950.956391	0.150764
951.133380	0.157894
951.310350	0.153239
951.487302	0.152204
951.664235	0.148513
951.841151	0.152856
952.018048	0.152835
952.194927	0.152594
952.371788	0.150801
952.548631	0.143999
952.725455	0.147042
952.902261	0.149683
953.079049	0.147588
953.255819	0.142011
953.432570	0.138433
953.609303	0.133271
953.786018	0.134407
953.962715	0.131443
954.139394	0.130906
954.316054	0.118568
954.492696	0.114048
954.669320	0.119510
954.845926	0.119163
955.022513	0.116799
955.199083	0.126585
955.375634	0.124840
955.552166	0.121546
955.728681	0.115789
955.905177	0.129495
956.081655	0.129646
956.258115	0.124837
956.434557	0.128484
956.610980	0.136158
956.787385	0.126385
956.963772	0.124796
957.140141	0.123767
957.316492	0.135230
957.492824	0.123806
957.669138	0.123307
957.845434	0.120314
958.021712	0.118601
958.197971	0.110187
958.374212	0.106708
958.550435	0.104596
958.726640	0.108654
958.902826	0.093188
959.078995	0.086683
959.255145	0.077235
959.431277	0.073481
959.607390	0.073815
959.783486	0.070787
959.959563	0.068636
960.135622	0.066484
960.311662	0.068986
960.487685	0.065972
960.663689	0.074276
960.839675	0.085945
961.015643	0.098935
961.191593	0.097646
961.367524	0.104322
961.543437	0.104614
961.719332	0.100811
961.895209	0.104791
962.071067	0.113703
962.246907	0.112627
962.422730	0.104299
962.598533	0.095239
962.774319	0.087419
962.950086	0.083294
963.125835	0.074648
963.301566	0.078920
963.477279	0.064506
963.652973	0.068440
963.828650	0.065308
964.004308	0.069843
964.179947	0.072377
964.355569	0.083717
964.531172	0.083684
964.706757	0.096700
964.882324	0.099721
965.057873	0.103679
965.233403	0.099902
965.408916	0.104414
965.584410	0.096371
965.759885	0.094222
965.935343	0.087751
966.110782	0.080662
966.286203	0.082327
966.461606	0.081347
966.636991	0.075780
966.812357	0.074461
966.987705	0.068532
967.163035	0.075734
967.338347	0.076954
967.513641	0.080835
967.688916	0.087798
967.864173	0.083380
968.039412	0.070683
968.214632	0.076134
968.389835	0.076636
968.565019	0.074617
968.740185	0.074319
968.915333	0.061806
969.090462	0.053550
969.265573	0.049764
969.440667	0.046662
969.615741	0.051536
969.790798	0.052129
969.965836	0.048540
970.140856	0.060125
970.315858	0.050945
970.490842	0.059457
970.665808	0.054681
970.840755	0.057329
971.015684	0.051833
971.190595	0.059996
971.365487	0.065591
971.540362	0.072505
971.715218	0.070351
971.890056	0.076094
972.064875	0.079235
972.239677	0.094141
972.414460	0.096839
972.589225	0.096721
972.763972	0.095896
972.938700	0.088644
973.113411	0.073040
973.288103	0.067449
973.462777	0.065520
973.637432	0.061228
973.812070	0.049178
973.986689	0.049190
974.161290	0.055096
974.335873	0.049794
974.510437	0.057379
974.684984	0.071468
974.859512	0.064990
975.034022	0.058000
975.208513	0.060748
975.382987	0.063344
975.557442	0.060739
975.731879	0.062500
975.906298	0.054215
976.080698	0.050948
976.255080	0.049367
976.429445	0.052148
976.603790	0.060975
976.778118	0.062792
976.952427	0.067647
977.126719	0.064602
977.300992	0.068024
977.475246	0.081308
977.649483	0.084409
977.823701	0.086350
977.997901	0.082321
978.172083	0.083499
978.346247	0.074880
978.520392	0.077286
978.694519	0.082387
978.868628	0.080934
979.042719	0.076416
979.216791	0.060548
979.390845	0.057062
979.564882	0.060087
979.738899	0.061945
979.912899	0.062351
980.086880	0.062051
980.260843	0.059514
980.434788	0.057836
980.608715	0.059720
980.782623	0.071625
980.956514	0.073923
981.130386	0.076334
981.304240	0.070727
981.478075	0.069293
981.651892	0.065652
981.825692	0.070603
981.999472	0.072367
982.173235	0.068968
982.346980	0.061931
982.520706	0.062702
982.694414	0.056170
982.868104	0.052334
983.041775	0.053717
983.215428	0.052790
983.389064	0.048855
983.562680	0.047496
983.736279	0.054640
983.909860	0.060664
984.083422	0.058814
984.256966	0.059693
984.430491	0.069273
984.603999	0.070253
984.777488	0.074450
984.950959	0.078445
985.124412	0.079153
985.297847	0.081824
985.471263	0.081225
985.644661	0.082700
985.818041	0.091931
985.991403	0.087029
986.164747	0.096114
986.338072	0.100904
986.511379	0.094296
986.684668	0.096742
986.857938	0.091975
987.031191	0.093611
987.204425	0.090300
987.377641	0.081460
987.550839	0.090611
987.724018	0.084179
987.897179	0.075198
988.070322	0.080904
988.243447	0.077574
988.416554	0.074557
988.589642	0.071714
988.762712	0.072122
988.935764	0.081540
989.108798	0.067114
989.281813	0.065184
989.454811	0.064897
989.627790	0.058220
989.800751	0.062656
989.973693	0.061208
990.146617	0.058863
990.319524	0.057234
990.492412	0.054762
990.665281	0.058516
990.838133	0.055051
991.010966	0.056386
991.183781	0.067144
991.356578	0.066129
991.529356	0.069590
991.702117	0.074651
991.874859	0.073462
992.047583	0.072492
992.220288	0.074554
992.392976	0.082391
992.565645	0.078859
992.738296	0.073363
992.910929	0.065559
993.083543	0.065926
993.256139	0.060139
993.428718	0.057993
993.601277	0.058022
993.773819	0.058240
993.946342	0.055649
994.118848	0.062988
994.291335	0.066639
994.463803	0.068125
994.636254	0.066100
994.808686	0.072857
994.981100	0.075760
995.153496	0.069338
995.325874	0.069860
995.498233	0.074724
995.670574	0.073875
995.842897	0.070769
996.015202	0.076567
996.187488	0.078438
996.359757	0.072303
996.532007	0.074623
996.704239	0.081422
996.876452	0.079143
997.048648	0.075306
997.220825	0.073425
997.392984	0.072870
997.565124	0.070121
997.737247	0.066432
997.909351	0.073269
998.081437	0.074525
998.253505	0.074129
998.425554	0.072417
998.597586	0.071062
998.769599	0.069903
998.941594	0.071671
999.113571	0.070888
999.285529	0.078011
999.457469	0.073312
999.629391	0.069600
999.801295	0.066187
999.973181	0.069016
1000.145048	0.068894
1000.316897	0.067965
1000.488728	0.064202
1000.660541	0.067975
1000.832335	0.059403
1001.004111	0.068791
1001.175869	0.076054
1001.347609	0.083646
1001.519331	0.083218
1001.691034	0.086761
1001.862719	0.088471
1002.034386	0.094564
1002.206035	0.093091
1002.377665	0.090693
1002.549277	0.085591
1002.720871	0.078508
1002.892447	0.075374
1003.064004	0.068186
1003.235544	0.075369
1003.407065	0.074679
1003.578568	0.074060
1003.750052	0.069177
1003.921519	0.072469
1004.092967	0.069481
1004.264397	0.070007
1004.435809	0.066248
1004.607202	0.071530
1004.778577	0.058971
1004.949934	0.059991
1005.121273	0.057946
1005.292594	0.066147
1005.463896	0.065870
1005.635180	0.062373
1005.806446	0.063876
1005.977694	0.065552
1006.148923	0.067461
1006.320135	0.070853
1006.491328	0.075039
1006.662503	0.073518
1006.833659	0.069324
1007.004798	0.071692
1007.175918	0.079610
1007.347020	0.073505
1007.518103	0.071491
1007.689169	0.076343
1007.860216	0.080434
1008.031245	0.077728
1008.202256	0.078196
1008.373248	0.073288
1008.544223	0.079094
1008.715179	0.074544
1008.886117	0.073746
1009.057036	0.074576
1009.227938	0.069857
1009.398821	0.065788
1009.569686	0.064276
1009.740533	0.064571
1009.911361	0.071229
1010.082172	0.068296
1010.252964	0.066504
1010.423738	0.074362
1010.594493	0.076891
1010.765231	0.070356
1010.935950	0.069559
1011.106651	0.067397
1011.277334	0.070212
1011.447998	0.068331
1011.618645	0.066766
1011.789273	0.071875
1011.959882	0.070766
1012.130474	0.069952
1012.301048	0.078193
1012.471603	0.076753
1012.642140	0.078729
1012.812658	0.081588
1012.983159	0.078236
1013.153641	0.076530
1013.324105	0.077875
1013.494551	0.072070
1013.664979	0.066518
1013.835388	0.067354
1014.005779	0.068533
1014.176152	0.071065
1014.346507	0.063990
1014.516843	0.061146
1014.687162	0.054111
1014.857462	0.055398
1015.027744	0.060514
1015.198007	0.069855
1015.368252	0.066133
1015.538480	0.067561
1015.708689	0.065479
1015.878879	0.067538
1016.049052	0.075023
1016.219206	0.085492
1016.389342	0.087542
1016.559460	0.086473
1016.729559	0.082996
1016.899641	0.081861
1017.069704	0.083240
1017.239749	0.080635
1017.409775	0.073103
1017.579784	0.069705
1017.749774	0.067803
1017.919746	0.053960
1018.089700	0.059381
1018.259635	0.064996
1018.429553	0.074413
1018.599452	0.069154
1018.769333	0.075121
1018.939195	0.080050
1019.109040	0.081117
1019.278866	0.088558
1019.448674	0.093099
1019.618464	0.091937
1019.788235	0.081015
1019.957989	0.072147
1020.127724	0.073010
1020.297441	0.067865
1020.467139	0.066490
1020.636820	0.064503
1020.806482	0.056086
1020.976126	0.056157
1021.145752	0.055997
1021.315359	0.053864
1021.484948	0.062821
1021.654519	0.064788
1021.824072	0.065136
1021.993607	0.069111
1022.163123	0.072904
1022.332621	0.076809
1022.502101	0.082242
1022.671563	0.078398
1022.841007	0.081307
1023.010432	0.079078
1023.179839	0.078127
1023.349228	0.074502
1023.518598	0.070505
1023.687951	0.071127
1023.857285	0.066014
1024.026601	0.061572
1024.195899	0.065983
1024.365178	0.066587
1024.534439	0.064747
1024.703682	0.062105
1024.872907	0.059000
1025.042114	0.063065
1025.211302	0.064168
1025.380472	0.064021
1025.549624	0.058863
1025.718758	0.056915
1025.887873	0.058121
1026.056970	0.061322
1026.226049	0.060886
1026.395110	0.071270
1026.564153	0.070714
1026.733177	0.064026
1026.902183	0.061854
1027.071171	0.070961
1027.240141	0.072600
1027.409092	0.067185
1027.578026	0.059138
1027.746940	0.063274
1027.915837	0.066110
1028.084716	0.066623
1028.253576	0.066109
1028.422418	0.075557
1028.591242	0.069605
1028.760048	0.060929
1028.928835	0.066823
1029.097604	0.072163
1029.266355	0.073447
1029.435088	0.065915
1029.603803	0.067803
1029.772499	0.069160
1029.941177	0.063651
1030.109837	0.065185
1030.278478	0.069150
1030.447102	0.069551
1030.615707	0.066056
1030.784294	0.067646
1030.952863	0.070713
1031.121413	0.071388
1031.289945	0.077467
1031.458460	0.083454
1031.626955	0.080757
1031.795433	0.081459
1031.963892	0.083016
1032.132334	0.082624
1032.300756	0.079267
1032.469161	0.075305
1032.637548	0.071874
1032.805916	0.065446
1032.974266	0.057498
1033.142598	0.060329
1033.310911	0.063015
1033.479207	0.068968
1033.647484	0.072001
1033.815743	0.073390
1033.983983	0.075115
1034.152206	0.075663
1034.320410	0.081350
1034.488596	0.078265
1034.656764	0.081977
1034.824914	0.083471
1034.993045	0.075265
1035.161158	0.074561
1035.329253	0.073639
1035.497330	0.075848
1035.665388	0.073629
1035.833428	0.068239
1036.001450	0.075184
1036.169454	0.072669
1036.337440	0.076242
1036.505407	0.078515
1036.673356	0.072922
1036.841287	0.071600
1037.009200	0.071609
1037.177094	0.074404
1037.344970	0.078761
1037.512828	0.078018
1037.680668	0.076836
1037.848489	0.072780
1038.016293	0.071286
1038.184078	0.074658
1038.351845	0.072999
1038.519593	0.072239
1038.687324	0.068596
1038.855036	0.068544
1039.022730	0.068529
1039.190406	0.066397
1039.358063	0.063501
1039.525702	0.064956
1039.693323	0.066434
1039.860926	0.066732
1040.028511	0.062752
1040.196077	0.062411
1040.363625	0.060119
1040.531155	0.061603
1040.698667	0.066516
1040.866161	0.067366
1041.033636	0.064389
1041.201093	0.067331
1041.368532	0.070443
1041.535952	0.071324
1041.703355	0.073384
1041.870739	0.081139
1042.038105	0.075824
1042.205452	0.070968
1042.372782	0.063165
1042.540093	0.058452
1042.707386	0.052496
1042.874661	0.053688
1043.041918	0.058953
1043.209156	0.062477
1043.376376	0.059325
1043.543578	0.063685
1043.710762	0.068379
1043.877927	0.081216
1044.045074	0.088830
1044.212203	0.088750
1044.379314	0.089338
1044.546407	0.083004
1044.713481	0.071800
1044.880537	0.065334
1045.047575	0.063934
1045.214595	0.061451
1045.381596	0.058398
1045.548579	0.053946
1045.715544	0.060493
1045.882491	0.053781
1046.049420	0.056342
1046.216330	0.058623
1046.383222	0.059628
1046.550096	0.060603
1046.716951	0.056855
1046.883789	0.053896
1047.050608	0.053898
1047.217409	0.047600
1047.384192	0.052657
1047.550956	0.048572
1047.717703	0.045467
1047.884431	0.050577
1048.051140	0.052723
1048.217832	0.051903
1048.384505	0.056606
1048.551161	0.060222
1048.717798	0.053795
1048.884416	0.050704
1049.051017	0.052408
1049.217599	0.059805
1049.384163	0.061757
1049.550709	0.060878
1049.717237	0.066228
1049.883746	0.063299
1050.050237	0.071936
1050.216710	0.077211
1050.383165	0.077459
1050.549601	0.076062
1050.716019	0.078517
1050.882420	0.071929
1051.048801	0.072402
1051.215165	0.071804
1051.381510	0.072074
1051.547837	0.067458
1051.714146	0.072123
1051.880437	0.084665
1052.046709	0.090688
1052.212964	0.088678
1052.379200	0.091416
1052.545417	0.087237
1052.711617	0.085246
1052.877798	0.079296
1053.043961	0.075388
1053.210106	0.077971
1053.376233	0.066341
1053.542341	0.066769
1053.708432	0.067800
1053.874504	0.069760
1054.040557	0.073285
1054.206593	0.075633
1054.372610	0.076722
1054.538609	0.083801
1054.704590	0.074979
1054.870553	0.079427
1055.036497	0.076679
1055.202424	0.082598
1055.368331	0.079442
1055.534221	0.080734
1055.700093	0.081042
1055.865946	0.082310
1056.031781	0.075716
1056.197598	0.086390
1056.363397	0.087152
1056.529177	0.081888
1056.694939	0.072318
1056.860683	0.075882
1057.026409	0.071931
1057.192116	0.070367
1057.357806	0.073582
1057.523477	0.077161
1057.689130	0.074306
1057.854764	0.070120
1058.020381	0.084442
1058.185979	0.082387
1058.351559	0.082794
1058.517120	0.087218
1058.682664	0.089688
1058.848189	0.087636
1059.013696	0.089150
1059.179185	0.078940
1059.344656	0.082016
1059.510108	0.068675
1059.675542	0.081718
1059.840958	0.078362
1060.006356	0.076231
1060.171735	0.082798
1060.337096	0.087300
1060.502439	0.082489
1060.667764	0.093182
1060.833071	0.093474
1060.998359	0.096952
1061.163629	0.092280
1061.328881	0.086763
1061.494115	0.087309
1061.659330	0.080340
1061.824527	0.079588
1061.989706	0.081126
1062.154867	0.071159
1062.320010	0.068310
1062.485134	0.073315
1062.650240	0.066015
1062.815328	0.073344
1062.980398	0.072829
1063.145449	0.066400
1063.310482	0.066558
1063.475497	0.074189
1063.640494	0.090629
1063.805473	0.082211
1063.970433	0.074325
1064.135375	0.078597
1064.300299	0.074756
1064.465204	0.071824
1064.630092	0.082280
1064.794961	0.077616
1064.959812	0.066935
1065.124645	0.055328
1065.289459	0.060460
1065.454256	0.070778
1065.619034	0.069906
1065.783793	0.068048
1065.948535	0.076027
1066.113258	0.060545
1066.277964	0.070603
1066.442651	0.073878
1066.607319	0.074199
1066.771970	0.071295
1066.936602	0.071690
1067.101216	0.071937
1067.265812	0.069749
1067.430389	0.067878
1067.594949	0.076500
1067.759490	0.063774
1067.924013	0.062953
1068.088518	0.066684
1068.253004	0.069488
1068.417472	0.059939
1068.581922	0.062522
1068.746354	0.065533
1068.910768	0.059115
1069.075163	0.052452
1069.239540	0.063709
1069.403899	0.056399
1069.568240	0.060974
1069.732562	0.055152
1069.896866	0.066593
1070.061152	0.065082
1070.225420	0.056972
1070.389670	0.063076
1070.553901	0.071989
1070.718114	0.064378
1070.882309	0.073575
1071.046486	0.071306
1071.210644	0.084122
1071.374784	0.084232
1071.538906	0.082509
1071.703010	0.094852
1071.867096	0.086584
1072.031163	0.081966
1072.195212	0.089667
1072.359243	0.085504
1072.523256	0.077137
1072.687250	0.071620
1072.851226	0.063066
1073.015184	0.063315
1073.179124	0.059066
1073.343045	0.059027
1073.506949	0.067662
1073.670834	0.071342
1073.834701	0.073740
1073.998549	0.079446
1074.162380	0.082625
1074.326192	0.081676
1074.489986	0.085943
1074.653761	0.094217
1074.817519	0.094825
1074.981258	0.091398
1075.144979	0.082361
1075.308682	0.076802
1075.472367	0.074611
1075.636033	0.074829
1075.799681	0.075948
1075.963311	0.073191
1076.126923	0.074369
1076.290516	0.077507
1076.454092	0.077488
1076.617649	0.073313
1076.781187	0.075324
1076.944708	0.086227
1077.108210	0.080567
1077.271695	0.082994
1077.435160	0.083630
1077.598608	0.077769
1077.762038	0.074220
1077.925449	0.077502
1078.088842	0.081156
1078.252217	0.080309
1078.415573	0.072096
1078.578912	0.088142
1078.742232	0.102593
1078.905534	0.103609
1079.068817	0.107457
1079.232083	0.116725
1079.395330	0.110700
1079.558559	0.116882
1079.721770	0.113914
1079.884962	0.121156
1080.048136	0.100745
1080.211293	0.085313
1080.374430	0.079633
1080.537550	0.066156
1080.700651	0.063798
1080.863735	0.068153
1081.026800	0.063515
1081.189846	0.068190
1081.352875	0.058813
1081.515885	0.070335
1081.678877	0.071513
1081.841851	0.072334
1082.004807	0.088590
1082.167744	0.080532
1082.330663	0.067228
1082.493564	0.062488
1082.656447	0.056773
1082.819312	0.063955
1082.982158	0.052865
1083.144986	0.043472
1083.307796	0.042025
1083.470587	0.042492
1083.633361	0.038264
1083.796116	0.048150
1083.958853	0.054765
1084.121571	0.065859
1084.284272	0.071042
1084.446954	0.083417
1084.609618	0.084276
1084.772264	0.083126
1084.934892	0.081568
1085.097501	0.098605
1085.260092	0.110458
1085.422665	0.108941
1085.585220	0.108834
1085.747756	0.098700
1085.910274	0.094294
1086.072774	0.103665
1086.235256	0.128363
1086.397720	0.125690
1086.560165	0.125373
1086.722592	0.117843
1086.885001	0.117261
1087.047392	0.117975
1087.209764	0.127828
1087.372119	0.128724
1087.534455	0.132053
1087.696772	0.122150
1087.859072	0.117061
1088.021353	0.111333
1088.183616	0.116629
1088.345861	0.109876
1088.508088	0.109953
1088.670296	0.090524
1088.832486	0.090655
1088.994658	0.091276
1089.156812	0.078025
1089.318948	0.075667
1089.481065	0.084000
1089.643164	0.069784
1089.805245	0.079673
1089.967308	0.079950
1090.129352	0.101372
1090.291378	0.106354
1090.453386	0.106069
1090.615376	0.114827
1090.777347	0.114821
1090.939301	0.114561
1091.101236	0.121175
1091.263153	0.121561
1091.425051	0.145716
1091.586932	0.131289
1091.748794	0.106847
1091.910638	0.086623
1092.072463	0.069890
1092.234271	0.075778
1092.396060	0.062365
1092.557831	0.058272
1092.719584	0.055263
1092.881319	0.027408
1093.043035	0.019623
1093.204733	0.034619
1093.366413	0.039938
1093.528075	0.051184
1093.689718	0.054706
1093.851343	0.060411
1094.012950	0.067165
1094.174539	0.064275
1094.336110	0.064685
1094.497662	0.082517
1094.659196	0.097512
1094.820712	0.117901
1094.982210	0.123690
1095.143689	0.130357
1095.305151	0.146496
1095.466594	0.151948
1095.628018	0.144283
1095.789425	0.143956
1095.950813	0.123523
1096.112183	0.099688
1096.273535	0.088781
1096.434869	0.074728
1096.596184	0.070792
1096.757482	0.050352
1096.918761	0.055348
1097.080021	0.051410
1097.241264	0.058647
1097.402488	0.081139
1097.563694	0.085018
1097.724882	0.081047
1097.886052	0.113363
1098.047203	0.121328
1098.208336	0.146980
1098.369451	0.146751
1098.530548	0.185462
1098.691627	0.187644
1098.852687	0.161848
1099.013729	0.170792
1099.174753	0.179863
1099.335758	0.149335
1099.496746	0.162442
1099.657715	0.154249
1099.818666	0.120734
1099.979599	0.113637
1100.140513	0.130141
1100.301409	0.140245
1100.462287	0.149724
1100.623147	0.149925
1100.783989	0.168426
1100.944812	0.149640
1101.105617	0.145616
1101.266404	0.166571
1101.427173	0.148226
1101.587923	0.128865
1101.748656	0.131848
1101.909370	0.118800
1102.070066	0.105715
1102.230743	0.104519
1102.391403	0.085677
1102.552044	0.091250
1102.712667	0.094338
1102.873271	0.111253
1103.033858	0.112912
1103.194426	0.111049
1103.354976	0.118442
1103.515508	0.116213
1103.676021	0.099701
1103.836517	0.104899
1103.996994	0.084729
1104.157453	0.085072
1104.317893	0.105262
1104.478316	0.099649
1104.638720	0.119774
1104.799106	0.096158
1104.959474	0.108921
1105.119823	0.126869
1105.280155	0.132395
1105.440468	0.169646
1105.600763	0.145879
1105.761039	0.116548
1105.921298	0.128254
1106.081538	0.111426
1106.241760	0.136306
1106.401964	0.130655
1106.562149	0.113486
1106.722316	0.083324
1106.882465	0.040672
1107.042596	0.050392
1107.202709	0.050227
1107.362803	0.050522
1107.522879	0.049153
1107.682937	0.047581
1107.842977	0.045233
1108.002999	0.042088
1108.163002	0.089082
1108.322987	0.108590
1108.482954	0.112459
1108.642902	0.105802
1108.802833	0.106812
1108.962745	0.103991
1109.122639	0.093169
1109.282515	0.094010
1109.442372	0.101677
1109.602211	0.098562
1109.762032	0.105789
1109.921835	0.109973
1110.081620	0.122235
1110.241386	0.118371
1110.401134	0.121778
1110.560864	0.149473
1110.720576	0.182439
1110.880269	0.167702
1111.039945	0.150666
1111.199602	0.114764
1111.359240	0.137227
1111.518861	0.129966
1111.678463	0.111359
1111.838047	0.132865
1111.997613	0.145834
1112.157161	0.120898
1112.316690	0.149099
1112.476202	0.153073
1112.635695	0.176923
1112.795169	0.141434
1112.954626	0.118430
1113.114064	0.117376
1113.273484	0.096282
1113.432886	0.078253
1113.592270	0.085736
1113.751635	0.061005
1113.910983	0.061739
1114.070312	0.099430
1114.229622	0.107249
1114.388915	0.113936
1114.548189	0.105980
1114.707445	0.101022
1114.866683	0.078117
1115.025903	0.099187
1115.185104	0.135480
1115.344287	0.120528
1115.503452	0.117460
1115.662599	0.104964
1115.821727	0.121790
1115.980838	0.153389
1116.139930	0.170249
1116.299004	0.182823
1116.458059	0.139361
1116.617097	0.113761
1116.776116	0.160157
1116.935117	0.126927
1117.094099	0.163528
1117.253064	0.158778
1117.412010	0.146451
1117.570938	0.177342
1117.729848	0.181893
1117.888740	0.218399
1118.047613	0.207606
1118.206468	0.180913
1118.365305	0.181907
1118.524124	0.144484
1118.682924	0.151770
1118.841707	0.149917
1119.000471	0.131704
1119.159216	0.126029
1119.317944	0.094034
1119.476653	0.098728
1119.635344	0.085115
1119.794017	0.065015
1119.952672	0.047691
1120.111308	0.029986
1120.269927	0.021379
1120.428527	-0.005754
1120.587108	0.019485
1120.745672	0.041477
1120.904217	0.042735
1121.062744	0.068203
1121.221253	0.106932
1121.379744	0.194842
1121.538216	0.261347
1121.696671	0.269594
1121.855107	0.266293
1122.013524	0.229022
1122.171924	0.233676
1122.330305	0.259135
1122.488668	0.274296
1122.647013	0.247149
1122.805340	0.196844
1122.963648	0.155559
1123.121938	0.156314
1123.280210	0.180260
1123.438464	0.148952
1123.596700	0.125807
1123.754917	0.139235
1123.913116	0.149588
1124.071297	0.165131
1124.229459	0.157069
1124.387604	0.206834
1124.545730	0.242105
1124.703838	0.265724
1124.861928	0.286517
1125.019999	0.280067
1125.178052	0.261000
1125.336088	0.176033
1125.494104	0.140633
1125.652103	0.189019
1125.810083	0.137845
1125.968045	0.125289
1126.125989	0.090671
1126.283915	0.091787
1126.441823	0.136719
1126.599712	0.135952
1126.757583	0.147083
1126.915436	0.132210
1127.073270	0.082839
1127.231087	0.066055
1127.388885	0.045107
1127.546665	0.040579
1127.704426	0.064765
1127.862170	0.014028
1128.019895	0.006675
1128.177602	0.035169
1128.335291	0.065319
1128.492961	0.064577
1128.650614	0.111962
1128.808248	0.132029
1128.965864	0.155483
1129.123461	0.185992
1129.281041	0.202692
1129.438602	0.173679
1129.596145	0.153332
1129.753670	0.189621
1129.911176	0.226307
1130.068665	0.196087
1130.226135	0.175386
1130.383587	0.189084
1130.541020	0.129530
1130.698436	0.129126
1130.855833	0.172084
1131.013212	0.157122
1131.170573	0.140800
1131.327915	0.156805
1131.485239	0.124802
1131.642545	0.165829
1131.799833	0.125570
1131.957103	0.140269
1132.114354	0.180926
1132.271588	0.141258
1132.428803	0.170047
1132.585999	0.167328
1132.743178	0.160608
1132.900338	0.229095
1133.057480	0.159043
1133.214604	0.196589
1133.371710	0.174384
1133.528797	0.144888
1133.685866	0.161281
1133.842917	0.134507
1133.999950	0.111743
1134.156964	0.087425
1134.313960	0.020934
1134.470938	0.080281
1134.627898	0.055518
1134.784840	0.071804
1134.941763	0.045594
1135.098668	0.060568
1135.255555	0.074956
1135.412424	0.066124
1135.569274	0.086211
1135.726107	0.152956
1135.882921	0.113109
1136.039716	0.150640
1136.196494	0.122528
1136.353253	0.148967
1136.509995	0.143378
1136.666717	0.164590
1136.823422	0.197785
1136.980109	0.219098
1137.136777	0.212509
1137.293427	0.218195
1137.450059	0.185036
1137.606672	0.181523
1137.763267	0.195492
1137.919844	0.179735
1138.076403	0.128618
1138.232944	0.156126
1138.389466	0.078826
1138.545971	0.083404
1138.702457	0.106885
1138.858924	0.129387
1139.015374	0.148508
1139.171805	0.098828
1139.328218	0.124623
1139.484613	0.126794
1139.640990	0.113261
1139.797348	0.198722
1139.953688	0.184506
1140.110010	0.151781
1140.266314	0.097961
1140.422600	0.140111
1140.578867	0.191770
1140.735116	0.176062
1140.891347	0.189937
1141.047559	0.222877
1141.203754	0.234502
1141.359930	0.189425
1141.516088	0.199310
1141.672228	0.198078
1141.828349	0.165347
1141.984452	0.210184
1142.140537	0.186991
1142.296604	0.116056
1142.452653	0.067615
1142.608683	0.080555
1142.764695	0.128441
1142.920689	0.157891
1143.076665	0.199527
1143.232622	0.197248
1143.388562	0.206950
1143.544483	0.236409
1143.700385	0.313105
1143.856270	0.377567
1144.012136	0.294042
1144.167985	0.289107
1144.323814	0.266300
1144.479626	0.282963
1144.635420	0.305033
1144.791195	0.314202
1144.946952	0.379557
1145.102691	0.325360
1145.258411	0.255527
1145.414113	0.293885
1145.569798	0.240221
1145.725463	0.218715
1145.881111	0.243832
1146.036741	0.258340
1146.192352	0.166524
1146.347945	0.191915
1146.503519	0.266487
1146.659076	0.293186
1146.814614	0.251558
1146.970134	0.229119
1147.125636	0.253628
1147.281120	0.171222
1147.436585	0.144941
1147.592032	0.238403
1147.747461	0.165353
1147.902872	0.143796
1148.058265	0.203709
1148.213639	0.146372
1148.368995	0.173432
1148.524333	0.158349
1148.679653	0.213413
1148.834954	0.242514
1148.990237	0.165410
1149.145502	0.195322
1149.300749	0.217960
1149.455977	0.148589
1149.611188	0.211760
1149.766380	0.230050
1149.921553	0.201054
1150.076709	0.207182
1150.231846	0.160726
1150.386966	0.143663
1150.542066	0.096243
1150.697149	0.099022
1150.852214	0.169054
1151.007260	0.125697
1151.162288	0.178943
1151.317298	0.149675
1151.472289	0.109256
1151.627263	0.131283
1151.782218	0.146647
1151.937155	0.218658
1152.092073	0.139705
1152.246974	0.101646
1152.401856	0.086050
1152.556720	-0.000854
1152.711566	0.077136
1152.866393	0.065279
1153.021203	0.029978
1153.175994	0.013196
1153.330767	-0.032163
1153.485521	0.007030
1153.640258	0.025334
1153.794976	0.051714
1153.949676	0.139851
1154.104358	0.077629
1154.259021	0.152035
1154.413667	0.208454
1154.568294	0.255692
1154.722903	0.298075
1154.877493	0.322596
1155.032066	0.370488
1155.186620	0.373245
1155.341156	0.389274
1155.495674	0.370530
1155.650173	0.306854
1155.804654	0.392204
1155.959118	0.402623
1156.113562	0.365138
1156.267989	0.381371
1156.422397	0.396379
1156.576788	0.427765
1156.731160	0.256898
1156.885513	0.388569
1157.039849	0.429732
1157.194166	0.324713
1157.348465	0.373389
1157.502746	0.485192
1157.657009	0.609163
1157.811253	0.437186
1157.965479	0.432987
1158.119687	0.611637
1158.273877	0.435586
1158.428048	0.336428
1158.582201	0.179846
1158.736337	0.027537
1158.890453	0.019427
1159.044552	0.000821
1159.198632	-0.022934
1159.352694	-0.002003
1159.506738	0.043644
1159.660764	0.059307
1159.814771	0.038579
1159.968761	0.094198
1160.122732	0.182399
1160.276685	0.187802
1160.430619	0.259587
1160.584535	0.380881
1160.738434	0.250641
1160.892313	0.175524
1161.046175	0.216504
1161.200019	0.273638
1161.353844	0.521524
1161.507651	0.389841
1161.661440	0.400606
1161.815210	0.290200
1161.968962	0.284912
1162.122697	0.250930
1162.276412	0.212550
1162.430110	0.151184
1162.583789	0.060235
1162.737451	-0.018169
1162.891094	0.026287
1163.044718	0.014642
1163.198325	0.068536
1163.351913	0.060297
1163.505483	0.103549
1163.659035	0.140763
1163.812569	0.322476
1163.966084	0.485354
1164.119581	0.545988
1164.273060	0.563780
1164.426521	0.549110
1164.579964	0.276855
1164.733388	0.296412
1164.886794	0.423056
1165.040182	0.262994
1165.193551	0.205797
1165.346903	0.201356
1165.500236	0.406939
1165.653551	0.383642
1165.806848	0.289051
1165.960126	0.429199
1166.113386	0.355537
1166.266628	0.267254
1166.419852	0.423698
1166.573058	0.300189
1166.726245	0.325551
1166.879414	0.137698
1167.032565	0.167570
1167.185698	0.262856
1167.338812	0.105182
1167.491909	0.026694
1167.644987	0.015125
1167.798046	-0.015962
1167.951088	0.070520
1168.104111	-0.009916
1168.257117	0.015146
1168.410103	-0.027865
1168.563072	-0.058199
1168.716023	0.034670
1168.868955	0.057246
1169.021869	0.019896
1169.174765	0.054792
1169.327642	-0.069823
1169.480501	0.110533
1169.633343	0.108525
1169.786165	0.131585
1169.938970	0.115384
1170.091757	0.158142
1170.244525	0.181626
1170.397275	0.269771
1170.550007	0.229504
1170.702720	0.086449
1170.855415	0.065581
1171.008092	0.056979
1171.160751	0.068437
1171.313392	0.089640
1171.466014	NaN
1171.618619	0.102610
1171.771205	0.102610
1171.923772	0.102610
