sample name	sample
index	406
start time	 03-08-2021  10:42:48 AM


Wavelength (nm)	Absorbance
494.344910	0.094153
494.563924	0.094153
494.782919	0.094153
495.001897	0.018348
495.220856	0.078817
495.439797	0.008218
495.658719	-0.000788
495.877624	0.033933
496.096510	0.092699
496.315378	0.078792
496.534227	0.042273
496.753059	0.072184
496.971872	0.051773
497.190667	0.080583
497.409444	0.089445
497.628203	0.091409
497.846943	0.089190
498.065665	0.086676
498.284369	0.087126
498.503055	0.087867
498.721723	0.086184
498.940372	0.086198
499.159003	0.086097
499.377616	0.086550
499.596210	0.085658
499.814787	0.086548
500.033345	0.087649
500.251885	0.087454
500.470406	0.087326
500.688910	0.087503
500.907395	0.087952
501.125862	0.088272
501.344311	0.088371
501.562742	0.088697
501.781154	0.087623
501.999548	0.086856
502.217924	0.087179
502.436282	0.088012
502.654621	0.087972
502.872942	0.087990
503.091245	0.088211
503.309530	0.087974
503.527797	0.088924
503.746045	0.089282
503.964275	0.090351
504.182487	0.090275
504.400681	0.088630
504.618856	0.089602
504.837013	0.090234
505.055152	0.090787
505.273273	0.091039
505.491376	0.089641
505.709460	0.089834
505.927526	0.088791
506.145574	0.089251
506.363604	0.090498
506.581615	0.091089
506.799608	0.090558
507.017583	0.090321
507.235540	0.090059
507.453478	0.090501
507.671399	0.090303
507.889301	0.090375
508.107185	0.090746
508.325050	0.090683
508.542898	0.090048
508.760727	0.090684
508.978538	0.090911
509.196330	0.090658
509.414105	0.091197
509.631861	0.090846
509.849599	0.090926
510.067319	0.090471
510.285021	0.090708
510.502704	0.090081
510.720369	0.090524
510.938016	0.090143
511.155645	0.090579
511.373255	0.090409
511.590848	0.091139
511.808422	0.091337
512.025977	0.091290
512.243515	0.091417
512.461034	0.092458
512.678536	0.092197
512.896018	0.092414
513.113483	0.092691
513.330930	0.093005
513.548358	0.093044
513.765768	0.093321
513.983160	0.094070
514.200533	0.094047
514.417889	0.094543
514.635226	0.094135
514.852545	0.094689
515.069845	0.094462
515.287128	0.094422
515.504392	0.094817
515.721638	0.095505
515.938866	0.094563
516.156075	0.094949
516.373267	0.093908
516.590440	0.094461
516.807594	0.094250
517.024731	0.094748
517.241850	0.094421
517.458950	0.093990
517.676032	0.093493
517.893095	0.094128
518.110141	0.094153
518.327168	0.094978
518.544177	0.095046
518.761168	0.095381
518.978141	0.095450
519.195095	0.095773
519.412031	0.096651
519.628949	0.096590
519.845849	0.097300
520.062731	0.096791
520.279594	0.097381
520.496439	0.097702
520.713266	0.097794
520.930074	0.097857
521.146865	0.097679
521.363637	0.097877
521.580391	0.098540
521.797127	0.097807
522.013844	0.097800
522.230543	0.096968
522.447224	0.096084
522.663887	0.096075
522.880532	0.096080
523.097158	0.096554
523.313766	0.096280
523.530356	0.096020
523.746928	0.096700
523.963481	0.097028
524.180017	0.097911
524.396534	0.098724
524.613032	0.098504
524.829513	0.098623
525.045975	0.098448
525.262420	0.098544
525.478845	0.098646
525.695253	0.098472
525.911643	0.098796
526.128014	0.098496
526.344367	0.098688
526.560702	0.099059
526.777018	0.098550
526.993316	0.099369
527.209597	0.099626
527.425858	0.100164
527.642102	0.100519
527.858328	0.101161
528.074535	0.101318
528.290724	0.101826
528.506894	0.102007
528.723047	0.102927
528.939181	0.102696
529.155297	0.102921
529.371395	0.102812
529.587475	0.102760
529.803536	0.102802
530.019579	0.103278
530.235604	0.102986
530.451611	0.102753
530.667600	0.102676
530.883570	0.103103
531.099522	0.102862
531.315456	0.102998
531.531372	0.103356
531.747269	0.103008
531.963148	0.102765
532.179009	0.103045
532.394852	0.103199
532.610676	0.103591
532.826482	0.103568
533.042271	0.103511
533.258040	0.103465
533.473792	0.103634
533.689525	0.103765
533.905240	0.104256
534.120937	0.104131
534.336616	0.104627
534.552277	0.104940
534.767919	0.105286
534.983543	0.105392
535.199149	0.105737
535.414736	0.105375
535.630306	0.105956
535.845857	0.105960
536.061390	0.106344
536.276904	0.106493
536.492401	0.106113
536.707879	0.106114
536.923339	0.106714
537.138781	0.107122
537.354204	0.107760
537.569610	0.107606
537.784997	0.107757
538.000366	0.107556
538.215716	0.107806
538.431049	0.108404
538.646363	0.108598
538.861659	0.108801
539.076937	0.109010
539.292196	0.109266
539.507438	0.109915
539.722661	0.110150
539.937866	0.110659
540.153052	0.110456
540.368221	0.110367
540.583371	0.110465
540.798503	0.110722
541.013617	0.110504
541.228712	0.110123
541.443789	0.109602
541.658848	0.109816
541.873889	0.109902
542.088912	0.110044
542.303916	0.110369
542.518902	0.110909
542.733870	0.110857
542.948820	0.111385
543.163752	0.111566
543.378665	0.112111
543.593560	0.112235
543.808437	0.112243
544.023295	0.112884
544.238136	0.112895
544.452958	0.113094
544.667762	0.113376
544.882548	0.113174
545.097315	0.113612
545.312064	0.113664
545.526795	0.113481
545.741508	0.114005
545.956203	0.113697
546.170879	0.114024
546.385537	0.113452
546.600177	0.113208
546.814799	0.113609
547.029402	0.113670
547.243988	0.113387
547.458555	0.113938
547.673103	0.113459
547.887634	0.113732
548.102146	0.113911
548.316640	0.114257
548.531116	0.114819
548.745574	0.114726
548.960013	0.115269
549.174435	0.116177
549.388838	0.116119
549.603222	0.116668
549.817589	0.116605
550.031937	0.116714
550.246267	0.116726
550.460579	0.116695
550.674873	0.116960
550.889148	0.116590
551.103405	0.116546
551.317644	0.116470
551.531865	0.116351
551.746068	0.116800
551.960252	0.116690
552.174418	0.116969
552.388566	0.116847
552.602696	0.116816
552.816807	0.117036
553.030900	0.116452
553.244975	0.116737
553.459032	0.117204
553.673070	0.117276
553.887091	0.117082
554.101093	0.117247
554.315077	0.117745
554.529042	0.118254
554.742990	0.118570
554.956919	0.119084
555.170830	0.119095
555.384722	0.119022
555.598597	0.119143
555.812453	0.119694
556.026291	0.120014
556.240111	0.119747
556.453913	0.119435
556.667696	0.119478
556.881461	0.119579
557.095208	0.119712
557.308937	0.119927
557.522647	0.119848
557.736339	0.119824
557.950013	0.119694
558.163669	0.119972
558.377307	0.120321
558.590926	0.119901
558.804527	0.120218
559.018110	0.120475
559.231675	0.120345
559.445221	0.120627
559.658749	0.120622
559.872259	0.120858
560.085751	0.121103
560.299225	0.121207
560.512680	0.121816
560.726117	0.121976
560.939536	0.121844
561.152937	0.121828
561.366319	0.121925
561.579683	0.122099
561.793029	0.122245
562.006357	0.122137
562.219667	0.122021
562.432958	0.122131
562.646231	0.122095
562.859486	0.122341
563.072723	0.122886
563.285941	0.122777
563.499141	0.122988
563.712323	0.122748
563.925487	0.122669
564.138632	0.122811
564.351760	0.122559
564.564869	0.122713
564.777960	0.122836
564.991032	0.122274
565.204087	0.122360
565.417123	0.122226
565.630141	0.122190
565.843140	0.122593
566.056122	0.122501
566.269085	0.123009
566.482030	0.123146
566.694957	0.123207
566.907866	0.123668
567.120756	0.123998
567.333628	0.124285
567.546482	0.124995
567.759318	0.124970
567.972135	0.125253
568.184935	0.124998
568.397716	0.124848
568.610478	0.125252
568.823223	0.125696
569.035949	0.125900
569.248657	0.125751
569.461347	0.125557
569.674019	0.125685
569.886672	0.126087
570.099308	0.126436
570.311925	0.126807
570.524523	0.126308
570.737104	0.126058
570.949666	0.126074
571.162210	0.126426
571.374736	0.127224
571.587244	0.127402
571.799733	0.127314
572.012205	0.127198
572.224658	0.126944
572.437092	0.127260
572.649509	0.127655
572.861907	0.127880
573.074287	0.128051
573.286649	0.127597
573.498993	0.127786
573.711318	0.128020
573.923625	0.128153
574.135914	0.128626
574.348185	0.128766
574.560438	0.128818
574.772672	0.128734
574.984888	0.128741
575.197086	0.128915
575.409266	0.128976
575.621427	0.129185
575.833570	0.128987
576.045695	0.129048
576.257802	0.129071
576.469890	0.129098
576.681961	0.129330
576.894013	0.129625
577.106046	0.129417
577.318062	0.129420
577.530059	0.129265
577.742039	0.129493
577.954000	0.129265
578.165942	0.129585
578.377867	0.129403
578.589773	0.129590
578.801661	0.129471
579.013531	0.129781
579.225382	0.130035
579.437216	0.130208
579.649031	0.130619
579.860828	0.130927
580.072606	0.131260
580.284367	0.131465
580.496109	0.131531
580.707833	0.131855
580.919539	0.131743
581.131227	0.131863
581.342896	0.132152
581.554547	0.132392
581.766180	0.132664
581.977795	0.132554
582.189391	0.132781
582.400969	0.132852
582.612529	0.133099
582.824071	0.133457
583.035595	0.133286
583.247100	0.133241
583.458587	0.133290
583.670056	0.133147
583.881506	0.133210
584.092939	0.133472
584.304353	0.133685
584.515749	0.133847
584.727127	0.133782
584.938486	0.133980
585.149828	0.133627
585.361151	0.133621
585.572456	0.133948
585.783742	0.134264
585.995011	0.134422
586.206261	0.134427
586.417493	0.134071
586.628706	0.134245
586.839902	0.134478
587.051079	0.134852
587.262238	0.134861
587.473379	0.134912
587.684502	0.134878
587.895606	0.134736
588.106692	0.134516
588.317760	0.134571
588.528810	0.134391
588.739841	0.134306
588.950855	0.134346
589.161850	0.134627
589.372827	0.134537
589.583785	0.134653
589.794726	0.134617
590.005648	0.134985
590.216552	0.135063
590.427437	0.135223
590.638305	0.135350
590.849154	0.135354
591.059985	0.135169
591.270798	0.134972
591.481592	0.134818
591.692369	0.135146
591.903127	0.134866
592.113867	0.135249
592.324588	0.135675
592.535292	0.135895
592.745977	0.136151
592.956644	0.136293
593.167293	0.136600
593.377923	0.136849
593.588536	0.137017
593.799130	0.137238
594.009706	0.136992
594.220263	0.136850
594.430803	0.136656
594.641324	0.136607
594.851827	0.137006
595.062312	0.137463
595.272778	0.137529
595.483227	0.137363
595.693657	0.137679
595.904069	0.137965
596.114462	0.138063
596.324838	0.138190
596.535195	0.138386
596.745534	0.138330
596.955855	0.138052
597.166157	0.138008
597.376441	0.138156
597.586707	0.138139
597.796955	0.138223
598.007185	0.138378
598.217396	0.138569
598.427589	0.138526
598.637764	0.138794
598.847921	0.138879
599.058060	0.138877
599.268180	0.138809
599.478282	0.139279
599.688366	0.139365
599.898431	0.139504
600.108479	0.139903
600.318508	0.140209
600.528519	0.139935
600.738511	0.140232
600.948486	0.140355
601.158442	0.140543
601.368380	0.140458
601.578300	0.140550
601.788202	0.140534
601.998085	0.140141
602.207950	0.140095
602.417797	0.140503
602.627626	0.140546
602.837436	0.140693
603.047228	0.140823
603.257002	0.140807
603.466758	0.141184
603.676496	0.141374
603.886215	0.141609
604.095916	0.141575
604.305599	0.141253
604.515264	0.141196
604.724910	0.141025
604.934538	0.141208
605.144148	0.141060
605.353740	0.140831
605.563314	0.140659
605.772869	0.140777
605.982406	0.141086
606.191925	0.141104
606.401425	0.141264
606.610908	0.141561
606.820372	0.141533
607.029818	0.141823
607.239246	0.141883
607.448655	0.142236
607.658047	0.142428
607.867420	0.142382
608.076775	0.142549
608.286111	0.142785
608.495430	0.143161
608.704730	0.143436
608.914012	0.143576
609.123275	0.143715
609.332521	0.143564
609.541748	0.143737
609.750957	0.143824
609.960148	0.144029
610.169321	0.143771
610.378475	0.143766
610.587611	0.143652
610.796729	0.143572
611.005829	0.143656
611.214910	0.144034
611.423974	0.143868
611.633019	0.144021
611.842045	0.144151
612.051054	0.144089
612.260044	0.144176
612.469017	0.144475
612.677970	0.144759
612.886906	0.144991
613.095824	0.145070
613.304723	0.145366
613.513604	0.145432
613.722467	0.145372
613.931311	0.145907
614.140138	0.145788
614.348946	0.145538
614.557736	0.145361
614.766507	0.145305
614.975261	0.144966
615.183996	0.144956
615.392713	0.144879
615.601412	0.144963
615.810092	0.145028
616.018754	0.145243
616.227399	0.145389
616.436024	0.145725
616.644632	0.145849
616.853222	0.146233
617.061793	0.146421
617.270346	0.146512
617.478880	0.146715
617.687397	0.146733
617.895895	0.146535
618.104375	0.146790
618.312837	0.146783
618.521281	0.146699
618.729706	0.146474
618.938113	0.146415
619.146502	0.146568
619.354873	0.146716
619.563226	0.146653
619.771560	0.146849
619.979876	0.146526
620.188174	0.146492
620.396453	0.146488
620.604715	0.146467
620.812958	0.146337
621.021183	0.146545
621.229390	0.146268
621.437578	0.146427
621.645748	0.146395
621.853900	0.146688
622.062034	0.146809
622.270150	0.146937
622.478247	0.147095
622.686326	0.147410
622.894387	0.147245
623.102430	0.147486
623.310454	0.147567
623.518461	0.147827
623.726449	0.147959
623.934418	0.147755
624.142370	0.147915
624.350303	0.147997
624.558218	0.147853
624.766115	0.147991
624.973994	0.148070
625.181855	0.148114
625.389697	0.148246
625.597521	0.148048
625.805327	0.148275
626.013114	0.148243
626.220883	0.148466
626.428634	0.148610
626.636367	0.148545
626.844082	0.148561
627.051778	0.148541
627.259457	0.148585
627.467117	0.148932
627.674758	0.149227
627.882382	0.149295
628.089987	0.149237
628.297574	0.149399
628.505143	0.149790
628.712694	0.150071
628.920226	0.150321
629.127740	0.150331
629.335236	0.150296
629.542714	0.150279
629.750174	0.150428
629.957615	0.150562
630.165038	0.150596
630.372443	0.150481
630.579829	0.150263
630.787198	0.150206
630.994548	0.150215
631.201880	0.150307
631.409194	0.150047
631.616489	0.150038
631.823766	0.150123
632.031025	0.150418
632.238266	0.150483
632.445489	0.150677
632.652693	0.150838
632.859879	0.151017
633.067047	0.151270
633.274197	0.151557
633.481329	0.151759
633.688442	0.151913
633.895537	0.151583
634.102614	0.151784
634.309672	0.151876
634.516713	0.152111
634.723735	0.152313
634.930739	0.152141
635.137724	0.151993
635.344692	0.152016
635.551641	0.152110
635.758572	0.152268
635.965485	0.152215
636.172379	0.152342
636.379256	0.152428
636.586114	0.152233
636.792954	0.152504
636.999775	0.152844
637.206579	0.152766
637.413364	0.152928
637.620131	0.153165
637.826880	0.153285
638.033610	0.153196
638.240323	0.153327
638.447017	0.153800
638.653692	0.153828
638.860350	0.153936
639.066990	0.154379
639.273611	0.154368
639.480214	0.154308
639.686798	0.154383
639.893365	0.154733
640.099913	0.154402
640.306443	0.154284
640.512955	0.154163
640.719449	0.154263
640.925924	0.154062
641.132381	0.154116
641.338820	0.154400
641.545241	0.154642
641.751644	0.154681
641.958028	0.154944
642.164394	0.154905
642.370742	0.155148
642.577071	0.155239
642.783383	0.155366
642.989676	0.155457
643.195951	0.155275
643.402207	0.155226
643.608446	0.155277
643.814666	0.155180
644.020868	0.155257
644.227052	0.155254
644.433218	0.155177
644.639365	0.155246
644.845494	0.155197
645.051605	0.155401
645.257698	0.155333
645.463772	0.155373
645.669828	0.155599
645.875866	0.155538
646.081886	0.155650
646.287888	0.155964
646.493871	0.156009
646.699836	0.155975
646.905783	0.155789
647.111712	0.156116
647.317622	0.156130
647.523514	0.156206
647.729388	0.156120
647.935244	0.156022
648.141082	0.155790
648.346901	0.156138
648.552702	0.156468
648.758485	0.156968
648.964250	0.156841
649.169996	0.157109
649.375724	0.157222
649.581434	0.157691
649.787126	0.157991
649.992800	0.158377
650.198455	0.158191
650.404092	0.158262
650.609711	0.158021
650.815311	0.158212
651.020894	0.158114
651.226458	0.158117
651.432004	0.158107
651.637532	0.158230
651.843041	0.158121
652.048532	0.158211
652.254006	0.158206
652.459460	0.158180
652.664897	0.158125
652.870315	0.158207
653.075716	0.158297
653.281097	0.158505
653.486461	0.158538
653.691807	0.158475
653.897134	0.158718
654.102443	0.158757
654.307734	0.159117
654.513006	0.159243
654.718261	0.159456
654.923497	0.159460
655.128715	0.159426
655.333915	0.159790
655.539096	0.160045
655.744259	0.160230
655.949404	0.160554
656.154531	0.160718
656.359640	0.160852
656.564730	0.160748
656.769802	0.160872
656.974856	0.161323
657.179892	0.161201
657.384909	0.161412
657.589908	0.161129
657.794889	0.161289
657.999852	0.161182
658.204797	0.161175
658.409723	0.161440
658.614631	0.161586
658.819521	0.161619
659.024393	0.161742
659.229246	0.161641
659.434081	0.161934
659.638898	0.161950
659.843697	0.162392
660.048478	0.162743
660.253240	0.162719
660.457984	0.163020
660.662710	0.162697
660.867417	0.162675
661.072107	0.162919
661.276778	0.162961
661.481431	0.162940
661.686066	0.162450
661.890682	0.162473
662.095281	0.162665
662.299861	0.162447
662.504422	0.162774
662.708966	0.162828
662.913491	0.162711
663.117999	0.162764
663.322488	0.162843
663.526958	0.163282
663.731411	0.163311
663.935845	0.163480
664.140261	0.163943
664.344659	0.164103
664.549038	0.164236
664.753400	0.164440
664.957743	0.164743
665.162068	0.164970
665.366375	0.165184
665.570663	0.165352
665.774933	0.165293
665.979185	0.165070
666.183419	0.165205
666.387635	0.165470
666.591832	0.165624
666.796011	0.165661
667.000172	0.165808
667.204315	0.165900
667.408439	0.166111
667.612545	0.166225
667.816634	0.166545
668.020703	0.166644
668.224755	0.166818
668.428788	0.166907
668.632803	0.167122
668.836800	0.167150
669.040779	0.167482
669.244739	0.167403
669.448681	0.167663
669.652605	0.168013
669.856511	0.168130
670.060399	0.168062
670.264268	0.168255
670.468119	0.168379
670.671952	0.168493
670.875767	0.168161
671.079563	0.168467
671.283341	0.168497
671.487101	0.168326
671.690843	0.168309
671.894567	0.168212
672.098272	0.168070
672.301959	0.168034
672.505628	0.168297
672.709278	0.168619
672.912911	0.168639
673.116525	0.168978
673.320121	0.169000
673.523699	0.168887
673.727258	0.169211
673.930799	0.169531
674.134322	0.169619
674.337827	0.169534
674.541314	0.169575
674.744782	0.169586
674.948232	0.169260
675.151664	0.169178
675.355078	0.169324
675.558474	0.169493
675.761851	0.169613
675.965210	0.169838
676.168551	0.169924
676.371873	0.169839
676.575178	0.170013
676.778464	0.170429
676.981732	0.170613
677.184981	0.170894
677.388213	0.170937
677.591426	0.170786
677.794621	0.170813
677.997798	0.170808
678.200956	0.171028
678.404097	0.170902
678.607219	0.170848
678.810323	0.170996
679.013408	0.170983
679.216476	0.171001
679.419525	0.171196
679.622556	0.171259
679.825569	0.171447
680.028563	0.171600
680.231540	0.171692
680.434498	0.171627
680.637438	0.171931
680.840359	0.172130
681.043263	0.172278
681.246148	0.172308
681.449015	0.172382
681.651864	0.172445
681.854694	0.172395
682.057506	0.172845
682.260301	0.173057
682.463076	0.173081
682.665834	0.173101
682.868573	0.173215
683.071295	0.173500
683.273998	0.173473
683.476682	0.173418
683.679349	0.173758
683.881997	0.173688
684.084627	0.173734
684.287239	0.173572
684.489833	0.173509
684.692408	0.173559
684.894965	0.173411
685.097504	0.173623
685.300025	0.173821
685.502527	0.173666
685.705012	0.173645
685.907478	0.173860
686.109925	0.173903
686.312355	0.174050
686.514766	0.174162
686.717159	0.174598
686.919534	0.174593
687.121891	0.174725
687.324230	0.175100
687.526550	0.175353
687.728852	0.175428
687.931136	0.175608
688.133401	0.175695
688.335649	0.175677
688.537878	0.175433
688.740089	0.175570
688.942281	0.175651
689.144456	0.175579
689.346612	0.175329
689.548750	0.175248
689.750870	0.175572
689.952971	0.175521
690.155055	0.175697
690.357120	0.175971
690.559167	0.176021
690.761195	0.175940
690.963206	0.176022
691.165198	0.176212
691.367172	0.176307
691.569128	0.175992
691.771065	0.176335
691.972984	0.176284
692.174885	0.176437
692.376768	0.176653
692.578633	0.176783
692.780479	0.176803
692.982308	0.176963
693.184118	0.177110
693.385909	0.177116
693.587683	0.177170
693.789438	0.177278
693.991175	0.177078
694.192894	0.176935
694.394595	0.177122
694.596277	0.177060
694.797941	0.177152
694.999587	0.177171
695.201215	0.177460
695.402824	0.177581
695.604416	0.177588
695.805989	0.177559
696.007543	0.177504
696.209080	0.177420
696.410598	0.177482
696.612099	0.177526
696.813580	0.177588
697.015044	0.177786
697.216490	0.177693
697.417917	0.177934
697.619326	0.178106
697.820717	0.178449
698.022089	0.178550
698.223444	0.178664
698.424780	0.178906
698.626098	0.179204
698.827397	0.179081
699.028679	0.179205
699.229942	0.179204
699.431187	0.179353
699.632414	0.179438
699.833622	0.179655
700.034813	0.179903
700.235985	0.179645
700.437139	0.179469
700.638274	0.179543
700.839392	0.179870
701.040491	0.180079
701.241572	0.180357
701.442635	0.180388
701.643679	0.180390
701.844706	0.180425
702.045714	0.180458
702.246704	0.180563
702.447675	0.180710
702.648629	0.180364
702.849564	0.180353
703.050481	0.180518
703.251380	0.180622
703.452260	0.180601
703.653122	0.180563
703.853966	0.180637
704.054792	0.180615
704.255600	0.180744
704.456389	0.180915
704.657160	0.181079
704.857913	0.180731
705.058648	0.180634
705.259365	0.180579
705.460063	0.180631
705.660743	0.180957
705.861405	0.181084
706.062048	0.180889
706.262674	0.180694
706.463281	0.180566
706.663870	0.180643
706.864441	0.180916
707.064993	0.181084
707.265527	0.181031
707.466043	0.180947
707.666541	0.181103
707.867021	0.181452
708.067482	0.181813
708.267925	0.181846
708.468350	0.182005
708.668757	0.181845
708.869145	0.182031
709.069516	0.182245
709.269868	0.182250
709.470201	0.182249
709.670517	0.182371
709.870814	0.182321
710.071093	0.182363
710.271354	0.182492
710.471597	0.182581
710.671821	0.182463
710.872028	0.182160
711.072216	0.182061
711.272385	0.181997
711.472537	0.181669
711.672670	0.181595
711.872785	0.181712
712.072882	0.181677
712.272961	0.181714
712.473021	0.181660
712.673063	0.181820
712.873087	0.181745
713.073093	0.181899
713.273081	0.181938
713.473050	0.182159
713.673001	0.181894
713.872934	0.181922
714.072849	0.181840
714.272745	0.181999
714.472623	0.182006
714.672483	0.182315
714.872325	0.182354
715.072148	0.182623
715.271954	0.182487
715.471741	0.182682
715.671509	0.182400
715.871260	0.182406
716.070992	0.182093
716.270707	0.182185
716.470403	0.181942
716.670080	0.181639
716.869740	0.181529
717.069381	0.181539
717.269004	0.181434
717.468609	0.181592
717.668195	0.181521
717.867764	0.181769
718.067314	0.181534
718.266846	0.181656
718.466360	0.181680
718.665855	0.181513
718.865332	0.181455
719.064791	0.181153
719.264232	0.181083
719.463655	0.181183
719.663059	0.181121
719.862445	0.181279
720.061813	0.181195
720.261163	0.181243
720.460494	0.181308
720.659807	0.181372
720.859102	0.181553
721.058379	0.181615
721.257638	0.181408
721.456878	0.181237
721.656100	0.181260
721.855304	0.181092
722.054490	0.180975
722.253657	0.180914
722.452806	0.180791
722.651937	0.180951
722.851050	0.180850
723.050145	0.180918
723.249221	0.181012
723.448279	0.180900
723.647319	0.181137
723.846340	0.181165
724.045344	0.181235
724.244329	0.181263
724.443296	0.181297
724.642245	0.181300
724.841175	0.181356
725.040088	0.181403
725.238982	0.181484
725.437857	0.181619
725.636715	0.181606
725.835554	0.181386
726.034376	0.181203
726.233179	0.180947
726.431963	0.180981
726.630730	0.180813
726.829478	0.180752
727.028208	0.180819
727.226920	0.180597
727.425614	0.180445
727.624289	0.180532
727.822946	0.180687
728.021585	0.180703
728.220206	0.180530
728.418808	0.180410
728.617392	0.180496
728.815958	0.180398
729.014506	0.180407
729.213036	0.180419
729.411547	0.180441
729.610040	0.180469
729.808515	0.180466
730.006972	0.180450
730.205410	0.180486
730.403831	0.180287
730.602233	0.180043
730.800616	0.179762
730.998982	0.179719
731.197329	0.179527
731.395658	0.179345
731.593969	0.179260
731.792262	0.179154
731.990536	0.179169
732.188793	0.179334
732.387031	0.179329
732.585250	0.179416
732.783452	0.179454
732.981635	0.179360
733.179800	0.179393
733.377947	0.179409
733.576076	0.179330
733.774186	0.179209
733.972278	0.179093
734.170352	0.179107
734.368408	0.178990
734.566446	0.178852
734.764465	0.178927
734.962466	0.178788
735.160449	0.178484
735.358413	0.178447
735.556360	0.178459
735.754288	0.178190
735.952198	0.178199
736.150090	0.178261
736.347963	0.178383
736.545818	0.178244
736.743655	0.178259
736.941474	0.178497
737.139275	0.178580
737.337057	0.178571
737.534821	0.178656
737.732567	0.178579
737.930295	0.178452
738.128005	0.178167
738.325696	0.178001
738.523369	0.177833
738.721024	0.177604
738.918660	0.177476
739.116279	0.177196
739.313879	0.176984
739.511461	0.176834
739.709024	0.176774
739.906570	0.177023
740.104097	0.177042
740.301606	0.176919
740.499097	0.176867
740.696569	0.176740
740.894024	0.176705
741.091460	0.176742
741.288878	0.176685
741.486277	0.176690
741.683659	0.176512
741.881022	0.176530
742.078367	0.176519
742.275694	0.176484
742.473002	0.176332
742.670293	0.176262
742.867565	0.176205
743.064819	0.175933
743.262054	0.175671
743.459272	0.175556
743.656471	0.175421
743.853652	0.175158
744.050815	0.175042
744.247959	0.175026
744.445085	0.175025
744.642194	0.174802
744.839283	0.174729
745.036355	0.174666
745.233408	0.174551
745.430444	0.174425
745.627461	0.174595
745.824459	0.174493
746.021440	0.174432
746.218402	0.174128
746.415346	0.173856
746.612272	0.173630
746.809180	0.173594
747.006069	0.173466
747.202940	0.173426
747.399793	0.173206
747.596628	0.173026
747.793444	0.172666
747.990243	0.172572
748.187023	0.172568
748.383784	0.172496
748.580528	0.172469
748.777253	0.172292
748.973960	0.171957
749.170649	0.171714
749.367320	0.171802
749.563973	0.171829
749.760607	0.171723
749.957223	0.171715
750.153821	0.171827
750.350400	0.171746
750.546962	0.171690
750.743505	0.171848
750.940030	0.171884
751.136536	0.171745
751.333025	0.171695
751.529495	0.171930
751.725947	0.171913
751.922381	0.171848
752.118796	0.171480
752.315194	0.171511
752.511573	0.171363
752.707934	0.171218
752.904276	0.171120
753.100601	0.171236
753.296907	0.170945
753.493195	0.170828
753.689465	0.170632
753.885716	0.170701
754.081949	0.170466
754.278164	0.170545
754.474361	0.170596
754.670540	0.170483
754.866700	0.170225
755.062843	0.170348
755.258967	0.170386
755.455072	0.170403
755.651160	0.170480
755.847229	0.170403
756.043280	0.170273
756.239313	0.170280
756.435328	0.170408
756.631324	0.170614
756.827302	0.170356
757.023262	0.170091
757.219204	0.170032
757.415127	0.170019
757.611033	0.170112
757.806920	0.169816
758.002788	0.169612
758.198639	0.169419
758.394471	0.169162
758.590286	0.169244
758.786081	0.169524
758.981859	0.169506
759.177619	0.169429
759.373360	0.169090
759.569083	0.169149
759.764788	0.169203
759.960474	0.169032
760.156143	0.168852
760.351793	0.168693
760.547425	0.168396
760.743038	0.168234
760.938634	0.168178
761.134211	0.168330
761.329770	0.168201
761.525311	0.168035
761.720833	0.168112
761.916338	0.167989
762.111824	0.167822
762.307292	0.167676
762.502741	0.167750
762.698173	0.167380
762.893586	0.167200
763.088981	0.167184
763.284358	0.167198
763.479716	0.166891
763.675057	0.166955
763.870379	0.166756
764.065683	0.166715
764.260968	0.166441
764.456236	0.166240
764.651485	0.166129
764.846716	0.166020
765.041929	0.165806
765.237123	0.165602
765.432299	0.165652
765.627457	0.165794
765.822597	0.165751
766.017719	0.165876
766.212822	0.166156
766.407907	0.166233
766.602974	0.166357
766.798023	0.166442
766.993054	0.166614
767.188066	0.166744
767.383060	0.166777
767.578036	0.166867
767.772993	0.166690
767.967933	0.166585
768.162854	0.166473
768.357757	0.166229
768.552642	0.165994
768.747508	0.165929
768.942356	0.165573
769.137186	0.165409
769.331998	0.165318
769.526792	0.165256
769.721567	0.165119
769.916324	0.165077
770.111063	0.165084
770.305784	0.165109
770.500486	0.165028
770.695171	0.164914
770.889837	0.164866
771.084484	0.164663
771.279114	0.164675
771.473725	0.164746
771.668318	0.164706
771.862893	0.164583
772.057450	0.164751
772.251988	0.164841
772.446509	0.164794
772.641011	0.164940
772.835494	0.164971
773.029960	0.165136
773.224407	0.165140
773.418836	0.165000
773.613247	0.165052
773.807640	0.164907
774.002014	0.164873
774.196370	0.164837
774.390708	0.164698
774.585028	0.164442
774.779330	0.164080
774.973613	0.163968
775.167878	0.164045
775.362125	0.163849
775.556354	0.163673
775.750564	0.163743
775.944756	0.163938
776.138930	0.163810
776.333086	0.163784
776.527223	0.163878
776.721343	0.163965
776.915444	0.163973
777.109526	0.164238
777.303591	0.164260
777.497637	0.164109
777.691666	0.163907
777.885676	0.163656
778.079667	0.163648
778.273641	0.163738
778.467596	0.163458
778.661533	0.163307
778.855452	0.163259
779.049352	0.163270
779.243235	0.163181
779.437099	0.163464
779.630945	0.163668
779.824773	0.163777
780.018582	0.163536
780.212373	0.163647
780.406146	0.163599
780.599901	0.163340
780.793638	0.163541
780.987356	0.163586
781.181056	0.163372
781.374738	0.163413
781.568402	0.163454
781.762047	0.163683
781.955674	0.163598
782.149283	0.163569
782.342874	0.163580
782.536447	0.163343
782.730001	0.163191
782.923537	0.163078
783.117055	0.162965
783.310555	0.163065
783.504036	0.163206
783.697499	0.163351
783.890944	0.163549
784.084371	0.163440
784.277780	0.163481
784.471170	0.163605
784.664542	0.163703
784.857896	0.163868
785.051231	0.163862
785.244549	0.163616
785.437848	0.163473
785.631129	0.163437
785.824392	0.163807
786.017636	0.163648
786.210863	0.163636
786.404071	0.163579
786.597260	0.163660
786.790432	0.163527
786.983585	0.163614
787.176721	0.163820
787.369838	0.163875
787.562936	0.163712
787.756017	0.163786
787.949079	0.163779
788.142123	0.164023
788.335149	0.163845
788.528156	0.164065
788.721146	0.164086
788.914117	0.164036
789.107070	0.163955
789.300005	0.164067
789.492921	0.164203
789.685819	0.164391
789.878699	0.164180
790.071561	0.164627
790.264405	0.164464
790.457230	0.164491
790.650037	0.164395
790.842826	0.164569
791.035597	0.164656
791.228349	0.164867
791.421084	0.164762
791.613800	0.164820
791.806497	0.164552
791.999177	0.164555
792.191838	0.164517
792.384481	0.164567
792.577106	0.164369
792.769713	0.164176
792.962301	0.163917
793.154871	0.164102
793.347423	0.164081
793.539957	0.164207
793.732473	0.164420
793.924970	0.164511
794.117449	0.164608
794.309910	0.164777
794.502353	0.164792
794.694777	0.164743
794.887183	0.164769
795.079571	0.164867
795.271941	0.164813
795.464293	0.164862
795.656626	0.164826
795.848941	0.164854
796.041238	0.164960
796.233516	0.165069
796.425777	0.165277
796.618019	0.165095
796.810243	0.165399
797.002449	0.165581
797.194636	0.165597
797.386805	0.165801
797.578956	0.166026
797.771089	0.166117
797.963204	0.166340
798.155300	0.166499
798.347378	0.166789
798.539438	0.166687
798.731480	0.166807
798.923503	0.166714
799.115509	0.166635
799.307496	0.166559
799.499465	0.166673
799.691415	0.166928
799.883348	0.167006
800.075262	0.167059
800.267158	0.167321
800.459035	0.167140
800.650895	0.167493
800.842736	0.167705
801.034559	0.168078
801.226364	0.168194
801.418150	0.168259
801.609919	0.168348
801.801669	0.168506
801.993401	0.168396
802.185114	0.168735
802.376810	0.168806
802.568487	0.168973
802.760146	0.168892
802.951787	0.168879
803.143409	0.169060
803.335014	0.168998
803.526600	0.168971
803.718168	0.169269
803.909717	0.169260
804.101249	0.169336
804.292762	0.169375
804.484257	0.169651
804.675734	0.169783
804.867192	0.169794
805.058632	0.170205
805.250054	0.170485
805.441458	0.170552
805.632844	0.170827
805.824211	0.171092
806.015561	0.171365
806.206891	0.171343
806.398204	0.171434
806.589499	0.171251
806.780775	0.171204
806.972033	0.171075
807.163273	0.170799
807.354495	0.170793
807.545698	0.170703
807.736883	0.170809
807.928050	0.170992
808.119199	0.171069
808.310329	0.171044
808.501441	0.171050
808.692535	0.171290
808.883611	0.171622
809.074669	0.171537
809.265708	0.171497
809.456729	0.171093
809.647732	0.171110
809.838717	0.171265
810.029683	0.171487
810.220632	0.171581
810.411562	0.171628
810.602474	0.171640
810.793367	0.171684
810.984242	0.171852
811.175100	0.172316
811.365938	0.172406
811.556759	0.172591
811.747562	0.172845
811.938346	0.173007
812.129112	0.173322
812.319860	0.173459
812.510589	0.173907
812.701300	0.174271
812.891994	0.174513
813.082668	0.174772
813.273325	0.174898
813.463964	0.175187
813.654584	0.175604
813.845186	0.175639
814.035769	0.176020
814.226335	0.176089
814.416882	0.176152
814.607411	0.176258
814.797922	0.176258
814.988415	0.176558
815.178889	0.176789
815.369345	0.177025
815.559783	0.177256
815.750203	0.177485
815.940605	0.177592
816.130988	0.177659
816.321353	0.177697
816.511700	0.178130
816.702028	0.178068
816.892339	0.178173
817.082631	0.178337
817.272905	0.178512
817.463161	0.178593
817.653398	0.178885
817.843617	0.178896
818.033819	0.179045
818.224001	0.178924
818.414166	0.179024
818.604312	0.179151
818.794440	0.178998
818.984550	0.178942
819.174642	0.178982
819.364716	0.179088
819.554771	0.179330
819.744808	0.179397
819.934827	0.179393
820.124827	0.179479
820.314810	0.179445
820.504774	0.179743
820.694720	0.180229
820.884647	0.180370
821.074557	0.180516
821.264448	0.180803
821.454321	0.181070
821.644176	0.181385
821.834012	0.181605
822.023831	0.181828
822.213631	0.181855
822.403413	0.181989
822.593176	0.182127
822.782922	0.182116
822.972649	0.182128
823.162358	0.182129
823.352049	0.182293
823.541721	0.182578
823.731376	0.182799
823.921012	0.182833
824.110629	0.182907
824.300229	0.182892
824.489811	0.182998
824.679374	0.183304
824.868919	0.183698
825.058445	0.183835
825.247954	0.183805
825.437444	0.183891
825.626916	0.184080
825.816370	0.184181
826.005806	0.184639
826.195223	0.184997
826.384622	0.185291
826.574003	0.185513
826.763366	0.185763
826.952711	0.185987
827.142037	0.186099
827.331345	0.186392
827.520635	0.186354
827.709906	0.186307
827.899160	0.186566
828.088395	0.186518
828.277612	0.186619
828.466810	0.186889
828.655991	0.187410
828.845153	0.187713
829.034297	0.188137
829.223423	0.188692
829.412531	0.189064
829.601620	0.188913
829.790691	0.188991
829.979744	0.189080
830.168779	0.189155
830.357795	0.189070
830.546793	0.189078
830.735773	0.188944
830.924735	0.188721
831.113679	0.189080
831.302604	0.189635
831.491511	0.189823
831.680400	0.189905
831.869271	0.190029
832.058123	0.190280
832.246957	0.190577
832.435773	0.190943
832.624571	0.191224
832.813351	0.191290
833.002112	0.191501
833.190855	0.191561
833.379580	0.191700
833.568287	0.191955
833.756975	0.191908
833.945645	0.192045
834.134297	0.192240
834.322931	0.192615
834.511547	0.192718
834.700144	0.192944
834.888723	0.193507
835.077284	0.194045
835.265826	0.194032
835.454351	0.194359
835.642857	0.194671
835.831345	0.194687
836.019815	0.194766
836.208266	0.194932
836.396699	0.195085
836.585114	0.195253
836.773511	0.195309
836.961890	0.195722
837.150250	0.196019
837.338592	0.196374
837.526916	0.196574
837.715222	0.196742
837.903510	0.196735
838.091779	0.196553
838.280030	0.196594
838.468263	0.196819
838.656477	0.196826
838.844674	0.196865
839.032852	0.196763
839.221012	0.196871
839.409153	0.196920
839.597277	0.197229
839.785382	0.197697
839.973469	0.197889
840.161538	0.198005
840.349589	0.198374
840.537621	0.198722
840.725635	0.199408
840.913631	0.199808
841.101609	0.200264
841.289568	0.200606
841.477509	0.200664
841.665432	0.201072
841.853337	0.201227
842.041224	0.201534
842.229092	0.201915
842.416942	0.202018
842.604774	0.202342
842.792588	0.202405
842.980383	0.202802
843.168160	0.203280
843.355919	0.203549
843.543660	0.204037
843.731382	0.203915
843.919087	0.203938
844.106773	0.204082
844.294441	0.204451
844.482090	0.204802
844.669722	0.205213
844.857335	0.205168
845.044930	0.205408
845.232507	0.205837
845.420065	0.206278
845.607605	0.206644
845.795127	0.206852
845.982631	0.206833
846.170117	0.206931
846.357584	0.206780
846.545033	0.207068
846.732464	0.207285
846.919877	0.207142
847.107272	0.207380
847.294648	0.207471
847.482006	0.207808
847.669346	0.208364
847.856667	0.208710
848.043971	0.208763
848.231256	0.208954
848.418523	0.209057
848.605771	0.209224
848.793002	0.209469
848.980214	0.209990
849.167408	0.210124
849.354584	0.210054
849.541742	0.210429
849.728881	0.211136
849.916002	0.211841
850.103105	0.212186
850.290190	0.212563
850.477256	0.212636
850.664304	0.212742
850.851334	0.212831
851.038346	0.213214
851.225340	0.213175
851.412315	0.213341
851.599272	0.213462
851.786211	0.213548
851.973132	0.213546
852.160034	0.214315
852.346918	0.214460
852.533784	0.214886
852.720632	0.214992
852.907462	0.215162
853.094273	0.215399
853.281066	0.215458
853.467841	0.215762
853.654598	0.216289
853.841336	0.216120
854.028056	0.216596
854.214758	0.216637
854.401442	0.216978
854.588107	0.217578
854.774755	0.217473
854.961384	0.217594
855.147995	0.217910
855.334587	0.218206
855.521162	0.218209
855.707718	0.218387
855.894256	0.218703
856.080775	0.218815
856.267277	0.218921
856.453760	0.219108
856.640225	0.219560
856.826672	0.219709
857.013101	0.219506
857.199511	0.220122
857.385903	0.220216
857.572277	0.220529
857.758633	0.220759
857.944970	0.220884
858.131290	0.221368
858.317591	0.221720
858.503873	0.221710
858.690138	0.222179
858.876384	0.222085
859.062612	0.222736
859.248822	0.222697
859.435014	0.223187
859.621188	0.223339
859.807343	0.223484
859.993480	0.223430
860.179599	0.223761
860.365699	0.223774
860.551781	0.224146
860.737846	0.223865
860.923891	0.224156
861.109919	0.223976
861.295929	0.224258
861.481920	0.224407
861.667893	0.224603
861.853848	0.224731
862.039784	0.224912
862.225702	0.225180
862.411603	0.225408
862.597484	0.225462
862.783348	0.225765
862.969193	0.226296
863.155021	0.226464
863.340830	0.226766
863.526620	0.227203
863.712393	0.227793
863.898147	0.227947
864.083883	0.227854
864.269601	0.228159
864.455301	0.228576
864.640982	0.228556
864.826645	0.228989
865.012290	0.229325
865.197917	0.229500
865.383526	0.229395
865.569116	0.229592
865.754688	0.229934
865.940242	0.230397
866.125777	0.230353
866.311295	0.230817
866.496794	0.230643
866.682275	0.230749
866.867737	0.231042
867.053182	0.231476
867.238608	0.231889
867.424016	0.232114
867.609406	0.231999
867.794778	0.231920
867.980131	0.231994
868.165466	0.232362
868.350783	0.232480
868.536082	0.232538
868.721362	0.232380
868.906625	0.232253
869.091869	0.232517
869.277094	0.232351
869.462302	0.232841
869.647491	0.232914
869.832662	0.233177
870.017815	0.232922
870.202950	0.233045
870.388066	0.233487
870.573165	0.234087
870.758245	0.234189
870.943306	0.234708
871.128350	0.234602
871.313375	0.234650
871.498382	0.234671
871.683371	0.234849
871.868342	0.234707
872.053294	0.234869
872.238229	0.234623
872.423144	0.234997
872.608042	0.235019
872.792922	0.235679
872.977783	0.235846
873.162626	0.236056
873.347451	0.236191
873.532258	0.236308
873.717046	0.236400
873.901816	0.236688
874.086568	0.236341
874.271302	0.236717
874.456017	0.236257
874.640715	0.236344
874.825394	0.236319
875.010055	0.236621
875.194697	0.237057
875.379322	0.236881
875.563928	0.236762
875.748516	0.237194
875.933085	0.237039
876.117637	0.237387
876.302170	0.237167
876.486685	0.237735
876.671182	0.237879
876.855661	0.237977
877.040121	0.238472
877.224563	0.238782
877.408987	0.238829
877.593393	0.239133
877.777780	0.239032
877.962150	0.239358
878.146501	0.238979
878.330833	0.238865
878.515148	0.238751
878.699444	0.238578
878.883722	0.238576
879.067982	0.238597
879.252224	0.238715
879.436447	0.238933
879.620653	0.239062
879.804840	0.239044
879.989008	0.239409
880.173159	0.239494
880.357291	0.239813
880.541405	0.240025
880.725501	0.239945
880.909579	0.239870
881.093638	0.239797
881.277680	0.239768
881.461703	0.240129
881.645707	0.240069
881.829694	0.240288
882.013662	0.240359
882.197612	0.240137
882.381544	0.240576
882.565458	0.240717
882.749353	0.241090
882.933230	0.241304
883.117089	0.241114
883.300930	0.241511
883.484753	0.241767
883.668557	0.241893
883.852343	0.242355
884.036111	0.242244
884.219861	0.242439
884.403592	0.242312
884.587305	0.242137
884.771000	0.242641
884.954677	0.242634
885.138335	0.242384
885.321976	0.242206
885.505598	0.242201
885.689201	0.242050
885.872787	0.241816
886.056354	0.241967
886.239904	0.241928
886.423434	0.241456
886.606947	0.241290
886.790442	0.241167
886.973918	0.240985
887.157376	0.240787
887.340816	0.240653
887.524237	0.240714
887.707641	0.240948
887.891026	0.241190
888.074393	0.241341
888.257741	0.241179
888.441072	0.241519
888.624384	0.241811
888.807678	0.241758
888.990954	0.242078
889.174211	0.242257
889.357451	0.241834
889.540672	0.242068
889.723875	0.241847
889.907059	0.241957
890.090226	0.241583
890.273374	0.241534
890.456504	0.241456
890.639616	0.241321
890.822709	0.241004
891.005785	0.241395
891.188842	0.241323
891.371881	0.241584
891.554901	0.241401
891.737904	0.241687
891.920888	0.241748
892.103854	0.241702
892.286802	0.241765
892.469731	0.241895
892.652643	0.241756
892.835536	0.241554
893.018410	0.241604
893.201267	0.241291
893.384106	0.241430
893.566926	0.241433
893.749728	0.241833
893.932511	0.241662
894.115277	0.241797
894.298024	0.241840
894.480753	0.241733
894.663464	0.241543
894.846157	0.241848
895.028831	0.241449
895.211487	0.241199
895.394125	0.241203
895.576745	0.241459
895.759346	0.241051
895.941930	0.240592
896.124495	0.240603
896.307041	0.240452
896.489570	0.240570
896.672080	0.240516
896.854573	0.240592
897.037046	0.240246
897.219502	0.240040
897.401940	0.240111
897.584359	0.240107
897.766760	0.239756
897.949143	0.239557
898.131507	0.238950
898.313854	0.238880
898.496182	0.238456
898.678492	0.237589
898.860783	0.237398
899.043057	0.237193
899.225312	0.236895
899.407549	0.236728
899.589768	0.236876
899.771968	0.237065
899.954151	0.236864
900.136315	0.236616
900.318461	0.236907
900.500588	0.236731
900.682698	0.236533
900.864789	0.236158
901.046862	0.236130
901.228917	0.235688
901.410953	0.235562
901.592971	0.235524
901.774972	0.236033
901.956953	0.236204
902.138917	0.235875
902.320862	0.236019
902.502790	0.236038
902.684699	0.235937
902.866589	0.236106
903.048462	0.236074
903.230316	0.235870
903.412152	0.235701
903.593970	0.235365
903.775770	0.235103
903.957551	0.234549
904.139314	0.234538
904.321059	0.234382
904.502786	0.234060
904.684494	0.233835
904.866185	0.233514
905.047857	0.232564
905.229510	0.232320
905.411146	0.232359
905.592763	0.232378
905.774363	0.232023
905.955943	0.232231
906.137506	0.232007
906.319051	0.231689
906.500577	0.231463
906.682085	0.231592
906.863575	0.231776
907.045046	0.231350
907.226500	0.230890
907.407935	0.230287
907.589352	0.229820
907.770750	0.229783
907.952131	0.229189
908.133493	0.229158
908.314837	0.228939
908.496163	0.228313
908.677470	0.228473
908.858760	0.228314
909.040031	0.228366
909.221284	0.227844
909.402518	0.227195
909.583735	0.226875
909.764933	0.226738
909.946113	0.226727
910.127275	0.226503
910.308418	0.226214
910.489544	0.226068
910.670651	0.225703
910.851740	0.225736
911.032810	0.225764
911.213863	0.226030
911.394897	0.225221
911.575913	0.224739
911.756911	0.224312
911.937890	0.223699
912.118851	0.223130
912.299794	0.223261
912.480719	0.223067
912.661626	0.222717
912.842514	0.221785
913.023384	0.222100
913.204236	0.221758
913.385070	0.221617
913.565886	0.221376
913.746683	0.221346
913.927462	0.220631
914.108223	0.219836
914.288965	0.219308
914.469690	0.219371
914.650396	0.218898
914.831084	0.218273
915.011754	0.217733
915.192405	0.217259
915.373038	0.216893
915.553653	0.216563
915.734250	0.216312
915.914829	0.216352
916.095389	0.216595
916.275931	0.216217
916.456455	0.215940
916.636961	0.215866
916.817448	0.216098
916.997917	0.215779
917.178368	0.215587
917.358801	0.215102
917.539216	0.214136
917.719612	0.213341
917.899990	0.212638
918.080350	0.212622
918.260692	0.211952
918.441015	0.211187
918.621320	0.210731
918.801607	0.210141
918.981876	0.209785
919.162127	0.209711
919.342359	0.209177
919.522573	0.209193
919.702769	0.208605
919.882947	0.208254
920.063106	0.207898
920.243247	0.207253
920.423370	0.207340
920.603475	0.206934
920.783562	0.206518
920.963630	0.205985
921.143680	0.205413
921.323712	0.205467
921.503725	0.204895
921.683721	0.204464
921.863698	0.204187
922.043657	0.203608
922.223598	0.203600
922.403520	0.203199
922.583424	0.203108
922.763311	0.202898
922.943178	0.201839
923.123028	0.200904
923.302859	0.200501
923.482673	0.200170
923.662467	0.199852
923.842244	0.199318
924.022003	0.199502
924.201743	0.198691
924.381465	0.198124
924.561169	0.198190
924.740854	0.198316
924.920522	0.197569
925.100171	0.197284
925.279802	0.196600
925.459414	0.196014
925.639009	0.195079
925.818585	0.194785
925.998143	0.194118
926.177683	0.193324
926.357205	0.193184
926.536708	0.192623
926.716193	0.191458
926.895660	0.190862
927.075109	0.190298
927.254539	0.189325
927.433951	0.188968
927.613345	0.188655
927.792721	0.187534
927.972079	0.187187
928.151418	0.186535
928.330739	0.186631
928.510042	0.186265
928.689327	0.185758
928.868593	0.185572
929.047841	0.184630
929.227071	0.183847
929.406283	0.183851
929.585476	0.182725
929.764652	0.182421
929.943809	0.182334
930.122948	0.181188
930.302068	0.180604
930.481171	0.180046
930.660255	0.179565
930.839321	0.178884
931.018369	0.178301
931.197398	0.177669
931.376409	0.176828
931.555402	0.175485
931.734377	0.175060
931.913334	0.174542
932.092272	0.173987
932.271192	0.173838
932.450094	0.173360
932.628978	0.172946
932.807844	0.172244
932.986691	0.172113
933.165520	0.171830
933.344331	0.171823
933.523123	0.170665
933.701898	0.170404
933.880654	0.169243
934.059392	0.168780
934.238111	0.168731
934.416813	0.167921
934.595496	0.167376
934.774161	0.166739
934.952808	0.165941
935.131437	0.165711
935.310047	0.164310
935.488639	0.163298
935.667213	0.162236
935.845769	0.161173
936.024306	0.161085
936.202825	0.160379
936.381326	0.159904
936.559809	0.159850
936.738274	0.159323
936.916720	0.159187
937.095148	0.159529
937.273558	0.159182
937.451950	0.158893
937.630323	0.158302
937.808678	0.157355
937.987015	0.156501
938.165334	0.154606
938.343635	0.153341
938.521917	0.152374
938.700181	0.151665
938.878427	0.150709
939.056655	0.149765
939.234864	0.149551
939.413055	0.149518
939.591228	0.148688
939.769383	0.148348
939.947519	0.148624
940.125638	0.148222
940.303738	0.147920
940.481820	0.148406
940.659883	0.148367
940.837929	0.148396
941.015956	0.147572
941.193965	0.147312
941.371955	0.146620
941.549928	0.146056
941.727882	0.145688
941.905818	0.143643
942.083736	0.142834
942.261636	0.140617
942.439517	0.138989
942.617380	0.137579
942.795225	0.137070
942.973052	0.137584
943.150860	0.135394
943.328651	0.134185
943.506423	0.133799
943.684176	0.133063
943.861912	0.133120
944.039629	0.131767
944.217328	0.132430
944.395009	0.130294
944.572672	0.129598
944.750317	0.130262
944.927943	0.129020
945.105551	0.129813
945.283141	0.128485
945.460712	0.127533
945.638265	0.128122
945.815801	0.127422
945.993317	0.127919
946.170816	0.125843
946.348297	0.125392
946.525759	0.125995
946.703203	0.124345
946.880629	0.123270
947.058036	0.122064
947.235425	0.120287
947.412797	0.119507
947.590149	0.118153
947.767484	0.118419
947.944800	0.117687
948.122099	0.117649
948.299379	0.116945
948.476640	0.117601
948.653884	0.118044
948.831109	0.117509
949.008316	0.117452
949.185505	0.116630
949.362676	0.116484
949.539828	0.115713
949.716962	0.114392
949.894078	0.114548
950.071176	0.114044
950.248256	0.112699
950.425317	0.112058
950.602360	0.111098
950.779385	0.110429
950.956391	0.110296
951.133380	0.110374
951.310350	0.109419
951.487302	0.109266
951.664235	0.108064
951.841151	0.107905
952.018048	0.107287
952.194927	0.105345
952.371788	0.105906
952.548631	0.104324
952.725455	0.102648
952.902261	0.102873
953.079049	0.101299
953.255819	0.101460
953.432570	0.100783
953.609303	0.100628
953.786018	0.099802
953.962715	0.098726
954.139394	0.098009
954.316054	0.097794
954.492696	0.097017
954.669320	0.096760
954.845926	0.094633
955.022513	0.094989
955.199083	0.093206
955.375634	0.094419
955.552166	0.093972
955.728681	0.095177
955.905177	0.095336
956.081655	0.095298
956.258115	0.095719
956.434557	0.096056
956.610980	0.094292
956.787385	0.095622
956.963772	0.093841
957.140141	0.094006
957.316492	0.091988
957.492824	0.092487
957.669138	0.090398
957.845434	0.088424
958.021712	0.089239
958.197971	0.088902
958.374212	0.088119
958.550435	0.089998
958.726640	0.088389
958.902826	0.088549
959.078995	0.086409
959.255145	0.087493
959.431277	0.088526
959.607390	0.088479
959.783486	0.088769
959.959563	0.089044
960.135622	0.088024
960.311662	0.089805
960.487685	0.089690
960.663689	0.088218
960.839675	0.088437
961.015643	0.086686
961.191593	0.087059
961.367524	0.086630
961.543437	0.087400
961.719332	0.086507
961.895209	0.086059
962.071067	0.085579
962.246907	0.088320
962.422730	0.085939
962.598533	0.085711
962.774319	0.084280
962.950086	0.083969
963.125835	0.083779
963.301566	0.086120
963.477279	0.085966
963.652973	0.086872
963.828650	0.085263
964.004308	0.086778
964.179947	0.086344
964.355569	0.086171
964.531172	0.086894
964.706757	0.085937
964.882324	0.082478
965.057873	0.082534
965.233403	0.080916
965.408916	0.080816
965.584410	0.078856
965.759885	0.080493
965.935343	0.080734
966.110782	0.079409
966.286203	0.080453
966.461606	0.081810
966.636991	0.081099
966.812357	0.080251
966.987705	0.081231
967.163035	0.080563
967.338347	0.079849
967.513641	0.080856
967.688916	0.080892
967.864173	0.077234
968.039412	0.077074
968.214632	0.079924
968.389835	0.082053
968.565019	0.081309
968.740185	0.082463
968.915333	0.081866
969.090462	0.079424
969.265573	0.079210
969.440667	0.080764
969.615741	0.081071
969.790798	0.079837
969.965836	0.077801
970.140856	0.076492
970.315858	0.075198
970.490842	0.076696
970.665808	0.078684
970.840755	0.079077
971.015684	0.080068
971.190595	0.079191
971.365487	0.077832
971.540362	0.080459
971.715218	0.081330
971.890056	0.082824
972.064875	0.081811
972.239677	0.079262
972.414460	0.079541
972.589225	0.079998
972.763972	0.080822
972.938700	0.080494
973.113411	0.079399
973.288103	0.079674
973.462777	0.081678
973.637432	0.081582
973.812070	0.082880
973.986689	0.084121
974.161290	0.082669
974.335873	0.081687
974.510437	0.081906
974.684984	0.081868
974.859512	0.082448
975.034022	0.082761
975.208513	0.083625
975.382987	0.084321
975.557442	0.083698
975.731879	0.084709
975.906298	0.084523
976.080698	0.085881
976.255080	0.085117
976.429445	0.084427
976.603790	0.082606
976.778118	0.082279
976.952427	0.082200
977.126719	0.082154
977.300992	0.082427
977.475246	0.082763
977.649483	0.081605
977.823701	0.080223
977.997901	0.081757
978.172083	0.082279
978.346247	0.082466
978.520392	0.081237
978.694519	0.081497
978.868628	0.081900
979.042719	0.083051
979.216791	0.083679
979.390845	0.086194
979.564882	0.084319
979.738899	0.085949
979.912899	0.085326
980.086880	0.086215
980.260843	0.086159
980.434788	0.085245
980.608715	0.084825
980.782623	0.084718
980.956514	0.084569
981.130386	0.086824
981.304240	0.085749
981.478075	0.086263
981.651892	0.085491
981.825692	0.085155
981.999472	0.083347
982.173235	0.084863
982.346980	0.084837
982.520706	0.083333
982.694414	0.081732
982.868104	0.080225
983.041775	0.080219
983.215428	0.080547
983.389064	0.080858
983.562680	0.082253
983.736279	0.078816
983.909860	0.079258
984.083422	0.079089
984.256966	0.078881
984.430491	0.078978
984.603999	0.079602
984.777488	0.079563
984.950959	0.078831
985.124412	0.079027
985.297847	0.080402
985.471263	0.079720
985.644661	0.081547
985.818041	0.081158
985.991403	0.083294
986.164747	0.082023
986.338072	0.082033
986.511379	0.082853
986.684668	0.084515
986.857938	0.085598
987.031191	0.085698
987.204425	0.085291
987.377641	0.085553
987.550839	0.083098
987.724018	0.084216
987.897179	0.084903
988.070322	0.084343
988.243447	0.083162
988.416554	0.082371
988.589642	0.083360
988.762712	0.083057
988.935764	0.084137
989.108798	0.084570
989.281813	0.084562
989.454811	0.083443
989.627790	0.084514
989.800751	0.084445
989.973693	0.084911
990.146617	0.083693
990.319524	0.083312
990.492412	0.082248
990.665281	0.082288
990.838133	0.081660
991.010966	0.081700
991.183781	0.082571
991.356578	0.082406
991.529356	0.083038
991.702117	0.083235
991.874859	0.081669
992.047583	0.082757
992.220288	0.083040
992.392976	0.082438
992.565645	0.083032
992.738296	0.081939
992.910929	0.081436
993.083543	0.081231
993.256139	0.081144
993.428718	0.081396
993.601277	0.082353
993.773819	0.083371
993.946342	0.083499
994.118848	0.083505
994.291335	0.084114
994.463803	0.085511
994.636254	0.086198
994.808686	0.084912
994.981100	0.086169
995.153496	0.085354
995.325874	0.085127
995.498233	0.085490
995.670574	0.086397
995.842897	0.083965
996.015202	0.082950
996.187488	0.083871
996.359757	0.084954
996.532007	0.084243
996.704239	0.083620
996.876452	0.082103
997.048648	0.084370
997.220825	0.083004
997.392984	0.084512
997.565124	0.084660
997.737247	0.083125
997.909351	0.083069
998.081437	0.084994
998.253505	0.085168
998.425554	0.085781
998.597586	0.083212
998.769599	0.084236
998.941594	0.085057
999.113571	0.084824
999.285529	0.084721
999.457469	0.084154
999.629391	0.082391
999.801295	0.081135
999.973181	0.081248
1000.145048	0.082071
1000.316897	0.080627
1000.488728	0.078246
1000.660541	0.078190
1000.832335	0.077371
1001.004111	0.078533
1001.175869	0.079842
1001.347609	0.079237
1001.519331	0.078174
1001.691034	0.078092
1001.862719	0.078027
1002.034386	0.080029
1002.206035	0.079717
1002.377665	0.080696
1002.549277	0.081162
1002.720871	0.082254
1002.892447	0.083261
1003.064004	0.086126
1003.235544	0.088269
1003.407065	0.088131
1003.578568	0.088571
1003.750052	0.090715
1003.921519	0.088958
1004.092967	0.088672
1004.264397	0.088027
1004.435809	0.088953
1004.607202	0.089326
1004.778577	0.087782
1004.949934	0.090285
1005.121273	0.090506
1005.292594	0.090729
1005.463896	0.092753
1005.635180	0.091901
1005.806446	0.092959
1005.977694	0.093656
1006.148923	0.092469
1006.320135	0.092923
1006.491328	0.091452
1006.662503	0.092252
1006.833659	0.091689
1007.004798	0.091790
1007.175918	0.093103
1007.347020	0.089649
1007.518103	0.088163
1007.689169	0.086860
1007.860216	0.084587
1008.031245	0.084705
1008.202256	0.082891
1008.373248	0.080871
1008.544223	0.080932
1008.715179	0.079265
1008.886117	0.080447
1009.057036	0.081796
1009.227938	0.081767
1009.398821	0.082803
1009.569686	0.083075
1009.740533	0.083036
1009.911361	0.084143
1010.082172	0.082774
1010.252964	0.084158
1010.423738	0.083883
1010.594493	0.082604
1010.765231	0.083804
1010.935950	0.085827
1011.106651	0.085609
1011.277334	0.085808
1011.447998	0.085785
1011.618645	0.085804
1011.789273	0.085798
1011.959882	0.086487
1012.130474	0.086134
1012.301048	0.086143
1012.471603	0.083496
1012.642140	0.082825
1012.812658	0.082705
1012.983159	0.082464
1013.153641	0.082674
1013.324105	0.082024
1013.494551	0.082841
1013.664979	0.083293
1013.835388	0.082205
1014.005779	0.082831
1014.176152	0.083131
1014.346507	0.084187
1014.516843	0.084302
1014.687162	0.084656
1014.857462	0.085529
1015.027744	0.085212
1015.198007	0.086558
1015.368252	0.087074
1015.538480	0.087297
1015.708689	0.088179
1015.878879	0.085964
1016.049052	0.086377
1016.219206	0.086763
1016.389342	0.086794
1016.559460	0.087373
1016.729559	0.087620
1016.899641	0.088270
1017.069704	0.088513
1017.239749	0.087024
1017.409775	0.087229
1017.579784	0.087143
1017.749774	0.086690
1017.919746	0.085211
1018.089700	0.083747
1018.259635	0.081407
1018.429553	0.080417
1018.599452	0.080916
1018.769333	0.081363
1018.939195	0.081375
1019.109040	0.080678
1019.278866	0.080314
1019.448674	0.080261
1019.618464	0.079799
1019.788235	0.080756
1019.957989	0.080745
1020.127724	0.079398
1020.297441	0.080240
1020.467139	0.081250
1020.636820	0.081098
1020.806482	0.080877
1020.976126	0.081382
1021.145752	0.082827
1021.315359	0.083665
1021.484948	0.084769
1021.654519	0.085145
1021.824072	0.083471
1021.993607	0.084345
1022.163123	0.084302
1022.332621	0.084534
1022.502101	0.083571
1022.671563	0.081542
1022.841007	0.079736
1023.010432	0.079241
1023.179839	0.079394
1023.349228	0.079954
1023.518598	0.079521
1023.687951	0.081124
1023.857285	0.081237
1024.026601	0.082502
1024.195899	0.083343
1024.365178	0.084785
1024.534439	0.084612
1024.703682	0.085377
1024.872907	0.086257
1025.042114	0.085362
1025.211302	0.085319
1025.380472	0.084541
1025.549624	0.082348
1025.718758	0.082439
1025.887873	0.081899
1026.056970	0.081939
1026.226049	0.081895
1026.395110	0.082514
1026.564153	0.082022
1026.733177	0.080358
1026.902183	0.079923
1027.071171	0.081922
1027.240141	0.081093
1027.409092	0.081720
1027.578026	0.080831
1027.746940	0.081449
1027.915837	0.080787
1028.084716	0.081654
1028.253576	0.081950
1028.422418	0.082069
1028.591242	0.081244
1028.760048	0.081718
1028.928835	0.082658
1029.097604	0.083816
1029.266355	0.081899
1029.435088	0.081787
1029.603803	0.082626
1029.772499	0.083021
1029.941177	0.083938
1030.109837	0.085032
1030.278478	0.085693
1030.447102	0.083940
1030.615707	0.084033
1030.784294	0.085105
1030.952863	0.085766
1031.121413	0.084564
1031.289945	0.083307
1031.458460	0.083571
1031.626955	0.082433
1031.795433	0.083815
1031.963892	0.085144
1032.132334	0.085639
1032.300756	0.084955
1032.469161	0.083213
1032.637548	0.083953
1032.805916	0.085677
1032.974266	0.085701
1033.142598	0.087098
1033.310911	0.085530
1033.479207	0.084634
1033.647484	0.082115
1033.815743	0.083512
1033.983983	0.084189
1034.152206	0.082898
1034.320410	0.082621
1034.488596	0.083299
1034.656764	0.082430
1034.824914	0.082061
1034.993045	0.082054
1035.161158	0.082297
1035.329253	0.080689
1035.497330	0.080626
1035.665388	0.080643
1035.833428	0.082426
1036.001450	0.081976
1036.169454	0.082977
1036.337440	0.085372
1036.505407	0.086714
1036.673356	0.087818
1036.841287	0.087676
1037.009200	0.088555
1037.177094	0.088768
1037.344970	0.086273
1037.512828	0.086000
1037.680668	0.084985
1037.848489	0.083194
1038.016293	0.080378
1038.184078	0.079481
1038.351845	0.080339
1038.519593	0.078810
1038.687324	0.077923
1038.855036	0.078069
1039.022730	0.077122
1039.190406	0.076685
1039.358063	0.076151
1039.525702	0.077850
1039.693323	0.079401
1039.860926	0.079716
1040.028511	0.082094
1040.196077	0.083976
1040.363625	0.083679
1040.531155	0.085931
1040.698667	0.086253
1040.866161	0.087971
1041.033636	0.088001
1041.201093	0.087055
1041.368532	0.084415
1041.535952	0.083812
1041.703355	0.082700
1041.870739	0.082372
1042.038105	0.080477
1042.205452	0.081191
1042.372782	0.080694
1042.540093	0.080619
1042.707386	0.081164
1042.874661	0.083202
1043.041918	0.082931
1043.209156	0.082948
1043.376376	0.083285
1043.543578	0.084061
1043.710762	0.084382
1043.877927	0.084166
1044.045074	0.083933
1044.212203	0.084264
1044.379314	0.085709
1044.546407	0.084969
1044.713481	0.086032
1044.880537	0.086740
1045.047575	0.086591
1045.214595	0.084966
1045.381596	0.083483
1045.548579	0.083205
1045.715544	0.082300
1045.882491	0.080208
1046.049420	0.080644
1046.216330	0.080144
1046.383222	0.080376
1046.550096	0.079081
1046.716951	0.080187
1046.883789	0.080642
1047.050608	0.080715
1047.217409	0.080943
1047.384192	0.082287
1047.550956	0.080686
1047.717703	0.081154
1047.884431	0.079619
1048.051140	0.082271
1048.217832	0.082188
1048.384505	0.081886
1048.551161	0.082641
1048.717798	0.081840
1048.884416	0.080594
1049.051017	0.081061
1049.217599	0.080676
1049.384163	0.081963
1049.550709	0.078433
1049.717237	0.078141
1049.883746	0.077746
1050.050237	0.075654
1050.216710	0.076920
1050.383165	0.078947
1050.549601	0.080875
1050.716019	0.082155
1050.882420	0.082421
1051.048801	0.084386
1051.215165	0.084055
1051.381510	0.085397
1051.547837	0.087733
1051.714146	0.087222
1051.880437	0.084567
1052.046709	0.083209
1052.212964	0.081414
1052.379200	0.081567
1052.545417	0.080978
1052.711617	0.082009
1052.877798	0.083722
1053.043961	0.084625
1053.210106	0.084439
1053.376233	0.086438
1053.542341	0.085590
1053.708432	0.084699
1053.874504	0.084339
1054.040557	0.083019
1054.206593	0.082426
1054.372610	0.080184
1054.538609	0.078732
1054.704590	0.079278
1054.870553	0.076923
1055.036497	0.077465
1055.202424	0.079437
1055.368331	0.078933
1055.534221	0.081924
1055.700093	0.080775
1055.865946	0.080949
1056.031781	0.079796
1056.197598	0.079713
1056.363397	0.081180
1056.529177	0.080756
1056.694939	0.078719
1056.860683	0.079315
1057.026409	0.078238
1057.192116	0.080039
1057.357806	0.082368
1057.523477	0.082721
1057.689130	0.083176
1057.854764	0.082001
1058.020381	0.083592
1058.185979	0.084160
1058.351559	0.083515
1058.517120	0.084447
1058.682664	0.083459
1058.848189	0.082292
1059.013696	0.082129
1059.179185	0.080865
1059.344656	0.083730
1059.510108	0.082833
1059.675542	0.081570
1059.840958	0.082704
1060.006356	0.080410
1060.171735	0.081199
1060.337096	0.079818
1060.502439	0.080298
1060.667764	0.081643
1060.833071	0.081576
1060.998359	0.080990
1061.163629	0.083171
1061.328881	0.083370
1061.494115	0.085017
1061.659330	0.084469
1061.824527	0.086772
1061.989706	0.086432
1062.154867	0.085118
1062.320010	0.083286
1062.485134	0.083982
1062.650240	0.082801
1062.815328	0.083128
1062.980398	0.082837
1063.145449	0.081868
1063.310482	0.081014
1063.475497	0.079813
1063.640494	0.079568
1063.805473	0.080237
1063.970433	0.081109
1064.135375	0.081306
1064.300299	0.079854
1064.465204	0.080447
1064.630092	0.081445
1064.794961	0.081497
1064.959812	0.082934
1065.124645	0.084013
1065.289459	0.082642
1065.454256	0.083267
1065.619034	0.084927
1065.783793	0.085614
1065.948535	0.086034
1066.113258	0.085652
1066.277964	0.088620
1066.442651	0.089017
1066.607319	0.090870
1066.771970	0.090561
1066.936602	0.090211
1067.101216	0.089901
1067.265812	0.089139
1067.430389	0.090302
1067.594949	0.090169
1067.759490	0.084731
1067.924013	0.084412
1068.088518	0.082921
1068.253004	0.084826
1068.417472	0.085145
1068.581922	0.084060
1068.746354	0.082362
1068.910768	0.080259
1069.075163	0.081832
1069.239540	0.083609
1069.403899	0.084296
1069.568240	0.083483
1069.732562	0.081071
1069.896866	0.080295
1070.061152	0.081346
1070.225420	0.083390
1070.389670	0.083124
1070.553901	0.081662
1070.718114	0.081397
1070.882309	0.081229
1071.046486	0.082758
1071.210644	0.085572
1071.374784	0.085348
1071.538906	0.086816
1071.703010	0.084527
1071.867096	0.086355
1072.031163	0.086854
1072.195212	0.088736
1072.359243	0.090078
1072.523256	0.090428
1072.687250	0.088349
1072.851226	0.088487
1073.015184	0.087947
1073.179124	0.091825
1073.343045	0.091298
1073.506949	0.091504
1073.670834	0.089022
1073.834701	0.086985
1073.998549	0.085568
1074.162380	0.086315
1074.326192	0.084547
1074.489986	0.082900
1074.653761	0.080767
1074.817519	0.079924
1074.981258	0.080714
1075.144979	0.081506
1075.308682	0.081014
1075.472367	0.080337
1075.636033	0.081635
1075.799681	0.083614
1075.963311	0.085031
1076.126923	0.086327
1076.290516	0.086496
1076.454092	0.084182
1076.617649	0.083322
1076.781187	0.086487
1076.944708	0.086606
1077.108210	0.084415
1077.271695	0.085133
1077.435160	0.085095
1077.598608	0.084241
1077.762038	0.084969
1077.925449	0.086497
1078.088842	0.087832
1078.252217	0.086145
1078.415573	0.088723
1078.578912	0.092586
1078.742232	0.092274
1078.905534	0.093607
1079.068817	0.092782
1079.232083	0.092767
1079.395330	0.091664
1079.558559	0.091541
1079.721770	0.091712
1079.884962	0.089675
1080.048136	0.087136
1080.211293	0.084686
1080.374430	0.082634
1080.537550	0.083233
1080.700651	0.082304
1080.863735	0.083108
1081.026800	0.084371
1081.189846	0.082578
1081.352875	0.082659
1081.515885	0.084549
1081.678877	0.086111
1081.841851	0.085809
1082.004807	0.087189
1082.167744	0.090288
1082.330663	0.089306
1082.493564	0.086216
1082.656447	0.087171
1082.819312	0.088232
1082.982158	0.087777
1083.144986	0.088356
1083.307796	0.088850
1083.470587	0.088583
1083.633361	0.084709
1083.796116	0.088727
1083.958853	0.091189
1084.121571	0.091257
1084.284272	0.088246
1084.446954	0.085016
1084.609618	0.085898
1084.772264	0.086846
1084.934892	0.085764
1085.097501	0.086758
1085.260092	0.084164
1085.422665	0.083334
1085.585220	0.085013
1085.747756	0.086801
1085.910274	0.090209
1086.072774	0.091664
1086.235256	0.088210
1086.397720	0.090394
1086.560165	0.089920
1086.722592	0.090895
1086.885001	0.092401
1087.047392	0.091765
1087.209764	0.091027
1087.372119	0.092652
1087.534455	0.088744
1087.696772	0.089701
1087.859072	0.087146
1088.021353	0.087029
1088.183616	0.087626
1088.345861	0.087559
1088.508088	0.086912
1088.670296	0.089460
1088.832486	0.088506
1088.994658	0.089007
1089.156812	0.091337
1089.318948	0.091994
1089.481065	0.094777
1089.643164	0.095081
1089.805245	0.094800
1089.967308	0.093661
1090.129352	0.092358
1090.291378	0.090533
1090.453386	0.092262
1090.615376	0.091895
1090.777347	0.094072
1090.939301	0.091512
1091.101236	0.091552
1091.263153	0.088394
1091.425051	0.090859
1091.586932	0.090967
1091.748794	0.091009
1091.910638	0.091128
1092.072463	0.090182
1092.234271	0.089681
1092.396060	0.091848
1092.557831	0.088798
1092.719584	0.091075
1092.881319	0.091683
1093.043035	0.093012
1093.204733	0.092088
1093.366413	0.092672
1093.528075	0.096964
1093.689718	0.097245
1093.851343	0.096687
1094.012950	0.099549
1094.174539	0.099658
1094.336110	0.097648
1094.497662	0.095575
1094.659196	0.096542
1094.820712	0.094184
1094.982210	0.092191
1095.143689	0.091746
1095.305151	0.089113
1095.466594	0.088097
1095.628018	0.086451
1095.789425	0.085717
1095.950813	0.087549
1096.112183	0.088266
1096.273535	0.089398
1096.434869	0.087157
1096.596184	0.085480
1096.757482	0.087645
1096.918761	0.088866
1097.080021	0.090642
1097.241264	0.091752
1097.402488	0.091297
1097.563694	0.091794
1097.724882	0.091107
1097.886052	0.087862
1098.047203	0.089707
1098.208336	0.085839
1098.369451	0.084884
1098.530548	0.086256
1098.691627	0.084612
1098.852687	0.087663
1099.013729	0.086726
1099.174753	0.087581
1099.335758	0.092450
1099.496746	0.091435
1099.657715	0.095038
1099.818666	0.093410
1099.979599	0.092486
1100.140513	0.094022
1100.301409	0.092782
1100.462287	0.093118
1100.623147	0.093154
1100.783989	0.093257
1100.944812	0.094746
1101.105617	0.093779
1101.266404	0.093883
1101.427173	0.093624
1101.587923	0.091655
1101.748656	0.089287
1101.909370	0.089285
1102.070066	0.092609
1102.230743	0.091491
1102.391403	0.089738
1102.552044	0.087702
1102.712667	0.087732
1102.873271	0.088642
1103.033858	0.089477
1103.194426	0.090350
1103.354976	0.087076
1103.515508	0.084799
1103.676021	0.088143
1103.836517	0.090298
1103.996994	0.092375
1104.157453	0.092941
1104.317893	0.091196
1104.478316	0.092639
1104.638720	0.094540
1104.799106	0.095853
1104.959474	0.094288
1105.119823	0.092353
1105.280155	0.090122
1105.440468	0.091838
1105.600763	0.091239
1105.761039	0.093467
1105.921298	0.093783
1106.081538	0.091308
1106.241760	0.092354
1106.401964	0.093550
1106.562149	0.094682
1106.722316	0.094508
1106.882465	0.093582
1107.042596	0.097179
1107.202709	0.095812
1107.362803	0.096695
1107.522879	0.097909
1107.682937	0.096943
1107.842977	0.097264
1108.002999	0.095571
1108.163002	0.096431
1108.322987	0.097010
1108.482954	0.096606
1108.642902	0.097664
1108.802833	0.096198
1108.962745	0.096066
1109.122639	0.096971
1109.282515	0.096060
1109.442372	0.096885
1109.602211	0.097758
1109.762032	0.096126
1109.921835	0.094468
1110.081620	0.094272
1110.241386	0.094345
1110.401134	0.094027
1110.560864	0.095448
1110.720576	0.100237
1110.880269	0.097204
1111.039945	0.101014
1111.199602	0.102986
1111.359240	0.102553
1111.518861	0.097715
1111.678463	0.096499
1111.838047	0.095035
1111.997613	0.095321
1112.157161	0.089832
1112.316690	0.092980
1112.476202	0.091228
1112.635695	0.089445
1112.795169	0.093462
1112.954626	0.097725
1113.114064	0.101935
1113.273484	0.099938
1113.432886	0.099258
1113.592270	0.100380
1113.751635	0.101030
1113.910983	0.101385
1114.070312	0.105639
1114.229622	0.102633
1114.388915	0.099256
1114.548189	0.097096
1114.707445	0.099712
1114.866683	0.101406
1115.025903	0.099907
1115.185104	0.092193
1115.344287	0.090786
1115.503452	0.089777
1115.662599	0.091647
1115.821727	0.093829
1115.980838	0.093797
1116.139930	0.095462
1116.299004	0.096690
1116.458059	0.103019
1116.617097	0.109382
1116.776116	0.108240
1116.935117	0.109102
1117.094099	0.104505
1117.253064	0.107638
1117.412010	0.108855
1117.570938	0.110136
1117.729848	0.107090
1117.888740	0.099335
1118.047613	0.100996
1118.206468	0.094881
1118.365305	0.090393
1118.524124	0.088132
1118.682924	0.088214
1118.841707	0.088304
1119.000471	0.086415
1119.159216	0.088119
1119.317944	0.086910
1119.476653	0.087216
1119.635344	0.093577
1119.794017	0.096108
1119.952672	0.101891
1120.111308	0.102481
1120.269927	0.100731
1120.428527	0.098809
1120.587108	0.098210
1120.745672	0.100216
1120.904217	0.099873
1121.062744	0.100039
1121.221253	0.099821
1121.379744	0.097340
1121.538216	0.096700
1121.696671	0.093534
1121.855107	0.095308
1122.013524	0.094072
1122.171924	0.095780
1122.330305	0.092019
1122.488668	0.092530
1122.647013	0.092834
1122.805340	0.099216
1122.963648	0.103002
1123.121938	0.109438
1123.280210	0.106418
1123.438464	0.110615
1123.596700	0.109158
1123.754917	0.107265
1123.913116	0.109098
1124.071297	0.111178
1124.229459	0.106743
1124.387604	0.104091
1124.545730	0.103548
1124.703838	0.105351
1124.861928	0.097743
1125.019999	0.096543
1125.178052	0.101309
1125.336088	0.097453
1125.494104	0.096206
1125.652103	0.090809
1125.810083	0.091149
1125.968045	0.088365
1126.125989	0.092300
1126.283915	0.097174
1126.441823	0.100761
1126.599712	0.100564
1126.757583	0.098119
1126.915436	0.102712
1127.073270	0.106930
1127.231087	0.103822
1127.388885	0.101617
1127.546665	0.095673
1127.704426	0.093364
1127.862170	0.094680
1128.019895	0.092062
1128.177602	0.094743
1128.335291	0.091217
1128.492961	0.089104
1128.650614	0.086840
1128.808248	0.088316
1128.965864	0.087118
1129.123461	0.088562
1129.281041	0.084965
1129.438602	0.092000
1129.596145	0.091993
1129.753670	0.091543
1129.911176	0.095965
1130.068665	0.096435
1130.226135	0.100190
1130.383587	0.107493
1130.541020	0.108437
1130.698436	0.117492
1130.855833	0.108964
1131.013212	0.104794
1131.170573	0.104487
1131.327915	0.103676
1131.485239	0.101153
1131.642545	0.094707
1131.799833	0.091400
1131.957103	0.093796
1132.114354	0.087479
1132.271588	0.088419
1132.428803	0.092847
1132.585999	0.089278
1132.743178	0.087430
1132.900338	0.087921
1133.057480	0.089169
1133.214604	0.089215
1133.371710	0.085205
1133.528797	0.084725
1133.685866	0.084845
1133.842917	0.086256
1133.999950	0.085377
1134.156964	0.087574
1134.313960	0.091617
1134.470938	0.096283
1134.627898	0.097000
1134.784840	0.102615
1134.941763	0.102119
1135.098668	0.105335
1135.255555	0.105810
1135.412424	0.107749
1135.569274	0.103376
1135.726107	0.105069
1135.882921	0.103455
1136.039716	0.102875
1136.196494	0.097690
1136.353253	0.097314
1136.509995	0.094643
1136.666717	0.093539
1136.823422	0.094296
1136.980109	0.094929
1137.136777	0.093185
1137.293427	0.090098
1137.450059	0.088595
1137.606672	0.088921
1137.763267	0.090475
1137.919844	0.092109
1138.076403	0.090566
1138.232944	0.094821
1138.389466	0.100483
1138.545971	0.096554
1138.702457	0.103385
1138.858924	0.107935
1139.015374	0.105785
1139.171805	0.103277
1139.328218	0.097298
1139.484613	0.101410
1139.640990	0.088876
1139.797348	0.089822
1139.953688	0.094588
1140.110010	0.092171
1140.266314	0.096929
1140.422600	0.099839
1140.578867	0.103144
1140.735116	0.107396
1140.891347	0.102871
1141.047559	0.112431
1141.203754	0.108586
1141.359930	0.112977
1141.516088	0.112306
1141.672228	0.109368
1141.828349	0.108827
1141.984452	0.103872
1142.140537	0.108857
1142.296604	0.109737
1142.452653	0.108396
1142.608683	0.109550
1142.764695	0.103772
1142.920689	0.103958
1143.076665	0.099910
1143.232622	0.099053
1143.388562	0.106597
1143.544483	0.106549
1143.700385	0.111664
1143.856270	0.109679
1144.012136	0.106734
1144.167985	0.108323
1144.323814	0.106036
1144.479626	0.102400
1144.635420	0.098174
1144.791195	0.090534
1144.946952	0.093438
1145.102691	0.086864
1145.258411	0.092639
1145.414113	0.094406
1145.569798	0.091489
1145.725463	0.095847
1145.881111	0.090540
1146.036741	0.096650
1146.192352	0.100488
1146.347945	0.097900
1146.503519	0.100798
1146.659076	0.097374
1146.814614	0.093168
1146.970134	0.090735
1147.125636	0.084793
1147.281120	0.095099
1147.436585	0.094260
1147.592032	0.090075
1147.747461	0.087924
1147.902872	0.091320
1148.058265	0.095980
1148.213639	0.102968
1148.368995	0.107251
1148.524333	0.111138
1148.679653	0.104661
1148.834954	0.101337
1148.990237	0.102329
1149.145502	0.096030
1149.300749	0.091496
1149.455977	0.091565
1149.611188	0.087320
1149.766380	0.094920
1149.921553	0.096912
1150.076709	0.105018
1150.231846	0.103649
1150.386966	0.108366
1150.542066	0.118546
1150.697149	0.116695
1150.852214	0.111184
1151.007260	0.112521
1151.162288	0.100653
1151.317298	0.092934
1151.472289	0.089865
1151.627263	0.091048
1151.782218	0.095742
1151.937155	0.089459
1152.092073	0.087393
1152.246974	0.094457
1152.401856	0.095567
1152.556720	0.095455
1152.711566	0.095236
1152.866393	0.098036
1153.021203	0.097736
1153.175994	0.088734
1153.330767	0.090592
1153.485521	0.091947
1153.640258	0.091992
1153.794976	0.094035
1153.949676	0.097049
1154.104358	0.097223
1154.259021	0.093649
1154.413667	0.097962
1154.568294	0.101783
1154.722903	0.105231
1154.877493	0.100727
1155.032066	0.096090
1155.186620	0.096369
1155.341156	0.092716
1155.495674	0.092828
1155.650173	0.092312
1155.804654	0.089758
1155.959118	0.087954
1156.113562	0.084813
1156.267989	0.094521
1156.422397	0.098688
1156.576788	0.088492
1156.731160	0.091951
1156.885513	0.090269
1157.039849	0.091107
1157.194166	0.093116
1157.348465	0.098320
1157.502746	0.096800
1157.657009	0.094366
1157.811253	0.089742
1157.965479	0.093017
1158.119687	0.098934
1158.273877	0.107185
1158.428048	0.100098
1158.582201	0.096124
1158.736337	0.089275
1158.890453	0.092303
1159.044552	0.094074
1159.198632	0.086732
1159.352694	0.092100
1159.506738	0.085885
1159.660764	0.079065
1159.814771	0.073762
1159.968761	0.078129
1160.122732	0.079819
1160.276685	0.082962
1160.430619	0.081238
1160.584535	0.075279
1160.738434	0.070489
1160.892313	0.065497
1161.046175	0.071219
1161.200019	0.087968
1161.353844	0.084937
1161.507651	0.085319
1161.661440	0.082985
1161.815210	0.078681
1161.968962	0.094600
1162.122697	0.094541
1162.276412	0.100210
1162.430110	0.092348
1162.583789	0.084639
1162.737451	0.085047
1162.891094	0.090026
1163.044718	0.093599
1163.198325	0.097745
1163.351913	0.092789
1163.505483	0.098042
1163.659035	0.092242
1163.812569	0.106484
1163.966084	0.112057
1164.119581	0.112691
1164.273060	0.116568
1164.426521	0.103576
1164.579964	0.102458
1164.733388	0.101241
1164.886794	0.098588
1165.040182	0.102725
1165.193551	0.092761
1165.346903	0.095801
1165.500236	0.093131
1165.653551	0.086707
1165.806848	0.087439
1165.960126	0.079512
1166.113386	0.081149
1166.266628	0.090869
1166.419852	0.091353
1166.573058	0.094950
1166.726245	0.080952
1166.879414	0.083122
1167.032565	0.080147
1167.185698	0.085737
1167.338812	0.091709
1167.491909	0.094213
1167.644987	0.076728
1167.798046	0.082638
1167.951088	0.080292
1168.104111	0.080323
1168.257117	0.080586
1168.410103	0.087770
1168.563072	0.084660
1168.716023	0.091044
1168.868955	0.084158
1169.021869	0.086635
1169.174765	0.085657
1169.327642	0.086144
1169.480501	0.091099
1169.633343	0.090359
1169.786165	0.082265
1169.938970	0.092329
1170.091757	0.083364
1170.244525	0.087903
1170.397275	0.099251
1170.550007	0.093152
1170.702720	0.101567
1170.855415	0.110408
1171.008092	0.095288
1171.160751	0.078576
1171.313392	0.054795
1171.466014	0.144116
1171.618619	-0.035638
1171.771205	-0.035638
1171.923772	-0.035638
