sample name	sample
index	328
start time	 02-25-2021  03:41:10 PM
880	0.464851
Peak Time (s)	92.034
Peak Height 	0.4649
calc peak height	90,93
Baseline Time (s)	11.535
Baseline Value 	-0.00206
subtract baseline	10,4
Abs	0.311884
Peak Time (s)	91.037
Peak Height 	0.3119
calc peak height	90,93
Baseline Time (s)	11.035
Baseline Value 	0.004624
subtract baseline	10,3
PK_550	0.156190
Peak Time (s)	90.041
Peak Height 	0.1562
calc peak height	90,93
Baseline Time (s)	11.535
Baseline Value 	1.5518E-4
subtract baseline	10,2
PK_880	0.306576
Peak Time (s)	91.535
Peak Height 	0.3066
calc peak height	90,93
Baseline Time (s)	11.035
Baseline Value 	0.001558
subtract baseline	10,1


Time (s)	A880-A510	A880-A775	A880-A975	A880	I510	I775	I975	I880	
0.037000	-0.001228	0.000270	-0.001534	0.001815	6838.600573	44944.467508	4017.425083	23822.727017
0.535000	-0.002299	-0.000472	-0.005205	0.004398	6806.290460	44624.597937	4002.242659	23699.104419
1.038000	-0.003878	-0.000271	-0.007266	0.003170	6803.199467	44761.825577	4000.235567	23757.795123
1.535500	-0.000754	-0.000197	-0.002084	0.000742	6852.372833	45003.124778	4018.705564	23874.330364
2.035500	-0.001536	-0.000638	0.002243	0.000270	6849.606701	45006.057745	4030.518358	23897.020631
2.535500	-0.002317	-0.000769	-0.008935	0.001158	6834.772258	44907.654567	4001.062483	23854.299162
3.036000	0.000471	-0.000205	-0.002266	-0.001861	6886.646143	45254.764311	4024.650425	23999.959428
3.536500	0.000527	-0.000193	-0.006819	-0.000376	6873.819264	45111.727114	4009.886950	23928.198178
4.069500	-0.002149	-0.000573	-0.005428	-0.000228	6848.583749	45060.520130	4012.909309	23921.024524
4.536500	0.000219	0.000289	-0.007121	0.000987	6858.862930	45026.346435	4005.852111	23862.506752
5.041500	-0.000791	-0.000080	-0.005006	-0.000038	6858.996827	45089.916771	4013.475212	23911.890871
5.537000	-0.001995	0.000689	-0.003118	0.000729	6841.443535	45090.052654	4016.207553	23874.924122
6.035000	-0.000654	0.000237	-0.005803	0.000310	6857.114711	45086.832410	4010.687493	23895.096613
6.534500	0.001026	0.000178	-0.003825	0.000082	6874.171892	45103.233010	4016.060823	23906.073516
7.035500	-0.000607	-0.000641	-0.009479	-0.000286	6862.850291	45059.518536	4003.230282	23923.817179
7.535500	-0.000253	0.000325	-0.004974	0.000662	6857.553062	45061.411329	4011.850318	23878.181946
8.036500	-0.000973	0.000384	-0.000070	0.000335	6854.048324	45098.715436	4024.647723	23893.905302
8.537000	0.000385	0.000834	0.002076	0.000465	6865.007365	45129.717905	4029.623983	23887.632859
9.037000	-0.000829	-0.000916	-0.006094	-0.001138	6868.492044	45115.432775	4013.503683	23964.957703
9.537000	-0.000143	0.000368	-0.004630	-0.000193	6866.171626	45148.326095	4014.768173	23919.332307
10.037000	-0.000004	-0.000547	0.000080	-0.000209	6867.557829	45061.151556	4026.357291	23920.103632
10.537500	0.000228	-0.000296	-0.001709	0.000296	6865.121894	45036.626801	4020.717165	23895.775475
11.035000	0.000000	0.000609	0.000000	0.000387	6862.268556	45115.512573	4024.693408	23891.403855
11.535000	0.000586	0.000000	0.000997	0.000000	6870.969977	45093.981723	4028.105177	23910.048972
12.036000	-0.002319	-0.000515	-0.006571	-0.000728	6851.529332	45114.650213	4011.346402	23945.192925
12.536000	-0.000582	0.000086	-0.003365	0.000134	6859.326332	45089.359632	4017.058361	23903.594692
13.041500	-0.000678	0.000135	-0.004102	-0.000012	6859.777283	45108.322354	4015.616260	23910.649504
13.536000	-0.000229	0.000300	-0.000355	0.000301	6860.993324	45093.941586	4024.032245	23895.553571
14.035500	-0.002860	-0.000307	-0.009015	0.001786	6824.400535	44891.608882	3999.359301	23824.142850
14.539000	-0.001886	-0.000433	-0.004659	0.001878	6832.214086	44870.590147	4009.660502	23819.730354
15.042500	0.000277	-0.000296	-0.002656	-0.000290	6870.798876	45093.408947	4019.831947	23924.017453
15.534500	0.000866	0.000890	-0.003520	0.000464	6869.325565	45135.224256	4015.872986	23887.675240
16.038500	0.000055	-0.000708	-0.000769	-0.000774	6873.142220	45100.341882	4025.657810	23947.370131
16.535500	-0.000172	0.000225	-0.005251	0.000389	6860.718119	45078.089886	4011.840179	23891.317015
17.036000	0.001657	0.000454	-0.000864	-0.003286	6910.187096	45458.004767	4031.630919	24069.023739
17.536000	-0.002133	-0.001004	-0.001336	-0.000089	6847.485448	45005.421065	4022.577440	23914.327313
18.036500	-0.002377	-0.000315	-0.001244	0.000457	6840.465644	45019.224112	4021.464432	23888.049025
18.543500	-0.002355	0.000379	-0.000931	0.000826	6837.380777	45050.678214	4021.324759	23870.260965
19.036500	-0.000375	0.000033	-0.005621	0.001220	6851.483382	44979.090822	4008.920672	23851.303522
19.537000	-0.002458	-0.000246	-0.004792	0.000577	6838.682443	45014.303484	4012.496764	23882.254384
20.037000	-0.000863	0.000002	-0.002472	0.000819	6850.716217	45014.884921	4017.567751	23870.613602
20.535000	-0.000546	0.000782	-0.005067	0.001505	6847.425911	45023.949604	4009.573125	23837.614251
21.040500	-0.001592	0.000074	-0.007379	0.000280	6849.024917	45074.006146	4006.939573	23896.560158
21.536000	-0.000801	0.000677	-0.005139	0.001385	6846.224693	45025.401531	4009.690558	23843.373850
22.036000	-0.000424	-0.000052	-0.005703	0.000883	6854.058996	45003.473523	4009.540368	23867.525853
22.536500	-0.001371	0.000466	0.000037	0.001180	6842.978755	45024.838807	4022.833202	23853.226487
23.036000	-0.000955	0.000031	0.001212	0.000574	6852.072282	45041.369010	4027.219288	23882.391701
23.537000	-0.000857	0.000353	-0.004728	0.001038	6848.819328	45027.655941	4011.531984	23860.063664
24.037000	-0.002664	-0.000405	-0.001062	0.000571	6836.904183	44999.498879	4021.630407	23882.531638
24.534500	-0.003244	-0.000131	-0.009564	0.000763	6830.058297	45007.453788	4000.498835	23873.304828
25.037500	-0.002372	-0.000057	-0.007460	0.000852	6836.999097	45006.016290	4005.359160	23869.031061
25.535000	-0.002346	-0.000089	-0.005932	0.000653	6838.994655	45022.119964	4009.542468	23878.586083
26.035500	-0.001931	0.000465	-0.002542	0.000913	6840.369149	45050.592831	4017.164811	23866.073381
26.536000	-0.000699	-0.000933	-0.003507	0.000485	6855.151071	44956.772101	4015.855635	23886.689863
27.036000	0.002211	0.001105	-0.004757	-0.001039	6894.900714	45302.304088	4016.522961	23960.196809
27.536500	-0.000689	-0.000209	-0.003420	-0.001008	6868.583895	45171.498497	4019.719782	23958.717414
28.037000	-0.000326	0.000092	-0.002581	-0.000112	6863.813904	45113.684490	4019.577631	23915.428172
28.537000	0.000490	0.000370	0.000484	-0.000163	6871.572167	45145.687417	4027.243181	23917.925555
29.037000	-0.000634	0.000476	-0.004613	0.000051	6859.606330	45135.250202	4014.215421	23907.602364
29.535000	-0.000305	0.000200	-0.003227	-0.000095	6863.847008	45122.590657	4017.955216	23914.614581
30.037500	-0.003783	-0.000107	-0.004730	0.002584	6809.192712	44833.912924	4007.773701	23785.837582
30.535000	-0.001776	0.000228	-0.001695	0.002700	6825.899142	44855.035189	4014.870422	23780.287765
31.035500	-0.001873	-0.000841	-0.004815	0.001287	6837.567344	44888.290420	4010.714691	23848.103545
31.535500	0.000068	0.000638	0.000836	0.000243	6864.163518	45132.345927	4027.108621	23898.357324
32.036500	0.000062	-0.000384	-0.002769	0.002844	6840.928502	44782.265751	4011.902458	23773.396383
32.536000	-0.001916	0.000491	0.000959	0.000998	6839.756138	45044.875011	4025.551274	23862.017943
33.037000	0.002680	0.000057	0.000214	-0.000108	6890.746945	45109.956490	4026.441518	23915.266880
33.537000	0.000766	0.000915	0.001659	-0.001215	6883.482618	45300.861444	4032.751896	23968.681171
34.037500	-0.000028	0.000726	-0.001821	0.003319	6835.916410	44843.490855	4013.055747	23750.687879
34.547000	-0.001107	0.000254	-0.002459	0.001344	6843.868552	44988.519540	4016.315449	23845.368945
35.035500	-0.002795	-0.000338	0.000155	0.001457	6827.878050	44920.307758	4022.442432	23839.910665
35.535000	-0.001213	0.000462	-0.001466	0.001956	6837.486808	44949.404195	4017.247695	23815.975449
36.036000	-0.002029	0.000180	-0.002051	0.002676	6823.874038	44852.762669	4014.062305	23781.458653
36.536000	-0.002106	-0.000194	-0.001516	0.001381	6834.666771	44941.583760	4018.530655	23843.574216
37.036500	-0.002032	-0.000177	-0.005297	0.001321	6835.855094	44949.048694	4009.462906	23846.485238
37.536500	-0.000305	0.000690	-0.005772	0.002104	6844.244995	44957.189585	4006.415827	23808.894227
38.036500	-0.002494	-0.001035	-0.003706	0.002098	6824.879599	44791.452914	4011.440165	23809.163392
38.537500	-0.000687	0.000354	-0.002636	0.001892	6842.729144	44945.206454	4014.548180	23819.052880
39.034500	-0.003779	0.000008	-0.004063	0.001886	6815.394659	44912.383135	4011.087644	23819.345020
39.550500	-0.002170	0.000510	-0.000509	0.002121	6827.543505	44938.111030	4019.186413	23808.057746
40.035000	-0.000195	0.000140	-0.002680	0.001580	6849.886897	44954.668992	4015.200703	23834.030712
40.535000	-0.001985	-0.000229	-0.003260	0.001533	6834.393987	44923.549701	4013.900461	23836.273526
41.035000	-0.001277	-0.000041	-0.005989	0.001438	6841.516067	44950.813806	4007.499537	23840.824363
41.536000	-0.001504	0.000103	-0.004029	0.001612	6837.957028	44947.990721	4011.834085	23832.474284
42.036500	-0.000902	-0.000763	-0.003362	0.001377	6845.393099	44887.039087	4014.031044	23843.761735
42.537000	-0.000200	0.000840	-0.003150	0.002096	6845.251692	44972.495261	4012.797437	23809.270418
43.037000	-0.001831	-0.000660	-0.000320	0.001183	6838.863031	44915.698631	4021.947692	23853.085497
43.537000	-0.000501	0.000706	-0.000287	0.001719	6845.923153	44995.929358	4020.714531	23827.347493
44.035000	0.000292	-0.000170	-0.000271	-0.000719	6874.784853	45147.236171	4026.752261	23944.742855
44.535000	0.002037	0.000378	0.000586	0.000961	6875.360314	45037.538947	4024.723464	23863.778922
45.035500	-0.000900	-0.000689	-0.002313	-0.000684	6863.795820	45093.525879	4021.640994	23943.049286
45.535500	-0.002608	-0.000343	-0.006476	-0.000528	6847.168888	45111.919376	4011.089228	23935.524981
46.036000	-0.004402	0.000052	-0.003895	0.004974	6782.772382	44619.631624	4004.013543	23671.642191
46.536000	-0.001313	0.000334	-0.002320	0.000573	6848.896405	45070.804323	4018.541999	23882.443469
47.039000	0.002073	0.000717	-0.000929	0.000270	6881.891715	45137.370780	4022.696456	23897.041237
47.537000	-0.003425	-0.000524	-0.006263	0.001738	6819.826696	44875.314155	4006.111471	23826.429251
48.037000	-0.004621	0.000151	-0.002541	0.005236	6778.564116	44603.971691	4006.651674	23659.148957
48.534500	-0.001241	0.000792	-0.001355	0.001981	6837.015501	44978.931501	4017.457841	23814.769246
49.038000	0.000755	0.000293	-0.003612	-0.000091	6873.302945	45131.221285	4017.004861	23914.431812
49.535000	0.001250	0.000614	-0.001918	-0.001751	6892.662215	45323.832777	4025.235040	23994.628087
50.035500	-0.005230	0.000281	-0.006982	0.004486	6779.791224	44688.348853	3997.756579	23694.899299
50.536000	-0.000462	0.000522	-0.008301	0.004146	6824.727915	44744.165185	3995.408603	23711.129421
51.036000	-0.012735	-0.012307	-0.000198	0.042170	6404.458535	40132.122609	3926.176491	21972.887045
51.536500	-0.026340	-0.027720	0.011597	-0.009828	6720.822336	43395.163947	4079.764234	24389.186988
52.037000	-0.021988	-0.018919	0.007016	-0.035228	6985.964740	46704.642208	4134.975937	25678.956027
52.537000	-0.005336	-0.010624	0.012949	-0.022455	7021.890811	46256.304002	4116.542761	25020.920605
53.034500	-0.003369	-0.016035	0.010968	-0.080629	7621.990256	51843.619086	4276.927739	28180.875367
53.534500	-0.001802	-0.016135	0.005885	-0.104537	7902.320078	54595.723226	4335.464592	29607.325868
54.034500	0.007711	-0.009307	0.007941	-0.103299	7996.977729	55264.002435	4338.065144	29531.498983
54.535000	0.031974	-0.006244	0.026989	-0.105824	8316.085774	55940.780362	4408.480755	29686.373402
55.035500	0.046342	0.001447	0.046181	-0.066062	8013.110725	52172.488794	4341.265649	27349.459237
55.535500	0.063846	0.011380	0.062615	-0.018146	7672.821672	48054.974321	4244.360698	24803.269242
56.036500	0.082016	0.021372	0.081903	0.041284	7247.643562	43207.734158	4130.569332	22011.658055
56.536500	0.113642	0.033466	0.118640	0.089565	7087.144999	39993.720120	4099.745444	20008.791039
57.037000	0.135768	0.048991	0.142617	0.146614	6769.924950	36620.859189	4015.842639	17912.015945
57.537000	0.160288	0.065925	0.173044	0.200080	6525.664780	33908.819564	3961.055892	16181.860562
58.037000	0.182242	0.080189	0.190365	0.234499	6425.386029	32507.351018	3922.235863	15175.612092
58.535000	0.205511	0.098696	0.204576	0.264854	6369.654678	31713.384310	3886.957585	14351.997435
59.035000	0.215289	0.104029	0.220494	0.309671	6107.037490	29218.417906	3826.992248	13236.544735
59.535500	0.226162	0.113660	0.224859	0.328357	6051.308512	28677.480768	3798.720456	12804.399757
60.035500	0.236083	0.119510	0.239350	0.342183	6023.836128	28210.350257	3800.015448	12496.435434
60.536000	0.241796	0.127532	0.253640	0.334998	6115.541871	29108.570223	3842.826437	12655.261962
61.037000	0.253968	0.135110	0.258959	0.365917	5983.136706	27742.656730	3792.030583	11990.067710
61.536500	0.261547	0.139873	0.266725	0.393127	5850.480052	26496.529791	3755.402624	11442.602209
62.037000	0.271095	0.148451	0.272955	0.419796	5739.584609	25538.025633	3718.627023	10938.297746
62.537000	0.274655	0.149172	0.271371	0.402633	5874.375214	26485.320177	3746.500764	11259.285209
63.036500	0.275607	0.151008	0.282765	0.406822	5852.894692	26358.449258	3759.733643	11179.774558
63.541000	0.281046	0.153360	0.278184	0.409915	5868.443236	26318.616611	3745.645533	11121.536086
64.041000	0.281289	0.154047	0.285789	0.413073	5849.130954	26186.321978	3753.778780	11062.516453
64.539000	0.282348	0.155812	0.286012	0.416031	5836.622463	26122.726355	3748.767060	11007.624631
65.038500	0.285407	0.156632	0.285805	0.419001	5837.205681	26008.622099	3742.985988	10952.885768
65.539000	0.289337	0.158131	0.286541	0.421206	5848.575356	25971.236619	3740.327046	10912.494434
66.036000	0.282373	0.157625	0.284509	0.427384	5763.112865	25620.456829	3725.627433	10800.372232
66.550500	0.286953	0.157943	0.294753	0.421891	5828.385383	25925.095834	3754.047832	10899.979930
67.039000	0.287562	0.159817	0.293271	0.424876	5812.852551	25866.571738	3745.876111	10845.703770
67.536500	0.290798	0.160483	0.288982	0.426457	5823.665937	25818.467644	3735.264837	10817.103259
68.042500	0.287572	0.157954	0.289301	0.429331	5784.020397	25536.372912	3730.690468	10765.373875
68.540000	0.291439	0.161096	0.295826	0.430082	5804.197376	25660.771120	3741.064621	10751.914328
69.038000	0.288474	0.160367	0.295868	0.430172	5784.414281	25618.099439	3740.979499	10750.307929
69.535000	0.289712	0.160630	0.290568	0.431137	5786.176137	25581.539569	3729.728166	10733.046613
70.038500	0.287443	0.159639	0.294710	0.437237	5732.647218	25215.907035	3726.245321	10624.851559
70.535500	0.292147	0.160122	0.292505	0.433279	5788.069420	25444.228780	3729.363923	10694.885818
71.036500	0.291086	0.160916	0.294855	0.435610	5766.239728	25364.968995	3729.397283	10653.563518
71.540500	0.293287	0.160695	0.293285	0.436842	5772.457732	25290.262800	3724.419973	10631.816247
72.037500	0.291753	0.159719	0.293781	0.440826	5737.218290	25037.143397	3718.268650	10561.890579
72.537500	0.293096	0.160616	0.294422	0.438827	5758.507602	25184.545769	3722.918450	10596.888698
73.037500	0.291497	0.160435	0.290917	0.439847	5741.809917	25123.313688	3714.964535	10579.014821
73.535500	0.293262	0.159617	0.299302	0.440243	5750.532386	25061.599817	3729.066176	10572.096785
74.036000	0.291085	0.158029	0.295946	0.445886	5701.114200	24697.395095	3713.200882	10474.024465
74.536500	0.297244	0.160883	0.298149	0.443954	5752.254715	24937.799086	3720.451321	10507.456404
75.036500	0.295093	0.160352	0.299399	0.443341	5742.461367	24941.927559	3723.739203	10518.095771
75.536000	0.292865	0.159695	0.288202	0.444445	5721.362377	24853.122269	3702.284115	10498.941812
76.037000	0.295134	0.158577	0.294757	0.447187	5718.377958	24659.820356	3708.870534	10451.597582
76.537000	0.297485	0.160064	0.301412	0.446904	5735.025247	24748.230921	3721.001594	10456.455933
77.037000	0.293872	0.159158	0.298388	0.447172	5710.534861	24689.537672	3715.221038	10451.851762
77.535000	0.295710	0.158579	0.299596	0.447979	5717.018979	24620.469042	3715.923308	10437.974697
78.034500	0.292201	0.156586	0.296733	0.452024	5669.852238	24322.052280	3703.923348	10368.793163
78.537000	0.294415	0.157450	0.301548	0.449233	5701.006589	24502.135257	3717.145038	10416.446381
79.035500	0.295232	0.157532	0.295626	0.449674	5703.361989	24484.386698	3706.066291	10408.894550
79.536500	0.295123	0.157061	0.305435	0.450174	5699.551115	24436.456410	3722.330841	10400.352645
80.036500	0.294233	0.158033	0.299681	0.456576	5654.295739	24170.137773	3701.163516	10291.701266
80.539000	0.297686	0.157593	0.304850	0.452356	5701.936851	24355.142184	3717.459017	10363.135090
81.037500	0.296363	0.158130	0.302222	0.453157	5688.667816	24342.216603	3711.467644	10349.528955
81.537500	0.300362	0.158290	0.306683	0.453984	5708.505063	24309.419651	3717.819422	10335.490239
82.034500	0.298795	0.158302	0.307670	0.454600	5694.834139	24279.839959	3718.472031	10325.066788
82.537500	0.297785	0.157389	0.301771	0.454126	5691.485333	24258.344559	3708.999310	10333.086134
83.038000	0.300503	0.156823	0.303330	0.454283	5707.515955	24223.028113	3711.436092	10330.436754
83.535500	0.301107	0.157118	0.299169	0.455049	5706.496609	24199.996319	3702.907116	10317.466016
84.035500	0.300067	0.156740	0.302320	0.455699	5695.920186	24149.902624	3707.225431	10306.495130
84.535500	0.300859	0.156506	0.303259	0.457546	5689.330087	24048.817499	3705.654485	10275.379669
85.036000	0.299222	0.155339	0.298727	0.455470	5692.072800	24092.933379	3701.424976	10310.360009
85.536500	0.300931	0.157093	0.300042	0.457055	5692.842435	24101.095767	3700.959533	10283.630244
86.036500	0.301444	0.155589	0.301906	0.457416	5693.795425	24010.692872	3703.544990	10277.561657
86.537000	0.302586	0.156472	0.302773	0.458370	5694.965368	24007.245465	3703.394197	10261.530275
87.037500	0.300636	0.155494	0.305003	0.458468	5682.200694	23955.254564	3707.074794	10259.887122
87.537500	0.302771	0.156090	0.305333	0.458846	5693.148026	23965.805708	3706.992374	10253.549736
88.034500	0.303152	0.157054	0.303764	0.460437	5685.604887	23935.604478	3701.544732	10226.950399
88.536500	0.302194	0.154806	0.308353	0.459651	5684.532971	23865.221929	3710.836071	10240.077373
89.035500	0.303600	0.155873	0.311423	0.460662	5686.993265	23867.918671	3714.425091	10223.185146
89.536000	0.303835	0.154482	0.310739	0.459988	5692.663082	23833.485458	3714.407205	10234.439602
90.041000	0.302086	0.156190	0.306023	0.464756	5652.282839	23687.271102	3698.014257	10155.190264
90.537000	0.305575	0.154741	0.311853	0.461675	5692.990660	23765.119831	3713.407120	10206.297609
91.037000	0.306512	0.155199	0.311884	0.462528	5693.517651	23746.243261	3711.973660	10192.107285
91.534500	0.306576	0.155223	0.308647	0.463426	5688.313014	23704.547173	3704.804814	10177.201492
92.034000	0.304255	0.153547	0.305885	0.464851	5665.069895	23557.297091	3697.616585	10153.622640
92.535500	0.306431	0.154126	0.311318	0.463544	5686.674482	23646.744627	3709.223141	10175.252841
93.060000	0.305882	0.154379	0.316721	0.464767	5675.660547	23600.646798	3716.513017	10155.000667
93.535500	0.308353	0.155401	0.310388	0.466503	5680.222034	23566.820200	3702.503350	10126.360899
94.174000	0.303172	0.153115	0.308992	0.469560	5629.515079	23315.426140	3694.882418	10076.203409
94.536500	0.307728	0.154902	0.311486	0.467346	5671.113833	23503.404919	3702.941371	10112.491143
95.041500	0.307820	0.153652	0.308940	0.466400	5677.552248	23489.083241	3700.194605	10128.061357
95.536500	0.306143	0.151029	0.310103	0.465170	5674.780138	23423.458776	3704.309316	10148.350589
96.040500	0.306124	0.152465	0.312402	0.467920	5657.664161	23361.765084	3703.532217	10103.073561
96.536500	0.307056	0.151447	0.317591	0.466544	5671.920772	23378.546894	3714.925546	10125.685198
