sample name	sample
index	991
start time	 04-14-2021  04:14:36 PM


Wavelength (nm)	Absorbance
494.344910	NaN
494.563924	NaN
494.782919	NaN
495.001897	NaN
495.220856	0.276750
495.439797	0.047097
495.658719	-0.155589
495.877624	-0.196862
496.096510	-0.330577
496.315378	-0.349908
496.534227	-0.355842
496.753059	-0.295609
496.971872	-0.232874
497.190667	0.064968
497.409444	0.071162
497.628203	0.072692
497.846943	0.070666
498.065665	0.069651
498.284369	0.069233
498.503055	0.068180
498.721723	0.068457
498.940372	0.069435
499.159003	0.068527
499.377616	0.069139
499.596210	0.069398
499.814787	0.070006
500.033345	0.070457
500.251885	0.072018
500.470406	0.072755
500.688910	0.072266
500.907395	0.071471
501.125862	0.071740
501.344311	0.071115
501.562742	0.070962
501.781154	0.070521
501.999548	0.070492
502.217924	0.068831
502.436282	0.069627
502.654621	0.069759
502.872942	0.070238
503.091245	0.071025
503.309530	0.072058
503.527797	0.072627
503.746045	0.072414
503.964275	0.071956
504.182487	0.073092
504.400681	0.072201
504.618856	0.072810
504.837013	0.072893
505.055152	0.072987
505.273273	0.072482
505.491376	0.072024
505.709460	0.072036
505.927526	0.073093
506.145574	0.072288
506.363604	0.072554
506.581615	0.071537
506.799608	0.071727
507.017583	0.070414
507.235540	0.070133
507.453478	0.070177
507.671399	0.070913
507.889301	0.070568
508.107185	0.070797
508.325050	0.071105
508.542898	0.071134
508.760727	0.070999
508.978538	0.072186
509.196330	0.072555
509.414105	0.073156
509.631861	0.073536
509.849599	0.073911
510.067319	0.073881
510.285021	0.075160
510.502704	0.076628
510.720369	0.077154
510.938016	0.077242
511.155645	0.077400
511.373255	0.077498
511.590848	0.077159
511.808422	0.077464
512.025977	0.077903
512.243515	0.076822
512.461034	0.075781
512.678536	0.074610
512.896018	0.074395
513.113483	0.074727
513.330930	0.074132
513.548358	0.074706
513.765768	0.074637
513.983160	0.074777
514.200533	0.075415
514.417889	0.075504
514.635226	0.076357
514.852545	0.076269
515.069845	0.076089
515.287128	0.076721
515.504392	0.076533
515.721638	0.076125
515.938866	0.077396
516.156075	0.077971
516.373267	0.078881
516.590440	0.079651
516.807594	0.079382
517.024731	0.079166
517.241850	0.079683
517.458950	0.079815
517.676032	0.080952
517.893095	0.079704
518.110141	0.078869
518.327168	0.078471
518.544177	0.078946
518.761168	0.079028
518.978141	0.079214
519.195095	0.079537
519.412031	0.079538
519.628949	0.078840
519.845849	0.079496
520.062731	0.080352
520.279594	0.080495
520.496439	0.080466
520.713266	0.081237
520.930074	0.081550
521.146865	0.080769
521.363637	0.081150
521.580391	0.081957
521.797127	0.081759
522.013844	0.081169
522.230543	0.081303
522.447224	0.080678
522.663887	0.080919
522.880532	0.081211
523.097158	0.081193
523.313766	0.080540
523.530356	0.079505
523.746928	0.079886
523.963481	0.080281
524.180017	0.081035
524.396534	0.082331
524.613032	0.082092
524.829513	0.082045
525.045975	0.082550
525.262420	0.083140
525.478845	0.083166
525.695253	0.082854
525.911643	0.082840
526.128014	0.082627
526.344367	0.081840
526.560702	0.082179
526.777018	0.082985
526.993316	0.082863
527.209597	0.082402
527.425858	0.082969
527.642102	0.083221
527.858328	0.083565
528.074535	0.083026
528.290724	0.083352
528.506894	0.082948
528.723047	0.082006
528.939181	0.082057
529.155297	0.083398
529.371395	0.083569
529.587475	0.083910
529.803536	0.083660
530.019579	0.083977
530.235604	0.083895
530.451611	0.085181
530.667600	0.085949
530.883570	0.086410
531.099522	0.085850
531.315456	0.085970
531.531372	0.086213
531.747269	0.086222
531.963148	0.086642
532.179009	0.086996
532.394852	0.086810
532.610676	0.087123
532.826482	0.087289
533.042271	0.087865
533.258040	0.088940
533.473792	0.088866
533.689525	0.089883
533.905240	0.089563
534.120937	0.089496
534.336616	0.089778
534.552277	0.089509
534.767919	0.090032
534.983543	0.090342
535.199149	0.090074
535.414736	0.090082
535.630306	0.089665
535.845857	0.090623
536.061390	0.091017
536.276904	0.090739
536.492401	0.090804
536.707879	0.090584
536.923339	0.090451
537.138781	0.089983
537.354204	0.090351
537.569610	0.090787
537.784997	0.090454
538.000366	0.090071
538.215716	0.089873
538.431049	0.090678
538.646363	0.091131
538.861659	0.090944
539.076937	0.091281
539.292196	0.091766
539.507438	0.091541
539.722661	0.091540
539.937866	0.092244
540.153052	0.092719
540.368221	0.092700
540.583371	0.092138
540.798503	0.092741
541.013617	0.093329
541.228712	0.093148
541.443789	0.093749
541.658848	0.094467
541.873889	0.094588
542.088912	0.095012
542.303916	0.095048
542.518902	0.095605
542.733870	0.095769
542.948820	0.095788
543.163752	0.095104
543.378665	0.094500
543.593560	0.094465
543.808437	0.094611
544.023295	0.094896
544.238136	0.094392
544.452958	0.094365
544.667762	0.093748
544.882548	0.093502
545.097315	0.094831
545.312064	0.094952
545.526795	0.095149
545.741508	0.094822
545.956203	0.094616
546.170879	0.095206
546.385537	0.095396
546.600177	0.095889
546.814799	0.096003
547.029402	0.095488
547.243988	0.095945
547.458555	0.096177
547.673103	0.096352
547.887634	0.096688
548.102146	0.096759
548.316640	0.097263
548.531116	0.097457
548.745574	0.097791
548.960013	0.098497
549.174435	0.098921
549.388838	0.098870
549.603222	0.098789
549.817589	0.098958
550.031937	0.099477
550.246267	0.099426
550.460579	0.099553
550.674873	0.099469
550.889148	0.098990
551.103405	0.099112
551.317644	0.099124
551.531865	0.099728
551.746068	0.099624
551.960252	0.099653
552.174418	0.099527
552.388566	0.099812
552.602696	0.100100
552.816807	0.100449
553.030900	0.099895
553.244975	0.099946
553.459032	0.099907
553.673070	0.099921
553.887091	0.099298
554.101093	0.099599
554.315077	0.099406
554.529042	0.099961
554.742990	0.100219
554.956919	0.100731
555.170830	0.100832
555.384722	0.100950
555.598597	0.101032
555.812453	0.101588
556.026291	0.101680
556.240111	0.101953
556.453913	0.101810
556.667696	0.101583
556.881461	0.101644
557.095208	0.101899
557.308937	0.102349
557.522647	0.102275
557.736339	0.102752
557.950013	0.102988
558.163669	0.102871
558.377307	0.102698
558.590926	0.103332
558.804527	0.103764
559.018110	0.103699
559.231675	0.103793
559.445221	0.103900
559.658749	0.103379
559.872259	0.103121
560.085751	0.103625
560.299225	0.104015
560.512680	0.103867
560.726117	0.103945
560.939536	0.104137
561.152937	0.103869
561.366319	0.103792
561.579683	0.104131
561.793029	0.104189
562.006357	0.104044
562.219667	0.104023
562.432958	0.104242
562.646231	0.104407
562.859486	0.104908
563.072723	0.105541
563.285941	0.105845
563.499141	0.106197
563.712323	0.106429
563.925487	0.106471
564.138632	0.106528
564.351760	0.106381
564.564869	0.106285
564.777960	0.106412
564.991032	0.106372
565.204087	0.106922
565.417123	0.106837
565.630141	0.107073
565.843140	0.106812
566.056122	0.106867
566.269085	0.107011
566.482030	0.106869
566.694957	0.106687
566.907866	0.106540
567.120756	0.106399
567.333628	0.106304
567.546482	0.106183
567.759318	0.106708
567.972135	0.107094
568.184935	0.107330
568.397716	0.107701
568.610478	0.107783
568.823223	0.107729
569.035949	0.108147
569.248657	0.108485
569.461347	0.108606
569.674019	0.108814
569.886672	0.108823
570.099308	0.108949
570.311925	0.108842
570.524523	0.108797
570.737104	0.108763
570.949666	0.108765
571.162210	0.109224
571.374736	0.109507
571.587244	0.109392
571.799733	0.109444
572.012205	0.109521
572.224658	0.109724
572.437092	0.109779
572.649509	0.109880
572.861907	0.109850
573.074287	0.109604
573.286649	0.109583
573.498993	0.109784
573.711318	0.109538
573.923625	0.109573
574.135914	0.109608
574.348185	0.110065
574.560438	0.110074
574.772672	0.110169
574.984888	0.110102
575.197086	0.110075
575.409266	0.110243
575.621427	0.110590
575.833570	0.110596
576.045695	0.110920
576.257802	0.110511
576.469890	0.110544
576.681961	0.110269
576.894013	0.110266
577.106046	0.110442
577.318062	0.110687
577.530059	0.110803
577.742039	0.111055
577.954000	0.110841
578.165942	0.111210
578.377867	0.111785
578.589773	0.112130
578.801661	0.112151
579.013531	0.112488
579.225382	0.112199
579.437216	0.112382
579.649031	0.112349
579.860828	0.112890
580.072606	0.112715
580.284367	0.112592
580.496109	0.112925
580.707833	0.113414
580.919539	0.113458
581.131227	0.113822
581.342896	0.114061
581.554547	0.114399
581.766180	0.114166
581.977795	0.114374
582.189391	0.114545
582.400969	0.114355
582.612529	0.114458
582.824071	0.114530
583.035595	0.114391
583.247100	0.114489
583.458587	0.114546
583.670056	0.114681
583.881506	0.114875
584.092939	0.115117
584.304353	0.115135
584.515749	0.115022
584.727127	0.114945
584.938486	0.115038
585.149828	0.114645
585.361151	0.114481
585.572456	0.114549
585.783742	0.114699
585.995011	0.114493
586.206261	0.114666
586.417493	0.114733
586.628706	0.114880
586.839902	0.115203
587.051079	0.115489
587.262238	0.115678
587.473379	0.115954
587.684502	0.116218
587.895606	0.116403
588.106692	0.116660
588.317760	0.116507
588.528810	0.116529
588.739841	0.116838
588.950855	0.117006
589.161850	0.116869
589.372827	0.116703
589.583785	0.116666
589.794726	0.116722
590.005648	0.116515
590.216552	0.116846
590.427437	0.117071
590.638305	0.116693
590.849154	0.116819
591.059985	0.116928
591.270798	0.117060
591.481592	0.117204
591.692369	0.117880
591.903127	0.118061
592.113867	0.117997
592.324588	0.118140
592.535292	0.118385
592.745977	0.118473
592.956644	0.118551
593.167293	0.118745
593.377923	0.118602
593.588536	0.118309
593.799130	0.118653
594.009706	0.118566
594.220263	0.118397
594.430803	0.118363
594.641324	0.118502
594.851827	0.119132
595.062312	0.119076
595.272778	0.119294
595.483227	0.119330
595.693657	0.119125
595.904069	0.119715
596.114462	0.119804
596.324838	0.120143
596.535195	0.119788
596.745534	0.119236
596.955855	0.119254
597.166157	0.119297
597.376441	0.119271
597.586707	0.119517
597.796955	0.119189
598.007185	0.119227
598.217396	0.118925
598.427589	0.119197
598.637764	0.119465
598.847921	0.119502
599.058060	0.119915
599.268180	0.120110
599.478282	0.120194
599.688366	0.120718
599.898431	0.121118
600.108479	0.121437
600.318508	0.121696
600.528519	0.121622
600.738511	0.121968
600.948486	0.121831
601.158442	0.121899
601.368380	0.121890
601.578300	0.121545
601.788202	0.121524
601.998085	0.121689
602.207950	0.121644
602.417797	0.121916
602.627626	0.121795
602.837436	0.121757
603.047228	0.121913
603.257002	0.122088
603.466758	0.122553
603.676496	0.122594
603.886215	0.122877
604.095916	0.123110
604.305599	0.123289
604.515264	0.123786
604.724910	0.123533
604.934538	0.123431
605.144148	0.123332
605.353740	0.123011
605.563314	0.123130
605.772869	0.122814
605.982406	0.122548
606.191925	0.122606
606.401425	0.122369
606.610908	0.122513
606.820372	0.122764
607.029818	0.122898
607.239246	0.123473
607.448655	0.123489
607.658047	0.123666
607.867420	0.123808
608.076775	0.123750
608.286111	0.123801
608.495430	0.124239
608.704730	0.124407
608.914012	0.124491
609.123275	0.124298
609.332521	0.124441
609.541748	0.124365
609.750957	0.124707
609.960148	0.124794
610.169321	0.124987
610.378475	0.125238
610.587611	0.125363
610.796729	0.125473
611.005829	0.125599
611.214910	0.126002
611.423974	0.126274
611.633019	0.126327
611.842045	0.126462
612.051054	0.126538
612.260044	0.126500
612.469017	0.126320
612.677970	0.126526
612.886906	0.126588
613.095824	0.126260
613.304723	0.126264
613.513604	0.126209
613.722467	0.126315
613.931311	0.126131
614.140138	0.126089
614.348946	0.126241
614.557736	0.125975
614.766507	0.126265
614.975261	0.126299
615.183996	0.126345
615.392713	0.126585
615.601412	0.126515
615.810092	0.126570
616.018754	0.126412
616.227399	0.126756
616.436024	0.126967
616.644632	0.127021
616.853222	0.127165
617.061793	0.127201
617.270346	0.127151
617.478880	0.127437
617.687397	0.127484
617.895895	0.127718
618.104375	0.127441
618.312837	0.127661
618.521281	0.127259
618.729706	0.127557
618.938113	0.127614
619.146502	0.128028
619.354873	0.127806
619.563226	0.128173
619.771560	0.128166
619.979876	0.128456
620.188174	0.128457
620.396453	0.128826
620.604715	0.128796
620.812958	0.128959
621.021183	0.128785
621.229390	0.129024
621.437578	0.129214
621.645748	0.129526
621.853900	0.129601
622.062034	0.129873
622.270150	0.130021
622.478247	0.129885
622.686326	0.130001
622.894387	0.130167
623.102430	0.130191
623.310454	0.130148
623.518461	0.129910
623.726449	0.129956
623.934418	0.129600
624.142370	0.129345
624.350303	0.129343
624.558218	0.129408
624.766115	0.129281
624.973994	0.129496
625.181855	0.129446
625.389697	0.129459
625.597521	0.129358
625.805327	0.129725
626.013114	0.129983
626.220883	0.130100
626.428634	0.130177
626.636367	0.130396
626.844082	0.130388
627.051778	0.130481
627.259457	0.130587
627.467117	0.130606
627.674758	0.130863
627.882382	0.130962
628.089987	0.131158
628.297574	0.131384
628.505143	0.131356
628.712694	0.131422
628.920226	0.131622
629.127740	0.131818
629.335236	0.132364
629.542714	0.132132
629.750174	0.132427
629.957615	0.132688
630.165038	0.132645
630.372443	0.132901
630.579829	0.132771
630.787198	0.132791
630.994548	0.133009
631.201880	0.132894
631.409194	0.133095
631.616489	0.133257
631.823766	0.132989
632.031025	0.133012
632.238266	0.132981
632.445489	0.133363
632.652693	0.133423
632.859879	0.133380
633.067047	0.133170
633.274197	0.133091
633.481329	0.132952
633.688442	0.133030
633.895537	0.132984
634.102614	0.133299
634.309672	0.133126
634.516713	0.133023
634.723735	0.133352
634.930739	0.133565
635.137724	0.133691
635.344692	0.133651
635.551641	0.133860
635.758572	0.134024
635.965485	0.133703
636.172379	0.133772
636.379256	0.134163
636.586114	0.134040
636.792954	0.134291
636.999775	0.134398
637.206579	0.134567
637.413364	0.134749
637.620131	0.134945
637.826880	0.135304
638.033610	0.135616
638.240323	0.135713
638.447017	0.135831
638.653692	0.135840
638.860350	0.135970
639.066990	0.135932
639.273611	0.136121
639.480214	0.136276
639.686798	0.136380
639.893365	0.136560
640.099913	0.136387
640.306443	0.136517
640.512955	0.136400
640.719449	0.136657
640.925924	0.137132
641.132381	0.137201
641.338820	0.137454
641.545241	0.137344
641.751644	0.137328
641.958028	0.137486
642.164394	0.137557
642.370742	0.137810
642.577071	0.137617
642.783383	0.137418
642.989676	0.137259
643.195951	0.137155
643.402207	0.137251
643.608446	0.137322
643.814666	0.137436
644.020868	0.137518
644.227052	0.137603
644.433218	0.137748
644.639365	0.137829
644.845494	0.138163
645.051605	0.138376
645.257698	0.138338
645.463772	0.138417
645.669828	0.138550
645.875866	0.138872
646.081886	0.138842
646.287888	0.139002
646.493871	0.139237
646.699836	0.139276
646.905783	0.139204
647.111712	0.139528
647.317622	0.139691
647.523514	0.139780
647.729388	0.139706
647.935244	0.139667
648.141082	0.139751
648.346901	0.139839
648.552702	0.139886
648.758485	0.140136
648.964250	0.140404
649.169996	0.140471
649.375724	0.140687
649.581434	0.140791
649.787126	0.140945
649.992800	0.141085
650.198455	0.140997
650.404092	0.141032
650.609711	0.140875
650.815311	0.140853
651.020894	0.140963
651.226458	0.141059
651.432004	0.141152
651.637532	0.141395
651.843041	0.141540
652.048532	0.141788
652.254006	0.142008
652.459460	0.142222
652.664897	0.142245
652.870315	0.142161
653.075716	0.142273
653.281097	0.142360
653.486461	0.142404
653.691807	0.142458
653.897134	0.142456
654.102443	0.142478
654.307734	0.142342
654.513006	0.142443
654.718261	0.142548
654.923497	0.142574
655.128715	0.142769
655.333915	0.142989
655.539096	0.142923
655.744259	0.143012
655.949404	0.143091
656.154531	0.143422
656.359640	0.143561
656.564730	0.143724
656.769802	0.143648
656.974856	0.143547
657.179892	0.143504
657.384909	0.143589
657.589908	0.143869
657.794889	0.143882
657.999852	0.143968
658.204797	0.143916
658.409723	0.144203
658.614631	0.144380
658.819521	0.144664
659.024393	0.144714
659.229246	0.144839
659.434081	0.144598
659.638898	0.144860
659.843697	0.145019
660.048478	0.145195
660.253240	0.145203
660.457984	0.145161
660.662710	0.145144
660.867417	0.145330
661.072107	0.145444
661.276778	0.145902
661.481431	0.145842
661.686066	0.145747
661.890682	0.145860
662.095281	0.145916
662.299861	0.146084
662.504422	0.146171
662.708966	0.146357
662.913491	0.146582
663.117999	0.146665
663.322488	0.147017
663.526958	0.147248
663.731411	0.147416
663.935845	0.147553
664.140261	0.147769
664.344659	0.147923
664.549038	0.147974
664.753400	0.148325
664.957743	0.148416
665.162068	0.148587
665.366375	0.148714
665.570663	0.148721
665.774933	0.148866
665.979185	0.148985
666.183419	0.149167
666.387635	0.149279
666.591832	0.149115
666.796011	0.149128
667.000172	0.149145
667.204315	0.149242
667.408439	0.149410
667.612545	0.149707
667.816634	0.150203
668.020703	0.150312
668.224755	0.150552
668.428788	0.150729
668.632803	0.151114
668.836800	0.151311
669.040779	0.151580
669.244739	0.151768
669.448681	0.151602
669.652605	0.151338
669.856511	0.151486
670.060399	0.151330
670.264268	0.151381
670.468119	0.151308
670.671952	0.151278
670.875767	0.151354
671.079563	0.151457
671.283341	0.151599
671.487101	0.151610
671.690843	0.151737
671.894567	0.152027
672.098272	0.152205
672.301959	0.152316
672.505628	0.152337
672.709278	0.152540
672.912911	0.152870
673.116525	0.153117
673.320121	0.153392
673.523699	0.153514
673.727258	0.153735
673.930799	0.153790
674.134322	0.153875
674.337827	0.154173
674.541314	0.154157
674.744782	0.153863
674.948232	0.154087
675.151664	0.154222
675.355078	0.154285
675.558474	0.154103
675.761851	0.154230
675.965210	0.154092
676.168551	0.154159
676.371873	0.154154
676.575178	0.154509
676.778464	0.154410
676.981732	0.154569
677.184981	0.154573
677.388213	0.154852
677.591426	0.154963
677.794621	0.155185
677.997798	0.155262
678.200956	0.155285
678.404097	0.155270
678.607219	0.155289
678.810323	0.155298
679.013408	0.155231
679.216476	0.155368
679.419525	0.155378
679.622556	0.155593
679.825569	0.155527
680.028563	0.155574
680.231540	0.155539
680.434498	0.155531
680.637438	0.155614
680.840359	0.155848
681.043263	0.155936
681.246148	0.156321
681.449015	0.156627
681.651864	0.156818
681.854694	0.157218
682.057506	0.157297
682.260301	0.157528
682.463076	0.157747
682.665834	0.157949
682.868573	0.158156
683.071295	0.158165
683.273998	0.158287
683.476682	0.158330
683.679349	0.158386
683.881997	0.158736
684.084627	0.158739
684.287239	0.158620
684.489833	0.158749
684.692408	0.158722
684.894965	0.158872
685.097504	0.158724
685.300025	0.159121
685.502527	0.159073
685.705012	0.159040
685.907478	0.159169
686.109925	0.159290
686.312355	0.159222
686.514766	0.159568
686.717159	0.159815
686.919534	0.159789
687.121891	0.159733
687.324230	0.159869
687.526550	0.159994
687.728852	0.160261
687.931136	0.160292
688.133401	0.160627
688.335649	0.160523
688.537878	0.160218
688.740089	0.160576
688.942281	0.160640
689.144456	0.161027
689.346612	0.161106
689.548750	0.161270
689.750870	0.161561
689.952971	0.161632
690.155055	0.161767
690.357120	0.162003
690.559167	0.162009
690.761195	0.162142
690.963206	0.161917
691.165198	0.162029
691.367172	0.162198
691.569128	0.162171
691.771065	0.162327
691.972984	0.162313
692.174885	0.162223
692.376768	0.162323
692.578633	0.162296
692.780479	0.162336
692.982308	0.162338
693.184118	0.162115
693.385909	0.162282
693.587683	0.162167
693.789438	0.162219
693.991175	0.162303
694.192894	0.162289
694.394595	0.162322
694.596277	0.162380
694.797941	0.162690
694.999587	0.162614
695.201215	0.162491
695.402824	0.162331
695.604416	0.162503
695.805989	0.162621
696.007543	0.162724
696.209080	0.162729
696.410598	0.162930
696.612099	0.162743
696.813580	0.163136
697.015044	0.163283
697.216490	0.163606
697.417917	0.163678
697.619326	0.163803
697.820717	0.163832
698.022089	0.163872
698.223444	0.164084
698.424780	0.164316
698.626098	0.164226
698.827397	0.164359
699.028679	0.164343
699.229942	0.164240
699.431187	0.164390
699.632414	0.164425
699.833622	0.164685
700.034813	0.164848
700.235985	0.164763
700.437139	0.164953
700.638274	0.165056
700.839392	0.165302
701.040491	0.165533
701.241572	0.165640
701.442635	0.165695
701.643679	0.165703
701.844706	0.165442
702.045714	0.165201
702.246704	0.165151
702.447675	0.165248
702.648629	0.165070
702.849564	0.165178
703.050481	0.165286
703.251380	0.165412
703.452260	0.165345
703.653122	0.165574
703.853966	0.165867
704.054792	0.165831
704.255600	0.165782
704.456389	0.165861
704.657160	0.165622
704.857913	0.165337
705.058648	0.165281
705.259365	0.165523
705.460063	0.165077
705.660743	0.165164
705.861405	0.165449
706.062048	0.165361
706.262674	0.165380
706.463281	0.165534
706.663870	0.165777
706.864441	0.165915
707.064993	0.165850
707.265527	0.166007
707.466043	0.166160
707.666541	0.165925
707.867021	0.166123
708.067482	0.166001
708.267925	0.166127
708.468350	0.165974
708.668757	0.166001
708.869145	0.165942
709.069516	0.166179
709.269868	0.166140
709.470201	0.166478
709.670517	0.166542
709.870814	0.166894
710.071093	0.166702
710.271354	0.166882
710.471597	0.166812
710.671821	0.166869
710.872028	0.166867
711.072216	0.166835
711.272385	0.166650
711.472537	0.166302
711.672670	0.165974
711.872785	0.166331
712.072882	0.166236
712.272961	0.166198
712.473021	0.166178
712.673063	0.166127
712.873087	0.166064
713.073093	0.166100
713.273081	0.166396
713.473050	0.166527
713.673001	0.166272
713.872934	0.166433
714.072849	0.166601
714.272745	0.166617
714.472623	0.166496
714.672483	0.166435
714.872325	0.166372
715.072148	0.166028
715.271954	0.165891
715.471741	0.165875
715.671509	0.165642
715.871260	0.165407
716.070992	0.165384
716.270707	0.165578
716.470403	0.165498
716.670080	0.165270
716.869740	0.165477
717.069381	0.165739
717.269004	0.165737
717.468609	0.165517
717.668195	0.165577
717.867764	0.165470
718.067314	0.165324
718.266846	0.165441
718.466360	0.165469
718.665855	0.165431
718.865332	0.165208
719.064791	0.165059
719.264232	0.165204
719.463655	0.165040
719.663059	0.165062
719.862445	0.165041
720.061813	0.164765
720.261163	0.164791
720.460494	0.164514
720.659807	0.164408
720.859102	0.164594
721.058379	0.164637
721.257638	0.164651
721.456878	0.164514
721.656100	0.164387
721.855304	0.164408
722.054490	0.164151
722.253657	0.164212
722.452806	0.164029
722.651937	0.163860
722.851050	0.163812
723.050145	0.163624
723.249221	0.163837
723.448279	0.163755
723.647319	0.163748
723.846340	0.164033
724.045344	0.164056
724.244329	0.164173
724.443296	0.164105
724.642245	0.164035
724.841175	0.164057
725.040088	0.163868
725.238982	0.163902
725.437857	0.163898
725.636715	0.163809
725.835554	0.163821
726.034376	0.163855
726.233179	0.163734
726.431963	0.163683
726.630730	0.163595
726.829478	0.163526
727.028208	0.163473
727.226920	0.163613
727.425614	0.163505
727.624289	0.163348
727.822946	0.163233
728.021585	0.163058
728.220206	0.162944
728.418808	0.162888
728.617392	0.162920
728.815958	0.162591
729.014506	0.162425
729.213036	0.162222
729.411547	0.162343
729.610040	0.162265
729.808515	0.162396
730.006972	0.162464
730.205410	0.162327
730.403831	0.162126
730.602233	0.162246
730.800616	0.162206
730.998982	0.162136
731.197329	0.161819
731.395658	0.161710
731.593969	0.161643
731.792262	0.161238
731.990536	0.161280
732.188793	0.161294
732.387031	0.161066
732.585250	0.160855
732.783452	0.160724
732.981635	0.160438
733.179800	0.160289
733.377947	0.160017
733.576076	0.160031
733.774186	0.159719
733.972278	0.159257
734.170352	0.159226
734.368408	0.158965
734.566446	0.158960
734.764465	0.159016
734.962466	0.158798
735.160449	0.158532
735.358413	0.158443
735.556360	0.158650
735.754288	0.158617
735.952198	0.158446
736.150090	0.158328
736.347963	0.158209
736.545818	0.158258
736.743655	0.158360
736.941474	0.158525
737.139275	0.158303
737.337057	0.157989
737.534821	0.158123
737.732567	0.158216
737.930295	0.158351
738.128005	0.158262
738.325696	0.158089
738.523369	0.157905
738.721024	0.157856
738.918660	0.157912
739.116279	0.158008
739.313879	0.157788
739.511461	0.157476
739.709024	0.157343
739.906570	0.157090
740.104097	0.156831
740.301606	0.156767
740.499097	0.156489
740.696569	0.156286
740.894024	0.155938
741.091460	0.155815
741.288878	0.155789
741.486277	0.155492
741.683659	0.155784
741.881022	0.155561
742.078367	0.155429
742.275694	0.155334
742.473002	0.155104
742.670293	0.155109
742.867565	0.155023
743.064819	0.155185
743.262054	0.155262
743.459272	0.154922
743.656471	0.154853
743.853652	0.154618
744.050815	0.154531
744.247959	0.154743
744.445085	0.154523
744.642194	0.154488
744.839283	0.154158
745.036355	0.154075
745.233408	0.154050
745.430444	0.154386
745.627461	0.154434
745.824459	0.154187
746.021440	0.153937
746.218402	0.153762
746.415346	0.153507
746.612272	0.153165
746.809180	0.152769
747.006069	0.152580
747.202940	0.152195
747.399793	0.151763
747.596628	0.151777
747.793444	0.151613
747.990243	0.151688
748.187023	0.151724
748.383784	0.151771
748.580528	0.151838
748.777253	0.151866
748.973960	0.151721
749.170649	0.151832
749.367320	0.151888
749.563973	0.151671
749.760607	0.151471
749.957223	0.151562
750.153821	0.151550
750.350400	0.151519
750.546962	0.151328
750.743505	0.151431
750.940030	0.151506
751.136536	0.151043
751.333025	0.151115
751.529495	0.151227
751.725947	0.151058
751.922381	0.151120
752.118796	0.150967
752.315194	0.150888
752.511573	0.150782
752.707934	0.150648
752.904276	0.150879
753.100601	0.150959
753.296907	0.150738
753.493195	0.150487
753.689465	0.150274
753.885716	0.150272
754.081949	0.150201
754.278164	0.150166
754.474361	0.150186
754.670540	0.149987
754.866700	0.149690
755.062843	0.149496
755.258967	0.149464
755.455072	0.149239
755.651160	0.149051
755.847229	0.148850
756.043280	0.148520
756.239313	0.148140
756.435328	0.148246
756.631324	0.148140
756.827302	0.148039
757.023262	0.147892
757.219204	0.147731
757.415127	0.147503
757.611033	0.147441
757.806920	0.147509
758.002788	0.147422
758.198639	0.147417
758.394471	0.147362
758.590286	0.147209
758.786081	0.147041
758.981859	0.146937
759.177619	0.146933
759.373360	0.146885
759.569083	0.146614
759.764788	0.146657
759.960474	0.146178
760.156143	0.146068
760.351793	0.146281
760.547425	0.146205
760.743038	0.146159
760.938634	0.146255
761.134211	0.146131
761.329770	0.146035
761.525311	0.146021
761.720833	0.146074
761.916338	0.146189
762.111824	0.145991
762.307292	0.145760
762.502741	0.145931
762.698173	0.145764
762.893586	0.145797
763.088981	0.145819
763.284358	0.145756
763.479716	0.145611
763.675057	0.145488
763.870379	0.145387
764.065683	0.145597
764.260968	0.145449
764.456236	0.145384
764.651485	0.145254
764.846716	0.145299
765.041929	0.145239
765.237123	0.145317
765.432299	0.145052
765.627457	0.145128
765.822597	0.144876
766.017719	0.144829
766.212822	0.144905
766.407907	0.144962
766.602974	0.144940
766.798023	0.144744
766.993054	0.144605
767.188066	0.144711
767.383060	0.144689
767.578036	0.144919
767.772993	0.144990
767.967933	0.144844
768.162854	0.144529
768.357757	0.144307
768.552642	0.144472
768.747508	0.144361
768.942356	0.144241
769.137186	0.143997
769.331998	0.143902
769.526792	0.143640
769.721567	0.143658
769.916324	0.143531
770.111063	0.143555
770.305784	0.143334
770.500486	0.143267
770.695171	0.143166
770.889837	0.143173
771.084484	0.142904
771.279114	0.142855
771.473725	0.142736
771.668318	0.143016
771.862893	0.142986
772.057450	0.142889
772.251988	0.142942
772.446509	0.142959
772.641011	0.143022
772.835494	0.143288
773.029960	0.143319
773.224407	0.143361
773.418836	0.143339
773.613247	0.143352
773.807640	0.143651
774.002014	0.143758
774.196370	0.143855
774.390708	0.143785
774.585028	0.143854
774.779330	0.144063
774.973613	0.144159
775.167878	0.143974
775.362125	0.144109
775.556354	0.144095
775.750564	0.143963
775.944756	0.144164
776.138930	0.144353
776.333086	0.144338
776.527223	0.144252
776.721343	0.144234
776.915444	0.144474
777.109526	0.144532
777.303591	0.144405
777.497637	0.144606
777.691666	0.144335
777.885676	0.144081
778.079667	0.143834
778.273641	0.143867
778.467596	0.143939
778.661533	0.143784
778.855452	0.143821
779.049352	0.143788
779.243235	0.143592
779.437099	0.143562
779.630945	0.143501
779.824773	0.143821
780.018582	0.143570
780.212373	0.143299
780.406146	0.143204
780.599901	0.142912
780.793638	0.143024
780.987356	0.142912
781.181056	0.143155
781.374738	0.143435
781.568402	0.143301
781.762047	0.143456
781.955674	0.143448
782.149283	0.143465
782.342874	0.143645
782.536447	0.143666
782.730001	0.143878
782.923537	0.143722
783.117055	0.143653
783.310555	0.143631
783.504036	0.143843
783.697499	0.143929
783.890944	0.144163
784.084371	0.144023
784.277780	0.143836
784.471170	0.143725
784.664542	0.143784
784.857896	0.143768
785.051231	0.143737
785.244549	0.143590
785.437848	0.143692
785.631129	0.143549
785.824392	0.143571
786.017636	0.143559
786.210863	0.143923
786.404071	0.143711
786.597260	0.143884
786.790432	0.143938
786.983585	0.144113
787.176721	0.144033
787.369838	0.144122
787.562936	0.144282
787.756017	0.144386
787.949079	0.144140
788.142123	0.144355
788.335149	0.144168
788.528156	0.143983
788.721146	0.143841
788.914117	0.143846
789.107070	0.144121
789.300005	0.144097
789.492921	0.144051
789.685819	0.144126
789.878699	0.144399
790.071561	0.144670
790.264405	0.144759
790.457230	0.144699
790.650037	0.144748
790.842826	0.144756
791.035597	0.144981
791.228349	0.145264
791.421084	0.145639
791.613800	0.145491
791.806497	0.145478
791.999177	0.146084
792.191838	0.146375
792.384481	0.146652
792.577106	0.146623
792.769713	0.146676
792.962301	0.146628
793.154871	0.146604
793.347423	0.146636
793.539957	0.146796
793.732473	0.146656
793.924970	0.146714
794.117449	0.146892
794.309910	0.147049
794.502353	0.147123
794.694777	0.147527
794.887183	0.147652
795.079571	0.148079
795.271941	0.148096
795.464293	0.148053
795.656626	0.148370
795.848941	0.148513
796.041238	0.148749
796.233516	0.148861
796.425777	0.148926
796.618019	0.148915
796.810243	0.148620
797.002449	0.148939
797.194636	0.149183
797.386805	0.149177
797.578956	0.149243
797.771089	0.149152
797.963204	0.149339
798.155300	0.149578
798.347378	0.149661
798.539438	0.149983
798.731480	0.150151
798.923503	0.150307
799.115509	0.150484
799.307496	0.150643
799.499465	0.150846
799.691415	0.150771
799.883348	0.150678
800.075262	0.150806
800.267158	0.150847
800.459035	0.151020
800.650895	0.150990
800.842736	0.151045
801.034559	0.151158
801.226364	0.151311
801.418150	0.151489
801.609919	0.151621
801.801669	0.151853
801.993401	0.152154
802.185114	0.152203
802.376810	0.152537
802.568487	0.152709
802.760146	0.152865
802.951787	0.152762
803.143409	0.152978
803.335014	0.153100
803.526600	0.153250
803.718168	0.153421
803.909717	0.153476
804.101249	0.153561
804.292762	0.153794
804.484257	0.153850
804.675734	0.154292
804.867192	0.154395
805.058632	0.154557
805.250054	0.154601
805.441458	0.154887
805.632844	0.154951
805.824211	0.155188
806.015561	0.155184
806.206891	0.155381
806.398204	0.155367
806.589499	0.155453
806.780775	0.155506
806.972033	0.155820
807.163273	0.155703
807.354495	0.155918
807.545698	0.156145
807.736883	0.156356
807.928050	0.156565
808.119199	0.156576
808.310329	0.156867
808.501441	0.157135
808.692535	0.157179
808.883611	0.157564
809.074669	0.157655
809.265708	0.157674
809.456729	0.157873
809.647732	0.158186
809.838717	0.158603
810.029683	0.158738
810.220632	0.159061
810.411562	0.159385
810.602474	0.159367
810.793367	0.159542
810.984242	0.159815
811.175100	0.159988
811.365938	0.160049
811.556759	0.160099
811.747562	0.160161
811.938346	0.160344
812.129112	0.160270
812.319860	0.160522
812.510589	0.160712
812.701300	0.160875
812.891994	0.161284
813.082668	0.161172
813.273325	0.161342
813.463964	0.161693
813.654584	0.161598
813.845186	0.161847
814.035769	0.162169
814.226335	0.162483
814.416882	0.162631
814.607411	0.162406
814.797922	0.162749
814.988415	0.163208
815.178889	0.163522
815.369345	0.164042
815.559783	0.164387
815.750203	0.164518
815.940605	0.164832
816.130988	0.165076
816.321353	0.165586
816.511700	0.165944
816.702028	0.166120
816.892339	0.166094
817.082631	0.166382
817.272905	0.166666
817.463161	0.166661
817.653398	0.166916
817.843617	0.167000
818.033819	0.167286
818.224001	0.167472
818.414166	0.167778
818.604312	0.168115
818.794440	0.168060
818.984550	0.168111
819.174642	0.168719
819.364716	0.168901
819.554771	0.169321
819.744808	0.169421
819.934827	0.169606
820.124827	0.169783
820.314810	0.170241
820.504774	0.170620
820.694720	0.171100
820.884647	0.171165
821.074557	0.171270
821.264448	0.171410
821.454321	0.171450
821.644176	0.171929
821.834012	0.171947
822.023831	0.172081
822.213631	0.172293
822.403413	0.172285
822.593176	0.172606
822.782922	0.173095
822.972649	0.173199
823.162358	0.173478
823.352049	0.173570
823.541721	0.174049
823.731376	0.174193
823.921012	0.174480
824.110629	0.174960
824.300229	0.175087
824.489811	0.174781
824.679374	0.175183
824.868919	0.175667
825.058445	0.175776
825.247954	0.176006
825.437444	0.176292
825.626916	0.176330
825.816370	0.176403
826.005806	0.176797
826.195223	0.177401
826.384622	0.177671
826.574003	0.177629
826.763366	0.177958
826.952711	0.178106
827.142037	0.178311
827.331345	0.178546
827.520635	0.178827
827.709906	0.179039
827.899160	0.179282
828.088395	0.179416
828.277612	0.180074
828.466810	0.180156
828.655991	0.180391
828.845153	0.180449
829.034297	0.180972
829.223423	0.181082
829.412531	0.181494
829.601620	0.181862
829.790691	0.182230
829.979744	0.182124
830.168779	0.182509
830.357795	0.182676
830.546793	0.183169
830.735773	0.183419
830.924735	0.183958
831.113679	0.184079
831.302604	0.184402
831.491511	0.184742
831.680400	0.185086
831.869271	0.185113
832.058123	0.185447
832.246957	0.185811
832.435773	0.185992
832.624571	0.186203
832.813351	0.186270
833.002112	0.186266
833.190855	0.186401
833.379580	0.186977
833.568287	0.187787
833.756975	0.188114
833.945645	0.188382
834.134297	0.188754
834.322931	0.189070
834.511547	0.189453
834.700144	0.189944
834.888723	0.190311
835.077284	0.190526
835.265826	0.190639
835.454351	0.190808
835.642857	0.190950
835.831345	0.191197
836.019815	0.191269
836.208266	0.191333
836.396699	0.191325
836.585114	0.191672
836.773511	0.191743
836.961890	0.191816
837.150250	0.192515
837.338592	0.192452
837.526916	0.192659
837.715222	0.193192
837.903510	0.193596
838.091779	0.193972
838.280030	0.194114
838.468263	0.194469
838.656477	0.194521
838.844674	0.194712
839.032852	0.195515
839.221012	0.195813
839.409153	0.195947
839.597277	0.196220
839.785382	0.196770
839.973469	0.197217
840.161538	0.197355
840.349589	0.197973
840.537621	0.198202
840.725635	0.198070
840.913631	0.198358
841.101609	0.198655
841.289568	0.199118
841.477509	0.199388
841.665432	0.199697
841.853337	0.200031
842.041224	0.200337
842.229092	0.200390
842.416942	0.200965
842.604774	0.201695
842.792588	0.202237
842.980383	0.202670
843.168160	0.203103
843.355919	0.203381
843.543660	0.204095
843.731382	0.204564
843.919087	0.205137
844.106773	0.205836
844.294441	0.206008
844.482090	0.206149
844.669722	0.206274
844.857335	0.206316
845.044930	0.206395
845.232507	0.206506
845.420065	0.206753
845.607605	0.206805
845.795127	0.206709
845.982631	0.206788
846.170117	0.206994
846.357584	0.207260
846.545033	0.207505
846.732464	0.207660
846.919877	0.207751
847.107272	0.207787
847.294648	0.208187
847.482006	0.208317
847.669346	0.208684
847.856667	0.209362
848.043971	0.209966
848.231256	0.210146
848.418523	0.210604
848.605771	0.211212
848.793002	0.211744
848.980214	0.212344
849.167408	0.212784
849.354584	0.213159
849.541742	0.213041
849.728881	0.213109
849.916002	0.213877
850.103105	0.214346
850.290190	0.214705
850.477256	0.214636
850.664304	0.214628
850.851334	0.214970
851.038346	0.214942
851.225340	0.215471
851.412315	0.215615
851.599272	0.215729
851.786211	0.215805
851.973132	0.215787
852.160034	0.216124
852.346918	0.216230
852.533784	0.216571
852.720632	0.216921
852.907462	0.217105
853.094273	0.217681
853.281066	0.217741
853.467841	0.218053
853.654598	0.218151
853.841336	0.218889
854.028056	0.219514
854.214758	0.220016
854.401442	0.220256
854.588107	0.220758
854.774755	0.220732
854.961384	0.221218
855.147995	0.221428
855.334587	0.221738
855.521162	0.221754
855.707718	0.221920
855.894256	0.222030
856.080775	0.222446
856.267277	0.222533
856.453760	0.222955
856.640225	0.223053
856.826672	0.223429
857.013101	0.223737
857.199511	0.223909
857.385903	0.224034
857.572277	0.224061
857.758633	0.224165
857.944970	0.224560
858.131290	0.224664
858.317591	0.225211
858.503873	0.225532
858.690138	0.225959
858.876384	0.226277
859.062612	0.226475
859.248822	0.226859
859.435014	0.226965
859.621188	0.227179
859.807343	0.227317
859.993480	0.227157
860.179599	0.227196
860.365699	0.227394
860.551781	0.227759
860.737846	0.228466
860.923891	0.228979
861.109919	0.229559
861.295929	0.229249
861.481920	0.229673
861.667893	0.230412
861.853848	0.230878
862.039784	0.231139
862.225702	0.231429
862.411603	0.231516
862.597484	0.231546
862.783348	0.231746
862.969193	0.232356
863.155021	0.232772
863.340830	0.232560
863.526620	0.232497
863.712393	0.232564
863.898147	0.232985
864.083883	0.233167
864.269601	0.233494
864.455301	0.233901
864.640982	0.234075
864.826645	0.234352
865.012290	0.235007
865.197917	0.235663
865.383526	0.236244
865.569116	0.236163
865.754688	0.236290
865.940242	0.236501
866.125777	0.236490
866.311295	0.236693
866.496794	0.236600
866.682275	0.236452
866.867737	0.236794
867.053182	0.236759
867.238608	0.237000
867.424016	0.236996
867.609406	0.237425
867.794778	0.237410
867.980131	0.237776
868.165466	0.238178
868.350783	0.238776
868.536082	0.238944
868.721362	0.239226
868.906625	0.239644
869.091869	0.239980
869.277094	0.239921
869.462302	0.240437
869.647491	0.240809
869.832662	0.241090
870.017815	0.240972
870.202950	0.241131
870.388066	0.241526
870.573165	0.241935
870.758245	0.242338
870.943306	0.242651
871.128350	0.243266
871.313375	0.243209
871.498382	0.243454
871.683371	0.243918
871.868342	0.243685
872.053294	0.243857
872.238229	0.243501
872.423144	0.243692
872.608042	0.243978
872.792922	0.243842
872.977783	0.244118
873.162626	0.244268
873.347451	0.244174
873.532258	0.244638
873.717046	0.244843
873.901816	0.245109
874.086568	0.245139
874.271302	0.244876
874.456017	0.244892
874.640715	0.244835
874.825394	0.244846
875.010055	0.245232
875.194697	0.245322
875.379322	0.245467
875.563928	0.245559
875.748516	0.245642
875.933085	0.245890
876.117637	0.245849
876.302170	0.245922
876.486685	0.246152
876.671182	0.245916
876.855661	0.246202
877.040121	0.246201
877.224563	0.246737
877.408987	0.246666
877.593393	0.247026
877.777780	0.247167
877.962150	0.247391
878.146501	0.247503
878.330833	0.248028
878.515148	0.248162
878.699444	0.248270
878.883722	0.248003
879.067982	0.248269
879.252224	0.248090
879.436447	0.248755
879.620653	0.249169
879.804840	0.249168
879.989008	0.249189
880.173159	0.249470
880.357291	0.249475
880.541405	0.249804
880.725501	0.250279
880.909579	0.250850
881.093638	0.250362
881.277680	0.250049
881.461703	0.250284
881.645707	0.250074
881.829694	0.250224
882.013662	0.250846
882.197612	0.251328
882.381544	0.251513
882.565458	0.251538
882.749353	0.252369
882.933230	0.252708
883.117089	0.252886
883.300930	0.253231
883.484753	0.253071
883.668557	0.253099
883.852343	0.252819
884.036111	0.252655
884.219861	0.252409
884.403592	0.252241
884.587305	0.252315
884.771000	0.252268
884.954677	0.252150
885.138335	0.252219
885.321976	0.252104
885.505598	0.251762
885.689201	0.251718
885.872787	0.251983
886.056354	0.251579
886.239904	0.251514
886.423434	0.251621
886.606947	0.251764
886.790442	0.251610
886.973918	0.251338
887.157376	0.251866
887.340816	0.252404
887.524237	0.252001
887.707641	0.252449
887.891026	0.252743
888.074393	0.252862
888.257741	0.252569
888.441072	0.252957
888.624384	0.253153
888.807678	0.252837
888.990954	0.252368
889.174211	0.252679
889.357451	0.252432
889.540672	0.252420
889.723875	0.252338
889.907059	0.252526
890.090226	0.252350
890.273374	0.252401
890.456504	0.253138
890.639616	0.253694
890.822709	0.253767
891.005785	0.253820
891.188842	0.253533
891.371881	0.253556
891.554901	0.253762
891.737904	0.253486
891.920888	0.253282
892.103854	0.252754
892.286802	0.252602
892.469731	0.252455
892.652643	0.252602
892.835536	0.252559
893.018410	0.252343
893.201267	0.252139
893.384106	0.252351
893.566926	0.252547
893.749728	0.252390
893.932511	0.251760
894.115277	0.251419
894.298024	0.250781
894.480753	0.251135
894.663464	0.251196
894.846157	0.251567
895.028831	0.251390
895.211487	0.251366
895.394125	0.251100
895.576745	0.251468
895.759346	0.251615
895.941930	0.252217
896.124495	0.252203
896.307041	0.252540
896.489570	0.252185
896.672080	0.252215
896.854573	0.251838
897.037046	0.251638
897.219502	0.251485
897.401940	0.252036
897.584359	0.251848
897.766760	0.250967
897.949143	0.250262
898.131507	0.250027
898.313854	0.249656
898.496182	0.249616
898.678492	0.249721
898.860783	0.249523
899.043057	0.248920
899.225312	0.248240
899.407549	0.248539
899.589768	0.248532
899.771968	0.248441
899.954151	0.248566
900.136315	0.248448
900.318461	0.248117
900.500588	0.247695
900.682698	0.247681
900.864789	0.247546
901.046862	0.247442
901.228917	0.246834
901.410953	0.246805
901.592971	0.246801
901.774972	0.246671
901.956953	0.246549
902.138917	0.246455
902.320862	0.245499
902.502790	0.245627
902.684699	0.245410
902.866589	0.245814
903.048462	0.245262
903.230316	0.244548
903.412152	0.244357
903.593970	0.244251
903.775770	0.244389
903.957551	0.244698
904.139314	0.244645
904.321059	0.244314
904.502786	0.243692
904.684494	0.243678
904.866185	0.243920
905.047857	0.243702
905.229510	0.243130
905.411146	0.242930
905.592763	0.242850
905.774363	0.242439
905.955943	0.241976
906.137506	0.241804
906.319051	0.241548
906.500577	0.241045
906.682085	0.240578
906.863575	0.240573
907.045046	0.239815
907.226500	0.239345
907.407935	0.239088
907.589352	0.239114
907.770750	0.239427
907.952131	0.239351
908.133493	0.238875
908.314837	0.238619
908.496163	0.238212
908.677470	0.238160
908.858760	0.238076
909.040031	0.237940
909.221284	0.238183
909.402518	0.237794
909.583735	0.237260
909.764933	0.236802
909.946113	0.236389
910.127275	0.236619
910.308418	0.236344
910.489544	0.235966
910.670651	0.235324
910.851740	0.234633
911.032810	0.233907
911.213863	0.233972
911.394897	0.233772
911.575913	0.233693
911.756911	0.232751
911.937890	0.232376
912.118851	0.231750
912.299794	0.231753
912.480719	0.231075
912.661626	0.230553
912.842514	0.230196
913.023384	0.230815
913.204236	0.230475
913.385070	0.230766
913.565886	0.230405
913.746683	0.230410
913.927462	0.230357
914.108223	0.230177
914.288965	0.230009
914.469690	0.229617
914.650396	0.228765
914.831084	0.228124
915.011754	0.227524
915.192405	0.227036
915.373038	0.226542
915.553653	0.225810
915.734250	0.225734
915.914829	0.225171
916.095389	0.224977
916.275931	0.224038
916.456455	0.224225
916.636961	0.223919
916.817448	0.223680
916.997917	0.223416
917.178368	0.223136
917.358801	0.222556
917.539216	0.222492
917.719612	0.221867
917.899990	0.221576
918.080350	0.220946
918.260692	0.220324
918.441015	0.219952
918.621320	0.219266
918.801607	0.218237
918.981876	0.217882
919.162127	0.217949
919.342359	0.217785
919.522573	0.217647
919.702769	0.217575
919.882947	0.217401
920.063106	0.217505
920.243247	0.217511
920.423370	0.217657
920.603475	0.217424
920.783562	0.216272
920.963630	0.215715
921.143680	0.215449
921.323712	0.214930
921.503725	0.214664
921.683721	0.213412
921.863698	0.212825
922.043657	0.212372
922.223598	0.211372
922.403520	0.211070
922.583424	0.210033
922.763311	0.209371
922.943178	0.208501
923.123028	0.208380
923.302859	0.208200
923.482673	0.207932
923.662467	0.207754
923.842244	0.207669
924.022003	0.207565
924.201743	0.207281
924.381465	0.207127
924.561169	0.206618
924.740854	0.205533
924.920522	0.205020
925.100171	0.204434
925.279802	0.203688
925.459414	0.202942
925.639009	0.202128
925.818585	0.202094
925.998143	0.201059
926.177683	0.200557
926.357205	0.200299
926.536708	0.199687
926.716193	0.198840
926.895660	0.198300
927.075109	0.198642
927.254539	0.197491
927.433951	0.196282
927.613345	0.196500
927.792721	0.196078
927.972079	0.195234
928.151418	0.195201
928.330739	0.193739
928.510042	0.192891
928.689327	0.191251
928.868593	0.191227
929.047841	0.191121
929.227071	0.189734
929.406283	0.188913
929.585476	0.187580
929.764652	0.186522
929.943809	0.187463
930.122948	0.187190
930.302068	0.186714
930.481171	0.186108
930.660255	0.185600
930.839321	0.186298
931.018369	0.185772
931.197398	0.185249
931.376409	0.184503
931.555402	0.184467
931.734377	0.183670
931.913334	0.183868
932.092272	0.182619
932.271192	0.181337
932.450094	0.179562
932.628978	0.179515
932.807844	0.179395
932.986691	0.179634
933.165520	0.177849
933.344331	0.176954
933.523123	0.175045
933.701898	0.174863
933.880654	0.174321
934.059392	0.173452
934.238111	0.172713
934.416813	0.173208
934.595496	0.172355
934.774161	0.171358
934.952808	0.170303
935.131437	0.170594
935.310047	0.170654
935.488639	0.170724
935.667213	0.169876
935.845769	0.168342
936.024306	0.167432
936.202825	0.166140
936.381326	0.166365
936.559809	0.165632
936.738274	0.164695
936.916720	0.163442
937.095148	0.162551
937.273558	0.162660
937.451950	0.161827
937.630323	0.160754
937.808678	0.159840
937.987015	0.158963
938.165334	0.159249
938.343635	0.158092
938.521917	0.157204
938.700181	0.156518
938.878427	0.155902
939.056655	0.156427
939.234864	0.155522
939.413055	0.154293
939.591228	0.153484
939.769383	0.153240
939.947519	0.153810
940.125638	0.154212
940.303738	0.153866
940.481820	0.152694
940.659883	0.151925
940.837929	0.152252
941.015956	0.153019
941.193965	0.151957
941.371955	0.151183
941.549928	0.149932
941.727882	0.148993
941.905818	0.147962
942.083736	0.147536
942.261636	0.146559
942.439517	0.143784
942.617380	0.142646
942.795225	0.142741
942.973052	0.141251
943.150860	0.140919
943.328651	0.140862
943.506423	0.140219
943.684176	0.139355
943.861912	0.138483
944.039629	0.139734
944.217328	0.139179
944.395009	0.137237
944.572672	0.137936
944.750317	0.136870
944.927943	0.135713
945.105551	0.134043
945.283141	0.133975
945.460712	0.133824
945.638265	0.132097
945.815801	0.131207
945.993317	0.131880
946.170816	0.129610
946.348297	0.128735
946.525759	0.127198
946.703203	0.126297
946.880629	0.124169
947.058036	0.123155
947.235425	0.122068
947.412797	0.122391
947.590149	0.121531
947.767484	0.120860
947.944800	0.120302
948.122099	0.119678
948.299379	0.118929
948.476640	0.120957
948.653884	0.120065
948.831109	0.120278
949.008316	0.117862
949.185505	0.116951
949.362676	0.116772
949.539828	0.114226
949.716962	0.114209
949.894078	0.113650
950.071176	0.109471
950.248256	0.108970
950.425317	0.107136
950.602360	0.106206
950.779385	0.104738
950.956391	0.103501
951.133380	0.104220
951.310350	0.103555
951.487302	0.104355
951.664235	0.105630
951.841151	0.104387
952.018048	0.104815
952.194927	0.104621
952.371788	0.104897
952.548631	0.104427
952.725455	0.103167
952.902261	0.101463
953.079049	0.099804
953.255819	0.099647
953.432570	0.098581
953.609303	0.098236
953.786018	0.098749
953.962715	0.099348
954.139394	0.099623
954.316054	0.099287
954.492696	0.098920
954.669320	0.098815
954.845926	0.096058
955.022513	0.094516
955.199083	0.092670
955.375634	0.093412
955.552166	0.091149
955.728681	0.089202
955.905177	0.088203
956.081655	0.088067
956.258115	0.088147
956.434557	0.090720
956.610980	0.092691
956.787385	0.093510
956.963772	0.089969
957.140141	0.089243
957.316492	0.087303
957.492824	0.085937
957.669138	0.084771
957.845434	0.082290
958.021712	0.077480
958.197971	0.074553
958.374212	0.073075
958.550435	0.072668
958.726640	0.072075
958.902826	0.072495
959.078995	0.072953
959.255145	0.072619
959.431277	0.072023
959.607390	0.074496
959.783486	0.076795
959.959563	0.077697
960.135622	0.078622
960.311662	0.078985
960.487685	0.080382
960.663689	0.080211
960.839675	0.081150
961.015643	0.080158
961.191593	0.079348
961.367524	0.076063
961.543437	0.074275
961.719332	0.073051
961.895209	0.070479
962.071067	0.070067
962.246907	0.070918
962.422730	0.069215
962.598533	0.073543
962.774319	0.075276
962.950086	0.077884
963.125835	0.076960
963.301566	0.076553
963.477279	0.076119
963.652973	0.075281
963.828650	0.075087
964.004308	0.074712
964.179947	0.069993
964.355569	0.067240
964.531172	0.066856
964.706757	0.067799
964.882324	0.068803
965.057873	0.070543
965.233403	0.071748
965.408916	0.071701
965.584410	0.071769
965.759885	0.074254
965.935343	0.073287
966.110782	0.074065
966.286203	0.072756
966.461606	0.070782
966.636991	0.072254
966.812357	0.072438
966.987705	0.071182
967.163035	0.071697
967.338347	0.071482
967.513641	0.073311
967.688916	0.072534
967.864173	0.073629
968.039412	0.074982
968.214632	0.071134
968.389835	0.069426
968.565019	0.070899
968.740185	0.069422
968.915333	0.067349
969.090462	0.066057
969.265573	0.064354
969.440667	0.062573
969.615741	0.061645
969.790798	0.062065
969.965836	0.062431
970.140856	0.060165
970.315858	0.059742
970.490842	0.058650
970.665808	0.060666
970.840755	0.061384
971.015684	0.064440
971.190595	0.062398
971.365487	0.062196
971.540362	0.061903
971.715218	0.061044
971.890056	0.063007
972.064875	0.064760
972.239677	0.062496
972.414460	0.060691
972.589225	0.058773
972.763972	0.060542
972.938700	0.061269
973.113411	0.060032
973.288103	0.064424
973.462777	0.061948
973.637432	0.062040
973.812070	0.063183
973.986689	0.065988
974.161290	0.067500
974.335873	0.068503
974.510437	0.068726
974.684984	0.069859
974.859512	0.070788
975.034022	0.072213
975.208513	0.073529
975.382987	0.072548
975.557442	0.071238
975.731879	0.069367
975.906298	0.067789
976.080698	0.069113
976.255080	0.069484
976.429445	0.065693
976.603790	0.066531
976.778118	0.064876
976.952427	0.062384
977.126719	0.063918
977.300992	0.064777
977.475246	0.065585
977.649483	0.064565
977.823701	0.062470
977.997901	0.063399
978.172083	0.062226
978.346247	0.061824
978.520392	0.064241
978.694519	0.064178
978.868628	0.061474
979.042719	0.061871
979.216791	0.060153
979.390845	0.064333
979.564882	0.063695
979.738899	0.062177
979.912899	0.061756
980.086880	0.061941
980.260843	0.059599
980.434788	0.063599
980.608715	0.064241
980.782623	0.066625
980.956514	0.062344
981.130386	0.063795
981.304240	0.065913
981.478075	0.067966
981.651892	0.068411
981.825692	0.069407
981.999472	0.067903
982.173235	0.068023
982.346980	0.067848
982.520706	0.068180
982.694414	0.067751
982.868104	0.067592
983.041775	0.065846
983.215428	0.064977
983.389064	0.065270
983.562680	0.065220
983.736279	0.066302
983.909860	0.065822
984.083422	0.066728
984.256966	0.067495
984.430491	0.066803
984.603999	0.069526
984.777488	0.070792
984.950959	0.071797
985.124412	0.070703
985.297847	0.070056
985.471263	0.070554
985.644661	0.070533
985.818041	0.070774
985.991403	0.072382
986.164747	0.072831
986.338072	0.074030
986.511379	0.071121
986.684668	0.072296
986.857938	0.070835
987.031191	0.070604
987.204425	0.072397
987.377641	0.071479
987.550839	0.070798
987.724018	0.068733
987.897179	0.069149
988.070322	0.071488
988.243447	0.070860
988.416554	0.068978
988.589642	0.069908
988.762712	0.068014
988.935764	0.066623
989.108798	0.067483
989.281813	0.067962
989.454811	0.065856
989.627790	0.067108
989.800751	0.069139
989.973693	0.072329
990.146617	0.072462
990.319524	0.072795
990.492412	0.073428
990.665281	0.073725
990.838133	0.072558
991.010966	0.071519
991.183781	0.067481
991.356578	0.067506
991.529356	0.067098
991.702117	0.066965
991.874859	0.065444
992.047583	0.067068
992.220288	0.065129
992.392976	0.065971
992.565645	0.065483
992.738296	0.067619
992.910929	0.066587
993.083543	0.065365
993.256139	0.064971
993.428718	0.066377
993.601277	0.065837
993.773819	0.066091
993.946342	0.067071
994.118848	0.068141
994.291335	0.068629
994.463803	0.067923
994.636254	0.067357
994.808686	0.066156
994.981100	0.066285
995.153496	0.065417
995.325874	0.067484
995.498233	0.066141
995.670574	0.067529
995.842897	0.067963
996.015202	0.068032
996.187488	0.067857
996.359757	0.069052
996.532007	0.070270
996.704239	0.072067
996.876452	0.070715
997.048648	0.070897
997.220825	0.070120
997.392984	0.070320
997.565124	0.069403
997.737247	0.071804
997.909351	0.072518
998.081437	0.071385
998.253505	0.069434
998.425554	0.067783
998.597586	0.066442
998.769599	0.064726
998.941594	0.063792
999.113571	0.066382
999.285529	0.064814
999.457469	0.063999
999.629391	0.062490
999.801295	0.061930
999.973181	0.061967
1000.145048	0.061931
1000.316897	0.063159
1000.488728	0.063090
1000.660541	0.063019
1000.832335	0.062679
1001.004111	0.060977
1001.175869	0.060357
1001.347609	0.062006
1001.519331	0.063154
1001.691034	0.063475
1001.862719	0.063789
1002.034386	0.062971
1002.206035	0.062059
1002.377665	0.062151
1002.549277	0.064376
1002.720871	0.067334
1002.892447	0.068408
1003.064004	0.067270
1003.235544	0.069203
1003.407065	0.068048
1003.578568	0.070340
1003.750052	0.068980
1003.921519	0.071314
1004.092967	0.071519
1004.264397	0.071053
1004.435809	0.069215
1004.607202	0.070655
1004.778577	0.069105
1004.949934	0.070040
1005.121273	0.068341
1005.292594	0.069002
1005.463896	0.068118
1005.635180	0.066552
1005.806446	0.066640
1005.977694	0.065976
1006.148923	0.065280
1006.320135	0.065812
1006.491328	0.065610
1006.662503	0.065654
1006.833659	0.065884
1007.004798	0.066882
1007.175918	0.067159
1007.347020	0.065346
1007.518103	0.066322
1007.689169	0.065712
1007.860216	0.064287
1008.031245	0.066408
1008.202256	0.067523
1008.373248	0.068254
1008.544223	0.065726
1008.715179	0.065330
1008.886117	0.064431
1009.057036	0.064264
1009.227938	0.064816
1009.398821	0.066112
1009.569686	0.064630
1009.740533	0.065042
1009.911361	0.065279
1010.082172	0.066986
1010.252964	0.067908
1010.423738	0.070270
1010.594493	0.069370
1010.765231	0.070678
1010.935950	0.069619
1011.106651	0.068667
1011.277334	0.068409
1011.447998	0.067716
1011.618645	0.066671
1011.789273	0.066052
1011.959882	0.066265
1012.130474	0.066687
1012.301048	0.066282
1012.471603	0.067957
1012.642140	0.068302
1012.812658	0.067659
1012.983159	0.067210
1013.153641	0.065494
1013.324105	0.065496
1013.494551	0.065057
1013.664979	0.064449
1013.835388	0.062972
1014.005779	0.063309
1014.176152	0.064017
1014.346507	0.062849
1014.516843	0.061967
1014.687162	0.063568
1014.857462	0.061384
1015.027744	0.061687
1015.198007	0.062470
1015.368252	0.062641
1015.538480	0.061901
1015.708689	0.060167
1015.878879	0.062290
1016.049052	0.063933
1016.219206	0.062757
1016.389342	0.065119
1016.559460	0.064957
1016.729559	0.065702
1016.899641	0.067601
1017.069704	0.068223
1017.239749	0.069066
1017.409775	0.067742
1017.579784	0.067551
1017.749774	0.066117
1017.919746	0.067085
1018.089700	0.065778
1018.259635	0.065053
1018.429553	0.063850
1018.599452	0.063624
1018.769333	0.064446
1018.939195	0.065182
1019.109040	0.064236
1019.278866	0.066913
1019.448674	0.066579
1019.618464	0.068317
1019.788235	0.069046
1019.957989	0.068042
1020.127724	0.066588
1020.297441	0.068127
1020.467139	0.068329
1020.636820	0.068337
1020.806482	0.069234
1020.976126	0.069710
1021.145752	0.068993
1021.315359	0.069554
1021.484948	0.072135
1021.654519	0.073972
1021.824072	0.071411
1021.993607	0.071411
1022.163123	0.070767
1022.332621	0.069659
1022.502101	0.067798
1022.671563	0.068720
1022.841007	0.069125
1023.010432	0.068844
1023.179839	0.068241
1023.349228	0.069305
1023.518598	0.068683
1023.687951	0.070686
1023.857285	0.072032
1024.026601	0.072615
1024.195899	0.071074
1024.365178	0.071340
1024.534439	0.070492
1024.703682	0.070986
1024.872907	0.070899
1025.042114	0.069525
1025.211302	0.069620
1025.380472	0.068478
1025.549624	0.069438
1025.718758	0.071176
1025.887873	0.068206
1026.056970	0.067304
1026.226049	0.066402
1026.395110	0.066800
1026.564153	0.069627
1026.733177	0.067994
1026.902183	0.067126
1027.071171	0.066664
1027.240141	0.065855
1027.409092	0.066234
1027.578026	0.067184
1027.746940	0.067617
1027.915837	0.068043
1028.084716	0.066358
1028.253576	0.068160
1028.422418	0.069452
1028.591242	0.069150
1028.760048	0.068912
1028.928835	0.068872
1029.097604	0.068294
1029.266355	0.067314
1029.435088	0.066640
1029.603803	0.067291
1029.772499	0.066497
1029.941177	0.065003
1030.109837	0.064118
1030.278478	0.064267
1030.447102	0.064909
1030.615707	0.065640
1030.784294	0.066593
1030.952863	0.067007
1031.121413	0.066037
1031.289945	0.065507
1031.458460	0.066807
1031.626955	0.067935
1031.795433	0.067495
1031.963892	0.068120
1032.132334	0.068624
1032.300756	0.069407
1032.469161	0.068425
1032.637548	0.069143
1032.805916	0.068430
1032.974266	0.067343
1033.142598	0.066147
1033.310911	0.065953
1033.479207	0.065881
1033.647484	0.065678
1033.815743	0.064632
1033.983983	0.064694
1034.152206	0.063153
1034.320410	0.064713
1034.488596	0.065953
1034.656764	0.066047
1034.824914	0.066843
1034.993045	0.068417
1035.161158	0.068161
1035.329253	0.067830
1035.497330	0.067962
1035.665388	0.069525
1035.833428	0.069170
1036.001450	0.068650
1036.169454	0.070654
1036.337440	0.071636
1036.505407	0.069059
1036.673356	0.066824
1036.841287	0.067812
1037.009200	0.067385
1037.177094	0.066703
1037.344970	0.065875
1037.512828	0.066971
1037.680668	0.066049
1037.848489	0.062960
1038.016293	0.062652
1038.184078	0.064585
1038.351845	0.064890
1038.519593	0.065912
1038.687324	0.066346
1038.855036	0.066950
1039.022730	0.066268
1039.190406	0.065183
1039.358063	0.066260
1039.525702	0.066737
1039.693323	0.064894
1039.860926	0.065202
1040.028511	0.065017
1040.196077	0.064542
1040.363625	0.063379
1040.531155	0.061366
1040.698667	0.063069
1040.866161	0.062825
1041.033636	0.062026
1041.201093	0.065389
1041.368532	0.061138
1041.535952	0.059361
1041.703355	0.060152
1041.870739	0.061427
1042.038105	0.063034
1042.205452	0.062342
1042.372782	0.063136
1042.540093	0.064984
1042.707386	0.062390
1042.874661	0.065820
1043.041918	0.066910
1043.209156	0.064675
1043.376376	0.064384
1043.543578	0.064905
1043.710762	0.062934
1043.877927	0.063501
1044.045074	0.062239
1044.212203	0.064050
1044.379314	0.063745
1044.546407	0.066152
1044.713481	0.067327
1044.880537	0.066104
1045.047575	0.064339
1045.214595	0.064661
1045.381596	0.063979
1045.548579	0.064319
1045.715544	0.063408
1045.882491	0.063464
1046.049420	0.060886
1046.216330	0.061510
1046.383222	0.062766
1046.550096	0.062254
1046.716951	0.062758
1046.883789	0.061825
1047.050608	0.060748
1047.217409	0.061646
1047.384192	0.060844
1047.550956	0.061330
1047.717703	0.061676
1047.884431	0.061733
1048.051140	0.062992
1048.217832	0.063688
1048.384505	0.064346
1048.551161	0.066668
1048.717798	0.065449
1048.884416	0.066007
1049.051017	0.065741
1049.217599	0.066821
1049.384163	0.068043
1049.550709	0.068444
1049.717237	0.068814
1049.883746	0.070171
1050.050237	0.069373
1050.216710	0.068920
1050.383165	0.068850
1050.549601	0.068981
1050.716019	0.067472
1050.882420	0.066711
1051.048801	0.067637
1051.215165	0.066560
1051.381510	0.066341
1051.547837	0.066867
1051.714146	0.068556
1051.880437	0.070198
1052.046709	0.070389
1052.212964	0.072335
1052.379200	0.071474
1052.545417	0.069102
1052.711617	0.069828
1052.877798	0.069282
1053.043961	0.066786
1053.210106	0.067013
1053.376233	0.065322
1053.542341	0.065217
1053.708432	0.064477
1053.874504	0.065758
1054.040557	0.067029
1054.206593	0.066598
1054.372610	0.066730
1054.538609	0.067752
1054.704590	0.066077
1054.870553	0.066429
1055.036497	0.066174
1055.202424	0.063631
1055.368331	0.063057
1055.534221	0.065347
1055.700093	0.065186
1055.865946	0.063188
1056.031781	0.064514
1056.197598	0.064731
1056.363397	0.064219
1056.529177	0.064270
1056.694939	0.066627
1056.860683	0.066498
1057.026409	0.065182
1057.192116	0.063636
1057.357806	0.065302
1057.523477	0.067355
1057.689130	0.068595
1057.854764	0.068441
1058.020381	0.068897
1058.185979	0.066642
1058.351559	0.067575
1058.517120	0.068541
1058.682664	0.070575
1058.848189	0.070348
1059.013696	0.069850
1059.179185	0.068825
1059.344656	0.068961
1059.510108	0.068668
1059.675542	0.070902
1059.840958	0.070556
1060.006356	0.068079
1060.171735	0.068180
1060.337096	0.069836
1060.502439	0.067866
1060.667764	0.067954
1060.833071	0.069009
1060.998359	0.068760
1061.163629	0.068847
1061.328881	0.067566
1061.494115	0.068245
1061.659330	0.067442
1061.824527	0.066736
1061.989706	0.067499
1062.154867	0.065966
1062.320010	0.067509
1062.485134	0.070030
1062.650240	0.069462
1062.815328	0.071150
1062.980398	0.069872
1063.145449	0.073661
1063.310482	0.074939
1063.475497	0.072147
1063.640494	0.074702
1063.805473	0.073190
1063.970433	0.070656
1064.135375	0.069604
1064.300299	0.068522
1064.465204	0.069304
1064.630092	0.067460
1064.794961	0.065497
1064.959812	0.068135
1065.124645	0.068001
1065.289459	0.068449
1065.454256	0.070483
1065.619034	0.073878
1065.783793	0.073677
1065.948535	0.075453
1066.113258	0.075168
1066.277964	0.077137
1066.442651	0.076230
1066.607319	0.076352
1066.771970	0.073775
1066.936602	0.071643
1067.101216	0.068572
1067.265812	0.068341
1067.430389	0.069004
1067.594949	0.067622
1067.759490	0.066649
1067.924013	0.066727
1068.088518	0.065960
1068.253004	0.067760
1068.417472	0.070036
1068.581922	0.071951
1068.746354	0.073814
1068.910768	0.071270
1069.075163	0.074464
1069.239540	0.073855
1069.403899	0.075589
1069.568240	0.076999
1069.732562	0.077445
1069.896866	0.075481
1070.061152	0.074421
1070.225420	0.074409
1070.389670	0.075711
1070.553901	0.074334
1070.718114	0.073740
1070.882309	0.073245
1071.046486	0.072202
1071.210644	0.072359
1071.374784	0.073476
1071.538906	0.070445
1071.703010	0.069679
1071.867096	0.068888
1072.031163	0.069186
1072.195212	0.069929
1072.359243	0.068929
1072.523256	0.067742
1072.687250	0.070509
1072.851226	0.067928
1073.015184	0.069864
1073.179124	0.069654
1073.343045	0.070601
1073.506949	0.069959
1073.670834	0.069943
1073.834701	0.071530
1073.998549	0.073193
1074.162380	0.070148
1074.326192	0.071718
1074.489986	0.071686
1074.653761	0.072636
1074.817519	0.074036
1074.981258	0.073341
1075.144979	0.072489
1075.308682	0.071760
1075.472367	0.071975
1075.636033	0.071160
1075.799681	0.073507
1075.963311	0.072468
1076.126923	0.070469
1076.290516	0.069495
1076.454092	0.070286
1076.617649	0.070653
1076.781187	0.069491
1076.944708	0.072763
1077.108210	0.074737
1077.271695	0.071962
1077.435160	0.075050
1077.598608	0.077986
1077.762038	0.077338
1077.925449	0.077508
1078.088842	0.076641
1078.252217	0.078601
1078.415573	0.072571
1078.578912	0.071886
1078.742232	0.072717
1078.905534	0.072988
1079.068817	0.073049
1079.232083	0.074220
1079.395330	0.073595
1079.558559	0.073765
1079.721770	0.075861
1079.884962	0.077704
1080.048136	0.075634
1080.211293	0.075877
1080.374430	0.073740
1080.537550	0.071261
1080.700651	0.068616
1080.863735	0.069328
1081.026800	0.070419
1081.189846	0.067926
1081.352875	0.070480
1081.515885	0.073348
1081.678877	0.073528
1081.841851	0.076094
1082.004807	0.074258
1082.167744	0.077051
1082.330663	0.076046
1082.493564	0.077414
1082.656447	0.078692
1082.819312	0.077651
1082.982158	0.075839
1083.144986	0.072970
1083.307796	0.072111
1083.470587	0.075099
1083.633361	0.075197
1083.796116	0.075397
1083.958853	0.074686
1084.121571	0.073832
1084.284272	0.070471
1084.446954	0.070282
1084.609618	0.072561
1084.772264	0.071928
1084.934892	0.074815
1085.097501	0.073836
1085.260092	0.075147
1085.422665	0.076778
1085.585220	0.077142
1085.747756	0.081030
1085.910274	0.082888
1086.072774	0.079580
1086.235256	0.080690
1086.397720	0.076366
1086.560165	0.078192
1086.722592	0.077765
1086.885001	0.077826
1087.047392	0.080593
1087.209764	0.080764
1087.372119	0.081218
1087.534455	0.088125
1087.696772	0.089059
1087.859072	0.090661
1088.021353	0.089816
1088.183616	0.087117
1088.345861	0.084273
1088.508088	0.080455
1088.670296	0.075921
1088.832486	0.075023
1088.994658	0.071130
1089.156812	0.070205
1089.318948	0.067864
1089.481065	0.068739
1089.643164	0.073138
1089.805245	0.077256
1089.967308	0.078485
1090.129352	0.080964
1090.291378	0.082916
1090.453386	0.080660
1090.615376	0.080482
1090.777347	0.082531
1090.939301	0.084394
1091.101236	0.083598
1091.263153	0.080474
1091.425051	0.079759
1091.586932	0.082867
1091.748794	0.079354
1091.910638	0.083697
1092.072463	0.082868
1092.234271	0.084698
1092.396060	0.078286
1092.557831	0.079567
1092.719584	0.080087
1092.881319	0.079557
1093.043035	0.075085
1093.204733	0.077731
1093.366413	0.077187
1093.528075	0.081041
1093.689718	0.078675
1093.851343	0.079382
1094.012950	0.078221
1094.174539	0.081653
1094.336110	0.080435
1094.497662	0.080059
1094.659196	0.078869
1094.820712	0.081834
1094.982210	0.075983
1095.143689	0.078560
1095.305151	0.081035
1095.466594	0.084093
1095.628018	0.081435
1095.789425	0.083416
1095.950813	0.085409
1096.112183	0.083841
1096.273535	0.082292
1096.434869	0.084404
1096.596184	0.087310
1096.757482	0.088431
1096.918761	0.086532
1097.080021	0.088222
1097.241264	0.089037
1097.402488	0.088528
1097.563694	0.092064
1097.724882	0.094849
1097.886052	0.095018
1098.047203	0.095140
1098.208336	0.095517
1098.369451	0.095460
1098.530548	0.093419
1098.691627	0.092732
1098.852687	0.094472
1099.013729	0.093859
1099.174753	0.086862
1099.335758	0.087122
1099.496746	0.081170
1099.657715	0.083118
1099.818666	0.081072
1099.979599	0.079273
1100.140513	0.078038
1100.301409	0.078849
1100.462287	0.075999
1100.623147	0.079131
1100.783989	0.084247
1100.944812	0.087750
1101.105617	0.083765
1101.266404	0.081764
1101.427173	0.084722
1101.587923	0.084402
1101.748656	0.083076
1101.909370	0.088058
1102.070066	0.085084
1102.230743	0.081377
1102.391403	0.079673
1102.552044	0.082324
1102.712667	0.084295
1102.873271	0.080614
1103.033858	0.083880
1103.194426	0.086531
1103.354976	0.082551
1103.515508	0.088271
1103.676021	0.087529
1103.836517	0.088523
1103.996994	0.088606
1104.157453	0.088870
1104.317893	0.092005
1104.478316	0.091821
1104.638720	0.094708
1104.799106	0.094402
1104.959474	0.089837
1105.119823	0.089988
1105.280155	0.087491
1105.440468	0.085387
1105.600763	0.084439
1105.761039	0.085793
1105.921298	0.084194
1106.081538	0.079593
1106.241760	0.079408
1106.401964	0.081085
1106.562149	0.077819
1106.722316	0.083382
1106.882465	0.085249
1107.042596	0.088492
1107.202709	0.084830
1107.362803	0.084273
1107.522879	0.086655
1107.682937	0.087576
1107.842977	0.084867
1108.002999	0.084857
1108.163002	0.079796
1108.322987	0.078750
1108.482954	0.075395
1108.642902	0.072878
1108.802833	0.075240
1108.962745	0.069644
1109.122639	0.068394
1109.282515	0.067035
1109.442372	0.067677
1109.602211	0.069185
1109.762032	0.073368
1109.921835	0.076552
1110.081620	0.078570
1110.241386	0.076921
1110.401134	0.076604
1110.560864	0.077899
1110.720576	0.082535
1110.880269	0.084861
1111.039945	0.085941
1111.199602	0.083371
1111.359240	0.083612
1111.518861	0.082783
1111.678463	0.083844
1111.838047	0.087138
1111.997613	0.090830
1112.157161	0.095163
1112.316690	0.095462
1112.476202	0.089828
1112.635695	0.089555
1112.795169	0.086367
1112.954626	0.088943
1113.114064	0.090101
1113.273484	0.090101
1113.432886	0.086071
1113.592270	0.086376
1113.751635	0.087980
1113.910983	0.095256
1114.070312	0.099649
1114.229622	0.101495
1114.388915	0.102704
1114.548189	0.097626
1114.707445	0.098184
1114.866683	0.100684
1115.025903	0.093595
1115.185104	0.091770
1115.344287	0.088428
1115.503452	0.081764
1115.662599	0.081751
1115.821727	0.083997
1115.980838	0.082992
1116.139930	0.086657
1116.299004	0.085526
1116.458059	0.093075
1116.617097	0.092263
1116.776116	0.091874
1116.935117	0.091317
1117.094099	0.091260
1117.253064	0.093382
1117.412010	0.093290
1117.570938	0.091648
1117.729848	0.092891
1117.888740	0.094072
1118.047613	0.097853
1118.206468	0.104760
1118.365305	0.104138
1118.524124	0.102878
1118.682924	0.098811
1118.841707	0.098939
1119.000471	0.099005
1119.159216	0.097054
1119.317944	0.092572
1119.476653	0.092729
1119.635344	0.084624
1119.794017	0.082323
1119.952672	0.080968
1120.111308	0.082156
1120.269927	0.085969
1120.428527	0.082719
1120.587108	0.082564
1120.745672	0.081394
1120.904217	0.081319
1121.062744	0.084317
1121.221253	0.090181
1121.379744	0.092150
1121.538216	0.090516
1121.696671	0.087205
1121.855107	0.087643
1122.013524	0.087032
1122.171924	0.092464
1122.330305	0.087743
1122.488668	0.085672
1122.647013	0.083301
1122.805340	0.087769
1122.963648	0.086982
1123.121938	0.085504
1123.280210	0.089486
1123.438464	0.090980
1123.596700	0.092585
1123.754917	0.092873
1123.913116	0.089979
1124.071297	0.089883
1124.229459	0.089932
1124.387604	0.093741
1124.545730	0.094348
1124.703838	0.089589
1124.861928	0.090173
1125.019999	0.080670
1125.178052	0.080587
1125.336088	0.085974
1125.494104	0.087230
1125.652103	0.081675
1125.810083	0.084705
1125.968045	0.087937
1126.125989	0.083271
1126.283915	0.080124
1126.441823	0.090334
1126.599712	0.088033
1126.757583	0.089690
1126.915436	0.086931
1127.073270	0.080016
1127.231087	0.074870
1127.388885	0.074818
1127.546665	0.079995
1127.704426	0.082900
1127.862170	0.077369
1128.019895	0.084496
1128.177602	0.086116
1128.335291	0.095864
1128.492961	0.102590
1128.650614	0.106914
1128.808248	0.109128
1128.965864	0.111200
1129.123461	0.109565
1129.281041	0.110486
1129.438602	0.112285
1129.596145	0.111358
1129.753670	0.111796
1129.911176	0.114911
1130.068665	0.108238
1130.226135	0.107643
1130.383587	0.106370
1130.541020	0.110641
1130.698436	0.108293
1130.855833	0.105932
1131.013212	0.101542
1131.170573	0.092688
1131.327915	0.095222
1131.485239	0.097352
1131.642545	0.103691
1131.799833	0.092813
1131.957103	0.089065
1132.114354	0.092919
1132.271588	0.089529
1132.428803	0.092086
1132.585999	0.095021
1132.743178	0.094348
1132.900338	0.095662
1133.057480	0.085004
1133.214604	0.097380
1133.371710	0.102880
1133.528797	0.103142
1133.685866	0.107159
1133.842917	0.105229
1133.999950	0.107118
1134.156964	0.099721
1134.313960	0.101181
1134.470938	0.110755
1134.627898	0.111718
1134.784840	0.103659
1134.941763	0.095051
1135.098668	0.089238
1135.255555	0.084192
1135.412424	0.082293
1135.569274	0.091306
1135.726107	0.091674
1135.882921	0.088944
1136.039716	0.087434
1136.196494	0.090293
1136.353253	0.092009
1136.509995	0.097771
1136.666717	0.108481
1136.823422	0.109176
1136.980109	0.111512
1137.136777	0.105149
1137.293427	0.103236
1137.450059	0.105335
1137.606672	0.103141
1137.763267	0.111828
1137.919844	0.110414
1138.076403	0.101826
1138.232944	0.100212
1138.389466	0.101591
1138.545971	0.101681
1138.702457	0.094782
1138.858924	0.094286
1139.015374	0.098329
1139.171805	0.095562
1139.328218	0.091449
1139.484613	0.097331
1139.640990	0.098095
1139.797348	0.081343
1139.953688	0.088549
1140.110010	0.087808
1140.266314	0.089430
1140.422600	0.095053
1140.578867	0.096830
1140.735116	0.096501
1140.891347	0.092966
1141.047559	0.100582
1141.203754	0.112512
1141.359930	0.103663
1141.516088	0.114084
1141.672228	0.107492
1141.828349	0.095366
1141.984452	0.088703
1142.140537	0.092350
1142.296604	0.093616
1142.452653	0.085979
1142.608683	0.087973
1142.764695	0.095337
1142.920689	0.096176
1143.076665	0.102725
1143.232622	0.110977
1143.388562	0.113301
1143.544483	0.118476
1143.700385	0.113230
1143.856270	0.116277
1144.012136	0.112311
1144.167985	0.113111
1144.323814	0.109255
1144.479626	0.107047
1144.635420	0.104052
1144.791195	0.102413
1144.946952	0.103578
1145.102691	0.102820
1145.258411	0.099818
1145.414113	0.101549
1145.569798	0.107643
1145.725463	0.104665
1145.881111	0.107828
1146.036741	0.106019
1146.192352	0.099587
1146.347945	0.095146
1146.503519	0.104064
1146.659076	0.107969
1146.814614	0.107324
1146.970134	0.087502
1147.125636	0.098111
1147.281120	0.093201
1147.436585	0.098165
1147.592032	0.099243
1147.747461	0.090591
1147.902872	0.091740
1148.058265	0.094864
1148.213639	0.098073
1148.368995	0.103336
1148.524333	0.096642
1148.679653	0.104388
1148.834954	0.094616
1148.990237	0.095006
1149.145502	0.110086
1149.300749	0.105952
1149.455977	0.095871
1149.611188	0.093603
1149.766380	0.099420
1149.921553	0.100353
1150.076709	0.095092
1150.231846	0.101911
1150.386966	0.115226
1150.542066	0.105674
1150.697149	0.103102
1150.852214	0.098556
1151.007260	0.097980
1151.162288	0.101508
1151.317298	0.105318
1151.472289	0.103769
1151.627263	0.098562
1151.782218	0.091231
1151.937155	0.093072
1152.092073	0.101092
1152.246974	0.104733
1152.401856	0.100555
1152.556720	0.089802
1152.711566	0.087317
1152.866393	0.083164
1153.021203	0.086286
1153.175994	0.092411
1153.330767	0.091739
1153.485521	0.085084
1153.640258	0.087659
1153.794976	0.089828
1153.949676	0.100995
1154.104358	0.093532
1154.259021	0.111734
1154.413667	0.114781
1154.568294	0.096413
1154.722903	0.100708
1154.877493	0.108389
1155.032066	0.113945
1155.186620	0.118879
1155.341156	0.108804
1155.495674	0.117382
1155.650173	0.097808
1155.804654	0.096337
1155.959118	0.101612
1156.113562	0.107167
1156.267989	0.101706
1156.422397	0.099561
1156.576788	0.099014
1156.731160	0.109131
1156.885513	0.108678
1157.039849	0.117016
1157.194166	0.120405
1157.348465	0.121299
1157.502746	0.112058
1157.657009	0.119568
1157.811253	0.113906
1157.965479	0.101722
1158.119687	0.086933
1158.273877	0.091502
1158.428048	0.080505
1158.582201	0.077821
1158.736337	0.079155
1158.890453	0.078439
1159.044552	0.067926
1159.198632	0.080349
1159.352694	0.091566
1159.506738	0.099873
1159.660764	0.097984
1159.814771	0.113797
1159.968761	0.124760
1160.122732	0.121097
1160.276685	0.116753
1160.430619	0.127590
1160.584535	0.123928
1160.738434	0.116869
1160.892313	0.121532
1161.046175	0.122178
1161.200019	0.121754
1161.353844	0.120548
1161.507651	0.133530
1161.661440	0.139007
1161.815210	0.129063
1161.968962	0.128132
1162.122697	0.140991
1162.276412	0.151663
1162.430110	0.146413
1162.583789	0.137427
1162.737451	0.135813
1162.891094	0.145450
1163.044718	0.156930
1163.198325	0.154212
1163.351913	0.141837
1163.505483	0.115001
1163.659035	0.100446
1163.812569	0.090374
1163.966084	0.090377
1164.119581	0.099939
1164.273060	0.095021
1164.426521	0.090134
1164.579964	0.087262
1164.733388	0.101923
1164.886794	0.130742
1165.040182	0.141026
1165.193551	0.139150
1165.346903	0.125180
1165.500236	0.117427
1165.653551	0.108551
1165.806848	0.116621
1165.960126	0.129412
1166.113386	0.130865
1166.266628	0.127854
1166.419852	0.108573
1166.573058	0.138883
1166.726245	0.140710
1166.879414	0.138007
1167.032565	0.141224
1167.185698	0.121395
1167.338812	0.126116
1167.491909	0.120064
1167.644987	0.100930
1167.798046	0.115341
1167.951088	0.100843
1168.104111	0.117486
1168.257117	0.103740
1168.410103	0.087522
1168.563072	0.099955
1168.716023	0.092765
1168.868955	0.072734
1169.021869	0.066212
1169.174765	0.072038
1169.327642	0.075293
1169.480501	0.067270
1169.633343	0.068090
1169.786165	0.098963
1169.938970	0.103070
1170.091757	0.112055
1170.244525	0.108060
1170.397275	0.126037
1170.550007	0.113370
1170.702720	0.094804
1170.855415	0.103259
1171.008092	0.131250
1171.160751	0.132480
1171.313392	0.136738
1171.466014	0.099791
1171.618619	0.358769
1171.771205	0.358769
1171.923772	0.358769
