sample name	sample
index	1514
start time	 05-18-2021  03:08:51 PM
880	0.457284
Peak Time (s)	91.038
Peak Height 	0.4573
calc peak height	90,93
Baseline Time (s)	10.036
Baseline Value 	-0.00257
subtract baseline	10,4
Abs	0.297023
Peak Time (s)	91.538
Peak Height 	0.297
calc peak height	90,93
Baseline Time (s)	9.034
Baseline Value 	0.003103
subtract baseline	10,3
PK_550	0.169367
Peak Time (s)	91.538
Peak Height 	0.1694
calc peak height	90,93
Baseline Time (s)	11.536
Baseline Value 	1.5271E-4
subtract baseline	10,2
PK_880	0.284732
Peak Time (s)	92.035
Peak Height 	0.2847
calc peak height	90,93
Baseline Time (s)	8.537
Baseline Value 	0.001236
subtract baseline	10,1


Time (s)	A880-A510	A880-A775	A880-A975	A880	I510	I775	I975	I880	
0.034500	-0.005635	-0.000771	-0.004067	0.006108	6531.881253	43574.406592	3990.630542	22633.956249
0.535500	-0.002484	0.000154	0.004638	0.004453	6570.950987	43815.882307	4014.638862	22708.862547
1.035500	-0.002588	-0.000186	-0.007477	0.005876	6558.488347	43650.798046	3983.381755	22644.457397
1.540500	-0.002587	-0.000819	-0.001139	0.000558	6602.083598	44091.097535	4010.236320	22886.275382
2.036000	-0.004560	-0.000293	0.001411	0.006025	6541.258928	43626.846855	4003.444627	22637.702248
2.539500	-0.000186	-0.000214	-0.000563	0.000543	6622.048220	44149.638916	4011.615677	22886.924612
3.037000	-0.004397	-0.000655	-0.003870	0.004907	6551.651699	43697.474511	3993.837433	22688.269498
3.537000	-0.001603	0.000225	-0.002532	0.000816	6608.075015	44165.445591	4006.388406	22874.475111
4.037500	-0.002987	-0.001179	-0.003760	0.003444	6575.089834	43785.566488	3997.459124	22754.675103
4.535000	-0.001315	-0.000055	-0.001267	0.000020	6617.026295	44214.320069	4011.192459	22910.873423
5.035500	-0.001231	-0.000744	-0.000463	-0.000385	6621.083470	44187.382754	4014.022093	22929.433234
5.535500	-0.000523	-0.000407	0.001192	-0.000323	6626.447647	44213.528004	4017.762353	22926.623098
6.035500	-0.001672	0.000006	-0.001998	0.000358	6611.280487	44188.052101	4008.695275	22895.391438
6.536000	-0.002974	0.000151	-0.001072	-0.000220	6605.306166	44256.597302	4012.211101	22921.890966
7.036500	-0.000907	-0.000168	-0.001662	0.000009	6620.504996	44204.680101	4010.295295	22911.394484
7.537000	-0.001477	0.000437	0.001272	0.000435	6612.259466	44221.604186	4016.168943	22891.901904
8.036500	-0.001753	-0.000025	-0.000493	-0.000219	6615.381142	44239.761402	4013.561160	22921.816424
8.536500	0.000000	-0.000228	0.002629	0.000251	6626.020066	44176.077851	4019.794610	22900.322157
9.034500	-0.003059	-0.000306	0.000000	-0.000310	6605.347323	44221.796008	4014.931806	22926.008704
9.535000	0.000566	0.000186	0.003635	0.000145	6631.601245	44225.299262	4022.418161	22905.159129
10.035500	-0.002420	0.000160	-0.000428	0.000000	6608.063207	44236.566848	4013.201427	22911.800570
10.536000	-0.001195	-0.000161	-0.000533	-0.000398	6621.488323	44243.879620	4013.888514	22930.041580
11.039000	0.000939	0.000908	0.002369	0.000670	6630.341082	44243.959839	4018.196914	22881.148500
11.536000	0.000298	0.000000	-0.000600	-0.000092	6631.339775	44230.141246	4013.014795	22916.020041
12.036500	-0.001142	0.000544	-0.001304	0.000065	6618.089812	44266.838904	4010.999665	22908.822436
12.537000	-0.002675	-0.001022	-0.001316	-0.001014	6614.332003	44220.724668	4013.497899	22958.316139
13.037000	0.000803	0.000345	-0.003384	-0.000588	6639.666483	44309.906297	4007.670247	22938.734702
13.534500	-0.000225	0.000549	-0.001034	-0.000235	6628.189838	44295.809766	4012.334920	22922.588443
14.035000	-0.001916	-0.000347	-0.000468	0.001300	6601.497416	44065.589771	4010.069450	22852.357819
14.535500	-0.001188	-0.000165	-0.003534	0.001836	6603.072508	44032.172215	4001.694349	22827.882142
15.038000	-0.000889	0.000570	0.001699	0.000057	6620.254989	44270.100511	4018.062802	22909.211619
15.536000	0.000478	0.000379	0.001890	0.000043	6631.718540	44253.346149	4018.544632	22909.845237
16.036000	-0.000621	-0.000314	0.000388	-0.000769	6629.336164	44264.578450	4016.921838	22947.075309
16.536500	-0.000728	0.000827	0.001944	0.000377	6618.934746	44264.047532	4017.884519	22894.525988
17.037000	-0.002808	-0.000688	-0.005642	0.002192	6586.818709	43949.359169	3996.006214	22811.663454
17.536000	0.000167	0.000063	-0.002769	0.000521	6625.161940	44178.005050	4006.521382	22887.950964
18.037500	0.001376	0.000723	-0.001442	0.001804	6624.540777	44118.984607	4006.623047	22829.316658
18.537500	-0.001008	-0.000431	-0.002645	0.000815	6612.992737	44103.395334	4006.124846	22874.483024
19.034500	-0.002265	-0.000825	0.000321	0.002902	6585.443573	43869.675473	4008.173629	22779.322353
19.535000	-0.001249	0.000206	-0.002345	0.001179	6607.995270	44129.286121	4005.977359	22857.880202
20.036000	-0.000436	0.000290	0.001748	0.001104	6615.337811	44144.298698	4015.715360	22861.298324
20.538000	-0.000425	0.000359	-0.001626	0.001224	6614.432648	44139.494690	4007.544620	22855.791012
21.036500	-0.003030	-0.000018	-0.000822	0.002832	6579.743369	43952.131644	4005.674499	22782.483439
21.536500	-0.001202	0.001043	0.001539	0.001651	6604.491766	44163.812315	4013.943667	22836.331853
22.037000	-0.000199	0.000341	-0.000477	0.001080	6617.493650	44151.350086	4010.560817	22862.376835
22.537000	-0.000862	-0.000386	0.001369	0.000613	6615.871619	44126.829268	4015.977043	22883.737298
23.037500	-0.003761	-0.000310	-0.002667	0.002578	6575.839261	43948.538448	4001.985261	22794.067458
23.535000	-0.001999	0.000089	-0.003293	0.000504	6607.372624	44182.120100	4005.343461	22888.735616
24.035500	-0.000716	0.000650	-0.002085	0.001600	6608.916194	44131.415983	4005.601995	22838.630521
24.535500	-0.001808	-0.000256	-0.001564	0.000452	6609.377175	44154.306583	4009.488606	22891.090176
25.038000	-0.003093	-0.000340	0.001557	0.000426	6598.992062	44148.867469	4016.860007	22892.301795
25.536000	-0.001512	0.000553	-0.000448	0.001084	6606.604867	44171.074055	4010.620239	22862.194547
26.036500	-0.003710	0.000246	-0.003048	0.000847	6590.457394	44164.465457	4005.115654	22873.037800
26.536500	0.000523	0.000598	-0.000320	0.001450	6620.412948	44140.752817	4010.064182	22845.490534
27.037000	0.000948	0.000432	-0.000181	-0.000984	6644.181032	44355.831346	4016.086816	22956.909448
27.537000	0.000800	0.000027	-0.002057	-0.001927	6650.822121	44407.094086	4013.900461	23000.286134
28.034500	-0.002055	0.000118	-0.005392	0.002673	6589.045399	43979.930659	3995.473068	22789.717681
28.535000	-0.001510	-0.000265	-0.001093	-0.000706	6621.428440	44263.197789	4013.298874	22944.163386
29.035500	-0.002553	0.000172	0.000274	-0.000439	6610.589016	44279.340721	4015.877496	22931.917260
29.535500	0.000578	-0.000186	0.001007	-0.000655	6638.353849	44265.915222	4018.107282	22941.834359
30.035500	-0.002192	0.000064	0.003740	0.001555	6597.116517	44080.280337	4019.339306	22840.696163
30.536000	-0.000600	-0.000213	-0.002375	0.001675	6609.251332	44042.774757	4004.754423	22835.209694
31.039000	-0.006174	0.000096	0.001218	0.004090	6543.858899	43844.543957	4007.494648	22725.319987
31.537000	0.001424	0.000982	-0.000137	0.000287	6637.562721	44287.333094	4013.212926	22898.673413
32.040000	-0.001681	0.000133	-0.004032	0.001442	6602.259393	44097.527256	4001.454079	22845.854055
32.537000	-0.000620	0.000248	0.004902	-0.000366	6625.992496	44279.671155	4026.628219	22928.589949
33.035000	-0.003908	0.000770	-0.007436	0.005922	6547.379301	43735.869165	3983.368759	22642.365320
33.535500	-0.000819	-0.000120	-0.000062	-0.002714	6643.875935	44468.012010	4020.439249	23036.504174
34.035500	-0.002971	0.000258	-0.004424	0.001474	6591.375650	44106.312628	4000.473221	22844.383987
34.538500	0.000208	0.000333	-0.005909	0.001466	6617.669395	44114.218758	3997.064447	22844.775576
35.036000	-0.003248	-0.000145	0.003431	0.003103	6575.746324	43914.670724	4014.973808	22770.188341
35.536500	-0.001513	-0.000070	-0.001043	0.001057	6606.825475	44114.749420	4009.295812	22863.453268
36.037000	-0.002073	0.000073	-0.001084	0.001452	6598.941468	44090.867333	4008.276860	22845.395836
36.536500	-0.002205	0.000631	0.001153	0.001583	6596.775599	44131.278506	4013.197898	22839.418006
37.037000	-0.000401	0.000885	0.006900	0.003758	6593.724775	43949.904535	4021.595911	22740.388485
37.534500	-0.001586	0.001101	-0.005177	0.001725	6600.708857	44162.234044	3998.152909	22832.921581
38.035000	-0.000297	0.000247	0.002497	0.001690	6611.638353	44084.872911	4016.098917	22834.542898
38.535000	0.000494	0.000458	0.000492	0.001569	6619.179762	44116.175785	4011.683671	22840.042810
39.035500	-0.004299	0.000036	0.001400	0.002598	6571.270511	43979.240914	4011.399524	22793.134780
39.536000	-0.002090	-0.000375	-0.003529	0.000826	6603.964825	44107.702427	4004.047127	22873.987746
40.036000	-0.000299	0.000119	-0.001082	0.001448	6613.620620	44095.615896	4008.292869	22845.595903
40.536500	-0.002695	0.000454	-0.000303	0.001210	6595.818557	44149.815303	4010.665924	22856.466201
41.037000	-0.001937	-0.000236	0.001915	0.001388	6600.600455	44067.798661	4015.442711	22848.339555
41.537000	-0.002391	0.000370	0.000903	0.001227	6598.180923	44140.228088	4013.445019	22855.679173
42.037500	-0.001401	0.000605	-0.000577	0.001324	6605.538286	44153.325588	4009.758707	22851.237165
42.535000	0.000340	0.000749	-0.002166	0.001964	6614.645648	44106.450636	4004.571097	22822.055255
43.035500	-0.000190	0.000676	0.001125	0.003087	6600.990140	43993.473201	4009.615041	22770.895027
43.535500	-0.000351	-0.000404	0.000185	0.000674	6619.594102	44119.327657	4013.059275	22880.934417
44.038500	-0.000137	0.000448	0.001716	-0.000645	6632.326363	44325.183939	4019.753590	22941.374909
44.537000	-0.000650	-0.000191	-0.002592	-0.000906	6630.227739	44289.308706	4010.260971	22953.360897
45.036000	-0.003832	0.000073	-0.000252	0.005169	6554.113080	43741.129310	4001.576090	22676.409790
45.536500	0.000086	-0.000630	0.003431	-0.000649	6634.212778	44223.187455	4023.813079	22941.545228
46.037000	-0.001711	0.000664	-0.000857	0.001821	6598.887563	44111.920493	4007.945753	22828.558057
46.537000	-0.000231	0.000834	-0.000393	0.000002	6626.170070	44300.327834	4013.280541	22911.716495
47.034500	-0.003635	-0.000028	-0.001938	0.004375	6562.187212	43806.147435	3999.513020	22712.393409
47.534500	-0.001958	0.000758	-0.001944	0.001944	6595.840692	44109.138534	4005.133539	22822.964836
48.035500	-0.002142	-0.000235	-0.000914	0.000457	6606.585795	44155.906460	4010.996205	22890.886442
48.536000	-0.000900	0.000020	0.006040	-0.000352	6623.550582	44256.698907	4029.299933	22927.934373
49.035000	-0.005361	-0.000197	-0.000395	0.005827	6536.370999	43654.301135	3999.723613	22646.649100
49.536000	0.001336	0.000218	0.005511	-0.002382	6659.110438	44468.636423	4032.877299	23021.230041
50.036500	0.000274	0.000409	0.002680	0.000362	6627.370597	44225.847008	4019.652906	22895.238266
50.537000	-0.001867	-0.000047	0.005492	0.014395	6495.541040	42874.921940	3993.548397	22263.203725
51.037000	0.027702	-0.015090	0.035257	0.649399	3883.229470	11967.853829	3243.722270	7477.949532
51.537000	-0.008395	-0.015237	-0.016196	0.138898	5590.719414	31922.090887	3708.488784	17466.438220
52.034500	-0.013105	-0.030360	-0.024675	-0.108879	7517.988380	52379.526115	4232.015138	28580.052662
52.535000	-0.001127	-0.079567	-0.004505	-0.254018	9477.938024	64572.280285	4804.463988	38723.435169
53.035500	-0.001915	-0.090712	-0.001094	-0.270028	9708.254633	65265.295334	4887.161675	40064.267211
53.538000	-0.000324	-0.077728	0.002664	-0.253258	9478.578604	64725.393482	4831.346509	38661.009717
54.035500	0.003774	-0.051539	0.009098	-0.215933	9002.995128	63164.189298	4705.350752	35725.693018
54.536000	0.008838	-0.032106	0.015868	-0.180365	8597.271992	60971.859882	4595.694908	33153.752417
55.036500	0.018134	-0.021912	0.030025	-0.159780	8454.189710	59602.517458	4572.189230	31758.632057
55.537000	0.031366	-0.008327	0.043092	-0.115117	8074.903801	55697.417950	4461.606769	28949.907520
56.037000	0.055475	0.007980	0.067377	-0.058488	7710.319377	51029.729224	4356.436867	25779.739814
56.537500	0.076133	0.021644	0.089447	0.010432	7217.162055	45298.083550	4217.338281	22439.649079
57.037500	0.094497	0.035276	0.102846	0.049114	7025.384532	42930.318059	4148.276276	20784.591308
57.534500	0.111762	0.048498	0.118587	0.101815	6711.659637	39465.321530	4054.287751	18754.330435
58.038500	0.127327	0.056603	0.135487	0.166157	6319.632622	35042.981154	3944.793286	16587.466274
58.536000	0.142362	0.067095	0.150771	0.194610	6219.280598	33746.933977	3916.461022	15726.951109
59.036000	0.164415	0.082502	0.167972	0.209078	6275.626688	33813.394910	3922.271324	15310.557249
59.536500	0.187103	0.094717	0.192833	0.231122	6280.452165	33125.034929	3928.297554	14702.174324
60.037000	0.199616	0.104906	0.204378	0.283516	5994.512557	30340.247822	3844.623985	13374.310280
60.536500	0.204730	0.113199	0.216949	0.300120	5916.882096	29823.060348	3836.782097	12985.850677
61.037500	0.218334	0.119304	0.230164	0.329311	5814.807248	28437.245985	3806.422292	12337.891727
61.535000	0.227077	0.125860	0.237184	0.352009	5726.471754	27511.085847	3777.694077	11863.304908
62.035000	0.231661	0.131820	0.238920	0.371846	5633.116510	26741.973797	3745.792039	11468.381699
62.535500	0.234257	0.137253	0.232956	0.375202	5628.553689	26855.562772	3729.878064	11403.340733
63.035500	0.237340	0.142159	0.245381	0.383101	5599.796290	26692.049073	3737.562394	11252.198633
63.536000	0.244314	0.144755	0.250992	0.379607	5662.702242	27025.840509	3753.268788	11318.713609
64.036000	0.246831	0.147160	0.253908	0.382798	5658.607269	26982.533978	3752.790039	11257.949509
64.536500	0.251554	0.151271	0.259210	0.386575	5664.357623	27000.961204	3755.451460	11186.605931
65.037000	0.253444	0.151814	0.256399	0.393971	5631.061613	26626.028896	3737.815281	11048.666608
65.537000	0.255376	0.153432	0.258651	0.388220	5677.641777	27029.424348	3751.608950	11155.720012
66.034500	0.257354	0.155772	0.260062	0.391292	5670.960519	26989.004313	3748.724164	11098.362724
66.535000	0.262367	0.158130	0.257505	0.393787	5686.358366	26981.423600	3740.020055	11052.062650
67.035000	0.261592	0.159684	0.267563	0.401281	5636.104634	26656.424824	3744.426505	10914.634521
67.538000	0.265555	0.160800	0.266528	0.397134	5685.387638	26944.195245	3749.806445	10990.395799
68.035500	0.267566	0.162227	0.271244	0.400021	5680.015606	26864.007053	3752.985983	10937.565075
68.536000	0.268108	0.163443	0.269425	0.403244	5663.658987	26754.250923	3744.252869	10879.025674
69.036500	0.266890	0.161834	0.266548	0.410933	5610.019837	26252.189755	3726.272295	10741.066379
69.536500	0.269731	0.162657	0.270224	0.408373	5642.417454	26433.680054	3736.831876	10786.735331
70.036500	0.270155	0.163631	0.271758	0.411485	5626.240632	26318.840240	3734.144238	10731.259674
70.537000	0.270152	0.164458	0.276697	0.413664	5613.180447	26246.487223	3738.848658	10692.648993
71.037500	0.267166	0.165143	0.273544	0.421130	5551.554767	25887.175243	3720.909931	10561.848106
71.535000	0.271475	0.165365	0.278617	0.416898	5601.809141	26122.604479	3736.606323	10635.725889
72.035500	0.273460	0.166595	0.276544	0.417932	5607.466458	26132.983136	3731.327962	10617.613711
72.535500	0.274726	0.167424	0.282879	0.419536	5605.450198	26091.844316	3739.378274	10589.584159
73.036000	0.272790	0.167510	0.271557	0.419979	5591.334006	26072.913637	3719.517044	10581.870464
73.536500	0.277480	0.168130	0.276206	0.421327	5611.185432	26034.357702	3725.035538	10558.430586
74.036500	0.277408	0.170311	0.285830	0.423287	5599.100817	26046.051067	3738.011380	10524.475752
74.536500	0.277366	0.170175	0.278638	0.424074	5594.184972	25997.239174	3724.507282	10510.886679
75.037000	0.280227	0.172859	0.283345	0.426675	5595.723057	26001.619583	3728.046019	10466.139037
75.543000	0.277728	0.173099	0.286858	0.426509	5581.929453	26023.066459	3734.273015	10468.986323
76.038000	0.279067	0.173787	0.279635	0.427647	5583.120097	25999.307603	3720.200155	10449.496599
76.717500	0.280719	0.174491	0.279424	0.429807	5580.123277	25922.490920	3716.258925	10412.631796
77.038500	0.280233	0.174689	0.285159	0.429899	5576.721011	25928.127130	3725.676940	10411.069350
77.618500	0.277326	0.172426	0.275336	0.436251	5522.820738	25478.805274	3699.007733	10303.725786
78.083500	0.278863	0.172204	0.281538	0.431354	5560.155000	25721.510002	3717.199210	10386.343013
78.536500	0.280072	0.172112	0.286812	0.432684	5559.443814	25647.380319	3723.776316	10363.802727
79.037000	0.280049	0.173123	0.289497	0.435718	5541.642987	25542.413641	3723.192012	10312.673149
79.534500	0.278814	0.172795	0.284533	0.438427	5518.862281	25385.712668	3710.460570	10267.313879
80.037500	0.280763	0.171815	0.285776	0.437907	5533.097103	25362.021854	3713.365342	10275.989404
80.537500	0.279720	0.171715	0.279937	0.437576	5528.978711	25373.897776	3704.326822	10281.517499
81.037500	0.279654	0.170625	0.285245	0.437636	5528.253494	25314.885829	3712.937235	10280.525050
81.535500	0.278243	0.171576	0.283242	0.441667	5497.036987	25157.584485	3703.046410	10213.422778
82.035000	0.278087	0.169752	0.282936	0.439091	5510.877529	25195.911793	3706.752776	10256.239817
82.535500	0.278237	0.170034	0.287863	0.439767	5507.860402	25175.795810	3713.740929	10244.973386
83.036500	0.281582	0.170555	0.287453	0.442294	5512.547337	25073.855301	3708.905323	10203.049835
83.536500	0.279113	0.168578	0.284293	0.443655	5490.673524	24905.258924	3701.523921	10180.559934
84.037000	0.281221	0.171466	0.287766	0.443623	5502.872372	25052.702494	3707.240390	10181.099220
84.539500	0.281723	0.168809	0.292682	0.442465	5512.369763	24976.881618	3717.252177	10200.210225
85.037500	0.283169	0.169680	0.292813	0.443008	5517.557305	24993.429070	3716.570202	10191.237985
85.534500	0.281016	0.169859	0.286994	0.448250	5475.414070	24739.164444	3698.454534	10105.180287
86.035000	0.279523	0.169822	0.287178	0.446064	5479.335618	24846.769306	3702.298541	10140.950907
86.538500	0.282396	0.168431	0.292810	0.445872	5496.738214	24786.653518	3711.829564	10144.088828
87.035000	0.280492	0.169366	0.286411	0.453250	5444.398161	24466.569346	3689.484679	10024.051450
87.535500	0.280310	0.168426	0.289649	0.451235	5454.648586	24519.717701	3697.921991	10056.644533
88.036000	0.283634	0.168472	0.296345	0.449082	5485.527584	24628.648513	3712.366083	10091.614707
88.536500	0.284095	0.168747	0.291487	0.449960	5483.168133	24598.720698	3702.970824	10077.342050
89.036500	0.284181	0.169526	0.295539	0.450592	5480.066666	24605.971214	3708.555505	10067.061935
89.534500	0.284221	0.169014	0.296773	0.451244	5476.609210	24548.321380	3709.512470	10056.490551
90.037500	0.284625	0.169001	0.296377	0.451835	5475.555130	24518.468291	3707.892689	10046.925570
90.535000	0.283306	0.169244	0.296209	0.452218	5465.950424	24511.494412	3706.989672	10040.720178
91.037500	0.279989	0.167472	0.285647	0.457284	5419.223961	24176.327313	3681.868791	9959.292702
91.538500	0.284629	0.169367	0.297023	0.453976	5463.506978	24430.922099	3705.447576	10012.358809
92.035500	0.284732	0.168301	0.288961	0.453336	5467.687625	24409.940369	3693.428543	10022.667290
92.536000	0.283544	0.168034	0.292814	0.453382	5460.747566	24394.537920	3699.567318	10021.927127
93.036000	0.281167	0.166610	0.290785	0.459788	5411.907410	24013.258344	3686.039034	9919.377032
93.539500	0.283920	0.166442	0.294377	0.458769	5432.760296	24054.357577	3693.401793	9935.593649
94.037000	0.285967	0.168216	0.298875	0.456035	5459.451829	24273.467312	3705.109102	9979.271411
94.534500	0.285648	0.168626	0.299947	0.456088	5457.367879	24290.902520	3706.774345	9978.425726
95.034500	0.279369	0.167283	0.287813	0.462218	5388.751941	23928.661124	3677.512227	9880.880899
95.535000	0.282243	0.169515	0.293765	0.463966	5394.894004	23951.886718	3684.139374	9853.305565
96.035000	0.284722	0.167966	0.292294	0.458059	5441.172876	24162.681335	3691.202131	9946.908778
