sample name	sample
index	1518
start time	 05-18-2021  03:22:16 PM


Wavelength (nm)	Absorbance
494.344910	1.014091
494.563924	1.014091
494.782919	1.014091
495.001897	-0.060969
495.220856	0.249745
495.439797	0.205806
495.658719	0.199478
495.877624	0.194400
496.096510	0.244838
496.315378	0.195175
496.534227	0.317370
496.753059	0.318499
496.971872	0.341162
497.190667	0.194560
497.409444	0.184451
497.628203	0.180424
497.846943	0.179260
498.065665	0.179169
498.284369	0.179680
498.503055	0.179312
498.721723	0.179372
498.940372	0.179104
499.159003	0.180246
499.377616	0.181148
499.596210	0.180694
499.814787	0.181531
500.033345	0.181687
500.251885	0.181458
500.470406	0.182190
500.688910	0.181052
500.907395	0.181864
501.125862	0.180807
501.344311	0.180487
501.562742	0.182256
501.781154	0.181308
501.999548	0.179715
502.217924	0.180743
502.436282	0.178857
502.654621	0.180291
502.872942	0.180194
503.091245	0.180871
503.309530	0.181186
503.527797	0.180801
503.746045	0.181108
503.964275	0.183327
504.182487	0.181642
504.400681	0.182733
504.618856	0.183289
504.837013	0.183889
505.055152	0.184023
505.273273	0.183604
505.491376	0.184097
505.709460	0.184668
505.927526	0.184812
506.145574	0.184788
506.363604	0.184612
506.581615	0.183279
506.799608	0.183419
507.017583	0.182673
507.235540	0.182252
507.453478	0.182131
507.671399	0.181662
507.889301	0.180968
508.107185	0.180666
508.325050	0.181602
508.542898	0.182791
508.760727	0.181926
508.978538	0.182778
509.196330	0.182662
509.414105	0.182662
509.631861	0.182935
509.849599	0.182868
510.067319	0.183985
510.285021	0.183427
510.502704	0.183236
510.720369	0.183881
510.938016	0.184416
511.155645	0.185909
511.373255	0.186080
511.590848	0.186325
511.808422	0.186799
512.025977	0.186396
512.243515	0.186712
512.461034	0.186376
512.678536	0.186354
512.896018	0.185776
513.113483	0.184820
513.330930	0.184478
513.548358	0.184075
513.765768	0.184540
513.983160	0.185202
514.200533	0.185819
514.417889	0.186022
514.635226	0.185234
514.852545	0.185815
515.069845	0.186395
515.287128	0.186729
515.504392	0.187209
515.721638	0.186838
515.938866	0.186416
516.156075	0.186238
516.373267	0.187595
516.590440	0.188257
516.807594	0.188635
517.024731	0.189444
517.241850	0.189764
517.458950	0.189323
517.676032	0.189553
517.893095	0.189611
518.110141	0.189536
518.327168	0.188986
518.544177	0.189658
518.761168	0.188963
518.978141	0.189285
519.195095	0.189055
519.412031	0.190229
519.628949	0.190012
519.845849	0.191024
520.062731	0.191813
520.279594	0.191568
520.496439	0.191804
520.713266	0.192262
520.930074	0.190962
521.146865	0.191008
521.363637	0.191124
521.580391	0.191620
521.797127	0.191950
522.013844	0.191177
522.230543	0.191019
522.447224	0.191331
522.663887	0.192104
522.880532	0.192812
523.097158	0.193562
523.313766	0.193297
523.530356	0.193181
523.746928	0.192943
523.963481	0.193816
524.180017	0.194319
524.396534	0.194422
524.613032	0.194371
524.829513	0.195198
525.045975	0.195518
525.262420	0.196106
525.478845	0.195918
525.695253	0.196090
525.911643	0.196034
526.128014	0.196268
526.344367	0.195846
526.560702	0.195656
526.777018	0.195126
526.993316	0.195182
527.209597	0.195497
527.425858	0.196712
527.642102	0.196548
527.858328	0.196831
528.074535	0.197443
528.290724	0.197508
528.506894	0.197250
528.723047	0.197822
528.939181	0.197751
529.155297	0.196861
529.371395	0.196581
529.587475	0.197525
529.803536	0.197748
530.019579	0.197737
530.235604	0.198023
530.451611	0.198876
530.667600	0.198827
530.883570	0.198827
531.099522	0.199641
531.315456	0.200144
531.531372	0.199659
531.747269	0.200599
531.963148	0.200544
532.179009	0.200886
532.394852	0.201153
532.610676	0.201540
532.826482	0.202367
533.042271	0.202733
533.258040	0.202782
533.473792	0.202931
533.689525	0.202741
533.905240	0.203756
534.120937	0.204486
534.336616	0.205412
534.552277	0.205870
534.767919	0.205340
534.983543	0.206075
535.199149	0.206548
535.414736	0.207314
535.630306	0.207527
535.845857	0.207295
536.061390	0.207257
536.276904	0.206731
536.492401	0.206761
536.707879	0.206926
536.923339	0.207423
537.138781	0.207226
537.354204	0.207797
537.569610	0.208242
537.784997	0.208721
538.000366	0.208997
538.215716	0.209506
538.431049	0.209659
538.646363	0.210245
538.861659	0.209971
539.076937	0.210470
539.292196	0.210011
539.507438	0.210163
539.722661	0.210489
539.937866	0.211309
540.153052	0.211063
540.368221	0.211439
540.583371	0.212028
540.798503	0.211945
541.013617	0.212752
541.228712	0.213520
541.443789	0.213467
541.658848	0.213398
541.873889	0.213642
542.088912	0.214630
542.303916	0.215063
542.518902	0.214956
542.733870	0.215391
542.948820	0.215225
543.163752	0.215358
543.378665	0.215501
543.593560	0.215612
543.808437	0.215145
544.023295	0.214966
544.238136	0.215005
544.452958	0.215067
544.667762	0.215058
544.882548	0.214960
545.097315	0.215052
545.312064	0.215094
545.526795	0.215651
545.741508	0.215344
545.956203	0.214970
546.170879	0.215070
546.385537	0.215205
546.600177	0.215784
546.814799	0.216045
547.029402	0.216121
547.243988	0.216015
547.458555	0.216454
547.673103	0.218252
547.887634	0.218690
548.102146	0.219207
548.316640	0.219823
548.531116	0.220077
548.745574	0.220303
548.960013	0.220431
549.174435	0.220748
549.388838	0.220053
549.603222	0.218926
549.817589	0.219563
550.031937	0.220025
550.246267	0.220035
550.460579	0.219707
550.674873	0.219603
550.889148	0.219805
551.103405	0.220000
551.317644	0.220318
551.531865	0.220476
551.746068	0.219995
551.960252	0.219715
552.174418	0.219625
552.388566	0.219998
552.602696	0.219915
552.816807	0.220246
553.030900	0.221519
553.244975	0.221742
553.459032	0.222232
553.673070	0.222715
553.887091	0.222914
554.101093	0.223335
554.315077	0.223530
554.529042	0.224147
554.742990	0.224068
554.956919	0.223090
555.170830	0.223343
555.384722	0.223313
555.598597	0.223497
555.812453	0.223265
556.026291	0.223441
556.240111	0.223362
556.453913	0.223257
556.667696	0.223263
556.881461	0.223943
557.095208	0.224299
557.308937	0.224330
557.522647	0.224576
557.736339	0.224989
557.950013	0.225161
558.163669	0.225474
558.377307	0.225974
558.590926	0.226051
558.804527	0.226035
559.018110	0.225903
559.231675	0.226197
559.445221	0.226703
559.658749	0.226774
559.872259	0.227144
560.085751	0.226793
560.299225	0.227229
560.512680	0.227740
560.726117	0.228125
560.939536	0.228156
561.152937	0.228542
561.366319	0.228616
561.579683	0.228703
561.793029	0.228636
562.006357	0.229202
562.219667	0.228864
562.432958	0.229106
562.646231	0.228983
562.859486	0.229097
563.072723	0.229205
563.285941	0.229115
563.499141	0.228883
563.712323	0.228715
563.925487	0.228790
564.138632	0.229131
564.351760	0.228759
564.564869	0.229073
564.777960	0.229066
564.991032	0.228870
565.204087	0.228302
565.417123	0.229195
565.630141	0.229364
565.843140	0.229520
566.056122	0.229802
566.269085	0.229889
566.482030	0.229870
566.694957	0.230413
566.907866	0.230443
567.120756	0.231104
567.333628	0.231007
567.546482	0.231419
567.759318	0.231715
567.972135	0.231709
568.184935	0.232301
568.397716	0.232541
568.610478	0.232714
568.823223	0.233061
569.035949	0.233546
569.248657	0.233759
569.461347	0.233841
569.674019	0.233813
569.886672	0.233478
570.099308	0.233567
570.311925	0.233488
570.524523	0.233276
570.737104	0.233383
570.949666	0.233153
571.162210	0.233028
571.374736	0.233436
571.587244	0.233498
571.799733	0.233919
572.012205	0.233922
572.224658	0.234066
572.437092	0.234200
572.649509	0.234302
572.861907	0.234392
573.074287	0.234558
573.286649	0.234354
573.498993	0.234136
573.711318	0.233953
573.923625	0.234017
574.135914	0.233711
574.348185	0.234095
574.560438	0.234380
574.772672	0.234652
574.984888	0.234499
575.197086	0.234823
575.409266	0.235247
575.621427	0.235733
575.833570	0.236335
576.045695	0.236937
576.257802	0.236931
576.469890	0.236965
576.681961	0.237023
576.894013	0.237523
577.106046	0.237345
577.318062	0.237916
577.530059	0.238206
577.742039	0.238191
577.954000	0.238350
578.165942	0.238508
578.377867	0.238820
578.589773	0.239235
578.801661	0.239253
579.013531	0.239206
579.225382	0.238877
579.437216	0.238893
579.649031	0.238839
579.860828	0.238866
580.072606	0.238947
580.284367	0.239407
580.496109	0.239212
580.707833	0.239316
580.919539	0.239607
581.131227	0.239864
581.342896	0.239884
581.554547	0.240026
581.766180	0.240008
581.977795	0.240382
582.189391	0.240312
582.400969	0.240565
582.612529	0.240578
582.824071	0.240602
583.035595	0.240719
583.247100	0.240732
583.458587	0.240989
583.670056	0.241094
583.881506	0.241300
584.092939	0.241058
584.304353	0.240856
584.515749	0.241235
584.727127	0.241833
584.938486	0.241995
585.149828	0.242513
585.361151	0.242812
585.572456	0.242984
585.783742	0.242947
585.995011	0.243442
586.206261	0.243772
586.417493	0.243689
586.628706	0.243727
586.839902	0.244103
587.051079	0.244318
587.262238	0.243851
587.473379	0.244243
587.684502	0.244478
587.895606	0.244275
588.106692	0.244157
588.317760	0.244448
588.528810	0.244334
588.739841	0.244224
588.950855	0.244106
589.161850	0.244172
589.372827	0.243949
589.583785	0.244128
589.794726	0.244205
590.005648	0.244699
590.216552	0.244818
590.427437	0.245172
590.638305	0.245025
590.849154	0.244830
591.059985	0.244946
591.270798	0.245168
591.481592	0.245109
591.692369	0.245470
591.903127	0.245598
592.113867	0.245790
592.324588	0.246044
592.535292	0.246349
592.745977	0.246923
592.956644	0.247338
593.167293	0.247593
593.377923	0.247880
593.588536	0.248180
593.799130	0.248056
594.009706	0.248440
594.220263	0.248582
594.430803	0.249111
594.641324	0.249530
594.851827	0.249663
595.062312	0.250153
595.272778	0.250034
595.483227	0.250267
595.693657	0.250726
595.904069	0.250401
596.114462	0.250526
596.324838	0.250556
596.535195	0.250536
596.745534	0.250967
596.955855	0.250944
597.166157	0.251475
597.376441	0.251329
597.586707	0.251494
597.796955	0.252147
598.007185	0.252039
598.217396	0.252099
598.427589	0.252341
598.637764	0.252327
598.847921	0.252511
599.058060	0.252369
599.268180	0.252189
599.478282	0.251940
599.688366	0.251542
599.898431	0.251610
600.108479	0.251553
600.318508	0.251249
600.528519	0.251443
600.738511	0.251312
600.948486	0.251607
601.158442	0.251819
601.368380	0.252162
601.578300	0.252554
601.788202	0.252708
601.998085	0.252867
602.207950	0.253117
602.417797	0.253002
602.627626	0.253185
602.837436	0.253031
603.047228	0.253587
603.257002	0.253594
603.466758	0.253795
603.676496	0.253969
603.886215	0.254057
604.095916	0.253805
604.305599	0.254180
604.515264	0.254190
604.724910	0.254332
604.934538	0.253946
605.144148	0.254236
605.353740	0.254263
605.563314	0.254428
605.772869	0.254601
605.982406	0.254718
606.191925	0.254760
606.401425	0.254806
606.610908	0.254776
606.820372	0.255119
607.029818	0.255373
607.239246	0.255581
607.448655	0.255733
607.658047	0.256131
607.867420	0.256596
608.076775	0.256866
608.286111	0.257244
608.495430	0.257813
608.704730	0.258056
608.914012	0.258032
609.123275	0.258065
609.332521	0.258169
609.541748	0.257580
609.750957	0.257632
609.960148	0.257538
610.169321	0.257705
610.378475	0.257515
610.587611	0.257418
610.796729	0.257475
611.005829	0.257409
611.214910	0.257463
611.423974	0.258246
611.633019	0.258621
611.842045	0.258771
612.051054	0.258730
612.260044	0.258781
612.469017	0.258997
612.677970	0.259138
612.886906	0.259556
613.095824	0.259778
613.304723	0.259729
613.513604	0.260035
613.722467	0.259961
613.931311	0.260241
614.140138	0.260321
614.348946	0.260486
614.557736	0.260753
614.766507	0.260598
614.975261	0.260599
615.183996	0.260863
615.392713	0.260335
615.601412	0.260667
615.810092	0.260803
616.018754	0.260904
616.227399	0.261103
616.436024	0.261065
616.644632	0.261305
616.853222	0.261412
617.061793	0.261221
617.270346	0.261525
617.478880	0.261441
617.687397	0.261388
617.895895	0.261662
618.104375	0.261740
618.312837	0.261774
618.521281	0.261755
618.729706	0.262028
618.938113	0.262360
619.146502	0.262498
619.354873	0.262603
619.563226	0.262809
619.771560	0.262938
619.979876	0.262924
620.188174	0.263449
620.396453	0.263748
620.604715	0.263795
620.812958	0.263978
621.021183	0.264124
621.229390	0.264389
621.437578	0.264833
621.645748	0.264706
621.853900	0.265120
622.062034	0.265100
622.270150	0.264897
622.478247	0.265149
622.686326	0.265235
622.894387	0.265337
623.102430	0.265369
623.310454	0.265180
623.518461	0.265621
623.726449	0.265463
623.934418	0.265402
624.142370	0.265548
624.350303	0.265708
624.558218	0.265640
624.766115	0.265781
624.973994	0.266098
625.181855	0.266169
625.389697	0.266458
625.597521	0.266536
625.805327	0.266575
626.013114	0.266915
626.220883	0.266749
626.428634	0.266908
626.636367	0.267149
626.844082	0.267013
627.051778	0.266913
627.259457	0.266761
627.467117	0.267202
627.674758	0.267455
627.882382	0.267306
628.089987	0.267481
628.297574	0.267750
628.505143	0.267781
628.712694	0.268140
628.920226	0.268278
629.127740	0.268491
629.335236	0.268241
629.542714	0.267795
629.750174	0.268114
629.957615	0.268091
630.165038	0.268050
630.372443	0.268067
630.579829	0.268141
630.787198	0.268365
630.994548	0.268529
631.201880	0.268594
631.409194	0.269148
631.616489	0.269499
631.823766	0.269858
632.031025	0.270083
632.238266	0.270365
632.445489	0.270421
632.652693	0.270668
632.859879	0.270654
633.067047	0.270977
633.274197	0.271065
633.481329	0.271155
633.688442	0.271190
633.895537	0.270958
634.102614	0.271042
634.309672	0.271138
634.516713	0.271399
634.723735	0.271705
634.930739	0.271991
635.137724	0.271915
635.344692	0.272024
635.551641	0.271829
635.758572	0.272330
635.965485	0.272474
636.172379	0.272998
636.379256	0.272913
636.586114	0.273051
636.792954	0.273093
636.999775	0.273293
637.206579	0.273278
637.413364	0.273475
637.620131	0.273413
637.826880	0.273458
638.033610	0.273239
638.240323	0.273355
638.447017	0.273502
638.653692	0.273390
638.860350	0.273660
639.066990	0.273690
639.273611	0.273799
639.480214	0.273777
639.686798	0.273880
639.893365	0.273847
640.099913	0.273840
640.306443	0.273633
640.512955	0.273672
640.719449	0.274060
640.925924	0.274360
641.132381	0.274710
641.338820	0.274974
641.545241	0.275046
641.751644	0.275216
641.958028	0.275465
642.164394	0.275776
642.370742	0.276318
642.577071	0.276275
642.783383	0.276119
642.989676	0.276019
643.195951	0.276150
643.402207	0.276313
643.608446	0.276281
643.814666	0.276564
644.020868	0.276550
644.227052	0.276633
644.433218	0.276726
644.639365	0.277045
644.845494	0.277506
645.051605	0.277708
645.257698	0.278011
645.463772	0.278308
645.669828	0.278470
645.875866	0.278748
646.081886	0.278953
646.287888	0.279149
646.493871	0.279155
646.699836	0.279245
646.905783	0.279372
647.111712	0.279264
647.317622	0.279337
647.523514	0.279214
647.729388	0.279135
647.935244	0.278954
648.141082	0.279065
648.346901	0.279527
648.552702	0.279646
648.758485	0.280089
648.964250	0.280200
649.169996	0.280331
649.375724	0.280647
649.581434	0.280841
649.787126	0.281102
649.992800	0.281289
650.198455	0.281239
650.404092	0.281292
650.609711	0.281171
650.815311	0.281336
651.020894	0.281612
651.226458	0.281770
651.432004	0.282097
651.637532	0.282209
651.843041	0.282230
652.048532	0.282689
652.254006	0.282868
652.459460	0.282756
652.664897	0.283041
652.870315	0.283149
653.075716	0.283362
653.281097	0.283550
653.486461	0.283756
653.691807	0.283915
653.897134	0.283907
654.102443	0.284388
654.307734	0.284842
654.513006	0.284694
654.718261	0.284819
654.923497	0.284698
655.128715	0.284912
655.333915	0.285082
655.539096	0.285254
655.744259	0.285288
655.949404	0.285207
656.154531	0.285105
656.359640	0.285702
656.564730	0.286136
656.769802	0.286414
656.974856	0.286340
657.179892	0.286454
657.384909	0.286766
657.589908	0.287222
657.794889	0.287155
657.999852	0.287562
658.204797	0.287664
658.409723	0.287686
658.614631	0.287904
658.819521	0.288101
659.024393	0.288343
659.229246	0.288239
659.434081	0.288091
659.638898	0.288441
659.843697	0.288350
660.048478	0.288255
660.253240	0.288321
660.457984	0.288245
660.662710	0.288364
660.867417	0.288552
661.072107	0.288819
661.276778	0.288934
661.481431	0.289056
661.686066	0.289398
661.890682	0.289872
662.095281	0.290128
662.299861	0.290502
662.504422	0.290923
662.708966	0.290908
662.913491	0.291220
663.117999	0.291411
663.322488	0.291802
663.526958	0.291889
663.731411	0.291878
663.935845	0.291811
664.140261	0.292036
664.344659	0.291826
664.549038	0.291907
664.753400	0.292031
664.957743	0.292134
665.162068	0.292214
665.366375	0.292349
665.570663	0.292556
665.774933	0.292745
665.979185	0.292642
666.183419	0.293104
666.387635	0.293283
666.591832	0.293096
666.796011	0.293489
667.000172	0.293474
667.204315	0.293663
667.408439	0.293741
667.612545	0.293972
667.816634	0.294384
668.020703	0.294509
668.224755	0.294746
668.428788	0.295209
668.632803	0.295041
668.836800	0.295204
669.040779	0.295535
669.244739	0.295847
669.448681	0.296260
669.652605	0.296436
669.856511	0.296299
670.060399	0.296756
670.264268	0.297099
670.468119	0.297313
670.671952	0.297471
670.875767	0.297709
671.079563	0.297790
671.283341	0.297836
671.487101	0.297802
671.690843	0.298248
671.894567	0.297931
672.098272	0.297783
672.301959	0.297786
672.505628	0.297926
672.709278	0.297726
672.912911	0.297743
673.116525	0.297774
673.320121	0.297834
673.523699	0.297980
673.727258	0.298262
673.930799	0.298372
674.134322	0.298968
674.337827	0.299041
674.541314	0.299327
674.744782	0.299486
674.948232	0.299530
675.151664	0.299952
675.355078	0.299942
675.558474	0.300176
675.761851	0.300379
675.965210	0.300540
676.168551	0.300723
676.371873	0.300934
676.575178	0.301094
676.778464	0.301550
676.981732	0.301292
677.184981	0.301589
677.388213	0.301777
677.591426	0.302046
677.794621	0.302043
677.997798	0.302207
678.200956	0.302386
678.404097	0.302667
678.607219	0.302860
678.810323	0.303453
679.013408	0.303682
679.216476	0.304050
679.419525	0.304085
679.622556	0.304298
679.825569	0.304606
680.028563	0.304742
680.231540	0.304881
680.434498	0.304884
680.637438	0.305128
680.840359	0.305314
681.043263	0.305206
681.246148	0.305417
681.449015	0.305334
681.651864	0.305515
681.854694	0.305722
682.057506	0.305853
682.260301	0.305795
682.463076	0.305643
682.665834	0.305643
682.868573	0.305660
683.071295	0.305759
683.273998	0.305945
683.476682	0.305922
683.679349	0.305819
683.881997	0.305900
684.084627	0.306316
684.287239	0.306555
684.489833	0.306525
684.692408	0.306770
684.894965	0.306799
685.097504	0.307173
685.300025	0.307341
685.502527	0.307428
685.705012	0.307690
685.907478	0.307962
686.109925	0.308183
686.312355	0.308636
686.514766	0.308939
686.717159	0.309224
686.919534	0.309210
687.121891	0.309278
687.324230	0.309871
687.526550	0.310021
687.728852	0.309807
687.931136	0.309673
688.133401	0.309680
688.335649	0.309667
688.537878	0.309626
688.740089	0.309802
688.942281	0.309950
689.144456	0.309960
689.346612	0.309944
689.548750	0.310148
689.750870	0.310620
689.952971	0.310681
690.155055	0.311104
690.357120	0.311323
690.559167	0.311316
690.761195	0.311483
690.963206	0.311549
691.165198	0.311626
691.367172	0.311464
691.569128	0.311076
691.771065	0.311160
691.972984	0.311134
692.174885	0.311209
692.376768	0.311286
692.578633	0.311376
692.780479	0.311242
692.982308	0.311303
693.184118	0.311465
693.385909	0.311983
693.587683	0.312127
693.789438	0.311952
693.991175	0.311989
694.192894	0.312187
694.394595	0.312195
694.596277	0.312362
694.797941	0.312466
694.999587	0.313163
695.201215	0.313286
695.402824	0.313168
695.604416	0.313572
695.805989	0.313565
696.007543	0.313605
696.209080	0.313548
696.410598	0.313426
696.612099	0.313510
696.813580	0.313098
697.015044	0.312928
697.216490	0.313010
697.417917	0.312840
697.619326	0.313101
697.820717	0.312974
698.022089	0.313177
698.223444	0.313568
698.424780	0.313650
698.626098	0.314038
698.827397	0.314248
699.028679	0.314251
699.229942	0.314229
699.431187	0.314199
699.632414	0.314767
699.833622	0.314959
700.034813	0.315202
700.235985	0.315436
700.437139	0.315337
700.638274	0.315446
700.839392	0.316101
701.040491	0.316225
701.241572	0.316591
701.442635	0.316630
701.643679	0.316804
701.844706	0.316841
702.045714	0.316566
702.246704	0.316697
702.447675	0.316641
702.648629	0.316767
702.849564	0.316853
703.050481	0.316993
703.251380	0.316760
703.452260	0.316813
703.653122	0.316912
703.853966	0.317182
704.054792	0.317094
704.255600	0.317108
704.456389	0.316736
704.657160	0.316839
704.857913	0.316790
705.058648	0.317103
705.259365	0.317055
705.460063	0.316620
705.660743	0.316747
705.861405	0.316754
706.062048	0.316837
706.262674	0.316761
706.463281	0.316758
706.663870	0.316585
706.864441	0.316556
707.064993	0.316655
707.265527	0.316914
707.466043	0.316994
707.666541	0.316760
707.867021	0.317002
708.067482	0.317068
708.267925	0.317316
708.468350	0.317613
708.668757	0.317440
708.869145	0.317426
709.069516	0.317545
709.269868	0.317488
709.470201	0.317921
709.670517	0.318011
709.870814	0.318284
710.071093	0.318508
710.271354	0.318468
710.471597	0.318620
710.671821	0.318818
710.872028	0.318827
711.072216	0.318750
711.272385	0.318469
711.472537	0.318373
711.672670	0.318158
711.872785	0.318248
712.072882	0.318207
712.272961	0.318063
712.473021	0.317982
712.673063	0.317828
712.873087	0.318017
713.073093	0.318398
713.273081	0.318072
713.473050	0.318235
713.673001	0.318046
713.872934	0.317885
714.072849	0.318174
714.272745	0.318276
714.472623	0.318509
714.672483	0.318563
714.872325	0.318446
715.072148	0.318870
715.271954	0.318850
715.471741	0.318683
715.671509	0.318671
715.871260	0.318557
716.070992	0.318207
716.270707	0.318195
716.470403	0.318150
716.670080	0.317861
716.869740	0.317695
717.069381	0.317562
717.269004	0.317423
717.468609	0.317484
717.668195	0.317414
717.867764	0.317374
718.067314	0.317304
718.266846	0.317333
718.466360	0.317741
718.665855	0.317503
718.865332	0.317472
719.064791	0.317272
719.264232	0.317445
719.463655	0.317426
719.663059	0.317419
719.862445	0.317499
720.061813	0.317347
720.261163	0.317169
720.460494	0.317370
720.659807	0.317536
720.859102	0.317632
721.058379	0.317243
721.257638	0.317105
721.456878	0.317237
721.656100	0.316918
721.855304	0.316719
722.054490	0.316459
722.253657	0.316213
722.452806	0.315748
722.651937	0.315649
722.851050	0.315596
723.050145	0.315512
723.249221	0.315180
723.448279	0.315186
723.647319	0.315326
723.846340	0.315095
724.045344	0.314811
724.244329	0.314929
724.443296	0.314672
724.642245	0.314432
724.841175	0.314226
725.040088	0.314103
725.238982	0.313786
725.437857	0.313430
725.636715	0.313550
725.835554	0.313405
726.034376	0.313168
726.233179	0.313104
726.431963	0.313335
726.630730	0.313318
726.829478	0.313379
727.028208	0.313409
727.226920	0.313120
727.425614	0.312885
727.624289	0.312994
727.822946	0.313032
728.021585	0.312881
728.220206	0.312396
728.418808	0.312062
728.617392	0.312062
728.815958	0.312164
729.014506	0.312207
729.213036	0.312127
729.411547	0.312015
729.610040	0.312040
729.808515	0.312175
730.006972	0.312141
730.205410	0.312323
730.403831	0.311934
730.602233	0.311616
730.800616	0.311489
730.998982	0.311381
731.197329	0.311276
731.395658	0.310882
731.593969	0.310783
731.792262	0.310677
731.990536	0.310505
732.188793	0.310569
732.387031	0.310426
732.585250	0.310353
732.783452	0.310294
732.981635	0.310299
733.179800	0.310398
733.377947	0.310215
733.576076	0.310291
733.774186	0.310236
733.972278	0.310114
734.170352	0.310178
734.368408	0.310250
734.566446	0.310216
734.764465	0.310072
734.962466	0.309946
735.160449	0.309855
735.358413	0.309883
735.556360	0.309588
735.754288	0.309528
735.952198	0.309063
736.150090	0.308801
736.347963	0.308545
736.545818	0.308415
736.743655	0.308142
736.941474	0.307687
737.139275	0.307229
737.337057	0.307199
737.534821	0.306881
737.732567	0.306853
737.930295	0.306715
738.128005	0.306481
738.325696	0.305820
738.523369	0.305667
738.721024	0.305513
738.918660	0.305218
739.116279	0.305281
739.313879	0.304921
739.511461	0.304910
739.709024	0.304736
739.906570	0.304668
740.104097	0.304821
740.301606	0.304722
740.499097	0.304761
740.696569	0.304781
740.894024	0.304331
741.091460	0.304439
741.288878	0.303887
741.486277	0.303749
741.683659	0.303662
741.881022	0.303618
742.078367	0.303373
742.275694	0.303306
742.473002	0.303195
742.670293	0.302904
742.867565	0.302560
743.064819	0.302565
743.262054	0.302273
743.459272	0.302180
743.656471	0.301948
743.853652	0.301599
744.050815	0.301715
744.247959	0.301656
744.445085	0.301763
744.642194	0.301910
744.839283	0.301950
745.036355	0.301818
745.233408	0.301645
745.430444	0.301587
745.627461	0.301678
745.824459	0.301196
746.021440	0.301039
746.218402	0.300728
746.415346	0.300311
746.612272	0.299930
746.809180	0.299780
747.006069	0.299256
747.202940	0.299075
747.399793	0.298590
747.596628	0.298398
747.793444	0.297916
747.990243	0.297776
748.187023	0.297744
748.383784	0.297945
748.580528	0.298039
748.777253	0.298079
748.973960	0.297967
749.170649	0.298075
749.367320	0.297830
749.563973	0.297899
749.760607	0.297957
749.957223	0.297977
750.153821	0.297363
750.350400	0.297305
750.546962	0.296995
750.743505	0.296817
750.940030	0.296688
751.136536	0.296782
751.333025	0.296391
751.529495	0.296067
751.725947	0.295776
751.922381	0.296037
752.118796	0.295529
752.315194	0.295409
752.511573	0.295173
752.707934	0.294968
752.904276	0.294807
753.100601	0.294746
753.296907	0.294566
753.493195	0.293974
753.689465	0.293400
753.885716	0.293211
754.081949	0.293016
754.278164	0.292501
754.474361	0.292437
754.670540	0.291799
754.866700	0.291802
755.062843	0.291596
755.258967	0.291819
755.455072	0.291805
755.651160	0.291720
755.847229	0.291842
756.043280	0.292133
756.239313	0.291965
756.435328	0.292250
756.631324	0.292391
756.827302	0.292328
757.023262	0.292413
757.219204	0.292521
757.415127	0.292583
757.611033	0.292648
757.806920	0.292771
758.002788	0.292794
758.198639	0.292577
758.394471	0.292299
758.590286	0.292067
758.786081	0.291684
758.981859	0.291485
759.177619	0.291193
759.373360	0.291035
759.569083	0.290699
759.764788	0.290340
759.960474	0.290529
760.156143	0.290490
760.351793	0.290562
760.547425	0.290631
760.743038	0.290452
760.938634	0.290382
761.134211	0.290287
761.329770	0.290190
761.525311	0.290226
761.720833	0.289961
761.916338	0.289799
762.111824	0.289890
762.307292	0.289663
762.502741	0.289581
762.698173	0.289443
762.893586	0.289104
763.088981	0.288923
763.284358	0.288749
763.479716	0.288328
763.675057	0.288154
763.870379	0.287668
764.065683	0.287519
764.260968	0.287306
764.456236	0.287129
764.651485	0.287129
764.846716	0.286851
765.041929	0.286819
765.237123	0.286737
765.432299	0.286587
765.627457	0.286616
765.822597	0.286564
766.017719	0.286711
766.212822	0.286779
766.407907	0.286557
766.602974	0.286523
766.798023	0.286384
766.993054	0.286438
767.188066	0.286592
767.383060	0.286521
767.578036	0.286826
767.772993	0.286745
767.967933	0.286518
768.162854	0.286653
768.357757	0.286758
768.552642	0.287174
768.747508	0.287260
768.942356	0.286915
769.137186	0.286990
769.331998	0.286374
769.526792	0.286186
769.721567	0.286328
769.916324	0.286281
770.111063	0.286217
770.305784	0.285876
770.500486	0.285681
770.695171	0.285983
770.889837	0.285913
771.084484	0.286160
771.279114	0.286102
771.473725	0.285922
771.668318	0.285730
771.862893	0.285582
772.057450	0.285504
772.251988	0.285377
772.446509	0.285028
772.641011	0.284854
772.835494	0.284769
773.029960	0.284673
773.224407	0.284518
773.418836	0.284566
773.613247	0.284510
773.807640	0.284355
774.002014	0.284617
774.196370	0.284661
774.390708	0.284872
774.585028	0.284821
774.779330	0.285162
774.973613	0.285221
775.167878	0.285129
775.362125	0.285095
775.556354	0.285104
775.750564	0.284881
775.944756	0.284886
776.138930	0.284455
776.333086	0.284616
776.527223	0.284163
776.721343	0.284369
776.915444	0.284311
777.109526	0.284295
777.303591	0.284062
777.497637	0.284131
777.691666	0.284360
777.885676	0.284478
778.079667	0.284289
778.273641	0.284421
778.467596	0.284441
778.661533	0.284609
778.855452	0.284548
779.049352	0.284867
779.243235	0.284643
779.437099	0.284409
779.630945	0.284442
779.824773	0.284521
780.018582	0.284521
780.212373	0.284398
780.406146	0.284228
780.599901	0.284276
780.793638	0.284148
780.987356	0.284275
781.181056	0.284059
781.374738	0.284262
781.568402	0.284146
781.762047	0.284169
781.955674	0.284279
782.149283	0.284096
782.342874	0.284237
782.536447	0.284347
782.730001	0.284607
782.923537	0.284898
783.117055	0.284747
783.310555	0.284898
783.504036	0.285074
783.697499	0.285029
783.890944	0.285226
784.084371	0.285468
784.277780	0.285667
784.471170	0.285692
784.664542	0.285762
784.857896	0.285794
785.051231	0.285885
785.244549	0.285883
785.437848	0.286053
785.631129	0.286085
785.824392	0.285870
786.017636	0.285911
786.210863	0.286106
786.404071	0.286338
786.597260	0.286360
786.790432	0.286462
786.983585	0.286583
787.176721	0.286483
787.369838	0.286599
787.562936	0.286726
787.756017	0.286583
787.949079	0.286267
788.142123	0.286121
788.335149	0.286525
788.528156	0.286414
788.721146	0.286219
788.914117	0.286475
789.107070	0.286686
789.300005	0.286846
789.492921	0.287057
789.685819	0.287395
789.878699	0.287385
790.071561	0.287205
790.264405	0.287705
790.457230	0.288091
790.650037	0.288315
790.842826	0.288415
791.035597	0.288592
791.228349	0.288485
791.421084	0.288594
791.613800	0.288887
791.806497	0.288839
791.999177	0.288924
792.191838	0.288902
792.384481	0.288659
792.577106	0.288956
792.769713	0.289000
792.962301	0.289337
793.154871	0.289460
793.347423	0.289557
793.539957	0.289732
793.732473	0.289628
793.924970	0.289958
794.117449	0.290539
794.309910	0.290445
794.502353	0.290575
794.694777	0.290581
794.887183	0.290810
795.079571	0.290791
795.271941	0.290882
795.464293	0.290956
795.656626	0.290857
795.848941	0.290599
796.041238	0.290700
796.233516	0.290753
796.425777	0.290927
796.618019	0.291114
796.810243	0.291170
797.002449	0.291376
797.194636	0.291654
797.386805	0.291841
797.578956	0.292261
797.771089	0.292495
797.963204	0.292784
798.155300	0.293034
798.347378	0.292798
798.539438	0.292983
798.731480	0.293590
798.923503	0.293620
799.115509	0.293681
799.307496	0.293823
799.499465	0.294133
799.691415	0.294291
799.883348	0.294435
800.075262	0.294717
800.267158	0.295019
800.459035	0.294898
800.650895	0.295400
800.842736	0.295678
801.034559	0.295909
801.226364	0.296253
801.418150	0.296609
801.609919	0.296843
801.801669	0.297312
801.993401	0.297495
802.185114	0.297684
802.376810	0.297928
802.568487	0.298279
802.760146	0.298313
802.951787	0.298254
803.143409	0.298391
803.335014	0.298642
803.526600	0.298947
803.718168	0.299186
803.909717	0.299362
804.101249	0.299330
804.292762	0.299769
804.484257	0.300198
804.675734	0.300480
804.867192	0.300671
805.058632	0.300994
805.250054	0.300908
805.441458	0.301154
805.632844	0.301818
805.824211	0.302002
806.015561	0.301707
806.206891	0.301541
806.398204	0.301861
806.589499	0.302292
806.780775	0.302671
806.972033	0.303001
807.163273	0.303444
807.354495	0.303571
807.545698	0.303872
807.736883	0.304369
807.928050	0.305025
808.119199	0.305186
808.310329	0.305132
808.501441	0.305202
808.692535	0.305459
808.883611	0.305677
809.074669	0.305664
809.265708	0.306038
809.456729	0.306265
809.647732	0.306224
809.838717	0.306294
810.029683	0.306598
810.220632	0.306968
810.411562	0.307063
810.602474	0.307348
810.793367	0.307453
810.984242	0.307695
811.175100	0.307775
811.365938	0.308361
811.556759	0.308713
811.747562	0.309042
811.938346	0.308974
812.129112	0.309637
812.319860	0.309903
812.510589	0.310241
812.701300	0.310453
812.891994	0.310807
813.082668	0.310991
813.273325	0.311586
813.463964	0.312005
813.654584	0.312603
813.845186	0.312772
814.035769	0.313027
814.226335	0.313638
814.416882	0.314026
814.607411	0.314407
814.797922	0.314787
814.988415	0.314955
815.178889	0.315227
815.369345	0.315564
815.559783	0.315705
815.750203	0.316085
815.940605	0.316386
816.130988	0.316408
816.321353	0.316917
816.511700	0.317039
816.702028	0.317351
816.892339	0.317495
817.082631	0.317408
817.272905	0.317971
817.463161	0.318074
817.653398	0.318271
817.843617	0.318524
818.033819	0.318529
818.224001	0.318995
818.414166	0.319266
818.604312	0.319714
818.794440	0.320370
818.984550	0.320318
819.174642	0.320672
819.364716	0.320808
819.554771	0.321299
819.744808	0.321618
819.934827	0.321429
820.124827	0.321435
820.314810	0.321734
820.504774	0.322127
820.694720	0.322815
820.884647	0.323236
821.074557	0.323704
821.264448	0.323654
821.454321	0.323852
821.644176	0.324427
821.834012	0.324908
822.023831	0.325339
822.213631	0.325430
822.403413	0.325422
822.593176	0.325647
822.782922	0.325953
822.972649	0.326744
823.162358	0.327350
823.352049	0.327891
823.541721	0.328470
823.731376	0.328296
823.921012	0.328598
824.110629	0.328987
824.300229	0.329343
824.489811	0.329651
824.679374	0.329836
824.868919	0.330176
825.058445	0.330234
825.247954	0.330484
825.437444	0.331454
825.626916	0.331871
825.816370	0.332373
826.005806	0.332938
826.195223	0.333491
826.384622	0.334005
826.574003	0.334314
826.763366	0.334822
826.952711	0.335015
827.142037	0.334957
827.331345	0.335267
827.520635	0.335628
827.709906	0.335859
827.899160	0.336087
828.088395	0.335967
828.277612	0.336579
828.466810	0.336692
828.655991	0.337447
828.845153	0.337822
829.034297	0.338199
829.223423	0.338208
829.412531	0.338318
829.601620	0.338430
829.790691	0.339066
829.979744	0.339232
830.168779	0.340010
830.357795	0.340156
830.546793	0.340607
830.735773	0.340842
830.924735	0.341394
831.113679	0.342099
831.302604	0.342438
831.491511	0.342941
831.680400	0.343290
831.869271	0.343283
832.058123	0.343586
832.246957	0.343827
832.435773	0.344426
832.624571	0.345075
832.813351	0.345342
833.002112	0.345954
833.190855	0.346430
833.379580	0.346623
833.568287	0.346901
833.756975	0.347308
833.945645	0.347766
834.134297	0.347988
834.322931	0.348444
834.511547	0.348724
834.700144	0.349578
834.888723	0.349780
835.077284	0.350617
835.265826	0.351329
835.454351	0.351804
835.642857	0.352495
835.831345	0.353072
836.019815	0.353207
836.208266	0.353749
836.396699	0.353850
836.585114	0.354525
836.773511	0.354892
836.961890	0.355189
837.150250	0.355750
837.338592	0.356034
837.526916	0.356560
837.715222	0.356955
837.903510	0.357644
838.091779	0.358100
838.280030	0.358271
838.468263	0.358527
838.656477	0.359084
838.844674	0.359491
839.032852	0.359780
839.221012	0.360107
839.409153	0.360718
839.597277	0.360829
839.785382	0.361246
839.973469	0.361922
840.161538	0.362712
840.349589	0.363194
840.537621	0.363784
840.725635	0.364264
840.913631	0.364918
841.101609	0.365108
841.289568	0.365895
841.477509	0.366392
841.665432	0.366803
841.853337	0.367076
842.041224	0.367876
842.229092	0.367872
842.416942	0.368500
842.604774	0.368734
842.792588	0.369366
842.980383	0.369593
843.168160	0.369960
843.355919	0.370448
843.543660	0.370952
843.731382	0.371049
843.919087	0.371803
844.106773	0.372102
844.294441	0.372362
844.482090	0.372501
844.669722	0.372653
844.857335	0.373024
845.044930	0.373458
845.232507	0.373915
845.420065	0.374443
845.607605	0.374793
845.795127	0.375306
845.982631	0.375932
846.170117	0.376599
846.357584	0.377056
846.545033	0.377355
846.732464	0.377570
846.919877	0.377972
847.107272	0.378363
847.294648	0.378842
847.482006	0.379312
847.669346	0.379451
847.856667	0.379815
848.043971	0.380364
848.231256	0.380946
848.418523	0.381107
848.605771	0.381427
848.793002	0.381669
848.980214	0.382199
849.167408	0.382593
849.354584	0.383025
849.541742	0.383269
849.728881	0.383514
849.916002	0.383537
850.103105	0.384394
850.290190	0.384817
850.477256	0.385313
850.664304	0.385149
850.851334	0.385203
851.038346	0.385494
851.225340	0.385997
851.412315	0.386691
851.599272	0.387404
851.786211	0.387584
851.973132	0.387804
852.160034	0.387988
852.346918	0.388281
852.533784	0.388790
852.720632	0.389410
852.907462	0.390190
853.094273	0.390100
853.281066	0.390256
853.467841	0.390709
853.654598	0.391248
853.841336	0.391675
854.028056	0.392355
854.214758	0.392598
854.401442	0.392696
854.588107	0.393014
854.774755	0.393662
854.961384	0.394106
855.147995	0.394231
855.334587	0.394213
855.521162	0.394386
855.707718	0.394328
855.894256	0.394959
856.080775	0.395712
856.267277	0.395863
856.453760	0.396260
856.640225	0.396953
856.826672	0.397615
857.013101	0.398067
857.199511	0.399183
857.385903	0.399971
857.572277	0.400426
857.758633	0.400610
857.944970	0.400663
858.131290	0.400845
858.317591	0.401037
858.503873	0.401369
858.690138	0.401823
858.876384	0.401590
859.062612	0.402294
859.248822	0.402700
859.435014	0.403018
859.621188	0.403514
859.807343	0.403944
859.993480	0.404743
860.179599	0.404879
860.365699	0.405551
860.551781	0.406322
860.737846	0.406703
860.923891	0.407171
861.109919	0.407805
861.295929	0.408346
861.481920	0.408834
861.667893	0.408929
861.853848	0.409656
862.039784	0.409814
862.225702	0.410129
862.411603	0.410208
862.597484	0.410034
862.783348	0.410275
862.969193	0.410672
863.155021	0.411088
863.340830	0.411647
863.526620	0.411931
863.712393	0.412141
863.898147	0.412092
864.083883	0.412270
864.269601	0.412771
864.455301	0.412981
864.640982	0.413203
864.826645	0.413589
865.012290	0.413307
865.197917	0.413244
865.383526	0.413770
865.569116	0.414495
865.754688	0.414676
865.940242	0.415190
866.125777	0.415534
866.311295	0.416069
866.496794	0.416394
866.682275	0.417035
866.867737	0.417464
867.053182	0.417447
867.238608	0.417405
867.424016	0.418177
867.609406	0.418159
867.794778	0.418603
867.980131	0.418710
868.165466	0.418447
868.350783	0.418692
868.536082	0.419281
868.721362	0.420104
868.906625	0.420322
869.091869	0.420748
869.277094	0.421428
869.462302	0.421652
869.647491	0.422424
869.832662	0.423246
870.017815	0.423721
870.202950	0.423981
870.388066	0.424334
870.573165	0.425414
870.758245	0.425192
870.943306	0.425625
871.128350	0.425947
871.313375	0.425949
871.498382	0.426037
871.683371	0.425496
871.868342	0.425600
872.053294	0.425197
872.238229	0.424739
872.423144	0.425119
872.608042	0.425260
872.792922	0.425083
872.977783	0.425177
873.162626	0.425550
873.347451	0.426358
873.532258	0.426179
873.717046	0.426620
873.901816	0.426890
874.086568	0.427139
874.271302	0.426815
874.456017	0.427291
874.640715	0.427417
874.825394	0.427477
875.010055	0.427421
875.194697	0.427835
875.379322	0.428313
875.563928	0.428038
875.748516	0.428601
875.933085	0.429442
876.117637	0.429350
876.302170	0.429177
876.486685	0.429502
876.671182	0.429590
876.855661	0.429645
877.040121	0.429786
877.224563	0.430972
877.408987	0.430921
877.593393	0.430519
877.777780	0.431381
877.962150	0.431988
878.146501	0.432647
878.330833	0.432767
878.515148	0.433478
878.699444	0.433731
878.883722	0.432965
879.067982	0.432759
879.252224	0.433126
879.436447	0.432742
879.620653	0.432727
879.804840	0.432138
879.989008	0.432442
880.173159	0.432265
880.357291	0.432088
880.541405	0.432159
880.725501	0.432604
880.909579	0.432769
881.093638	0.432646
881.277680	0.432715
881.461703	0.432791
881.645707	0.432704
881.829694	0.432450
882.013662	0.432444
882.197612	0.432735
882.381544	0.432669
882.565458	0.432484
882.749353	0.432984
882.933230	0.433204
883.117089	0.433340
883.300930	0.433511
883.484753	0.433483
883.668557	0.433626
883.852343	0.433299
884.036111	0.433355
884.219861	0.433150
884.403592	0.432786
884.587305	0.432479
884.771000	0.431935
884.954677	0.432368
885.138335	0.432893
885.321976	0.432474
885.505598	0.432659
885.689201	0.432751
885.872787	0.432929
886.056354	0.433280
886.239904	0.433544
886.423434	0.433969
886.606947	0.433540
886.790442	0.433365
886.973918	0.433754
887.157376	0.434232
887.340816	0.433698
887.524237	0.433747
887.707641	0.433652
887.891026	0.433632
888.074393	0.433716
888.257741	0.433556
888.441072	0.433163
888.624384	0.433382
888.807678	0.433207
888.990954	0.434204
889.174211	0.434136
889.357451	0.434398
889.540672	0.434320
889.723875	0.434388
889.907059	0.434937
890.090226	0.435501
890.273374	0.435197
890.456504	0.435773
890.639616	0.435239
890.822709	0.435439
891.005785	0.434889
891.188842	0.435122
891.371881	0.434945
891.554901	0.434287
891.737904	0.434126
891.920888	0.433557
892.103854	0.432656
892.286802	0.432381
892.469731	0.432464
892.652643	0.432796
892.835536	0.432261
893.018410	0.432229
893.201267	0.432631
893.384106	0.432575
893.566926	0.433445
893.749728	0.433677
893.932511	0.433618
894.115277	0.433547
894.298024	0.433300
894.480753	0.433220
894.663464	0.432875
894.846157	0.432500
895.028831	0.432191
895.211487	0.431569
895.394125	0.431915
895.576745	0.432135
895.759346	0.431902
895.941930	0.431523
896.124495	0.431661
896.307041	0.431603
896.489570	0.431602
896.672080	0.431599
896.854573	0.431142
897.037046	0.429883
897.219502	0.429466
897.401940	0.429492
897.584359	0.429420
897.766760	0.428953
897.949143	0.428693
898.131507	0.428606
898.313854	0.427604
898.496182	0.427576
898.678492	0.428257
898.860783	0.428277
899.043057	0.427763
899.225312	0.427385
899.407549	0.426785
899.589768	0.427002
899.771968	0.426516
899.954151	0.427364
900.136315	0.427344
900.318461	0.426593
900.500588	0.426262
900.682698	0.425573
900.864789	0.425240
901.046862	0.424977
901.228917	0.424396
901.410953	0.424044
901.592971	0.423292
901.774972	0.422911
901.956953	0.423020
902.138917	0.422517
902.320862	0.422615
902.502790	0.422926
902.684699	0.423339
902.866589	0.423237
903.048462	0.423172
903.230316	0.422789
903.412152	0.422406
903.593970	0.421177
903.775770	0.420202
903.957551	0.419683
904.139314	0.419366
904.321059	0.418387
904.502786	0.417580
904.684494	0.416714
904.866185	0.416774
905.047857	0.416002
905.229510	0.415630
905.411146	0.415951
905.592763	0.415340
905.774363	0.414386
905.955943	0.414202
906.137506	0.414124
906.319051	0.413924
906.500577	0.413162
906.682085	0.413743
906.863575	0.414045
907.045046	0.413722
907.226500	0.414160
907.407935	0.414411
907.589352	0.414238
907.770750	0.413556
907.952131	0.413677
908.133493	0.413392
908.314837	0.412412
908.496163	0.412280
908.677470	0.412062
908.858760	0.411241
909.040031	0.410802
909.221284	0.410522
909.402518	0.409894
909.583735	0.408638
909.764933	0.408224
909.946113	0.407967
910.127275	0.406965
910.308418	0.406496
910.489544	0.406200
910.670651	0.405417
910.851740	0.404923
911.032810	0.404614
911.213863	0.404881
911.394897	0.404176
911.575913	0.403926
911.756911	0.403776
911.937890	0.403371
912.118851	0.402537
912.299794	0.402138
912.480719	0.401898
912.661626	0.402294
912.842514	0.402264
913.023384	0.401929
913.204236	0.402168
913.385070	0.402198
913.565886	0.401165
913.746683	0.400667
913.927462	0.400447
914.108223	0.399484
914.288965	0.398662
914.469690	0.397640
914.650396	0.396843
914.831084	0.395179
915.011754	0.394662
915.192405	0.394599
915.373038	0.393780
915.553653	0.392756
915.734250	0.391671
915.914829	0.391202
916.095389	0.390841
916.275931	0.390851
916.456455	0.390176
916.636961	0.389173
916.817448	0.388510
916.997917	0.388469
917.178368	0.388253
917.358801	0.388538
917.539216	0.388407
917.719612	0.387751
917.899990	0.387402
918.080350	0.387500
918.260692	0.386509
918.441015	0.385453
918.621320	0.384438
918.801607	0.383803
918.981876	0.383288
919.162127	0.381988
919.342359	0.381491
919.522573	0.380952
919.702769	0.379630
919.882947	0.379671
920.063106	0.378639
920.243247	0.378532
920.423370	0.377644
920.603475	0.377546
920.783562	0.376460
920.963630	0.375534
921.143680	0.374004
921.323712	0.373981
921.503725	0.372954
921.683721	0.372379
921.863698	0.371700
922.043657	0.371538
922.223598	0.370302
922.403520	0.370152
922.583424	0.369129
922.763311	0.368375
922.943178	0.367752
923.123028	0.366427
923.302859	0.365618
923.482673	0.364809
923.662467	0.363485
923.842244	0.362350
924.022003	0.361759
924.201743	0.360726
924.381465	0.360478
924.561169	0.359325
924.740854	0.359128
924.920522	0.358389
925.100171	0.357631
925.279802	0.356867
925.459414	0.356904
925.639009	0.355698
925.818585	0.355580
925.998143	0.354567
926.177683	0.353599
926.357205	0.352507
926.536708	0.352540
926.716193	0.351284
926.895660	0.350699
927.075109	0.349208
927.254539	0.347948
927.433951	0.347055
927.613345	0.346025
927.792721	0.345422
927.972079	0.345001
928.151418	0.343039
928.330739	0.341989
928.510042	0.341055
928.689327	0.340256
928.868593	0.340318
929.047841	0.338979
929.227071	0.337765
929.406283	0.337503
929.585476	0.337207
929.764652	0.337156
929.943809	0.337088
930.122948	0.336066
930.302068	0.334876
930.481171	0.333267
930.660255	0.333096
930.839321	0.332781
931.018369	0.330877
931.197398	0.329952
931.376409	0.329705
931.555402	0.328675
931.734377	0.326793
931.913334	0.326450
932.092272	0.325792
932.271192	0.324472
932.450094	0.323985
932.628978	0.323054
932.807844	0.321440
932.986691	0.319741
933.165520	0.317681
933.344331	0.317075
933.523123	0.315357
933.701898	0.315001
933.880654	0.313093
934.059392	0.311820
934.238111	0.310892
934.416813	0.310204
934.595496	0.309689
934.774161	0.309899
934.952808	0.309594
935.131437	0.310091
935.310047	0.308741
935.488639	0.308651
935.667213	0.307902
935.845769	0.307002
936.024306	0.305206
936.202825	0.304413
936.381326	0.302821
936.559809	0.302440
936.738274	0.300447
936.916720	0.298691
937.095148	0.297724
937.273558	0.296774
937.451950	0.295333
937.630323	0.295105
937.808678	0.293445
937.987015	0.293187
938.165334	0.291099
938.343635	0.289964
938.521917	0.290315
938.700181	0.288736
938.878427	0.287857
939.056655	0.287052
939.234864	0.285079
939.413055	0.284177
939.591228	0.283715
939.769383	0.283414
939.947519	0.281632
940.125638	0.279747
940.303738	0.278104
940.481820	0.277185
940.659883	0.276430
940.837929	0.276788
941.015956	0.276350
941.193965	0.275290
941.371955	0.274746
941.549928	0.274201
941.727882	0.273067
941.905818	0.274364
942.083736	0.272851
942.261636	0.272800
942.439517	0.270433
942.617380	0.268152
942.795225	0.265258
942.973052	0.263388
943.150860	0.262554
943.328651	0.260961
943.506423	0.259223
943.684176	0.258438
943.861912	0.256781
944.039629	0.257016
944.217328	0.255402
944.395009	0.256243
944.572672	0.253606
944.750317	0.253019
944.927943	0.253886
945.105551	0.252941
945.283141	0.252042
945.460712	0.250683
945.638265	0.250763
945.815801	0.251858
945.993317	0.251057
946.170816	0.252377
946.348297	0.251163
946.525759	0.249708
946.703203	0.247447
946.880629	0.246765
947.058036	0.247983
947.235425	0.244031
947.412797	0.242913
947.590149	0.240863
947.767484	0.238308
947.944800	0.236497
948.122099	0.235523
948.299379	0.236039
948.476640	0.234264
948.653884	0.231619
948.831109	0.232651
949.008316	0.231502
949.185505	0.230659
949.362676	0.230566
949.539828	0.230831
949.716962	0.230877
949.894078	0.228855
950.071176	0.229657
950.248256	0.228850
950.425317	0.228446
950.602360	0.226384
950.779385	0.225799
950.956391	0.224160
951.133380	0.222359
951.310350	0.221034
951.487302	0.221300
951.664235	0.218638
951.841151	0.216586
952.018048	0.214488
952.194927	0.215883
952.371788	0.215111
952.548631	0.214649
952.725455	0.213733
952.902261	0.209742
953.079049	0.208626
953.255819	0.208002
953.432570	0.206509
953.609303	0.203862
953.786018	0.202882
953.962715	0.202870
954.139394	0.202451
954.316054	0.202178
954.492696	0.205821
954.669320	0.205650
954.845926	0.203798
955.022513	0.203966
955.199083	0.202969
955.375634	0.200662
955.552166	0.197993
955.728681	0.199521
955.905177	0.197282
956.081655	0.194345
956.258115	0.192839
956.434557	0.194595
956.610980	0.193990
956.787385	0.196436
956.963772	0.192307
957.140141	0.194983
957.316492	0.192211
957.492824	0.193602
957.669138	0.192669
957.845434	0.191247
958.021712	0.189199
958.197971	0.190622
958.374212	0.189699
958.550435	0.190991
958.726640	0.188299
958.902826	0.187595
959.078995	0.184571
959.255145	0.186795
959.431277	0.186948
959.607390	0.188788
959.783486	0.187385
959.959563	0.185291
960.135622	0.188850
960.311662	0.189764
960.487685	0.190055
960.663689	0.191151
960.839675	0.189545
961.015643	0.191395
961.191593	0.187672
961.367524	0.186003
961.543437	0.188075
961.719332	0.188024
961.895209	0.184124
962.071067	0.183023
962.246907	0.185097
962.422730	0.184100
962.598533	0.184266
962.774319	0.185078
962.950086	0.181557
963.125835	0.178955
963.301566	0.177671
963.477279	0.177528
963.652973	0.177910
963.828650	0.175574
964.004308	0.175821
964.179947	0.174822
964.355569	0.174459
964.531172	0.176913
964.706757	0.180091
964.882324	0.178467
965.057873	0.180726
965.233403	0.181027
965.408916	0.181978
965.584410	0.181073
965.759885	0.179234
965.935343	0.177141
966.110782	0.178784
966.286203	0.176147
966.461606	0.177524
966.636991	0.174804
966.812357	0.174792
966.987705	0.172515
967.163035	0.173757
967.338347	0.173711
967.513641	0.176345
967.688916	0.177727
967.864173	0.179467
968.039412	0.177836
968.214632	0.179107
968.389835	0.179005
968.565019	0.180090
968.740185	0.179519
968.915333	0.179164
969.090462	0.181459
969.265573	0.180794
969.440667	0.179481
969.615741	0.179251
969.790798	0.179376
969.965836	0.179003
970.140856	0.180964
970.315858	0.180466
970.490842	0.184465
970.665808	0.182565
970.840755	0.180157
971.015684	0.178542
971.190595	0.177561
971.365487	0.179609
971.540362	0.180585
971.715218	0.179091
971.890056	0.180123
972.064875	0.176709
972.239677	0.176221
972.414460	0.178243
972.589225	0.179424
972.763972	0.180839
972.938700	0.179679
973.113411	0.178949
973.288103	0.178187
973.462777	0.176754
973.637432	0.176562
973.812070	0.177974
973.986689	0.178372
974.161290	0.177310
974.335873	0.179053
974.510437	0.177901
974.684984	0.179682
974.859512	0.181371
975.034022	0.181228
975.208513	0.181075
975.382987	0.177622
975.557442	0.175814
975.731879	0.176728
975.906298	0.177086
976.080698	0.178108
976.255080	0.174781
976.429445	0.176334
976.603790	0.176273
976.778118	0.176893
976.952427	0.178716
977.126719	0.179489
977.300992	0.180023
977.475246	0.178598
977.649483	0.178574
977.823701	0.178687
977.997901	0.178917
978.172083	0.177702
978.346247	0.176320
978.520392	0.176474
978.694519	0.173895
978.868628	0.176637
979.042719	0.177872
979.216791	0.176263
979.390845	0.178529
979.564882	0.175798
979.738899	0.178616
979.912899	0.180247
980.086880	0.180346
980.260843	0.181663
980.434788	0.179135
980.608715	0.175846
980.782623	0.176597
980.956514	0.174558
981.130386	0.174445
981.304240	0.173172
981.478075	0.173361
981.651892	0.171264
981.825692	0.170873
981.999472	0.170741
982.173235	0.173126
982.346980	0.172574
982.520706	0.174556
982.694414	0.175398
982.868104	0.172735
983.041775	0.173354
983.215428	0.175671
983.389064	0.177457
983.562680	0.179306
983.736279	0.178472
983.909860	0.179067
984.083422	0.179692
984.256966	0.179194
984.430491	0.181076
984.603999	0.181819
984.777488	0.183750
984.950959	0.182513
985.124412	0.181046
985.297847	0.181730
985.471263	0.181370
985.644661	0.179620
985.818041	0.178554
985.991403	0.177972
986.164747	0.175463
986.338072	0.174313
986.511379	0.174403
986.684668	0.172000
986.857938	0.174059
987.031191	0.176907
987.204425	0.176605
987.377641	0.178430
987.550839	0.179572
987.724018	0.181123
987.897179	0.180590
988.070322	0.180950
988.243447	0.181928
988.416554	0.182264
988.589642	0.180568
988.762712	0.180804
988.935764	0.179703
989.108798	0.178131
989.281813	0.175513
989.454811	0.175317
989.627790	0.175387
989.800751	0.175872
989.973693	0.171444
990.146617	0.170281
990.319524	0.170108
990.492412	0.170384
990.665281	0.171246
990.838133	0.173069
991.010966	0.172989
991.183781	0.174039
991.356578	0.174106
991.529356	0.175126
991.702117	0.175178
991.874859	0.174204
992.047583	0.174687
992.220288	0.175561
992.392976	0.176210
992.565645	0.177682
992.738296	0.178042
992.910929	0.177888
993.083543	0.178136
993.256139	0.178392
993.428718	0.180923
993.601277	0.181123
993.773819	0.180094
993.946342	0.179640
994.118848	0.177020
994.291335	0.177650
994.463803	0.175833
994.636254	0.178331
994.808686	0.178647
994.981100	0.178463
995.153496	0.177683
995.325874	0.178040
995.498233	0.177360
995.670574	0.177959
995.842897	0.175092
996.015202	0.178688
996.187488	0.175858
996.359757	0.175577
996.532007	0.175904
996.704239	0.176058
996.876452	0.173020
997.048648	0.172811
997.220825	0.172287
997.392984	0.172047
997.565124	0.171110
997.737247	0.172213
997.909351	0.174746
998.081437	0.175353
998.253505	0.178350
998.425554	0.181111
998.597586	0.180750
998.769599	0.183616
998.941594	0.184755
999.113571	0.184304
999.285529	0.182697
999.457469	0.180668
999.629391	0.178735
999.801295	0.175250
999.973181	0.177268
1000.145048	0.177085
1000.316897	0.175831
1000.488728	0.172853
1000.660541	0.172594
1000.832335	0.173722
1001.004111	0.172552
1001.175869	0.171923
1001.347609	0.172157
1001.519331	0.170153
1001.691034	0.170564
1001.862719	0.169559
1002.034386	0.174085
1002.206035	0.173706
1002.377665	0.173006
1002.549277	0.172845
1002.720871	0.173176
1002.892447	0.173745
1003.064004	0.173916
1003.235544	0.173921
1003.407065	0.174932
1003.578568	0.172474
1003.750052	0.172825
1003.921519	0.171362
1004.092967	0.172022
1004.264397	0.172595
1004.435809	0.172000
1004.607202	0.170479
1004.778577	0.170275
1004.949934	0.167759
1005.121273	0.169570
1005.292594	0.170496
1005.463896	0.172517
1005.635180	0.173352
1005.806446	0.171821
1005.977694	0.170211
1006.148923	0.173020
1006.320135	0.173493
1006.491328	0.175486
1006.662503	0.173038
1006.833659	0.174576
1007.004798	0.175123
1007.175918	0.176838
1007.347020	0.178945
1007.518103	0.181239
1007.689169	0.180104
1007.860216	0.180100
1008.031245	0.179321
1008.202256	0.179333
1008.373248	0.178582
1008.544223	0.179490
1008.715179	0.178460
1008.886117	0.177222
1009.057036	0.176767
1009.227938	0.175363
1009.398821	0.175055
1009.569686	0.175659
1009.740533	0.176142
1009.911361	0.174068
1010.082172	0.171017
1010.252964	0.171034
1010.423738	0.170825
1010.594493	0.171419
1010.765231	0.171891
1010.935950	0.171482
1011.106651	0.171707
1011.277334	0.172762
1011.447998	0.172194
1011.618645	0.172837
1011.789273	0.172965
1011.959882	0.172469
1012.130474	0.172522
1012.301048	0.171729
1012.471603	0.170943
1012.642140	0.168749
1012.812658	0.167843
1012.983159	0.169579
1013.153641	0.170848
1013.324105	0.169704
1013.494551	0.170515
1013.664979	0.169647
1013.835388	0.170695
1014.005779	0.172144
1014.176152	0.171669
1014.346507	0.172923
1014.516843	0.172436
1014.687162	0.172449
1014.857462	0.170373
1015.027744	0.170726
1015.198007	0.170075
1015.368252	0.170801
1015.538480	0.172409
1015.708689	0.175370
1015.878879	0.174888
1016.049052	0.175438
1016.219206	0.176079
1016.389342	0.179741
1016.559460	0.178513
1016.729559	0.179067
1016.899641	0.178676
1017.069704	0.176974
1017.239749	0.174738
1017.409775	0.173813
1017.579784	0.172814
1017.749774	0.170806
1017.919746	0.168686
1018.089700	0.168995
1018.259635	0.169421
1018.429553	0.168453
1018.599452	0.169962
1018.769333	0.171304
1018.939195	0.171633
1019.109040	0.170053
1019.278866	0.170102
1019.448674	0.167010
1019.618464	0.166279
1019.788235	0.167442
1019.957989	0.167779
1020.127724	0.166778
1020.297441	0.165340
1020.467139	0.165761
1020.636820	0.166017
1020.806482	0.168786
1020.976126	0.171829
1021.145752	0.173263
1021.315359	0.170594
1021.484948	0.175178
1021.654519	0.174030
1021.824072	0.173323
1021.993607	0.173283
1022.163123	0.173745
1022.332621	0.170330
1022.502101	0.170147
1022.671563	0.170317
1022.841007	0.173106
1023.010432	0.169201
1023.179839	0.171125
1023.349228	0.173075
1023.518598	0.171228
1023.687951	0.171645
1023.857285	0.174355
1024.026601	0.174251
1024.195899	0.172517
1024.365178	0.170922
1024.534439	0.168586
1024.703682	0.168069
1024.872907	0.168270
1025.042114	0.170449
1025.211302	0.170481
1025.380472	0.167658
1025.549624	0.167586
1025.718758	0.170622
1025.887873	0.169784
1026.056970	0.170367
1026.226049	0.168573
1026.395110	0.168801
1026.564153	0.167703
1026.733177	0.167316
1026.902183	0.169880
1027.071171	0.171811
1027.240141	0.170174
1027.409092	0.170450
1027.578026	0.171800
1027.746940	0.173347
1027.915837	0.174242
1028.084716	0.173536
1028.253576	0.173703
1028.422418	0.171820
1028.591242	0.170123
1028.760048	0.168771
1028.928835	0.170392
1029.097604	0.171347
1029.266355	0.170482
1029.435088	0.168051
1029.603803	0.169325
1029.772499	0.169025
1029.941177	0.167622
1030.109837	0.167972
1030.278478	0.168410
1030.447102	0.166875
1030.615707	0.165633
1030.784294	0.166131
1030.952863	0.166376
1031.121413	0.167033
1031.289945	0.167565
1031.458460	0.169124
1031.626955	0.170186
1031.795433	0.170233
1031.963892	0.168730
1032.132334	0.168157
1032.300756	0.166715
1032.469161	0.167071
1032.637548	0.167143
1032.805916	0.169072
1032.974266	0.169383
1033.142598	0.168753
1033.310911	0.168074
1033.479207	0.170689
1033.647484	0.169803
1033.815743	0.171338
1033.983983	0.170342
1034.152206	0.167979
1034.320410	0.166524
1034.488596	0.165166
1034.656764	0.162494
1034.824914	0.162922
1034.993045	0.161104
1035.161158	0.160748
1035.329253	0.160474
1035.497330	0.161324
1035.665388	0.163172
1035.833428	0.162956
1036.001450	0.164411
1036.169454	0.165592
1036.337440	0.166268
1036.505407	0.167885
1036.673356	0.169051
1036.841287	0.169124
1037.009200	0.169743
1037.177094	0.169419
1037.344970	0.169769
1037.512828	0.169790
1037.680668	0.171237
1037.848489	0.170890
1038.016293	0.171521
1038.184078	0.171286
1038.351845	0.171031
1038.519593	0.171266
1038.687324	0.173469
1038.855036	0.173294
1039.022730	0.173410
1039.190406	0.173000
1039.358063	0.173871
1039.525702	0.170154
1039.693323	0.171854
1039.860926	0.172253
1040.028511	0.171664
1040.196077	0.169382
1040.363625	0.167598
1040.531155	0.166616
1040.698667	0.165498
1040.866161	0.164299
1041.033636	0.166394
1041.201093	0.166122
1041.368532	0.166561
1041.535952	0.166421
1041.703355	0.165362
1041.870739	0.166472
1042.038105	0.164145
1042.205452	0.164889
1042.372782	0.165441
1042.540093	0.166075
1042.707386	0.165547
1042.874661	0.163932
1043.041918	0.163216
1043.209156	0.163417
1043.376376	0.163024
1043.543578	0.166786
1043.710762	0.167907
1043.877927	0.167429
1044.045074	0.166803
1044.212203	0.166452
1044.379314	0.166823
1044.546407	0.167982
1044.713481	0.168520
1044.880537	0.167411
1045.047575	0.165783
1045.214595	0.165547
1045.381596	0.165876
1045.548579	0.166477
1045.715544	0.165241
1045.882491	0.165323
1046.049420	0.167214
1046.216330	0.166943
1046.383222	0.168984
1046.550096	0.171090
1046.716951	0.168384
1046.883789	0.168981
1047.050608	0.167980
1047.217409	0.168461
1047.384192	0.169429
1047.550956	0.166640
1047.717703	0.170071
1047.884431	0.169300
1048.051140	0.165936
1048.217832	0.167371
1048.384505	0.165335
1048.551161	0.165833
1048.717798	0.167400
1048.884416	0.165702
1049.051017	0.165941
1049.217599	0.163899
1049.384163	0.166687
1049.550709	0.169448
1049.717237	0.168789
1049.883746	0.169922
1050.050237	0.171765
1050.216710	0.172971
1050.383165	0.175884
1050.549601	0.176180
1050.716019	0.173442
1050.882420	0.170352
1051.048801	0.167842
1051.215165	0.168578
1051.381510	0.170914
1051.547837	0.169190
1051.714146	0.167728
1051.880437	0.166510
1052.046709	0.165604
1052.212964	0.166068
1052.379200	0.166760
1052.545417	0.165554
1052.711617	0.164385
1052.877798	0.162569
1053.043961	0.163363
1053.210106	0.162498
1053.376233	0.163814
1053.542341	0.166366
1053.708432	0.167621
1053.874504	0.168956
1054.040557	0.172135
1054.206593	0.173700
1054.372610	0.173839
1054.538609	0.172826
1054.704590	0.174454
1054.870553	0.173406
1055.036497	0.170220
1055.202424	0.170793
1055.368331	0.168995
1055.534221	0.167840
1055.700093	0.168441
1055.865946	0.169481
1056.031781	0.169420
1056.197598	0.168218
1056.363397	0.166448
1056.529177	0.165973
1056.694939	0.167245
1056.860683	0.168918
1057.026409	0.169345
1057.192116	0.168767
1057.357806	0.167298
1057.523477	0.167916
1057.689130	0.169264
1057.854764	0.169600
1058.020381	0.170482
1058.185979	0.167883
1058.351559	0.168296
1058.517120	0.167130
1058.682664	0.166902
1058.848189	0.165236
1059.013696	0.164580
1059.179185	0.165519
1059.344656	0.165046
1059.510108	0.166246
1059.675542	0.167280
1059.840958	0.168337
1060.006356	0.171737
1060.171735	0.171390
1060.337096	0.171454
1060.502439	0.171088
1060.667764	0.170062
1060.833071	0.171758
1060.998359	0.173021
1061.163629	0.173526
1061.328881	0.170632
1061.494115	0.169149
1061.659330	0.171503
1061.824527	0.173022
1061.989706	0.172799
1062.154867	0.173119
1062.320010	0.171116
1062.485134	0.168563
1062.650240	0.166490
1062.815328	0.167287
1062.980398	0.166581
1063.145449	0.167106
1063.310482	0.165986
1063.475497	0.166566
1063.640494	0.166728
1063.805473	0.166369
1063.970433	0.169239
1064.135375	0.172515
1064.300299	0.173516
1064.465204	0.175450
1064.630092	0.172919
1064.794961	0.174284
1064.959812	0.173814
1065.124645	0.171848
1065.289459	0.174382
1065.454256	0.173979
1065.619034	0.170959
1065.783793	0.168466
1065.948535	0.166277
1066.113258	0.168273
1066.277964	0.168234
1066.442651	0.169108
1066.607319	0.172471
1066.771970	0.171956
1066.936602	0.172761
1067.101216	0.174669
1067.265812	0.176635
1067.430389	0.178918
1067.594949	0.176715
1067.759490	0.177268
1067.924013	0.180114
1068.088518	0.176146
1068.253004	0.175727
1068.417472	0.174765
1068.581922	0.174696
1068.746354	0.175774
1068.910768	0.176631
1069.075163	0.175755
1069.239540	0.176468
1069.403899	0.174504
1069.568240	0.174785
1069.732562	0.173215
1069.896866	0.175919
1070.061152	0.176262
1070.225420	0.174137
1070.389670	0.174244
1070.553901	0.176155
1070.718114	0.175542
1070.882309	0.176392
1071.046486	0.179366
1071.210644	0.183815
1071.374784	0.183828
1071.538906	0.182806
1071.703010	0.183153
1071.867096	0.179860
1072.031163	0.179170
1072.195212	0.179011
1072.359243	0.177610
1072.523256	0.177401
1072.687250	0.174289
1072.851226	0.171040
1073.015184	0.173690
1073.179124	0.174083
1073.343045	0.175602
1073.506949	0.174720
1073.670834	0.174435
1073.834701	0.175133
1073.998549	0.174448
1074.162380	0.174447
1074.326192	0.177390
1074.489986	0.177133
1074.653761	0.177457
1074.817519	0.178230
1074.981258	0.178171
1075.144979	0.178279
1075.308682	0.179041
1075.472367	0.180235
1075.636033	0.181994
1075.799681	0.178242
1075.963311	0.176494
1076.126923	0.178567
1076.290516	0.176843
1076.454092	0.178564
1076.617649	0.180250
1076.781187	0.178389
1076.944708	0.179485
1077.108210	0.179469
1077.271695	0.180557
1077.435160	0.178385
1077.598608	0.175738
1077.762038	0.181388
1077.925449	0.180321
1078.088842	0.181095
1078.252217	0.182524
1078.415573	0.178208
1078.578912	0.176986
1078.742232	0.176790
1078.905534	0.181138
1079.068817	0.183250
1079.232083	0.178487
1079.395330	0.179051
1079.558559	0.178638
1079.721770	0.178695
1079.884962	0.180228
1080.048136	0.183998
1080.211293	0.184472
1080.374430	0.181514
1080.537550	0.178732
1080.700651	0.177789
1080.863735	0.177128
1081.026800	0.172380
1081.189846	0.172297
1081.352875	0.173480
1081.515885	0.173046
1081.678877	0.172256
1081.841851	0.173684
1082.004807	0.175122
1082.167744	0.175653
1082.330663	0.176885
1082.493564	0.180052
1082.656447	0.183084
1082.819312	0.179893
1082.982158	0.179301
1083.144986	0.180863
1083.307796	0.178956
1083.470587	0.180742
1083.633361	0.184746
1083.796116	0.183494
1083.958853	0.186778
1084.121571	0.183867
1084.284272	0.188113
1084.446954	0.184402
1084.609618	0.185193
1084.772264	0.183816
1084.934892	0.184062
1085.097501	0.180543
1085.260092	0.182168
1085.422665	0.178615
1085.585220	0.178590
1085.747756	0.176908
1085.910274	0.182652
1086.072774	0.180256
1086.235256	0.184356
1086.397720	0.183626
1086.560165	0.183592
1086.722592	0.182873
1086.885001	0.183449
1087.047392	0.183828
1087.209764	0.188478
1087.372119	0.183769
1087.534455	0.184989
1087.696772	0.184447
1087.859072	0.185133
1088.021353	0.187274
1088.183616	0.188329
1088.345861	0.188800
1088.508088	0.190790
1088.670296	0.185948
1088.832486	0.188993
1088.994658	0.192013
1089.156812	0.191499
1089.318948	0.192421
1089.481065	0.190870
1089.643164	0.192004
1089.805245	0.188019
1089.967308	0.188420
1090.129352	0.188035
1090.291378	0.185522
1090.453386	0.184266
1090.615376	0.180986
1090.777347	0.178812
1090.939301	0.182011
1091.101236	0.178057
1091.263153	0.182677
1091.425051	0.178691
1091.586932	0.179419
1091.748794	0.179152
1091.910638	0.176953
1092.072463	0.176758
1092.234271	0.173134
1092.396060	0.171946
1092.557831	0.175798
1092.719584	0.174631
1092.881319	0.175234
1093.043035	0.171632
1093.204733	0.172190
1093.366413	0.172589
1093.528075	0.175119
1093.689718	0.176891
1093.851343	0.173920
1094.012950	0.174455
1094.174539	0.179262
1094.336110	0.178296
1094.497662	0.180306
1094.659196	0.183928
1094.820712	0.184204
1094.982210	0.184374
1095.143689	0.185093
1095.305151	0.187477
1095.466594	0.185899
1095.628018	0.181092
1095.789425	0.183581
1095.950813	0.184627
1096.112183	0.183020
1096.273535	0.182241
1096.434869	0.183408
1096.596184	0.186608
1096.757482	0.185669
1096.918761	0.188732
1097.080021	0.184778
1097.241264	0.187657
1097.402488	0.191475
1097.563694	0.187499
1097.724882	0.192366
1097.886052	0.191246
1098.047203	0.190523
1098.208336	0.189642
1098.369451	0.185206
1098.530548	0.190960
1098.691627	0.191686
1098.852687	0.190324
1099.013729	0.189737
1099.174753	0.186970
1099.335758	0.190775
1099.496746	0.192724
1099.657715	0.195258
1099.818666	0.196904
1099.979599	0.199518
1100.140513	0.193636
1100.301409	0.195347
1100.462287	0.201601
1100.623147	0.202220
1100.783989	0.200326
1100.944812	0.200047
1101.105617	0.195653
1101.266404	0.198832
1101.427173	0.197559
1101.587923	0.199025
1101.748656	0.194550
1101.909370	0.192494
1102.070066	0.191640
1102.230743	0.192787
1102.391403	0.187107
1102.552044	0.194830
1102.712667	0.196335
1102.873271	0.193272
1103.033858	0.191823
1103.194426	0.197897
1103.354976	0.198114
1103.515508	0.196540
1103.676021	0.190031
1103.836517	0.190888
1103.996994	0.190227
1104.157453	0.185293
1104.317893	0.189203
1104.478316	0.192564
1104.638720	0.185412
1104.799106	0.187460
1104.959474	0.190492
1105.119823	0.195762
1105.280155	0.197998
1105.440468	0.198162
1105.600763	0.201168
1105.761039	0.203543
1105.921298	0.202738
1106.081538	0.203973
1106.241760	0.198041
1106.401964	0.196663
1106.562149	0.193998
1106.722316	0.195205
1106.882465	0.186320
1107.042596	0.190498
1107.202709	0.189369
1107.362803	0.190259
1107.522879	0.189100
1107.682937	0.193682
1107.842977	0.190873
1108.002999	0.196065
1108.163002	0.199425
1108.322987	0.202890
1108.482954	0.197784
1108.642902	0.199375
1108.802833	0.199718
1108.962745	0.205920
1109.122639	0.208948
1109.282515	0.213228
1109.442372	0.210350
1109.602211	0.208648
1109.762032	0.213903
1109.921835	0.215900
1110.081620	0.219821
1110.241386	0.223004
1110.401134	0.224093
1110.560864	0.220709
1110.720576	0.211483
1110.880269	0.212355
1111.039945	0.210998
1111.199602	0.203630
1111.359240	0.199785
1111.518861	0.188361
1111.678463	0.185898
1111.838047	0.183378
1111.997613	0.185033
1112.157161	0.189774
1112.316690	0.189088
1112.476202	0.190158
1112.635695	0.193800
1112.795169	0.197548
1112.954626	0.200622
1113.114064	0.196475
1113.273484	0.193888
1113.432886	0.188001
1113.592270	0.192918
1113.751635	0.193334
1113.910983	0.192560
1114.070312	0.190303
1114.229622	0.191048
1114.388915	0.194270
1114.548189	0.190874
1114.707445	0.195289
1114.866683	0.200558
1115.025903	0.198909
1115.185104	0.199067
1115.344287	0.196455
1115.503452	0.204464
1115.662599	0.208613
1115.821727	0.201052
1115.980838	0.203134
1116.139930	0.199835
1116.299004	0.195164
1116.458059	0.193203
1116.617097	0.195595
1116.776116	0.199231
1116.935117	0.198986
1117.094099	0.191534
1117.253064	0.194859
1117.412010	0.199049
1117.570938	0.201632
1117.729848	0.201386
1117.888740	0.201192
1118.047613	0.198120
1118.206468	0.197496
1118.365305	0.192608
1118.524124	0.192262
1118.682924	0.192871
1118.841707	0.191460
1119.000471	0.193472
1119.159216	0.194976
1119.317944	0.199554
1119.476653	0.196502
1119.635344	0.195586
1119.794017	0.197089
1119.952672	0.200526
1120.111308	0.202994
1120.269927	0.202100
1120.428527	0.198557
1120.587108	0.201897
1120.745672	0.203247
1120.904217	0.209226
1121.062744	0.215497
1121.221253	0.219354
1121.379744	0.222208
1121.538216	0.213299
1121.696671	0.214362
1121.855107	0.213939
1122.013524	0.216802
1122.171924	0.213891
1122.330305	0.209185
1122.488668	0.198870
1122.647013	0.191188
1122.805340	0.185622
1122.963648	0.193155
1123.121938	0.198069
1123.280210	0.202011
1123.438464	0.202911
1123.596700	0.203153
1123.754917	0.213693
1123.913116	0.225270
1124.071297	0.224495
1124.229459	0.226728
1124.387604	0.227450
1124.545730	0.224974
1124.703838	0.217026
1124.861928	0.209090
1125.019999	0.198959
1125.178052	0.188766
1125.336088	0.183190
1125.494104	0.183676
1125.652103	0.180469
1125.810083	0.182049
1125.968045	0.190194
1126.125989	0.187355
1126.283915	0.189617
1126.441823	0.201184
1126.599712	0.204064
1126.757583	0.198909
1126.915436	0.210471
1127.073270	0.207952
1127.231087	0.202438
1127.388885	0.197472
1127.546665	0.214894
1127.704426	0.213786
1127.862170	0.214764
1128.019895	0.213123
1128.177602	0.218983
1128.335291	0.209371
1128.492961	0.208151
1128.650614	0.213581
1128.808248	0.208876
1128.965864	0.193449
1129.123461	0.196864
1129.281041	0.193081
1129.438602	0.196644
1129.596145	0.199393
1129.753670	0.206354
1129.911176	0.206959
1130.068665	0.201871
1130.226135	0.199597
1130.383587	0.196123
1130.541020	0.195284
1130.698436	0.192007
1130.855833	0.182290
1131.013212	0.181562
1131.170573	0.177631
1131.327915	0.178079
1131.485239	0.180590
1131.642545	0.178318
1131.799833	0.191370
1131.957103	0.185375
1132.114354	0.187711
1132.271588	0.199078
1132.428803	0.191565
1132.585999	0.191115
1132.743178	0.203292
1132.900338	0.196792
1133.057480	0.200378
1133.214604	0.194284
1133.371710	0.197361
1133.528797	0.200119
1133.685866	0.198219
1133.842917	0.203527
1133.999950	0.210908
1134.156964	0.205421
1134.313960	0.209165
1134.470938	0.212870
1134.627898	0.211558
1134.784840	0.207061
1134.941763	0.207528
1135.098668	0.205041
1135.255555	0.202084
1135.412424	0.199683
1135.569274	0.203367
1135.726107	0.199702
1135.882921	0.197336
1136.039716	0.197944
1136.196494	0.212721
1136.353253	0.218205
1136.509995	0.219353
1136.666717	0.218806
1136.823422	0.215093
1136.980109	0.212126
1137.136777	0.224463
1137.293427	0.222917
1137.450059	0.225536
1137.606672	0.218112
1137.763267	0.205023
1137.919844	0.209742
1138.076403	0.203757
1138.232944	0.206143
1138.389466	0.203375
1138.545971	0.190215
1138.702457	0.186017
1138.858924	0.195964
1139.015374	0.202360
1139.171805	0.211443
1139.328218	0.214554
1139.484613	0.229042
1139.640990	0.221790
1139.797348	0.226880
1139.953688	0.244217
1140.110010	0.240399
1140.266314	0.224483
1140.422600	0.223751
1140.578867	0.224412
1140.735116	0.215706
1140.891347	0.209669
1141.047559	0.228215
1141.203754	0.227750
1141.359930	0.214196
1141.516088	0.217596
1141.672228	0.232416
1141.828349	0.236235
1141.984452	0.232965
1142.140537	0.228220
1142.296604	0.237241
1142.452653	0.213723
1142.608683	0.207376
1142.764695	0.202907
1142.920689	0.201668
1143.076665	0.194138
1143.232622	0.185753
1143.388562	0.172778
1143.544483	0.176926
1143.700385	0.170528
1143.856270	0.187659
1144.012136	0.191552
1144.167985	0.197443
1144.323814	0.211522
1144.479626	0.214538
1144.635420	0.211569
1144.791195	0.222023
1144.946952	0.214697
1145.102691	0.217883
1145.258411	0.202856
1145.414113	0.193691
1145.569798	0.201042
1145.725463	0.198257
1145.881111	0.210242
1146.036741	0.214366
1146.192352	0.212581
1146.347945	0.225151
1146.503519	0.213793
1146.659076	0.225620
1146.814614	0.228566
1146.970134	0.245505
1147.125636	0.245168
1147.281120	0.236848
1147.436585	0.223217
1147.592032	0.223211
1147.747461	0.227288
1147.902872	0.232046
1148.058265	0.224434
1148.213639	0.231887
1148.368995	0.220461
1148.524333	0.212456
1148.679653	0.195947
1148.834954	0.205850
1148.990237	0.221829
1149.145502	0.201520
1149.300749	0.211549
1149.455977	0.211893
1149.611188	0.221933
1149.766380	0.192629
1149.921553	0.195792
1150.076709	0.193173
1150.231846	0.192153
1150.386966	0.189020
1150.542066	0.202836
1150.697149	0.202305
1150.852214	0.194976
1151.007260	0.177117
1151.162288	0.200009
1151.317298	0.206949
1151.472289	0.227653
1151.627263	0.234470
1151.782218	0.239675
1151.937155	0.229541
1152.092073	0.218004
1152.246974	0.220767
1152.401856	0.236297
1152.556720	0.225911
1152.711566	0.214629
1152.866393	0.207351
1153.021203	0.194651
1153.175994	0.195055
1153.330767	0.197808
1153.485521	0.211701
1153.640258	0.227490
1153.794976	0.209488
1153.949676	0.226808
1154.104358	0.221595
1154.259021	0.217734
1154.413667	0.233196
1154.568294	0.216158
1154.722903	0.229883
1154.877493	0.212465
1155.032066	0.194537
1155.186620	0.192799
1155.341156	0.181806
1155.495674	0.205850
1155.650173	0.212080
1155.804654	0.201351
1155.959118	0.205188
1156.113562	0.196979
1156.267989	0.192357
1156.422397	0.208687
1156.576788	0.220166
1156.731160	0.221703
1156.885513	0.211390
1157.039849	0.197478
1157.194166	0.202100
1157.348465	0.201132
1157.502746	0.200025
1157.657009	0.209062
1157.811253	0.200491
1157.965479	0.196413
1158.119687	0.203780
1158.273877	0.203888
1158.428048	0.208740
1158.582201	0.204862
1158.736337	0.208396
1158.890453	0.214126
1159.044552	0.228032
1159.198632	0.230634
1159.352694	0.248492
1159.506738	0.240730
1159.660764	0.232567
1159.814771	0.234858
1159.968761	0.245692
1160.122732	0.253500
1160.276685	0.265600
1160.430619	0.252598
1160.584535	0.259916
1160.738434	0.249022
1160.892313	0.238958
1161.046175	0.240024
1161.200019	0.221861
1161.353844	0.206840
1161.507651	0.186782
1161.661440	0.176704
1161.815210	0.183557
1161.968962	0.177232
1162.122697	0.178177
1162.276412	0.170596
1162.430110	0.163525
1162.583789	0.174002
1162.737451	0.181872
1162.891094	0.205955
1163.044718	0.203909
1163.198325	0.193810
1163.351913	0.204451
1163.505483	0.190691
1163.659035	0.210703
1163.812569	0.225400
1163.966084	0.227699
1164.119581	0.212005
1164.273060	0.197786
1164.426521	0.196945
1164.579964	0.200191
1164.733388	0.177150
1164.886794	0.190591
1165.040182	0.182173
1165.193551	0.173410
1165.346903	0.199853
1165.500236	0.224928
1165.653551	0.222895
1165.806848	0.228872
1165.960126	0.236992
1166.113386	0.245740
1166.266628	0.242418
1166.419852	0.218604
1166.573058	0.200609
1166.726245	0.187615
1166.879414	0.186461
1167.032565	0.191165
1167.185698	0.196751
1167.338812	0.173275
1167.491909	0.145979
1167.644987	0.137859
1167.798046	0.166425
1167.951088	0.162387
1168.104111	0.152158
1168.257117	0.143721
1168.410103	0.134410
1168.563072	0.124931
1168.716023	0.140253
1168.868955	0.176488
1169.021869	0.178132
1169.174765	0.165342
1169.327642	0.183169
1169.480501	0.172851
1169.633343	0.169159
1169.786165	0.176911
1169.938970	0.162121
1170.091757	0.163504
1170.244525	0.177222
1170.397275	0.184644
1170.550007	0.194475
1170.702720	0.188279
1170.855415	0.215559
1171.008092	0.209928
1171.160751	0.196767
1171.313392	0.200988
1171.466014	0.316687
1171.618619	0.101946
1171.771205	0.101946
1171.923772	0.101946
