sample name	sample
index	1423
start time	 05-10-2021  12:12:22 PM
880	0.348826
Peak Time (s)	92.035
Peak Height 	0.3488
calc peak height	90,93
Baseline Time (s)	11.035
Baseline Value 	-0.004292
subtract baseline	10,4
Abs	0.263552
Peak Time (s)	91.037
Peak Height 	0.2636
calc peak height	90,93
Baseline Time (s)	9.037
Baseline Value 	0.001653
subtract baseline	10,3
PK_550	0.149320
Peak Time (s)	91.037
Peak Height 	0.1493
calc peak height	90,93
Baseline Time (s)	8.539
Baseline Value 	6.6496E-4
subtract baseline	10,2
PK_880	0.253066
Peak Time (s)	91.037
Peak Height 	0.2531
calc peak height	90,93
Baseline Time (s)	11.035
Baseline Value 	8.3194E-4
subtract baseline	10,1


Time (s)	A880-A510	A880-A775	A880-A975	A880	I510	I775	I975	I880	
0.036500	0.000118	-0.001198	-0.002556	0.002550	6483.340858	43955.050439	3927.046750	22623.077229
0.537500	-0.001882	-0.000649	0.000775	0.005587	6441.446938	43720.805391	3927.797925	22485.328709
1.037500	-0.000437	-0.000320	-0.004757	0.004584	6461.745264	43845.985758	3916.256816	22530.701094
1.539000	-0.001914	-0.000713	-0.006185	0.001881	6471.948900	44064.148501	3919.494054	22653.512506
2.035500	-0.000201	0.000545	0.002271	0.002670	6479.660225	44108.564164	3939.159323	22617.584985
2.535500	-0.000036	-0.001298	-0.003445	0.002619	6481.473515	43939.123317	3924.595028	22619.913226
3.036000	-0.000744	-0.000378	0.001128	-0.001528	6510.336105	44420.234195	3947.093924	22809.528057
3.536000	-0.000824	-0.000357	0.003720	0.000084	6496.105433	44268.564026	3949.650461	22735.584582
4.039000	-0.000849	-0.000721	0.002426	0.000066	6496.044216	44235.618410	3946.322162	22736.405360
4.537000	0.000029	0.000127	-0.000411	0.001331	6492.796994	44195.999705	3935.690456	22678.606427
5.037000	-0.001043	-0.000474	0.003129	0.000347	6492.064316	44232.396664	3947.421949	22723.567822
5.537000	-0.000249	-0.000958	-0.001705	0.000287	6499.225379	44192.071478	3935.043941	22726.293846
6.035000	-0.002304	-0.001065	-0.002713	0.000418	6480.910160	44169.550516	3932.114519	22720.334965
6.535500	0.000812	0.000134	-0.001994	0.001616	6496.980012	44169.627402	3930.882942	22665.612616
7.035000	-0.000236	0.000113	0.002316	0.001084	6492.648373	44218.132957	3943.389968	22689.874600
7.536000	-0.000552	-0.000348	-0.000789	0.000135	6497.962301	44264.540437	3937.803033	22733.279835
8.036000	0.000798	0.000227	0.003323	0.000493	6506.301065	44285.213029	3947.548178	22716.889981
8.539000	0.000611	0.000000	0.000932	-0.000012	6508.976681	44311.670055	3942.640223	22739.988113
9.036500	-0.001941	-0.000063	0.000000	0.000067	6486.888187	44298.238275	3940.021543	22736.402443
9.537000	-0.000147	-0.000899	-0.001134	-0.000010	6502.579225	44225.914501	3937.285294	22739.894895
10.033500	0.000995	0.000039	-0.002422	0.000485	6508.027989	44268.074454	3932.689131	22717.261567
10.534500	0.001732	0.000448	0.002850	0.000716	6512.296385	44285.034682	3945.735981	22706.693101
11.035000	0.000000	0.000049	0.000527	0.000000	6503.736766	44315.207018	3941.560334	22739.448407
11.535500	-0.000867	-0.000553	-0.003189	-0.000518	6500.797358	44307.236874	3933.296949	22763.164935
12.035500	0.002410	0.000226	0.001370	0.000803	6517.273002	44255.537699	3941.661241	22702.701338
12.536000	-0.000207	-0.000688	-0.000198	-0.000656	6507.510979	44307.445470	3941.380914	22769.497540
13.038500	-0.001229	-0.000298	0.003442	0.000680	6487.712518	44217.521197	3947.370411	22708.354514
13.536500	-0.002062	-0.000356	-0.002451	0.000232	6484.484466	44254.552805	3933.263521	22728.809339
14.036500	-0.001820	-0.000533	-0.001036	0.002511	6467.483957	44021.596041	3931.043581	22624.846991
14.537000	-0.003806	-0.000575	0.002395	0.002738	6449.102530	43996.173843	3939.306363	22614.499710
15.037000	0.000282	-0.000650	0.005929	0.000437	6502.429023	44207.129466	3954.509736	22719.433541
15.534500	-0.001342	0.000094	-0.000292	0.001331	6481.323462	44192.872003	3935.999098	22678.628598
16.034500	0.000206	0.000150	-0.000967	0.002131	6487.580400	44122.287212	3932.197162	22642.120970
16.535500	-0.001904	-0.001506	0.001676	0.000224	6485.873585	44146.084264	3943.959916	22729.186224
17.036000	0.002352	-0.000453	0.002620	-0.002634	6545.918738	44518.808689	3953.885462	22860.397588
17.535500	-0.000992	-0.000219	-0.000530	0.001763	6480.627988	44122.112089	3934.268116	22658.891071
18.036500	-0.003290	-0.000616	0.001542	0.001914	6460.223138	44070.298838	3939.231380	22652.035036
18.536500	-0.001870	-0.000591	-0.004268	0.001725	6473.617818	44090.480392	3924.777528	22660.641013
19.037000	0.000531	0.000706	0.003985	0.002991	6483.102117	44093.502698	3942.772528	22603.011643
19.537000	-0.002588	-0.000601	0.000896	0.001068	6473.112469	44151.901750	3939.749411	22690.616298
20.034500	-0.000614	0.000514	0.001896	0.002239	6479.817640	44146.529598	3939.306742	22637.213348
20.535000	-0.002208	-0.000818	0.002993	0.001081	6476.176732	44130.024993	3945.156187	22690.017996
21.035500	-0.001091	0.000110	0.001772	0.001729	6480.093092	44156.580659	3940.305622	22660.462995
21.535500	-0.001125	-0.000518	0.000701	0.001246	6483.849173	44142.846643	3938.784338	22682.498679
22.038500	-0.002749	-0.001162	0.003539	0.000949	6472.763299	44109.994613	3946.923525	22696.069735
22.536500	-0.001495	0.000682	-0.001531	0.001735	6476.666715	44210.407828	3931.766129	22660.186345
23.039000	-0.001138	-0.000066	0.002918	0.001636	6480.471314	44148.720251	3943.519347	22664.684452
23.537000	0.001579	-0.000231	-0.001269	0.001350	6505.661571	44160.202127	3933.430167	22677.745971
24.040000	-0.001158	-0.000420	-0.002068	0.001630	6480.361874	44115.768757	3930.656116	22664.975240
24.536500	-0.000370	-0.000563	0.001716	0.001402	6488.864526	44123.768161	3941.007961	22675.376908
25.034500	-0.000561	0.000022	0.003866	0.002021	6482.080745	44120.492454	3944.981794	22647.125635
25.535000	-0.001073	-0.000485	-0.004975	0.001485	6482.279614	44123.230468	3923.583822	22671.564827
26.035500	-0.001668	-0.000349	-0.001719	0.001472	6477.414809	44137.450267	3931.958768	22672.170225
26.535000	-0.000441	-0.000290	0.000909	0.001275	6489.323728	44161.719789	3939.244221	22681.144359
27.041500	0.001185	-0.000256	0.000157	-0.001802	6528.952271	44458.077259	3945.280746	22822.131120
27.536500	-0.000271	0.000186	0.003921	-0.000311	6504.074423	44357.990596	3951.209392	22753.707103
28.036500	-0.000643	-0.000804	0.001135	0.002159	6480.239934	44029.227822	3937.545928	22640.866580
28.537000	0.001329	-0.000011	0.003270	0.000863	6507.659451	44227.315652	3946.444775	22699.964125
29.037500	0.000279	-0.000167	0.001850	0.000645	6500.661732	44233.250729	3943.320321	22709.955980
29.534500	0.000656	0.000163	0.000310	0.000827	6502.299029	44247.367566	3938.857135	22701.643977
30.035000	-0.000830	0.000084	0.002213	0.002978	6471.843116	44035.813605	3938.213633	22603.587895
30.538000	0.001095	0.000410	0.001749	0.003949	6479.804992	43974.776057	3934.509143	22559.482808
31.038000	-0.000267	-0.000394	0.002926	0.002034	6484.432637	44079.956714	3942.507831	22646.573747
31.535500	-0.001458	0.000084	0.001601	0.000670	6485.881490	44254.786467	3942.609565	22708.807258
32.036000	-0.001504	-0.000944	-0.000647	0.003134	6464.931022	43923.877883	3930.442218	22596.496422
32.539000	-0.000681	-0.000525	0.001667	0.000327	6495.267070	44229.490247	3943.671034	22724.506518
33.036500	0.000391	-0.000666	0.000337	0.000683	6501.283142	44182.289383	3939.296895	22708.206909
33.536500	0.000774	0.000389	0.003297	-0.001078	6519.346428	44450.540364	3951.584669	22788.856860
34.040000	-0.000150	-0.000769	0.002522	0.002876	6478.368095	43964.697018	3939.274947	22608.206599
34.535000	-0.000588	-0.000171	0.003463	0.002694	6476.230488	44038.535341	3942.186795	22616.488878
35.037500	0.001241	0.000413	0.000899	0.003346	6486.079865	44032.105912	3933.874575	22586.885898
35.535000	0.000311	-0.000113	0.001697	0.002540	6485.031764	44058.612963	3938.012352	22623.520617
36.036000	-0.002313	-0.000077	-0.000424	0.003371	6456.229107	43983.383120	3930.404503	22585.709870
36.536000	0.000177	-0.000071	-0.000040	0.002528	6484.013258	44063.629137	3933.561646	22624.041702
37.036000	-0.002642	0.000073	-0.002904	0.002765	6458.534406	44054.908493	3925.606010	22613.275215
37.536500	-0.001401	-0.000054	-0.000778	0.002583	6470.375240	44060.117606	3931.520300	22621.548229
38.036500	-0.003445	-0.000448	-0.002785	0.003751	6443.700507	43912.482690	3923.391475	22568.478510
38.537000	-0.001336	-0.001220	0.004952	0.001881	6476.776451	44016.203271	3948.177857	22653.533112
39.037000	-0.000568	0.000102	0.003382	0.002513	6477.910227	44081.443706	3942.444794	22624.722818
39.538000	0.000201	0.000303	0.001745	0.003098	6479.445644	44045.132715	3936.694225	22598.141919
40.035000	-0.002531	-0.000254	0.001915	0.002272	6463.557368	44070.653040	3939.271195	22635.718854
40.535000	-0.000124	-0.000980	-0.000386	0.002050	6485.496895	44022.908477	3933.901325	22645.819325
41.035500	-0.000253	0.000368	0.003313	0.003221	6474.631433	44039.743370	3940.432522	22592.562415
41.535500	-0.000642	-0.000444	0.002026	0.002551	6476.974678	44026.270134	3938.834602	22623.020887
42.036500	-0.001865	-0.000460	0.002431	0.002169	6469.959913	44060.902896	3940.871749	22640.408842
42.537000	-0.000499	-0.000405	0.007366	0.002291	6480.335984	44054.473432	3953.415801	22634.826932
43.036500	0.000283	-0.000487	-0.002007	0.002623	6484.111136	44015.344244	3928.265331	22619.753829
43.537000	0.002803	0.001170	0.003427	0.002350	6507.550308	44198.284346	3942.986873	22632.149149
44.037500	0.003692	0.000300	0.002941	0.001685	6520.658321	44178.834176	3943.452247	22662.448016
44.537500	0.000148	0.000400	0.002303	0.000998	6496.598727	44253.684787	3943.580955	22693.825692
45.035500	0.002397	-0.000086	-0.001094	0.000961	6515.842084	44210.945723	3934.885936	22695.526356
45.535500	-0.000597	0.000241	0.006120	0.001163	6488.959192	44222.734376	3953.107313	22686.262878
46.038500	-0.002538	0.000512	-0.003449	0.007456	6420.621769	43654.277313	3912.298079	22401.033823
46.536000	0.000065	0.000225	-0.000314	0.000764	6497.854986	44259.210254	3937.403932	22704.486986
47.036500	-0.000097	0.000401	0.001866	0.002310	6483.541852	44129.109515	3939.045798	22633.986869
47.537500	-0.000441	-0.000298	-0.000107	0.002523	6478.888218	44042.690968	3933.401764	22624.297990
48.040000	-0.002672	-0.000050	0.000301	0.006052	6431.077092	43733.364026	3925.396019	22464.311825
48.537500	0.000924	0.000642	0.001386	0.001427	6499.507798	44235.851651	3940.087059	22674.227078
49.038000	-0.000455	-0.000316	0.004926	0.001029	6491.271705	44182.623791	3950.333865	22692.386663
49.535500	0.003700	-0.000514	0.003712	-0.001731	6549.704512	44426.656538	3954.379755	22818.841683
50.038000	-0.002305	-0.000588	-0.005579	0.007176	6424.843227	43577.547404	3907.636177	22413.638481
50.536000	0.001022	0.000302	0.001456	0.003777	6480.633621	43980.861739	3934.196593	22567.289093
51.035500	0.034943	-0.035331	0.129601	0.593160	3860.746203	12672.018489	3202.136764	7931.532099
51.536000	-0.014138	-0.032103	-0.017857	-0.068680	6992.605137	47945.777473	4079.851163	26145.726540
52.036000	-0.021783	-0.085387	-0.037690	-0.258368	9149.444695	64552.959553	4685.097185	38900.275450
52.537000	-0.010481	-0.079734	-0.021455	-0.251927	9220.354964	64441.268333	4727.741683	38369.697303
53.037000	0.000953	-0.036626	-0.005303	-0.169231	8256.380798	59083.106738	4456.053125	32212.634312
53.537000	0.008511	-0.027634	0.006408	-0.135906	7944.970294	56023.989486	4376.395682	30044.448650
54.035000	-0.001229	-0.022959	0.003786	-0.101386	7451.351300	52498.537487	4248.434320	27967.202019
54.535500	0.000469	-0.021850	0.002299	-0.137111	7865.382121	56885.017516	4365.989976	30119.932223
55.035000	0.012866	-0.020432	0.017510	-0.133634	7969.454553	56629.885330	4408.458136	29902.554294
55.536000	0.028637	-0.007567	0.035635	-0.070907	7444.854484	50806.400160	4252.959855	26265.432399
56.036000	0.039961	0.001325	0.056641	0.011545	6750.773245	43348.341930	4063.282996	22217.904915
56.536500	0.058614	0.013000	0.070510	0.052912	6552.012480	40678.046734	3986.712241	20458.969986
57.039500	0.078100	0.024126	0.096436	0.099978	6324.255475	37680.730365	3931.055888	18651.260156
57.537000	0.096149	0.036834	0.110759	0.147770	6094.308144	34984.601841	3848.297661	17005.534990
58.036500	0.109801	0.047908	0.125779	0.184444	5926.826684	33150.366837	3798.053508	15859.944783
58.535000	0.131332	0.061565	0.145148	0.201684	5957.369951	32902.132339	3802.883778	15353.927497
59.038000	0.143894	0.069951	0.165933	0.227121	5866.613147	31748.584465	3792.360863	14643.071425
59.535000	0.156479	0.072717	0.185556	0.295624	5502.223836	27701.930412	3688.351979	12923.410271
60.035500	0.166326	0.079442	0.187381	0.284078	5636.118667	28765.920136	3715.649523	13194.573236
60.536000	0.179237	0.087755	0.205699	0.299113	5622.526352	28369.245564	3722.480876	12842.864819
61.036000	0.186850	0.094160	0.202311	0.256715	5960.856014	31393.543651	3807.742829	13866.772632
61.539500	0.196544	0.103504	0.215201	0.295821	5757.181627	29508.936796	3749.604493	12918.841209
62.037000	0.201172	0.109868	0.214207	0.328366	5576.210622	27954.650514	3680.165764	12192.497403
62.537000	0.208725	0.118812	0.223379	0.323191	5657.275860	28781.207154	3709.215997	12304.382205
63.034500	0.211898	0.121544	0.230149	0.317079	5717.936889	29312.846825	3736.129760	12438.263409
63.535000	0.217708	0.125079	0.219033	0.315397	5767.828309	29631.528839	3716.339021	12475.422521
64.049000	0.218285	0.126111	0.227563	0.313999	5781.128224	29781.301838	3737.176513	12506.445367
64.535500	0.223719	0.128858	0.231480	0.315092	5810.568003	29883.733605	3743.189523	12482.182963
65.036000	0.224085	0.131669	0.234069	0.317381	5797.491118	29916.148047	3743.832733	12431.602898
65.536000	0.227046	0.134960	0.233831	0.320346	5797.461868	29936.386473	3737.009711	12366.466064
66.039000	0.228639	0.135123	0.238089	0.321700	5799.086516	29862.416496	3743.191176	12336.857553
66.536500	0.230211	0.137344	0.236575	0.323738	5795.925759	29873.819672	3735.634417	12292.486432
67.037000	0.232746	0.137929	0.235215	0.324149	5810.365379	29884.616472	3731.888597	12283.565900
67.537000	0.235426	0.140536	0.243767	0.325878	5816.853351	29939.087793	3746.403162	12246.109081
68.035000	0.235908	0.141189	0.242065	0.331705	5780.570007	29619.371940	3730.399623	12121.003782
68.535000	0.236081	0.143842	0.246868	0.327016	5813.550841	30074.233838	3750.621414	12221.540698
69.035000	0.241971	0.145571	0.245791	0.327928	5847.716440	30125.329658	3746.346443	12201.900848
69.535500	0.245495	0.147040	0.249198	0.328463	5868.418927	30183.877521	3752.526995	12190.412032
70.035500	0.243341	0.146269	0.247825	0.332629	5824.819920	29875.943345	3740.649064	12101.323621
70.536000	0.246800	0.147240	0.251113	0.328651	5876.184848	30184.620349	3756.258906	12186.364025
71.036500	0.246219	0.148273	0.248471	0.328875	5870.582177	30235.404631	3750.069333	12181.550278
71.536500	0.245946	0.149327	0.253098	0.330891	5854.706451	30175.029215	3755.706757	12138.377150
72.037000	0.244261	0.150187	0.252225	0.338165	5793.368526	29775.709904	3738.230323	11984.237394
72.535000	0.247040	0.150736	0.253814	0.333776	5842.344209	30082.603649	3751.022391	12076.941436
73.034500	0.247798	0.150246	0.252269	0.333710	5848.024353	30056.148546	3747.840374	12078.340306
73.534500	0.248018	0.150017	0.256655	0.334455	5844.405925	29995.396699	3755.693382	12062.542323
74.035500	0.247791	0.148084	0.249493	0.338722	5813.581227	29611.913817	3731.267938	11972.547432
74.536000	0.249181	0.150384	0.250585	0.335475	5845.389746	29954.732619	3740.465445	12040.944069
75.036000	0.249967	0.151157	0.254649	0.336545	5843.433764	29936.291129	3746.864629	12018.344706
75.536500	0.249451	0.149283	0.254477	0.336084	5843.053369	29848.555202	3747.484703	12028.069893
76.036500	0.249140	0.150920	0.256528	0.341152	5806.216749	29636.855342	3741.031640	11921.691045
76.537000	0.252817	0.152280	0.251797	0.338339	5850.713951	29894.593723	3736.951563	11980.578326
77.037000	0.252659	0.151347	0.259267	0.337820	5853.211944	29868.914846	3754.063530	11991.494587
77.534500	0.253376	0.151609	0.253714	0.337870	5857.833759	29882.071343	3742.029246	11990.449042
78.035000	0.252152	0.151805	0.260930	0.342489	5817.638946	29609.035287	3747.587177	11893.828353
78.535500	0.252681	0.152496	0.259592	0.337848	5853.171132	29938.487184	3754.704864	11990.904886
79.035500	0.254174	0.152639	0.253700	0.337514	5865.830665	29968.181318	3742.758336	11997.931179
79.536000	0.254449	0.152296	0.263062	0.337608	5867.088160	29940.980915	3762.766141	11995.953918
80.036500	0.252818	0.153243	0.260028	0.341316	5830.230443	29769.891210	3748.169760	11918.265583
80.536500	0.254492	0.154544	0.261893	0.338950	5858.079516	29997.342447	3757.303024	11967.757721
81.037000	0.255778	0.153537	0.263643	0.338530	5869.920795	29960.857377	3762.021800	11976.575497
81.537000	0.253835	0.153811	0.259071	0.337830	5861.289238	30021.536035	3753.618675	11991.288112
82.037500	0.251509	0.153212	0.254794	0.340653	5825.799937	29808.984453	3738.401927	11932.114703
82.537500	0.254060	0.154102	0.259732	0.337516	5865.026542	30059.237465	3755.727189	11997.885758
83.038000	0.253900	0.152747	0.260209	0.337041	5867.216572	30004.351683	3757.790931	12007.898907
83.538000	0.257519	0.154294	0.259413	0.337823	5886.983313	30052.036242	3754.371657	11991.418723
84.036000	0.253263	0.154404	0.265001	0.342939	5822.161252	29741.348194	3755.393535	11884.482633
84.536000	0.256130	0.153525	0.259290	0.338488	5872.659901	29962.714775	3752.669749	11977.464349
85.039000	0.255032	0.154450	0.259944	0.339968	5854.769644	29928.208668	3750.888881	11946.432513
85.536000	0.252119	0.150899	0.256152	0.338235	5846.617941	29815.455996	3746.463428	11982.777972
86.037000	0.253433	0.152122	0.256036	0.343332	5820.634580	29576.830741	3735.354177	11876.317485
86.537500	0.257373	0.152926	0.259866	0.341436	5860.813879	29742.880139	3747.563439	11915.762906
87.037500	0.256105	0.153174	0.263322	0.341825	5849.350921	29734.221111	3754.172321	11907.659035
87.535000	0.254789	0.151465	0.266787	0.341719	5841.006179	29635.505039	3761.924577	11909.869511
88.038000	0.254058	0.151872	0.267282	0.345043	5813.216790	29456.783663	3755.776180	11840.851224
88.535500	0.254145	0.151004	0.253261	0.342306	5832.545426	29571.097539	3731.653595	11897.636170
89.036000	0.252136	0.149843	0.260575	0.342157	5819.797700	29509.140319	3747.538944	11900.741754
89.536000	0.254290	0.149850	0.261713	0.344031	5821.712771	29395.173833	3745.960562	11861.807673
90.036500	0.251210	0.148838	0.262019	0.344476	5797.691518	29306.554177	3745.661834	11852.584804
90.537000	0.251483	0.148819	0.261772	0.344012	5802.701190	29333.630288	3746.127587	11862.202965
91.037000	0.253066	0.149320	0.263552	0.345354	5804.338833	29282.551753	3747.067562	11834.428648
91.537000	0.249007	0.148447	0.261267	0.345936	5772.940898	29194.447305	3740.935466	11822.406924
92.034500	0.250782	0.148998	0.261356	0.348826	5765.444202	29053.386215	3734.983169	11762.944262
92.537500	0.252589	0.148103	0.261548	0.347749	5784.871655	29064.343435	3737.676366	11785.058155
93.034500	0.251169	0.146230	0.261429	0.347152	5779.310289	28987.715553	3738.690429	11797.324978
93.536000	0.251118	0.147837	0.263177	0.349404	5763.826916	28949.059129	3737.620542	11751.110393
94.036000	0.249988	0.146335	0.265600	0.351384	5743.034110	28741.379268	3738.560603	11710.649541
94.536000	0.254169	0.147894	0.267961	0.351959	5767.155069	28799.880329	3742.365913	11698.945229
95.036500	0.252309	0.145683	0.259665	0.351741	5756.149287	28681.513933	3725.281522	11703.384167
95.537000	0.253475	0.146085	0.267288	0.352996	5755.552532	28631.007241	3738.722361	11677.856092
96.037000	0.251059	0.145636	0.265019	0.355595	5722.200295	28451.313439	3728.429577	11625.240262
