sample name	sample
index	1062
start time	 04-22-2021  10:08:56 AM


Wavelength (nm)	Absorbance
494.344910	0.118244
494.563924	0.118244
494.782919	0.118244
495.001897	-0.099237
495.220856	-0.014368
495.439797	-0.016038
495.658719	-0.021386
495.877624	-0.034221
496.096510	-0.017388
496.315378	-0.014424
496.534227	-0.003555
496.753059	0.005373
496.971872	0.010019
497.190667	0.083334
497.409444	0.096079
497.628203	0.101915
497.846943	0.106084
498.065665	0.107254
498.284369	0.111141
498.503055	0.114266
498.721723	0.113878
498.940372	0.114305
499.159003	0.113213
499.377616	0.113160
499.596210	0.111861
499.814787	0.112101
500.033345	0.112567
500.251885	0.111354
500.470406	0.109307
500.688910	0.110510
500.907395	0.109217
501.125862	0.111588
501.344311	0.112759
501.562742	0.114274
501.781154	0.113424
501.999548	0.113792
502.217924	0.114138
502.436282	0.116139
502.654621	0.116204
502.872942	0.117196
503.091245	0.116088
503.309530	0.115076
503.527797	0.114338
503.746045	0.114875
503.964275	0.114860
504.182487	0.114340
504.400681	0.113503
504.618856	0.112943
504.837013	0.113542
505.055152	0.114028
505.273273	0.114326
505.491376	0.114141
505.709460	0.114094
505.927526	0.113618
506.145574	0.113413
506.363604	0.113172
506.581615	0.113157
506.799608	0.113011
507.017583	0.113293
507.235540	0.112900
507.453478	0.113617
507.671399	0.113560
507.889301	0.114409
508.107185	0.114712
508.325050	0.114692
508.542898	0.115646
508.760727	0.115384
508.978538	0.115142
509.196330	0.115659
509.414105	0.115467
509.631861	0.115799
509.849599	0.115580
510.067319	0.115379
510.285021	0.115972
510.502704	0.115045
510.720369	0.114618
510.938016	0.113803
511.155645	0.114459
511.373255	0.114619
511.590848	0.115167
511.808422	0.115359
512.025977	0.117222
512.243515	0.116148
512.461034	0.117324
512.678536	0.117627
512.896018	0.117700
513.113483	0.117369
513.330930	0.116658
513.548358	0.116347
513.765768	0.116167
513.983160	0.114951
514.200533	0.116211
514.417889	0.115351
514.635226	0.116103
514.852545	0.116743
515.069845	0.116820
515.287128	0.118166
515.504392	0.117151
515.721638	0.116935
515.938866	0.116943
516.156075	0.117022
516.373267	0.117100
516.590440	0.116650
516.807594	0.116598
517.024731	0.116667
517.241850	0.116802
517.458950	0.117955
517.676032	0.118351
517.893095	0.118222
518.110141	0.118316
518.327168	0.119083
518.544177	0.118921
518.761168	0.118483
518.978141	0.118576
519.195095	0.118519
519.412031	0.117528
519.628949	0.117501
519.845849	0.118700
520.062731	0.117989
520.279594	0.116857
520.496439	0.117332
520.713266	0.117962
520.930074	0.118105
521.146865	0.118216
521.363637	0.118680
521.580391	0.118997
521.797127	0.118065
522.013844	0.118370
522.230543	0.119227
522.447224	0.118679
522.663887	0.118890
522.880532	0.119125
523.097158	0.118309
523.313766	0.118898
523.530356	0.119627
523.746928	0.119314
523.963481	0.119538
524.180017	0.119512
524.396534	0.119944
524.613032	0.119771
524.829513	0.120202
525.045975	0.121538
525.262420	0.121116
525.478845	0.120879
525.695253	0.120864
525.911643	0.120546
526.128014	0.120422
526.344367	0.120273
526.560702	0.120410
526.777018	0.120025
526.993316	0.119029
527.209597	0.119036
527.425858	0.118268
527.642102	0.119280
527.858328	0.119879
528.074535	0.119873
528.290724	0.120300
528.506894	0.119605
528.723047	0.119460
528.939181	0.119533
529.155297	0.120446
529.371395	0.120876
529.587475	0.120565
529.803536	0.119956
530.019579	0.120582
530.235604	0.121053
530.451611	0.121475
530.667600	0.121446
530.883570	0.122168
531.099522	0.121423
531.315456	0.121620
531.531372	0.121884
531.747269	0.122213
531.963148	0.121927
532.179009	0.121599
532.394852	0.121615
532.610676	0.121440
532.826482	0.121243
533.042271	0.122119
533.258040	0.122174
533.473792	0.122280
533.689525	0.122416
533.905240	0.122283
534.120937	0.122377
534.336616	0.122793
534.552277	0.123745
534.767919	0.124127
534.983543	0.123697
535.199149	0.123824
535.414736	0.123936
535.630306	0.124280
535.845857	0.124670
536.061390	0.124616
536.276904	0.124278
536.492401	0.123823
536.707879	0.123394
536.923339	0.123947
537.138781	0.123312
537.354204	0.122820
537.569610	0.122651
537.784997	0.122984
538.000366	0.122595
538.215716	0.123440
538.431049	0.123344
538.646363	0.123427
538.861659	0.123513
539.076937	0.124656
539.292196	0.124491
539.507438	0.124799
539.722661	0.123856
539.937866	0.124205
540.153052	0.123810
540.368221	0.124161
540.583371	0.123726
540.798503	0.123797
541.013617	0.123182
541.228712	0.123698
541.443789	0.123773
541.658848	0.123815
541.873889	0.123458
542.088912	0.123658
542.303916	0.123518
542.518902	0.124578
542.733870	0.124488
542.948820	0.124874
543.163752	0.125074
543.378665	0.125226
543.593560	0.126131
543.808437	0.127038
544.023295	0.127130
544.238136	0.127400
544.452958	0.127189
544.667762	0.127137
544.882548	0.126945
545.097315	0.127388
545.312064	0.127011
545.526795	0.127381
545.741508	0.127201
545.956203	0.127250
546.170879	0.127188
546.385537	0.127319
546.600177	0.127310
546.814799	0.127640
547.029402	0.127285
547.243988	0.127427
547.458555	0.127314
547.673103	0.127017
547.887634	0.126735
548.102146	0.127051
548.316640	0.127482
548.531116	0.127817
548.745574	0.127782
548.960013	0.128034
549.174435	0.127946
549.388838	0.127909
549.603222	0.128755
549.817589	0.129104
550.031937	0.129322
550.246267	0.128924
550.460579	0.128364
550.674873	0.128490
550.889148	0.128522
551.103405	0.129017
551.317644	0.128704
551.531865	0.128829
551.746068	0.129055
551.960252	0.129135
552.174418	0.129495
552.388566	0.129778
552.602696	0.129968
552.816807	0.129930
553.030900	0.129783
553.244975	0.129987
553.459032	0.129286
553.673070	0.129347
553.887091	0.129503
554.101093	0.129198
554.315077	0.129555
554.529042	0.129420
554.742990	0.129554
554.956919	0.129456
555.170830	0.129413
555.384722	0.130007
555.598597	0.129991
555.812453	0.129797
556.026291	0.130277
556.240111	0.130029
556.453913	0.130014
556.667696	0.130028
556.881461	0.130813
557.095208	0.130890
557.308937	0.130884
557.522647	0.130920
557.736339	0.130815
557.950013	0.130482
558.163669	0.130821
558.377307	0.130969
558.590926	0.131284
558.804527	0.131141
559.018110	0.131377
559.231675	0.131313
559.445221	0.131106
559.658749	0.131373
559.872259	0.131948
560.085751	0.131706
560.299225	0.131928
560.512680	0.131706
560.726117	0.131346
560.939536	0.131539
561.152937	0.131454
561.366319	0.131842
561.579683	0.131913
561.793029	0.131294
562.006357	0.131713
562.219667	0.131661
562.432958	0.131636
562.646231	0.131991
562.859486	0.132101
563.072723	0.132105
563.285941	0.132085
563.499141	0.131972
563.712323	0.132749
563.925487	0.132860
564.138632	0.132763
564.351760	0.133289
564.564869	0.133455
564.777960	0.133165
564.991032	0.133591
565.204087	0.133825
565.417123	0.133785
565.630141	0.133535
565.843140	0.133505
566.056122	0.133781
566.269085	0.133763
566.482030	0.133922
566.694957	0.134463
566.907866	0.134597
567.120756	0.134305
567.333628	0.134688
567.546482	0.134839
567.759318	0.134718
567.972135	0.134793
568.184935	0.134827
568.397716	0.134549
568.610478	0.134401
568.823223	0.134217
569.035949	0.134307
569.248657	0.134348
569.461347	0.134548
569.674019	0.134611
569.886672	0.134827
570.099308	0.135086
570.311925	0.135038
570.524523	0.135050
570.737104	0.135268
570.949666	0.135369
571.162210	0.135146
571.374736	0.135084
571.587244	0.135317
571.799733	0.135023
572.012205	0.134694
572.224658	0.134916
572.437092	0.135159
572.649509	0.135148
572.861907	0.135333
573.074287	0.135894
573.286649	0.135605
573.498993	0.135606
573.711318	0.135593
573.923625	0.135882
574.135914	0.136013
574.348185	0.136413
574.560438	0.136586
574.772672	0.136676
574.984888	0.136210
575.197086	0.136592
575.409266	0.137009
575.621427	0.137431
575.833570	0.137449
576.045695	0.137552
576.257802	0.137431
576.469890	0.137346
576.681961	0.137476
576.894013	0.137792
577.106046	0.137578
577.318062	0.137360
577.530059	0.137280
577.742039	0.137484
577.954000	0.137638
578.165942	0.137270
578.377867	0.137597
578.589773	0.137437
578.801661	0.137238
579.013531	0.137798
579.225382	0.137805
579.437216	0.138053
579.649031	0.137710
579.860828	0.137673
580.072606	0.137906
580.284367	0.137664
580.496109	0.137819
580.707833	0.138081
580.919539	0.137807
581.131227	0.138177
581.342896	0.138002
581.554547	0.138165
581.766180	0.138053
581.977795	0.138473
582.189391	0.138560
582.400969	0.138725
582.612529	0.138889
582.824071	0.138947
583.035595	0.138635
583.247100	0.138765
583.458587	0.138787
583.670056	0.139083
583.881506	0.139055
584.092939	0.139008
584.304353	0.138733
584.515749	0.138681
584.727127	0.138960
584.938486	0.139068
585.149828	0.139170
585.361151	0.139608
585.572456	0.139555
585.783742	0.139501
585.995011	0.139987
586.206261	0.140309
586.417493	0.140400
586.628706	0.140164
586.839902	0.140155
587.051079	0.140272
587.262238	0.140049
587.473379	0.139789
587.684502	0.139676
587.895606	0.139777
588.106692	0.139758
588.317760	0.140205
588.528810	0.140167
588.739841	0.140218
588.950855	0.140281
589.161850	0.140667
589.372827	0.141187
589.583785	0.141742
589.794726	0.141607
590.005648	0.141664
590.216552	0.141525
590.427437	0.141955
590.638305	0.142028
590.849154	0.141776
591.059985	0.141465
591.270798	0.141368
591.481592	0.141159
591.692369	0.141360
591.903127	0.141627
592.113867	0.141665
592.324588	0.141800
592.535292	0.141986
592.745977	0.142298
592.956644	0.142719
593.167293	0.143098
593.377923	0.143108
593.588536	0.143128
593.799130	0.143106
594.009706	0.143326
594.220263	0.143126
594.430803	0.143499
594.641324	0.143581
594.851827	0.143346
595.062312	0.143329
595.272778	0.143315
595.483227	0.143392
595.693657	0.143539
595.904069	0.143488
596.114462	0.143665
596.324838	0.143503
596.535195	0.143604
596.745534	0.144005
596.955855	0.143712
597.166157	0.143925
597.376441	0.143734
597.586707	0.143724
597.796955	0.143891
598.007185	0.144117
598.217396	0.144160
598.427589	0.144126
598.637764	0.143927
598.847921	0.144128
599.058060	0.143956
599.268180	0.143939
599.478282	0.144068
599.688366	0.143958
599.898431	0.143669
600.108479	0.143776
600.318508	0.144172
600.528519	0.144041
600.738511	0.144148
600.948486	0.144333
601.158442	0.144606
601.368380	0.144736
601.578300	0.144810
601.788202	0.144755
601.998085	0.144617
602.207950	0.144439
602.417797	0.144726
602.627626	0.144747
602.837436	0.145028
603.047228	0.144917
603.257002	0.144914
603.466758	0.144825
603.676496	0.145196
603.886215	0.145596
604.095916	0.145361
604.305599	0.145326
604.515264	0.145305
604.724910	0.145124
604.934538	0.144959
605.144148	0.144751
605.353740	0.144887
605.563314	0.144747
605.772869	0.144602
605.982406	0.144961
606.191925	0.145085
606.401425	0.145173
606.610908	0.145121
606.820372	0.145561
607.029818	0.145590
607.239246	0.145679
607.448655	0.145569
607.658047	0.145852
607.867420	0.145898
608.076775	0.145994
608.286111	0.146281
608.495430	0.146463
608.704730	0.146454
608.914012	0.146761
609.123275	0.146677
609.332521	0.147012
609.541748	0.146819
609.750957	0.146752
609.960148	0.146572
610.169321	0.146321
610.378475	0.146406
610.587611	0.146479
610.796729	0.146533
611.005829	0.146320
611.214910	0.146071
611.423974	0.145824
611.633019	0.145675
611.842045	0.145596
612.051054	0.145577
612.260044	0.145245
612.469017	0.145049
612.677970	0.144841
612.886906	0.144863
613.095824	0.145168
613.304723	0.145331
613.513604	0.145465
613.722467	0.145750
613.931311	0.145573
614.140138	0.145877
614.348946	0.145932
614.557736	0.146134
614.766507	0.146243
614.975261	0.146006
615.183996	0.146083
615.392713	0.146074
615.601412	0.146003
615.810092	0.146273
616.018754	0.146064
616.227399	0.146033
616.436024	0.146297
616.644632	0.146644
616.853222	0.146910
617.061793	0.147152
617.270346	0.146973
617.478880	0.147264
617.687397	0.147421
617.895895	0.147655
618.104375	0.147811
618.312837	0.147675
618.521281	0.147530
618.729706	0.147611
618.938113	0.147330
619.146502	0.147569
619.354873	0.147242
619.563226	0.147340
619.771560	0.147282
619.979876	0.147356
620.188174	0.147255
620.396453	0.147233
620.604715	0.147139
620.812958	0.147246
621.021183	0.147373
621.229390	0.147632
621.437578	0.147770
621.645748	0.148123
621.853900	0.148358
622.062034	0.148609
622.270150	0.148910
622.478247	0.149100
622.686326	0.149369
622.894387	0.149230
623.102430	0.149160
623.310454	0.148989
623.518461	0.148792
623.726449	0.148641
623.934418	0.148366
624.142370	0.148295
624.350303	0.148040
624.558218	0.147950
624.766115	0.148084
624.973994	0.148607
625.181855	0.148690
625.389697	0.148565
625.597521	0.148770
625.805327	0.148770
626.013114	0.148813
626.220883	0.149352
626.428634	0.149423
626.636367	0.149503
626.844082	0.149277
627.051778	0.149437
627.259457	0.149658
627.467117	0.149744
627.674758	0.150028
627.882382	0.150197
628.089987	0.149864
628.297574	0.150070
628.505143	0.150347
628.712694	0.150545
628.920226	0.150387
629.127740	0.150597
629.335236	0.150612
629.542714	0.150789
629.750174	0.150595
629.957615	0.150793
630.165038	0.150700
630.372443	0.150715
630.579829	0.150496
630.787198	0.150723
630.994548	0.150743
631.201880	0.150635
631.409194	0.150691
631.616489	0.150978
631.823766	0.151029
632.031025	0.151029
632.238266	0.151282
632.445489	0.151371
632.652693	0.151398
632.859879	0.151619
633.067047	0.151762
633.274197	0.151772
633.481329	0.151872
633.688442	0.151977
633.895537	0.152261
634.102614	0.152197
634.309672	0.152167
634.516713	0.152170
634.723735	0.151964
634.930739	0.151882
635.137724	0.151695
635.344692	0.151767
635.551641	0.151764
635.758572	0.151615
635.965485	0.151603
636.172379	0.151780
636.379256	0.151768
636.586114	0.151764
636.792954	0.151925
636.999775	0.152046
637.206579	0.151866
637.413364	0.151922
637.620131	0.151729
637.826880	0.151426
638.033610	0.151489
638.240323	0.151564
638.447017	0.151674
638.653692	0.151973
638.860350	0.152215
639.066990	0.152487
639.273611	0.152720
639.480214	0.152986
639.686798	0.153371
639.893365	0.153252
640.099913	0.153531
640.306443	0.153647
640.512955	0.153455
640.719449	0.153485
640.925924	0.153412
641.132381	0.153255
641.338820	0.153383
641.545241	0.153485
641.751644	0.153917
641.958028	0.153847
642.164394	0.154053
642.370742	0.154239
642.577071	0.154134
642.783383	0.154188
642.989676	0.154154
643.195951	0.154352
643.402207	0.154433
643.608446	0.154370
643.814666	0.154428
644.020868	0.154501
644.227052	0.154394
644.433218	0.154660
644.639365	0.154738
644.845494	0.155063
645.051605	0.154872
645.257698	0.154881
645.463772	0.154872
645.669828	0.155104
645.875866	0.155183
646.081886	0.155403
646.287888	0.155245
646.493871	0.155214
646.699836	0.155114
646.905783	0.155216
647.111712	0.155100
647.317622	0.155167
647.523514	0.155018
647.729388	0.154969
647.935244	0.154849
648.141082	0.155101
648.346901	0.154978
648.552702	0.154928
648.758485	0.155116
648.964250	0.155316
649.169996	0.155297
649.375724	0.155542
649.581434	0.155426
649.787126	0.155476
649.992800	0.155608
650.198455	0.155979
650.404092	0.156214
650.609711	0.156339
650.815311	0.156385
651.020894	0.156542
651.226458	0.156437
651.432004	0.156664
651.637532	0.156919
651.843041	0.157179
652.048532	0.157290
652.254006	0.157383
652.459460	0.157579
652.664897	0.158034
652.870315	0.158340
653.075716	0.158552
653.281097	0.158918
653.486461	0.159071
653.691807	0.158982
653.897134	0.158966
654.102443	0.159085
654.307734	0.158917
654.513006	0.158971
654.718261	0.158967
654.923497	0.159157
655.128715	0.158937
655.333915	0.158996
655.539096	0.158857
655.744259	0.159117
655.949404	0.159244
656.154531	0.159233
656.359640	0.158835
656.564730	0.158843
656.769802	0.158963
656.974856	0.159099
657.179892	0.159182
657.384909	0.159420
657.589908	0.159359
657.794889	0.159479
657.999852	0.159516
658.204797	0.159899
658.409723	0.159959
658.614631	0.159939
658.819521	0.159972
659.024393	0.160072
659.229246	0.160194
659.434081	0.160249
659.638898	0.160233
659.843697	0.160591
660.048478	0.160498
660.253240	0.160622
660.457984	0.160648
660.662710	0.160730
660.867417	0.160773
661.072107	0.160855
661.276778	0.161411
661.481431	0.161420
661.686066	0.161425
661.890682	0.161494
662.095281	0.161519
662.299861	0.161576
662.504422	0.161723
662.708966	0.161625
662.913491	0.161604
663.117999	0.161165
663.322488	0.161481
663.526958	0.161765
663.731411	0.161821
663.935845	0.161965
664.140261	0.162191
664.344659	0.162245
664.549038	0.162636
664.753400	0.162799
664.957743	0.163189
665.162068	0.163221
665.366375	0.163203
665.570663	0.163421
665.774933	0.163628
665.979185	0.163735
666.183419	0.163858
666.387635	0.163748
666.591832	0.163911
666.796011	0.163993
667.000172	0.163975
667.204315	0.164152
667.408439	0.164260
667.612545	0.164294
667.816634	0.164478
668.020703	0.164583
668.224755	0.164743
668.428788	0.164910
668.632803	0.165036
668.836800	0.165198
669.040779	0.165092
669.244739	0.165222
669.448681	0.165268
669.652605	0.165159
669.856511	0.165111
670.060399	0.165075
670.264268	0.164755
670.468119	0.164752
670.671952	0.164660
670.875767	0.164847
671.079563	0.165026
671.283341	0.164880
671.487101	0.165098
671.690843	0.165371
671.894567	0.165301
672.098272	0.165527
672.301959	0.165500
672.505628	0.165534
672.709278	0.165532
672.912911	0.165424
673.116525	0.165543
673.320121	0.165343
673.523699	0.165339
673.727258	0.165595
673.930799	0.165683
674.134322	0.165841
674.337827	0.166004
674.541314	0.166107
674.744782	0.166276
674.948232	0.166450
675.151664	0.166657
675.355078	0.166881
675.558474	0.167001
675.761851	0.167220
675.965210	0.167472
676.168551	0.167656
676.371873	0.167878
676.575178	0.167870
676.778464	0.168068
676.981732	0.168200
677.184981	0.168070
677.388213	0.168313
677.591426	0.168434
677.794621	0.168448
677.997798	0.168554
678.200956	0.168710
678.404097	0.168793
678.607219	0.168902
678.810323	0.168961
679.013408	0.169199
679.216476	0.169377
679.419525	0.169393
679.622556	0.169253
679.825569	0.169288
680.028563	0.169436
680.231540	0.169663
680.434498	0.169783
680.637438	0.169864
680.840359	0.169962
681.043263	0.169882
681.246148	0.169982
681.449015	0.170154
681.651864	0.170288
681.854694	0.170201
682.057506	0.170343
682.260301	0.170424
682.463076	0.170497
682.665834	0.170278
682.868573	0.170369
683.071295	0.170468
683.273998	0.170624
683.476682	0.170868
683.679349	0.170852
683.881997	0.170640
684.084627	0.170525
684.287239	0.170585
684.489833	0.170771
684.692408	0.170664
684.894965	0.170715
685.097504	0.170697
685.300025	0.170517
685.502527	0.170605
685.705012	0.170807
685.907478	0.170741
686.109925	0.170640
686.312355	0.170659
686.514766	0.170937
686.717159	0.170942
686.919534	0.171138
687.121891	0.171234
687.324230	0.171401
687.526550	0.171332
687.728852	0.171620
687.931136	0.171760
688.133401	0.171635
688.335649	0.171502
688.537878	0.171367
688.740089	0.171150
688.942281	0.171229
689.144456	0.171228
689.346612	0.171465
689.548750	0.171488
689.750870	0.171777
689.952971	0.172391
690.155055	0.172865
690.357120	0.173103
690.559167	0.173311
690.761195	0.173460
690.963206	0.173486
691.165198	0.173619
691.367172	0.173713
691.569128	0.173503
691.771065	0.173430
691.972984	0.173189
692.174885	0.173428
692.376768	0.173640
692.578633	0.173639
692.780479	0.173957
692.982308	0.173950
693.184118	0.173933
693.385909	0.174088
693.587683	0.173991
693.789438	0.174119
693.991175	0.174085
694.192894	0.174008
694.394595	0.174066
694.596277	0.173768
694.797941	0.173859
694.999587	0.173960
695.201215	0.174059
695.402824	0.173984
695.604416	0.173851
695.805989	0.173742
696.007543	0.173754
696.209080	0.173831
696.410598	0.174011
696.612099	0.174146
696.813580	0.174121
697.015044	0.174361
697.216490	0.174683
697.417917	0.174705
697.619326	0.174862
697.820717	0.175085
698.022089	0.175244
698.223444	0.175276
698.424780	0.175127
698.626098	0.175348
698.827397	0.175255
699.028679	0.175049
699.229942	0.175209
699.431187	0.175441
699.632414	0.175250
699.833622	0.174907
700.034813	0.175045
700.235985	0.175104
700.437139	0.175039
700.638274	0.174972
700.839392	0.175041
701.040491	0.175077
701.241572	0.174974
701.442635	0.175203
701.643679	0.175586
701.844706	0.175556
702.045714	0.175520
702.246704	0.175481
702.447675	0.175511
702.648629	0.175686
702.849564	0.175707
703.050481	0.175755
703.251380	0.175764
703.452260	0.175699
703.653122	0.175917
703.853966	0.175912
704.054792	0.176023
704.255600	0.176100
704.456389	0.176072
704.657160	0.176085
704.857913	0.176010
705.058648	0.175942
705.259365	0.175873
705.460063	0.175510
705.660743	0.175525
705.861405	0.175344
706.062048	0.175286
706.262674	0.175217
706.463281	0.175054
706.663870	0.175083
706.864441	0.175086
707.064993	0.175112
707.265527	0.175308
707.466043	0.175416
707.666541	0.175524
707.867021	0.175650
708.067482	0.175801
708.267925	0.176102
708.468350	0.176207
708.668757	0.176190
708.869145	0.176296
709.069516	0.176591
709.269868	0.176852
709.470201	0.176980
709.670517	0.176963
709.870814	0.176782
710.071093	0.176712
710.271354	0.176586
710.471597	0.176608
710.671821	0.176652
710.872028	0.176288
711.072216	0.175981
711.272385	0.176211
711.472537	0.176162
711.672670	0.176218
711.872785	0.176136
712.072882	0.176328
712.272961	0.176360
712.473021	0.176225
712.673063	0.176210
712.873087	0.176338
713.073093	0.176020
713.273081	0.175838
713.473050	0.175880
713.673001	0.175793
713.872934	0.175556
714.072849	0.175332
714.272745	0.175319
714.472623	0.175134
714.672483	0.175011
714.872325	0.174967
715.072148	0.174862
715.271954	0.174650
715.471741	0.174563
715.671509	0.174562
715.871260	0.174560
716.070992	0.174238
716.270707	0.174256
716.470403	0.174055
716.670080	0.173791
716.869740	0.173747
717.069381	0.173646
717.269004	0.173444
717.468609	0.173217
717.668195	0.173102
717.867764	0.173241
718.067314	0.173013
718.266846	0.173208
718.466360	0.173187
718.665855	0.173188
718.865332	0.173028
719.064791	0.173286
719.264232	0.173126
719.463655	0.173157
719.663059	0.172835
719.862445	0.172919
720.061813	0.172661
720.261163	0.172736
720.460494	0.172769
720.659807	0.172957
720.859102	0.173020
721.058379	0.173115
721.257638	0.173006
721.456878	0.173302
721.656100	0.173072
721.855304	0.173025
722.054490	0.172904
722.253657	0.172895
722.452806	0.172745
722.651937	0.172376
722.851050	0.172427
723.050145	0.172666
723.249221	0.172515
723.448279	0.172745
723.647319	0.172776
723.846340	0.172820
724.045344	0.172644
724.244329	0.172622
724.443296	0.172677
724.642245	0.172715
724.841175	0.172578
725.040088	0.172652
725.238982	0.172562
725.437857	0.172783
725.636715	0.172706
725.835554	0.172857
726.034376	0.172967
726.233179	0.173011
726.431963	0.172898
726.630730	0.172578
726.829478	0.172517
727.028208	0.172552
727.226920	0.172098
727.425614	0.172096
727.624289	0.171871
727.822946	0.171631
728.021585	0.171648
728.220206	0.171581
728.418808	0.171692
728.617392	0.171450
728.815958	0.171312
729.014506	0.171048
729.213036	0.170814
729.411547	0.170554
729.610040	0.170640
729.808515	0.170321
730.006972	0.170199
730.205410	0.169948
730.403831	0.169852
730.602233	0.169610
730.800616	0.169748
730.998982	0.169411
731.197329	0.169411
731.395658	0.169432
731.593969	0.169451
731.792262	0.169305
731.990536	0.169374
732.188793	0.169417
732.387031	0.169506
732.585250	0.169473
732.783452	0.169729
732.981635	0.169736
733.179800	0.169568
733.377947	0.169584
733.576076	0.169690
733.774186	0.169583
733.972278	0.169411
734.170352	0.169240
734.368408	0.169069
734.566446	0.169008
734.764465	0.169021
734.962466	0.168683
735.160449	0.168386
735.358413	0.168073
735.556360	0.167835
735.754288	0.167661
735.952198	0.167617
736.150090	0.167547
736.347963	0.167431
736.545818	0.167098
736.743655	0.166953
736.941474	0.166743
737.139275	0.166544
737.337057	0.166384
737.534821	0.166338
737.732567	0.166241
737.930295	0.165941
738.128005	0.165929
738.325696	0.165812
738.523369	0.165768
738.721024	0.165840
738.918660	0.165808
739.116279	0.165759
739.313879	0.165668
739.511461	0.165349
739.709024	0.165066
739.906570	0.164854
740.104097	0.165050
740.301606	0.165310
740.499097	0.165375
740.696569	0.165340
740.894024	0.165407
741.091460	0.165356
741.288878	0.165441
741.486277	0.165892
741.683659	0.166204
741.881022	0.166110
742.078367	0.165603
742.275694	0.165406
742.473002	0.165365
742.670293	0.165214
742.867565	0.165100
743.064819	0.165214
743.262054	0.165148
743.459272	0.164728
743.656471	0.164700
743.853652	0.164839
744.050815	0.164871
744.247959	0.164887
744.445085	0.164867
744.642194	0.164964
744.839283	0.164879
745.036355	0.164716
745.233408	0.164406
745.430444	0.164195
745.627461	0.164104
745.824459	0.163738
746.021440	0.163535
746.218402	0.163414
746.415346	0.163329
746.612272	0.162894
746.809180	0.162603
747.006069	0.162658
747.202940	0.162457
747.399793	0.162315
747.596628	0.162297
747.793444	0.162249
747.990243	0.162171
748.187023	0.161709
748.383784	0.161785
748.580528	0.161868
748.777253	0.161669
748.973960	0.161669
749.170649	0.161559
749.367320	0.161519
749.563973	0.161296
749.760607	0.161343
749.957223	0.161550
750.153821	0.161484
750.350400	0.161399
750.546962	0.161445
750.743505	0.161205
750.940030	0.161087
751.136536	0.160870
751.333025	0.161052
751.529495	0.160777
751.725947	0.160332
751.922381	0.160187
752.118796	0.159933
752.315194	0.159862
752.511573	0.159776
752.707934	0.159502
752.904276	0.159506
753.100601	0.159125
753.296907	0.158968
753.493195	0.159206
753.689465	0.159157
753.885716	0.159137
754.081949	0.159030
754.278164	0.158909
754.474361	0.159048
754.670540	0.159135
754.866700	0.159030
755.062843	0.158948
755.258967	0.158919
755.455072	0.158780
755.651160	0.158536
755.847229	0.158389
756.043280	0.158633
756.239313	0.158697
756.435328	0.158481
756.631324	0.158528
756.827302	0.158664
757.023262	0.158617
757.219204	0.158599
757.415127	0.158746
757.611033	0.158708
757.806920	0.158490
758.002788	0.158393
758.198639	0.158317
758.394471	0.158027
758.590286	0.157841
758.786081	0.157692
758.981859	0.157565
759.177619	0.157328
759.373360	0.157136
759.569083	0.157048
759.764788	0.156775
759.960474	0.156471
760.156143	0.156371
760.351793	0.156317
760.547425	0.155992
760.743038	0.155899
760.938634	0.155713
761.134211	0.155623
761.329770	0.155403
761.525311	0.155498
761.720833	0.155657
761.916338	0.155890
762.111824	0.155661
762.307292	0.155613
762.502741	0.155660
762.698173	0.155880
762.893586	0.155853
763.088981	0.155949
763.284358	0.155712
763.479716	0.155594
763.675057	0.155323
763.870379	0.155246
764.065683	0.155317
764.260968	0.155030
764.456236	0.154720
764.651485	0.154502
764.846716	0.154382
765.041929	0.154230
765.237123	0.154101
765.432299	0.154081
765.627457	0.154126
765.822597	0.154132
766.017719	0.153854
766.212822	0.153964
766.407907	0.154077
766.602974	0.153780
766.798023	0.153851
766.993054	0.153768
767.188066	0.153709
767.383060	0.153511
767.578036	0.153272
767.772993	0.153580
767.967933	0.153250
768.162854	0.153394
768.357757	0.153508
768.552642	0.153500
768.747508	0.153584
768.942356	0.153573
769.137186	0.153539
769.331998	0.153646
769.526792	0.153430
769.721567	0.153751
769.916324	0.153737
770.111063	0.153718
770.305784	0.153839
770.500486	0.153684
770.695171	0.153797
770.889837	0.153865
771.084484	0.153917
771.279114	0.154152
771.473725	0.153983
771.668318	0.153829
771.862893	0.153799
772.057450	0.153272
772.251988	0.153375
772.446509	0.153193
772.641011	0.153200
772.835494	0.153180
773.029960	0.152878
773.224407	0.152813
773.418836	0.152705
773.613247	0.152713
773.807640	0.152837
774.002014	0.152711
774.196370	0.152474
774.390708	0.152364
774.585028	0.152317
774.779330	0.152563
774.973613	0.152632
775.167878	0.152665
775.362125	0.152656
775.556354	0.152688
775.750564	0.152897
775.944756	0.153153
776.138930	0.153208
776.333086	0.153082
776.527223	0.152775
776.721343	0.152949
776.915444	0.152808
777.109526	0.152731
777.303591	0.152711
777.497637	0.152425
777.691666	0.152298
777.885676	0.152349
778.079667	0.152232
778.273641	0.152416
778.467596	0.152167
778.661533	0.152341
778.855452	0.152294
779.049352	0.152505
779.243235	0.152617
779.437099	0.152704
779.630945	0.152664
779.824773	0.152762
780.018582	0.152962
780.212373	0.153157
780.406146	0.153008
780.599901	0.153129
780.793638	0.153114
780.987356	0.152895
781.181056	0.152869
781.374738	0.152991
781.568402	0.153130
781.762047	0.153049
781.955674	0.153017
782.149283	0.153163
782.342874	0.153049
782.536447	0.153036
782.730001	0.153393
782.923537	0.153541
783.117055	0.153374
783.310555	0.153305
783.504036	0.153344
783.697499	0.153328
783.890944	0.153269
784.084371	0.153540
784.277780	0.153540
784.471170	0.153586
784.664542	0.153661
784.857896	0.153964
785.051231	0.154090
785.244549	0.154033
785.437848	0.154075
785.631129	0.154277
785.824392	0.154410
786.017636	0.154568
786.210863	0.154561
786.404071	0.154563
786.597260	0.154324
786.790432	0.154455
786.983585	0.154518
787.176721	0.154644
787.369838	0.154608
787.562936	0.154655
787.756017	0.154575
787.949079	0.154595
788.142123	0.154627
788.335149	0.154808
788.528156	0.154630
788.721146	0.154813
788.914117	0.154848
789.107070	0.155046
789.300005	0.155043
789.492921	0.155261
789.685819	0.155394
789.878699	0.155365
790.071561	0.155547
790.264405	0.155840
790.457230	0.155742
790.650037	0.155770
790.842826	0.155713
791.035597	0.155749
791.228349	0.155757
791.421084	0.155825
791.613800	0.156123
791.806497	0.155926
791.999177	0.155716
792.191838	0.155648
792.384481	0.155538
792.577106	0.155635
792.769713	0.155624
792.962301	0.155304
793.154871	0.155451
793.347423	0.155280
793.539957	0.155651
793.732473	0.155822
793.924970	0.156303
794.117449	0.156639
794.309910	0.156749
794.502353	0.156760
794.694777	0.157346
794.887183	0.157157
795.079571	0.157402
795.271941	0.157329
795.464293	0.157617
795.656626	0.157557
795.848941	0.157746
796.041238	0.157870
796.233516	0.158048
796.425777	0.157957
796.618019	0.158429
796.810243	0.158569
797.002449	0.158853
797.194636	0.158883
797.386805	0.158881
797.578956	0.158932
797.771089	0.158850
797.963204	0.158937
798.155300	0.159169
798.347378	0.158962
798.539438	0.158889
798.731480	0.158811
798.923503	0.158735
799.115509	0.158847
799.307496	0.158820
799.499465	0.159040
799.691415	0.159121
799.883348	0.159092
800.075262	0.159269
800.267158	0.159351
800.459035	0.159488
800.650895	0.159818
800.842736	0.159955
801.034559	0.160041
801.226364	0.160012
801.418150	0.160170
801.609919	0.160251
801.801669	0.160363
801.993401	0.160671
802.185114	0.160848
802.376810	0.160943
802.568487	0.161134
802.760146	0.161357
802.951787	0.161583
803.143409	0.161967
803.335014	0.162030
803.526600	0.162244
803.718168	0.162336
803.909717	0.162646
804.101249	0.162694
804.292762	0.162840
804.484257	0.163123
804.675734	0.163229
804.867192	0.163376
805.058632	0.163837
805.250054	0.164088
805.441458	0.164369
805.632844	0.164461
805.824211	0.164821
806.015561	0.164987
806.206891	0.164977
806.398204	0.165138
806.589499	0.165079
806.780775	0.165369
806.972033	0.165459
807.163273	0.165558
807.354495	0.165778
807.545698	0.165711
807.736883	0.166115
807.928050	0.166362
808.119199	0.166812
808.310329	0.167172
808.501441	0.167312
808.692535	0.167400
808.883611	0.167462
809.074669	0.167401
809.265708	0.167644
809.456729	0.167564
809.647732	0.167625
809.838717	0.167682
810.029683	0.167597
810.220632	0.167537
810.411562	0.167426
810.602474	0.167645
810.793367	0.168020
810.984242	0.168165
811.175100	0.168312
811.365938	0.168579
811.556759	0.168897
811.747562	0.169286
811.938346	0.169491
812.129112	0.169979
812.319860	0.170238
812.510589	0.170243
812.701300	0.170698
812.891994	0.170948
813.082668	0.171061
813.273325	0.171224
813.463964	0.171221
813.654584	0.171631
813.845186	0.172079
814.035769	0.171970
814.226335	0.172271
814.416882	0.172210
814.607411	0.172313
814.797922	0.172446
814.988415	0.172616
815.178889	0.172949
815.369345	0.172983
815.559783	0.172897
815.750203	0.173226
815.940605	0.173576
816.130988	0.174032
816.321353	0.174521
816.511700	0.174684
816.702028	0.174529
816.892339	0.174755
817.082631	0.175114
817.272905	0.175437
817.463161	0.176060
817.653398	0.176211
817.843617	0.176270
818.033819	0.176251
818.224001	0.176609
818.414166	0.177085
818.604312	0.177328
818.794440	0.177419
818.984550	0.177527
819.174642	0.177545
819.364716	0.177671
819.554771	0.177589
819.744808	0.177683
819.934827	0.177896
820.124827	0.178045
820.314810	0.178315
820.504774	0.178445
820.694720	0.178739
820.884647	0.178983
821.074557	0.179272
821.264448	0.179791
821.454321	0.180077
821.644176	0.180202
821.834012	0.180384
822.023831	0.180205
822.213631	0.180396
822.403413	0.180614
822.593176	0.180751
822.782922	0.180858
822.972649	0.181018
823.162358	0.181166
823.352049	0.181429
823.541721	0.181341
823.731376	0.181665
823.921012	0.181796
824.110629	0.181833
824.300229	0.182031
824.489811	0.182005
824.679374	0.181892
824.868919	0.181932
825.058445	0.181814
825.247954	0.182161
825.437444	0.182604
825.626916	0.182726
825.816370	0.182876
826.005806	0.183203
826.195223	0.183623
826.384622	0.184233
826.574003	0.184910
826.763366	0.185369
826.952711	0.185834
827.142037	0.185824
827.331345	0.186333
827.520635	0.186853
827.709906	0.186908
827.899160	0.187109
828.088395	0.187409
828.277612	0.187475
828.466810	0.187674
828.655991	0.187804
828.845153	0.188058
829.034297	0.188230
829.223423	0.188033
829.412531	0.188082
829.601620	0.188284
829.790691	0.188233
829.979744	0.188255
830.168779	0.188462
830.357795	0.189005
830.546793	0.189295
830.735773	0.189547
830.924735	0.190144
831.113679	0.190550
831.302604	0.190881
831.491511	0.191247
831.680400	0.191514
831.869271	0.192084
832.058123	0.192241
832.246957	0.192810
832.435773	0.193111
832.624571	0.193518
832.813351	0.193730
833.002112	0.194009
833.190855	0.194216
833.379580	0.194542
833.568287	0.194587
833.756975	0.194654
833.945645	0.194926
834.134297	0.194964
834.322931	0.195218
834.511547	0.195664
834.700144	0.195866
834.888723	0.196102
835.077284	0.196634
835.265826	0.196938
835.454351	0.197164
835.642857	0.197192
835.831345	0.197547
836.019815	0.197860
836.208266	0.198068
836.396699	0.198172
836.585114	0.198609
836.773511	0.198619
836.961890	0.198724
837.150250	0.198827
837.338592	0.198898
837.526916	0.199202
837.715222	0.199259
837.903510	0.199264
838.091779	0.199723
838.280030	0.199838
838.468263	0.200041
838.656477	0.200488
838.844674	0.201143
839.032852	0.201305
839.221012	0.201701
839.409153	0.201973
839.597277	0.202533
839.785382	0.202685
839.973469	0.203405
840.161538	0.203990
840.349589	0.204611
840.537621	0.204806
840.725635	0.205350
840.913631	0.205602
841.101609	0.205887
841.289568	0.206238
841.477509	0.206642
841.665432	0.206668
841.853337	0.207150
842.041224	0.207278
842.229092	0.207441
842.416942	0.207753
842.604774	0.208104
842.792588	0.208428
842.980383	0.208843
843.168160	0.209294
843.355919	0.209711
843.543660	0.209891
843.731382	0.210061
843.919087	0.210471
844.106773	0.210866
844.294441	0.211151
844.482090	0.211440
844.669722	0.211596
844.857335	0.211377
845.044930	0.211570
845.232507	0.211768
845.420065	0.212320
845.607605	0.212638
845.795127	0.212686
845.982631	0.212794
846.170117	0.212976
846.357584	0.213420
846.545033	0.213995
846.732464	0.214104
846.919877	0.214417
847.107272	0.214643
847.294648	0.214788
847.482006	0.215090
847.669346	0.215338
847.856667	0.215737
848.043971	0.215767
848.231256	0.215949
848.418523	0.216237
848.605771	0.216028
848.793002	0.215896
848.980214	0.216033
849.167408	0.216196
849.354584	0.216603
849.541742	0.216553
849.728881	0.216915
849.916002	0.217251
850.103105	0.217648
850.290190	0.218217
850.477256	0.218627
850.664304	0.219072
850.851334	0.219685
851.038346	0.220096
851.225340	0.220624
851.412315	0.220846
851.599272	0.221377
851.786211	0.221725
851.973132	0.222489
852.160034	0.222914
852.346918	0.223389
852.533784	0.223382
852.720632	0.223750
852.907462	0.224296
853.094273	0.224836
853.281066	0.225040
853.467841	0.225138
853.654598	0.225047
853.841336	0.225370
854.028056	0.225506
854.214758	0.225899
854.401442	0.225827
854.588107	0.226050
854.774755	0.226295
854.961384	0.226861
855.147995	0.226937
855.334587	0.227154
855.521162	0.227444
855.707718	0.227831
855.894256	0.228100
856.080775	0.228746
856.267277	0.228998
856.453760	0.229402
856.640225	0.229409
856.826672	0.230246
857.013101	0.230605
857.199511	0.230999
857.385903	0.231183
857.572277	0.231741
857.758633	0.231922
857.944970	0.232178
858.131290	0.231991
858.317591	0.232059
858.503873	0.232089
858.690138	0.232398
858.876384	0.232423
859.062612	0.232867
859.248822	0.232814
859.435014	0.233264
859.621188	0.233800
859.807343	0.234375
859.993480	0.235011
860.179599	0.235382
860.365699	0.235732
860.551781	0.236217
860.737846	0.236511
860.923891	0.236776
861.109919	0.236891
861.295929	0.236876
861.481920	0.236779
861.667893	0.236742
861.853848	0.236630
862.039784	0.236797
862.225702	0.237037
862.411603	0.237077
862.597484	0.237789
862.783348	0.238010
862.969193	0.238091
863.155021	0.238704
863.340830	0.239061
863.526620	0.239536
863.712393	0.239845
863.898147	0.240057
864.083883	0.240432
864.269601	0.240119
864.455301	0.240316
864.640982	0.240597
864.826645	0.240389
865.012290	0.240420
865.197917	0.240493
865.383526	0.240165
865.569116	0.240080
865.754688	0.240016
865.940242	0.240343
866.125777	0.240405
866.311295	0.240764
866.496794	0.241082
866.682275	0.241543
866.867737	0.241654
867.053182	0.242245
867.238608	0.242679
867.424016	0.243329
867.609406	0.243533
867.794778	0.243533
867.980131	0.243585
868.165466	0.243952
868.350783	0.243855
868.536082	0.244250
868.721362	0.244352
868.906625	0.244320
869.091869	0.243868
869.277094	0.243825
869.462302	0.244265
869.647491	0.244300
869.832662	0.244057
870.017815	0.244329
870.202950	0.244432
870.388066	0.244315
870.573165	0.244577
870.758245	0.244777
870.943306	0.245043
871.128350	0.244800
871.313375	0.244755
871.498382	0.245248
871.683371	0.245405
871.868342	0.245470
872.053294	0.245809
872.238229	0.245972
872.423144	0.246427
872.608042	0.246805
872.792922	0.247292
872.977783	0.247679
873.162626	0.247722
873.347451	0.247814
873.532258	0.248363
873.717046	0.248339
873.901816	0.248217
874.086568	0.248417
874.271302	0.248374
874.456017	0.248670
874.640715	0.249240
874.825394	0.249437
875.010055	0.249418
875.194697	0.249697
875.379322	0.250122
875.563928	0.250559
875.748516	0.250533
875.933085	0.251104
876.117637	0.251238
876.302170	0.251559
876.486685	0.251969
876.671182	0.252475
876.855661	0.252635
877.040121	0.252787
877.224563	0.253084
877.408987	0.253640
877.593393	0.253878
877.777780	0.254345
877.962150	0.254298
878.146501	0.254182
878.330833	0.254180
878.515148	0.254193
878.699444	0.254646
878.883722	0.255083
879.067982	0.254846
879.252224	0.254627
879.436447	0.254555
879.620653	0.254526
879.804840	0.255034
879.989008	0.255433
880.173159	0.255632
880.357291	0.255701
880.541405	0.255608
880.725501	0.256110
880.909579	0.256397
881.093638	0.256498
881.277680	0.256778
881.461703	0.256334
881.645707	0.256386
881.829694	0.256476
882.013662	0.256857
882.197612	0.256809
882.381544	0.256537
882.565458	0.256789
882.749353	0.256431
882.933230	0.256177
883.117089	0.256518
883.300930	0.256344
883.484753	0.256167
883.668557	0.256126
883.852343	0.256155
884.036111	0.256213
884.219861	0.256414
884.403592	0.257063
884.587305	0.257206
884.771000	0.257237
884.954677	0.257705
885.138335	0.258363
885.321976	0.258129
885.505598	0.258403
885.689201	0.258960
885.872787	0.258569
886.056354	0.258454
886.239904	0.258599
886.423434	0.258838
886.606947	0.258808
886.790442	0.258499
886.973918	0.258856
887.157376	0.258625
887.340816	0.258556
887.524237	0.258640
887.707641	0.258576
887.891026	0.258549
888.074393	0.258372
888.257741	0.258302
888.441072	0.258115
888.624384	0.257846
888.807678	0.257771
888.990954	0.257538
889.174211	0.257548
889.357451	0.257447
889.540672	0.257560
889.723875	0.257715
889.907059	0.257548
890.090226	0.257199
890.273374	0.257003
890.456504	0.257209
890.639616	0.257264
890.822709	0.257312
891.005785	0.257567
891.188842	0.257335
891.371881	0.257231
891.554901	0.257362
891.737904	0.257383
891.920888	0.257315
892.103854	0.257238
892.286802	0.257327
892.469731	0.257166
892.652643	0.257484
892.835536	0.257795
893.018410	0.258035
893.201267	0.257712
893.384106	0.257643
893.566926	0.257893
893.749728	0.258141
893.932511	0.258125
894.115277	0.257987
894.298024	0.257692
894.480753	0.257651
894.663464	0.257122
894.846157	0.257408
895.028831	0.257472
895.211487	0.257527
895.394125	0.257227
895.576745	0.257137
895.759346	0.257473
895.941930	0.256939
896.124495	0.256707
896.307041	0.256983
896.489570	0.256868
896.672080	0.257065
896.854573	0.257157
897.037046	0.256944
897.219502	0.256933
897.401940	0.257143
897.584359	0.257302
897.766760	0.257405
897.949143	0.257772
898.131507	0.257832
898.313854	0.257912
898.496182	0.257540
898.678492	0.257895
898.860783	0.257568
899.043057	0.256931
899.225312	0.256360
899.407549	0.255651
899.589768	0.254829
899.771968	0.254429
899.954151	0.254125
900.136315	0.253725
900.318461	0.253347
900.500588	0.253005
900.682698	0.252759
900.864789	0.252995
901.046862	0.252738
901.228917	0.252339
901.410953	0.251892
901.592971	0.251624
901.774972	0.251543
901.956953	0.251242
902.138917	0.251740
902.320862	0.251696
902.502790	0.251502
902.684699	0.251765
902.866589	0.252112
903.048462	0.252481
903.230316	0.252595
903.412152	0.252895
903.593970	0.252978
903.775770	0.252171
903.957551	0.251883
904.139314	0.251652
904.321059	0.251608
904.502786	0.251169
904.684494	0.250588
904.866185	0.249908
905.047857	0.249252
905.229510	0.248266
905.411146	0.248112
905.592763	0.247926
905.774363	0.247743
905.955943	0.247180
906.137506	0.247082
906.319051	0.246786
906.500577	0.246707
906.682085	0.246318
906.863575	0.246188
907.045046	0.245985
907.226500	0.245872
907.407935	0.245984
907.589352	0.246299
907.770750	0.245878
907.952131	0.245912
908.133493	0.245840
908.314837	0.245870
908.496163	0.245403
908.677470	0.245299
908.858760	0.245060
909.040031	0.244373
909.221284	0.243622
909.402518	0.243384
909.583735	0.243442
909.764933	0.243142
909.946113	0.242815
910.127275	0.242721
910.308418	0.242038
910.489544	0.241983
910.670651	0.242065
910.851740	0.241835
911.032810	0.242073
911.213863	0.241723
911.394897	0.241246
911.575913	0.241328
911.756911	0.241321
911.937890	0.241222
912.118851	0.240891
912.299794	0.240648
912.480719	0.240641
912.661626	0.239889
912.842514	0.238803
913.023384	0.238647
913.204236	0.237691
913.385070	0.237659
913.565886	0.237626
913.746683	0.237096
913.927462	0.236892
914.108223	0.236317
914.288965	0.235772
914.469690	0.236114
914.650396	0.235616
914.831084	0.235593
915.011754	0.235221
915.192405	0.235175
915.373038	0.234412
915.553653	0.233748
915.734250	0.232906
915.914829	0.232280
916.095389	0.231718
916.275931	0.231398
916.456455	0.230732
916.636961	0.230545
916.817448	0.229416
916.997917	0.229456
917.178368	0.228630
917.358801	0.228662
917.539216	0.228772
917.719612	0.228595
917.899990	0.228312
918.080350	0.228196
918.260692	0.227493
918.441015	0.227378
918.621320	0.226719
918.801607	0.226798
918.981876	0.226380
919.162127	0.225902
919.342359	0.225377
919.522573	0.225220
919.702769	0.224432
919.882947	0.224061
920.063106	0.223344
920.243247	0.223004
920.423370	0.222354
920.603475	0.221708
920.783562	0.221241
920.963630	0.220893
921.143680	0.220166
921.323712	0.219890
921.503725	0.219264
921.683721	0.219409
921.863698	0.219471
922.043657	0.219375
922.223598	0.218618
922.403520	0.218536
922.583424	0.218130
922.763311	0.217443
922.943178	0.217211
923.123028	0.216754
923.302859	0.216276
923.482673	0.215896
923.662467	0.215437
923.842244	0.215852
924.022003	0.215551
924.201743	0.215008
924.381465	0.215223
924.561169	0.214836
924.740854	0.214789
924.920522	0.214414
925.100171	0.212970
925.279802	0.212235
925.459414	0.211570
925.639009	0.211187
925.818585	0.210915
925.998143	0.210411
926.177683	0.209179
926.357205	0.208656
926.536708	0.207981
926.716193	0.207865
926.895660	0.207296
927.075109	0.206822
927.254539	0.205606
927.433951	0.204717
927.613345	0.203676
927.792721	0.203314
927.972079	0.201844
928.151418	0.201047
928.330739	0.201369
928.510042	0.201076
928.689327	0.200655
928.868593	0.200432
929.047841	0.199788
929.227071	0.199435
929.406283	0.199361
929.585476	0.199669
929.764652	0.199186
929.943809	0.197564
930.122948	0.196948
930.302068	0.195945
930.481171	0.195485
930.660255	0.195450
930.839321	0.194396
931.018369	0.194047
931.197398	0.193772
931.376409	0.193300
931.555402	0.193287
931.734377	0.191946
931.913334	0.191957
932.092272	0.191488
932.271192	0.190101
932.450094	0.190117
932.628978	0.189226
932.807844	0.188427
932.986691	0.187891
933.165520	0.186257
933.344331	0.186888
933.523123	0.185904
933.701898	0.185203
933.880654	0.184801
934.059392	0.183666
934.238111	0.183387
934.416813	0.182304
934.595496	0.181286
934.774161	0.181276
934.952808	0.179364
935.131437	0.178804
935.310047	0.177803
935.488639	0.177797
935.667213	0.177322
935.845769	0.176803
936.024306	0.175739
936.202825	0.175429
936.381326	0.174739
936.559809	0.174406
936.738274	0.173811
936.916720	0.173498
937.095148	0.172423
937.273558	0.171997
937.451950	0.170636
937.630323	0.171256
937.808678	0.170583
937.987015	0.170388
938.165334	0.169084
938.343635	0.167628
938.521917	0.165755
938.700181	0.164507
938.878427	0.164538
939.056655	0.165020
939.234864	0.163967
939.413055	0.163037
939.591228	0.161351
939.769383	0.161942
939.947519	0.162062
940.125638	0.162582
940.303738	0.161614
940.481820	0.159904
940.659883	0.159409
940.837929	0.159425
941.015956	0.159295
941.193965	0.158978
941.371955	0.159004
941.549928	0.157877
941.727882	0.156633
941.905818	0.157506
942.083736	0.156405
942.261636	0.154875
942.439517	0.152832
942.617380	0.151811
942.795225	0.151845
942.973052	0.150964
943.150860	0.150340
943.328651	0.150270
943.506423	0.148350
943.684176	0.148162
943.861912	0.147469
944.039629	0.146663
944.217328	0.146696
944.395009	0.145182
944.572672	0.143071
944.750317	0.141329
944.927943	0.140564
945.105551	0.140162
945.283141	0.139137
945.460712	0.138465
945.638265	0.138026
945.815801	0.135968
945.993317	0.136729
946.170816	0.137446
946.348297	0.136773
946.525759	0.135579
946.703203	0.135067
946.880629	0.134502
947.058036	0.133627
947.235425	0.133184
947.412797	0.132938
947.590149	0.130921
947.767484	0.130120
947.944800	0.131728
948.122099	0.131537
948.299379	0.130969
948.476640	0.131045
948.653884	0.130593
948.831109	0.130408
949.008316	0.130178
949.185505	0.129914
949.362676	0.128372
949.539828	0.126116
949.716962	0.124869
949.894078	0.122973
950.071176	0.121711
950.248256	0.121481
950.425317	0.120413
950.602360	0.119314
950.779385	0.119324
950.956391	0.119225
951.133380	0.119040
951.310350	0.119023
951.487302	0.120274
951.664235	0.120629
951.841151	0.119803
952.018048	0.119473
952.194927	0.119072
952.371788	0.118607
952.548631	0.117504
952.725455	0.117304
952.902261	0.115522
953.079049	0.115443
953.255819	0.114010
953.432570	0.114244
953.609303	0.115005
953.786018	0.115000
953.962715	0.115902
954.139394	0.114495
954.316054	0.114760
954.492696	0.115970
954.669320	0.115211
954.845926	0.115248
955.022513	0.113056
955.199083	0.109213
955.375634	0.109417
955.552166	0.109355
955.728681	0.110041
955.905177	0.109986
956.081655	0.109575
956.258115	0.109055
956.434557	0.107994
956.610980	0.107325
956.787385	0.109712
956.963772	0.107941
957.140141	0.105730
957.316492	0.106186
957.492824	0.105193
957.669138	0.104066
957.845434	0.102603
958.021712	0.103357
958.197971	0.101831
958.374212	0.099009
958.550435	0.101493
958.726640	0.100678
958.902826	0.099571
959.078995	0.099451
959.255145	0.100479
959.431277	0.101966
959.607390	0.099298
959.783486	0.102550
959.959563	0.103591
960.135622	0.101717
960.311662	0.102385
960.487685	0.104429
960.663689	0.103418
960.839675	0.102195
961.015643	0.099907
961.191593	0.100348
961.367524	0.099384
961.543437	0.099784
961.719332	0.098016
961.895209	0.096738
962.071067	0.095137
962.246907	0.095808
962.422730	0.096361
962.598533	0.096795
962.774319	0.098087
962.950086	0.096841
963.125835	0.097536
963.301566	0.098619
963.477279	0.099412
963.652973	0.100219
963.828650	0.100211
964.004308	0.101260
964.179947	0.102577
964.355569	0.103853
964.531172	0.106049
964.706757	0.105236
964.882324	0.104071
965.057873	0.103048
965.233403	0.099590
965.408916	0.099966
965.584410	0.096373
965.759885	0.097520
965.935343	0.096158
966.110782	0.095713
966.286203	0.095762
966.461606	0.097188
966.636991	0.097920
966.812357	0.099635
966.987705	0.101624
967.163035	0.103814
967.338347	0.103597
967.513641	0.102810
967.688916	0.103085
967.864173	0.101180
968.039412	0.099329
968.214632	0.099371
968.389835	0.099110
968.565019	0.095984
968.740185	0.097153
968.915333	0.097165
969.090462	0.097732
969.265573	0.095541
969.440667	0.098042
969.615741	0.099118
969.790798	0.097696
969.965836	0.099326
970.140856	0.099441
970.315858	0.099114
970.490842	0.097098
970.665808	0.097971
970.840755	0.098743
971.015684	0.098067
971.190595	0.097844
971.365487	0.099185
971.540362	0.097539
971.715218	0.097493
971.890056	0.098167
972.064875	0.097774
972.239677	0.099028
972.414460	0.098020
972.589225	0.098258
972.763972	0.099100
972.938700	0.099627
973.113411	0.098801
973.288103	0.098411
973.462777	0.096591
973.637432	0.096942
973.812070	0.096543
973.986689	0.095751
974.161290	0.095403
974.335873	0.095233
974.510437	0.095259
974.684984	0.096201
974.859512	0.098230
975.034022	0.098798
975.208513	0.100811
975.382987	0.098885
975.557442	0.100983
975.731879	0.102379
975.906298	0.099705
976.080698	0.099789
976.255080	0.099443
976.429445	0.098454
976.603790	0.097835
976.778118	0.093867
976.952427	0.095881
977.126719	0.096065
977.300992	0.093302
977.475246	0.097287
977.649483	0.097475
977.823701	0.098037
977.997901	0.098558
978.172083	0.099055
978.346247	0.099784
978.520392	0.095833
978.694519	0.095737
978.868628	0.098481
979.042719	0.097835
979.216791	0.097096
979.390845	0.096467
979.564882	0.095420
979.738899	0.094312
979.912899	0.094446
980.086880	0.097462
980.260843	0.096536
980.434788	0.096828
980.608715	0.097299
980.782623	0.097292
980.956514	0.096921
981.130386	0.095396
981.304240	0.098664
981.478075	0.100316
981.651892	0.099071
981.825692	0.098445
981.999472	0.097002
982.173235	0.096011
982.346980	0.097071
982.520706	0.097666
982.694414	0.098578
982.868104	0.095769
983.041775	0.095154
983.215428	0.095223
983.389064	0.096442
983.562680	0.096853
983.736279	0.096400
983.909860	0.094210
984.083422	0.093688
984.256966	0.095109
984.430491	0.096966
984.603999	0.097484
984.777488	0.098912
984.950959	0.100153
985.124412	0.099584
985.297847	0.099711
985.471263	0.101622
985.644661	0.101545
985.818041	0.100297
985.991403	0.100679
986.164747	0.101146
986.338072	0.100575
986.511379	0.101038
986.684668	0.102091
986.857938	0.102976
987.031191	0.100402
987.204425	0.102204
987.377641	0.101663
987.550839	0.102894
987.724018	0.100568
987.897179	0.100061
988.070322	0.098151
988.243447	0.097173
988.416554	0.096904
988.589642	0.099342
988.762712	0.098225
988.935764	0.099613
989.108798	0.097418
989.281813	0.099506
989.454811	0.100093
989.627790	0.100337
989.800751	0.099799
989.973693	0.099575
990.146617	0.098876
990.319524	0.100929
990.492412	0.100935
990.665281	0.099140
990.838133	0.099541
991.010966	0.099478
991.183781	0.099412
991.356578	0.099431
991.529356	0.100128
991.702117	0.101093
991.874859	0.098337
992.047583	0.098931
992.220288	0.099612
992.392976	0.098190
992.565645	0.097635
992.738296	0.099599
992.910929	0.100269
993.083543	0.099538
993.256139	0.098046
993.428718	0.100162
993.601277	0.098504
993.773819	0.100349
993.946342	0.101872
994.118848	0.103367
994.291335	0.102265
994.463803	0.102100
994.636254	0.102447
994.808686	0.102801
994.981100	0.102984
995.153496	0.105088
995.325874	0.103519
995.498233	0.101844
995.670574	0.099392
995.842897	0.099439
996.015202	0.099898
996.187488	0.098861
996.359757	0.097485
996.532007	0.094296
996.704239	0.094080
996.876452	0.093399
997.048648	0.093642
997.220825	0.093448
997.392984	0.091887
997.565124	0.092986
997.737247	0.094128
997.909351	0.093838
998.081437	0.094938
998.253505	0.094326
998.425554	0.093904
998.597586	0.095222
998.769599	0.095431
998.941594	0.098084
999.113571	0.096857
999.285529	0.096547
999.457469	0.098056
999.629391	0.097885
999.801295	0.097452
999.973181	0.097329
1000.145048	0.095646
1000.316897	0.096150
1000.488728	0.094672
1000.660541	0.094228
1000.832335	0.093996
1001.004111	0.094388
1001.175869	0.095568
1001.347609	0.097177
1001.519331	0.098093
1001.691034	0.098141
1001.862719	0.099784
1002.034386	0.100121
1002.206035	0.101783
1002.377665	0.102195
1002.549277	0.102269
1002.720871	0.102552
1002.892447	0.100456
1003.064004	0.101393
1003.235544	0.102409
1003.407065	0.102078
1003.578568	0.100707
1003.750052	0.098596
1003.921519	0.097442
1004.092967	0.097698
1004.264397	0.098180
1004.435809	0.099060
1004.607202	0.098758
1004.778577	0.098829
1004.949934	0.097160
1005.121273	0.097943
1005.292594	0.098574
1005.463896	0.100009
1005.635180	0.099941
1005.806446	0.098995
1005.977694	0.098799
1006.148923	0.097958
1006.320135	0.098254
1006.491328	0.100462
1006.662503	0.101900
1006.833659	0.102983
1007.004798	0.103063
1007.175918	0.102761
1007.347020	0.102845
1007.518103	0.102450
1007.689169	0.102719
1007.860216	0.102640
1008.031245	0.100507
1008.202256	0.098710
1008.373248	0.097563
1008.544223	0.096509
1008.715179	0.094696
1008.886117	0.095120
1009.057036	0.094968
1009.227938	0.094409
1009.398821	0.094632
1009.569686	0.094785
1009.740533	0.095194
1009.911361	0.094769
1010.082172	0.094863
1010.252964	0.098515
1010.423738	0.099405
1010.594493	0.100001
1010.765231	0.098771
1010.935950	0.098733
1011.106651	0.100348
1011.277334	0.099326
1011.447998	0.101010
1011.618645	0.100779
1011.789273	0.099545
1011.959882	0.098063
1012.130474	0.097720
1012.301048	0.099602
1012.471603	0.097621
1012.642140	0.097870
1012.812658	0.097564
1012.983159	0.095804
1013.153641	0.096042
1013.324105	0.095279
1013.494551	0.094137
1013.664979	0.093828
1013.835388	0.092925
1014.005779	0.094084
1014.176152	0.091583
1014.346507	0.092278
1014.516843	0.092644
1014.687162	0.092326
1014.857462	0.091884
1015.027744	0.092574
1015.198007	0.093624
1015.368252	0.095122
1015.538480	0.095326
1015.708689	0.094422
1015.878879	0.094860
1016.049052	0.094722
1016.219206	0.094845
1016.389342	0.094704
1016.559460	0.095164
1016.729559	0.093855
1016.899641	0.093865
1017.069704	0.094650
1017.239749	0.097241
1017.409775	0.095505
1017.579784	0.096453
1017.749774	0.095063
1017.919746	0.096513
1018.089700	0.095767
1018.259635	0.096104
1018.429553	0.095970
1018.599452	0.095838
1018.769333	0.094868
1018.939195	0.097523
1019.109040	0.096698
1019.278866	0.098676
1019.448674	0.096067
1019.618464	0.097031
1019.788235	0.096525
1019.957989	0.095159
1020.127724	0.095554
1020.297441	0.095867
1020.467139	0.094423
1020.636820	0.092773
1020.806482	0.091218
1020.976126	0.093790
1021.145752	0.092918
1021.315359	0.093195
1021.484948	0.093469
1021.654519	0.091437
1021.824072	0.090709
1021.993607	0.091240
1022.163123	0.093872
1022.332621	0.096190
1022.502101	0.094158
1022.671563	0.093843
1022.841007	0.093773
1023.010432	0.096518
1023.179839	0.096108
1023.349228	0.097330
1023.518598	0.096414
1023.687951	0.095728
1023.857285	0.093858
1024.026601	0.095154
1024.195899	0.095810
1024.365178	0.096553
1024.534439	0.094112
1024.703682	0.095665
1024.872907	0.095165
1025.042114	0.095787
1025.211302	0.095119
1025.380472	0.094439
1025.549624	0.092978
1025.718758	0.093618
1025.887873	0.092851
1026.056970	0.092134
1026.226049	0.093094
1026.395110	0.092036
1026.564153	0.092993
1026.733177	0.091924
1026.902183	0.092586
1027.071171	0.093676
1027.240141	0.091787
1027.409092	0.092852
1027.578026	0.094918
1027.746940	0.094248
1027.915837	0.094931
1028.084716	0.092982
1028.253576	0.094949
1028.422418	0.095581
1028.591242	0.095378
1028.760048	0.096337
1028.928835	0.095343
1029.097604	0.093742
1029.266355	0.093308
1029.435088	0.093132
1029.603803	0.094261
1029.772499	0.094092
1029.941177	0.093342
1030.109837	0.094016
1030.278478	0.092966
1030.447102	0.092293
1030.615707	0.094176
1030.784294	0.094058
1030.952863	0.093959
1031.121413	0.092972
1031.289945	0.092291
1031.458460	0.091734
1031.626955	0.091860
1031.795433	0.093082
1031.963892	0.094109
1032.132334	0.092731
1032.300756	0.092275
1032.469161	0.092529
1032.637548	0.094417
1032.805916	0.095246
1032.974266	0.096821
1033.142598	0.096025
1033.310911	0.096972
1033.479207	0.094701
1033.647484	0.094982
1033.815743	0.095040
1033.983983	0.094799
1034.152206	0.092660
1034.320410	0.093412
1034.488596	0.094036
1034.656764	0.093550
1034.824914	0.094757
1034.993045	0.096127
1035.161158	0.095507
1035.329253	0.095630
1035.497330	0.095058
1035.665388	0.095149
1035.833428	0.094861
1036.001450	0.094155
1036.169454	0.095953
1036.337440	0.094579
1036.505407	0.094990
1036.673356	0.094888
1036.841287	0.094769
1037.009200	0.094447
1037.177094	0.096514
1037.344970	0.094280
1037.512828	0.093965
1037.680668	0.093467
1037.848489	0.092380
1038.016293	0.093170
1038.184078	0.093090
1038.351845	0.092956
1038.519593	0.094012
1038.687324	0.092820
1038.855036	0.094565
1039.022730	0.095157
1039.190406	0.094446
1039.358063	0.095655
1039.525702	0.095387
1039.693323	0.097108
1039.860926	0.098080
1040.028511	0.097696
1040.196077	0.097546
1040.363625	0.096669
1040.531155	0.096084
1040.698667	0.096319
1040.866161	0.095974
1041.033636	0.095664
1041.201093	0.093857
1041.368532	0.092999
1041.535952	0.092440
1041.703355	0.092705
1041.870739	0.093895
1042.038105	0.093578
1042.205452	0.093726
1042.372782	0.093234
1042.540093	0.094354
1042.707386	0.094399
1042.874661	0.094802
1043.041918	0.095455
1043.209156	0.094521
1043.376376	0.093871
1043.543578	0.094039
1043.710762	0.092625
1043.877927	0.093056
1044.045074	0.092487
1044.212203	0.093926
1044.379314	0.094249
1044.546407	0.092911
1044.713481	0.093019
1044.880537	0.093215
1045.047575	0.093024
1045.214595	0.096382
1045.381596	0.096394
1045.548579	0.096126
1045.715544	0.095715
1045.882491	0.094588
1046.049420	0.094949
1046.216330	0.095602
1046.383222	0.094436
1046.550096	0.095969
1046.716951	0.091709
1046.883789	0.093030
1047.050608	0.093194
1047.217409	0.092285
1047.384192	0.092151
1047.550956	0.094454
1047.717703	0.094570
1047.884431	0.096063
1048.051140	0.094573
1048.217832	0.096870
1048.384505	0.094778
1048.551161	0.093391
1048.717798	0.094576
1048.884416	0.095074
1049.051017	0.092889
1049.217599	0.092187
1049.384163	0.091329
1049.550709	0.092028
1049.717237	0.091851
1049.883746	0.092630
1050.050237	0.092512
1050.216710	0.089590
1050.383165	0.091126
1050.549601	0.092549
1050.716019	0.091998
1050.882420	0.091993
1051.048801	0.090545
1051.215165	0.089874
1051.381510	0.090186
1051.547837	0.091403
1051.714146	0.091736
1051.880437	0.091898
1052.046709	0.091398
1052.212964	0.091673
1052.379200	0.091072
1052.545417	0.092832
1052.711617	0.092364
1052.877798	0.092009
1053.043961	0.092162
1053.210106	0.093391
1053.376233	0.090972
1053.542341	0.091140
1053.708432	0.093196
1053.874504	0.092565
1054.040557	0.091739
1054.206593	0.093491
1054.372610	0.092194
1054.538609	0.090678
1054.704590	0.091217
1054.870553	0.092132
1055.036497	0.092413
1055.202424	0.090009
1055.368331	0.089997
1055.534221	0.089965
1055.700093	0.088054
1055.865946	0.088971
1056.031781	0.089266
1056.197598	0.088792
1056.363397	0.089268
1056.529177	0.089017
1056.694939	0.090273
1056.860683	0.090044
1057.026409	0.090417
1057.192116	0.090637
1057.357806	0.090780
1057.523477	0.091578
1057.689130	0.091163
1057.854764	0.089974
1058.020381	0.089917
1058.185979	0.089666
1058.351559	0.088783
1058.517120	0.089039
1058.682664	0.089159
1058.848189	0.089185
1059.013696	0.088282
1059.179185	0.087773
1059.344656	0.089376
1059.510108	0.089781
1059.675542	0.089844
1059.840958	0.091080
1060.006356	0.090571
1060.171735	0.090908
1060.337096	0.089747
1060.502439	0.090313
1060.667764	0.089628
1060.833071	0.088137
1060.998359	0.088070
1061.163629	0.087318
1061.328881	0.088608
1061.494115	0.087919
1061.659330	0.087549
1061.824527	0.088555
1061.989706	0.089456
1062.154867	0.091695
1062.320010	0.091556
1062.485134	0.090398
1062.650240	0.089259
1062.815328	0.090374
1062.980398	0.088969
1063.145449	0.089233
1063.310482	0.089393
1063.475497	0.088451
1063.640494	0.088317
1063.805473	0.088982
1063.970433	0.088682
1064.135375	0.091641
1064.300299	0.090334
1064.465204	0.091465
1064.630092	0.091295
1064.794961	0.091954
1064.959812	0.092025
1065.124645	0.091422
1065.289459	0.091294
1065.454256	0.093837
1065.619034	0.093465
1065.783793	0.094986
1065.948535	0.095635
1066.113258	0.096314
1066.277964	0.095807
1066.442651	0.097517
1066.607319	0.096155
1066.771970	0.096022
1066.936602	0.094725
1067.101216	0.093732
1067.265812	0.090966
1067.430389	0.091289
1067.594949	0.091286
1067.759490	0.089827
1067.924013	0.089469
1068.088518	0.091109
1068.253004	0.091801
1068.417472	0.089625
1068.581922	0.089497
1068.746354	0.090894
1068.910768	0.090115
1069.075163	0.089329
1069.239540	0.089566
1069.403899	0.088462
1069.568240	0.089583
1069.732562	0.087262
1069.896866	0.089548
1070.061152	0.090075
1070.225420	0.088797
1070.389670	0.088299
1070.553901	0.089021
1070.718114	0.089281
1070.882309	0.089112
1071.046486	0.087689
1071.210644	0.089059
1071.374784	0.090782
1071.538906	0.090203
1071.703010	0.091387
1071.867096	0.092444
1072.031163	0.092003
1072.195212	0.094216
1072.359243	0.094795
1072.523256	0.095553
1072.687250	0.097576
1072.851226	0.095002
1073.015184	0.095045
1073.179124	0.092613
1073.343045	0.091214
1073.506949	0.090525
1073.670834	0.089234
1073.834701	0.089141
1073.998549	0.087618
1074.162380	0.085232
1074.326192	0.085759
1074.489986	0.085641
1074.653761	0.087035
1074.817519	0.089594
1074.981258	0.090777
1075.144979	0.089474
1075.308682	0.086835
1075.472367	0.088564
1075.636033	0.089439
1075.799681	0.087911
1075.963311	0.087212
1076.126923	0.088346
1076.290516	0.086402
1076.454092	0.084737
1076.617649	0.085161
1076.781187	0.088509
1076.944708	0.086904
1077.108210	0.087702
1077.271695	0.086166
1077.435160	0.087038
1077.598608	0.087058
1077.762038	0.086209
1077.925449	0.084464
1078.088842	0.082056
1078.252217	0.082175
1078.415573	0.083976
1078.578912	0.081547
1078.742232	0.084069
1078.905534	0.082141
1079.068817	0.081840
1079.232083	0.083300
1079.395330	0.085630
1079.558559	0.087290
1079.721770	0.086628
1079.884962	0.085792
1080.048136	0.086636
1080.211293	0.089000
1080.374430	0.088999
1080.537550	0.088281
1080.700651	0.089005
1080.863735	0.088985
1081.026800	0.091872
1081.189846	0.091095
1081.352875	0.091134
1081.515885	0.091939
1081.678877	0.089429
1081.841851	0.092058
1082.004807	0.090014
1082.167744	0.087403
1082.330663	0.086173
1082.493564	0.082653
1082.656447	0.083005
1082.819312	0.081695
1082.982158	0.080692
1083.144986	0.080301
1083.307796	0.080359
1083.470587	0.084510
1083.633361	0.084682
1083.796116	0.085817
1083.958853	0.086117
1084.121571	0.086874
1084.284272	0.085566
1084.446954	0.085959
1084.609618	0.088475
1084.772264	0.087819
1084.934892	0.085434
1085.097501	0.086971
1085.260092	0.087879
1085.422665	0.086052
1085.585220	0.086276
1085.747756	0.088659
1085.910274	0.089776
1086.072774	0.086736
1086.235256	0.087784
1086.397720	0.090458
1086.560165	0.089076
1086.722592	0.088171
1086.885001	0.092607
1087.047392	0.089850
1087.209764	0.087655
1087.372119	0.086602
1087.534455	0.087614
1087.696772	0.087531
1087.859072	0.086130
1088.021353	0.086755
1088.183616	0.084781
1088.345861	0.083056
1088.508088	0.084065
1088.670296	0.086922
1088.832486	0.086946
1088.994658	0.087481
1089.156812	0.083824
1089.318948	0.083221
1089.481065	0.082772
1089.643164	0.085218
1089.805245	0.085469
1089.967308	0.085237
1090.129352	0.086255
1090.291378	0.089195
1090.453386	0.086000
1090.615376	0.087737
1090.777347	0.086968
1090.939301	0.088934
1091.101236	0.090482
1091.263153	0.089277
1091.425051	0.088477
1091.586932	0.085646
1091.748794	0.085500
1091.910638	0.089788
1092.072463	0.090540
1092.234271	0.089178
1092.396060	0.089015
1092.557831	0.087536
1092.719584	0.090978
1092.881319	0.092609
1093.043035	0.093652
1093.204733	0.089729
1093.366413	0.086366
1093.528075	0.088054
1093.689718	0.089824
1093.851343	0.089557
1094.012950	0.090940
1094.174539	0.093007
1094.336110	0.093788
1094.497662	0.091558
1094.659196	0.092307
1094.820712	0.093861
1094.982210	0.092234
1095.143689	0.091347
1095.305151	0.092576
1095.466594	0.089779
1095.628018	0.080907
1095.789425	0.077907
1095.950813	0.079145
1096.112183	0.079702
1096.273535	0.078462
1096.434869	0.078076
1096.596184	0.078999
1096.757482	0.075072
1096.918761	0.078355
1097.080021	0.082093
1097.241264	0.080877
1097.402488	0.082396
1097.563694	0.083287
1097.724882	0.085655
1097.886052	0.086196
1098.047203	0.085683
1098.208336	0.087651
1098.369451	0.086262
1098.530548	0.087979
1098.691627	0.089069
1098.852687	0.091435
1099.013729	0.088218
1099.174753	0.084708
1099.335758	0.085595
1099.496746	0.084792
1099.657715	0.086041
1099.818666	0.083745
1099.979599	0.084518
1100.140513	0.090921
1100.301409	0.087160
1100.462287	0.088916
1100.623147	0.094731
1100.783989	0.091910
1100.944812	0.093421
1101.105617	0.093250
1101.266404	0.096888
1101.427173	0.094178
1101.587923	0.089212
1101.748656	0.088442
1101.909370	0.089312
1102.070066	0.087953
1102.230743	0.090113
1102.391403	0.090186
1102.552044	0.086116
1102.712667	0.082098
1102.873271	0.082057
1103.033858	0.083639
1103.194426	0.085422
1103.354976	0.085264
1103.515508	0.085554
1103.676021	0.084920
1103.836517	0.087090
1103.996994	0.089517
1104.157453	0.090827
1104.317893	0.093655
1104.478316	0.092395
1104.638720	0.093536
1104.799106	0.093351
1104.959474	0.093431
1105.119823	0.095083
1105.280155	0.093707
1105.440468	0.091962
1105.600763	0.094406
1105.761039	0.091037
1105.921298	0.090108
1106.081538	0.084085
1106.241760	0.086522
1106.401964	0.088164
1106.562149	0.088470
1106.722316	0.089166
1106.882465	0.091511
1107.042596	0.089059
1107.202709	0.088861
1107.362803	0.088789
1107.522879	0.093735
1107.682937	0.091305
1107.842977	0.092485
1108.002999	0.090888
1108.163002	0.091431
1108.322987	0.090808
1108.482954	0.087784
1108.642902	0.089794
1108.802833	0.090497
1108.962745	0.087769
1109.122639	0.087496
1109.282515	0.082953
1109.442372	0.083120
1109.602211	0.079712
1109.762032	0.077676
1109.921835	0.078312
1110.081620	0.076854
1110.241386	0.078450
1110.401134	0.081825
1110.560864	0.083308
1110.720576	0.081683
1110.880269	0.080923
1111.039945	0.080485
1111.199602	0.082275
1111.359240	0.085959
1111.518861	0.087171
1111.678463	0.087591
1111.838047	0.090093
1111.997613	0.084033
1112.157161	0.087471
1112.316690	0.090693
1112.476202	0.092207
1112.635695	0.089884
1112.795169	0.087904
1112.954626	0.087026
1113.114064	0.083015
1113.273484	0.081421
1113.432886	0.084849
1113.592270	0.079969
1113.751635	0.077874
1113.910983	0.081006
1114.070312	0.080147
1114.229622	0.079467
1114.388915	0.080567
1114.548189	0.080621
1114.707445	0.079804
1114.866683	0.080024
1115.025903	0.082647
1115.185104	0.081605
1115.344287	0.077424
1115.503452	0.082583
1115.662599	0.084527
1115.821727	0.083088
1115.980838	0.083035
1116.139930	0.080785
1116.299004	0.081715
1116.458059	0.081615
1116.617097	0.079789
1116.776116	0.081914
1116.935117	0.078811
1117.094099	0.080441
1117.253064	0.080000
1117.412010	0.080496
1117.570938	0.079280
1117.729848	0.074789
1117.888740	0.075017
1118.047613	0.076069
1118.206468	0.078256
1118.365305	0.075513
1118.524124	0.076401
1118.682924	0.077168
1118.841707	0.078914
1119.000471	0.078316
1119.159216	0.077946
1119.317944	0.074718
1119.476653	0.077028
1119.635344	0.071010
1119.794017	0.078476
1119.952672	0.076454
1120.111308	0.074083
1120.269927	0.071060
1120.428527	0.077151
1120.587108	0.084165
1120.745672	0.088452
1120.904217	0.088577
1121.062744	0.092144
1121.221253	0.087673
1121.379744	0.089162
1121.538216	0.095627
1121.696671	0.094548
1121.855107	0.091425
1122.013524	0.089356
1122.171924	0.089744
1122.330305	0.087992
1122.488668	0.089809
1122.647013	0.090288
1122.805340	0.090898
1122.963648	0.088259
1123.121938	0.090821
1123.280210	0.092828
1123.438464	0.090617
1123.596700	0.087422
1123.754917	0.089009
1123.913116	0.092152
1124.071297	0.092644
1124.229459	0.087177
1124.387604	0.086001
1124.545730	0.086080
1124.703838	0.083671
1124.861928	0.083347
1125.019999	0.088050
1125.178052	0.086022
1125.336088	0.074502
1125.494104	0.077038
1125.652103	0.080624
1125.810083	0.076743
1125.968045	0.077120
1126.125989	0.076729
1126.283915	0.079760
1126.441823	0.076549
1126.599712	0.075657
1126.757583	0.081473
1126.915436	0.083887
1127.073270	0.081277
1127.231087	0.079269
1127.388885	0.082652
1127.546665	0.079759
1127.704426	0.075160
1127.862170	0.074614
1128.019895	0.074836
1128.177602	0.073613
1128.335291	0.067184
1128.492961	0.071672
1128.650614	0.076873
1128.808248	0.068661
1128.965864	0.069993
1129.123461	0.072024
1129.281041	0.078568
1129.438602	0.075920
1129.596145	0.073078
1129.753670	0.077643
1129.911176	0.074891
1130.068665	0.077559
1130.226135	0.088809
1130.383587	0.093627
1130.541020	0.093956
1130.698436	0.089847
1130.855833	0.094982
1131.013212	0.094171
1131.170573	0.085096
1131.327915	0.081487
1131.485239	0.079272
1131.642545	0.078977
1131.799833	0.074136
1131.957103	0.074338
1132.114354	0.072054
1132.271588	0.070157
1132.428803	0.079619
1132.585999	0.084109
1132.743178	0.090453
1132.900338	0.087873
1133.057480	0.082464
1133.214604	0.081305
1133.371710	0.080470
1133.528797	0.080607
1133.685866	0.080414
1133.842917	0.078540
1133.999950	0.085718
1134.156964	0.086737
1134.313960	0.094852
1134.470938	0.090536
1134.627898	0.091322
1134.784840	0.092995
1134.941763	0.089098
1135.098668	0.092530
1135.255555	0.086914
1135.412424	0.080759
1135.569274	0.075146
1135.726107	0.071961
1135.882921	0.077232
1136.039716	0.076083
1136.196494	0.076710
1136.353253	0.079817
1136.509995	0.072434
1136.666717	0.071569
1136.823422	0.068251
1136.980109	0.066132
1137.136777	0.061027
1137.293427	0.059839
1137.450059	0.064048
1137.606672	0.065201
1137.763267	0.067564
1137.919844	0.064816
1138.076403	0.069895
1138.232944	0.074415
1138.389466	0.079193
1138.545971	0.081091
1138.702457	0.081472
1138.858924	0.078610
1139.015374	0.077640
1139.171805	0.077631
1139.328218	0.081805
1139.484613	0.078995
1139.640990	0.078210
1139.797348	0.075314
1139.953688	0.071587
1140.110010	0.068567
1140.266314	0.070727
1140.422600	0.072640
1140.578867	0.067868
1140.735116	0.074261
1140.891347	0.076721
1141.047559	0.081332
1141.203754	0.085655
1141.359930	0.094488
1141.516088	0.099723
1141.672228	0.095882
1141.828349	0.086699
1141.984452	0.091056
1142.140537	0.083815
1142.296604	0.078308
1142.452653	0.069649
1142.608683	0.065151
1142.764695	0.061271
1142.920689	0.056318
1143.076665	0.053654
1143.232622	0.060561
1143.388562	0.061630
1143.544483	0.060181
1143.700385	0.060619
1143.856270	0.063496
1144.012136	0.065377
1144.167985	0.069184
1144.323814	0.068751
1144.479626	0.078607
1144.635420	0.079211
1144.791195	0.078938
1144.946952	0.087473
1145.102691	0.092407
1145.258411	0.093793
1145.414113	0.097557
1145.569798	0.092379
1145.725463	0.092941
1145.881111	0.082903
1146.036741	0.079856
1146.192352	0.078935
1146.347945	0.074982
1146.503519	0.077754
1146.659076	0.071398
1146.814614	0.065557
1146.970134	0.067618
1147.125636	0.066962
1147.281120	0.074889
1147.436585	0.071147
1147.592032	0.070728
1147.747461	0.069804
1147.902872	0.064512
1148.058265	0.070949
1148.213639	0.074358
1148.368995	0.068187
1148.524333	0.074190
1148.679653	0.068229
1148.834954	0.072405
1148.990237	0.065314
1149.145502	0.065679
1149.300749	0.066853
1149.455977	0.068027
1149.611188	0.059522
1149.766380	0.070434
1149.921553	0.067759
1150.076709	0.066595
1150.231846	0.071497
1150.386966	0.074424
1150.542066	0.074795
1150.697149	0.071836
1150.852214	0.065382
1151.007260	0.072516
1151.162288	0.067354
1151.317298	0.070368
1151.472289	0.073116
1151.627263	0.067144
1151.782218	0.067361
1151.937155	0.074394
1152.092073	0.072426
1152.246974	0.078275
1152.401856	0.071887
1152.556720	0.072268
1152.711566	0.062514
1152.866393	0.066543
1153.021203	0.072638
1153.175994	0.075030
1153.330767	0.066362
1153.485521	0.065650
1153.640258	0.055406
1153.794976	0.059279
1153.949676	0.059773
1154.104358	0.067635
1154.259021	0.063890
1154.413667	0.057994
1154.568294	0.059625
1154.722903	0.063169
1154.877493	0.066745
1155.032066	0.076272
1155.186620	0.088630
1155.341156	0.080539
1155.495674	0.071354
1155.650173	0.065938
1155.804654	0.063882
1155.959118	0.064730
1156.113562	0.067061
1156.267989	0.066797
1156.422397	0.064381
1156.576788	0.052111
1156.731160	0.050755
1156.885513	0.056142
1157.039849	0.055574
1157.194166	0.053386
1157.348465	0.052272
1157.502746	0.047426
1157.657009	0.043354
1157.811253	0.042969
1157.965479	0.038909
1158.119687	0.041201
1158.273877	0.044237
1158.428048	0.051477
1158.582201	0.057153
1158.736337	0.053871
1158.890453	0.056882
1159.044552	0.066542
1159.198632	0.059535
1159.352694	0.072803
1159.506738	0.072237
1159.660764	0.064696
1159.814771	0.055995
1159.968761	0.050389
1160.122732	0.046381
1160.276685	0.036932
1160.430619	0.038138
1160.584535	0.049960
1160.738434	0.048243
1160.892313	0.053608
1161.046175	0.062454
1161.200019	0.076146
1161.353844	0.073848
1161.507651	0.074553
1161.661440	0.085770
1161.815210	0.074326
1161.968962	0.064084
1162.122697	0.061685
1162.276412	0.057209
1162.430110	0.057225
1162.583789	0.052565
1162.737451	0.056438
1162.891094	0.047491
1163.044718	0.041417
1163.198325	0.049014
1163.351913	0.058381
1163.505483	0.053800
1163.659035	0.059302
1163.812569	0.056926
1163.966084	0.063550
1164.119581	0.061617
1164.273060	0.077718
1164.426521	0.077959
1164.579964	0.072273
1164.733388	0.070211
1164.886794	0.074297
1165.040182	0.076222
1165.193551	0.067984
1165.346903	0.061425
1165.500236	0.070051
1165.653551	0.067083
1165.806848	0.070716
1165.960126	0.077159
1166.113386	0.072133
1166.266628	0.069869
1166.419852	0.068854
1166.573058	0.065943
1166.726245	0.068390
1166.879414	0.060000
1167.032565	0.068784
1167.185698	0.066916
1167.338812	0.063497
1167.491909	0.072435
1167.644987	0.068587
1167.798046	0.067448
1167.951088	0.080951
1168.104111	0.080369
1168.257117	0.084018
1168.410103	0.073631
1168.563072	0.060647
1168.716023	0.056391
1168.868955	0.042608
1169.021869	0.035793
1169.174765	0.035482
1169.327642	0.027339
1169.480501	0.018100
1169.633343	0.009610
1169.786165	0.003457
1169.938970	0.015933
1170.091757	0.011701
1170.244525	0.025752
1170.397275	0.036395
1170.550007	0.031706
1170.702720	0.030760
1170.855415	0.027041
1171.008092	0.021245
1171.160751	0.015285
1171.313392	0.000172
1171.466014	-0.021517
1171.618619	-0.059318
1171.771205	-0.059318
1171.923772	-0.059318
