sample name	sample
index	550
start time	 03-15-2021  11:32:30 AM


Wavelength (nm)	Absorbance
494.344910	0.013394
494.563924	0.013394
494.782919	0.013394
495.001897	-0.168873
495.220856	-0.161360
495.439797	-0.243531
495.658719	-0.247542
495.877624	-0.274019
496.096510	-0.251540
496.315378	-0.208290
496.534227	-0.235942
496.753059	-0.211905
496.971872	-0.221107
497.190667	0.055127
497.409444	0.089341
497.628203	0.093520
497.846943	0.100585
498.065665	0.098997
498.284369	0.099707
498.503055	0.100549
498.721723	0.100573
498.940372	0.102459
499.159003	0.103128
499.377616	0.102816
499.596210	0.103476
499.814787	0.102114
500.033345	0.102630
500.251885	0.102108
500.470406	0.100826
500.688910	0.101020
500.907395	0.100007
501.125862	0.099059
501.344311	0.098594
501.562742	0.098593
501.781154	0.098576
501.999548	0.098725
502.217924	0.099605
502.436282	0.101213
502.654621	0.101961
502.872942	0.101632
503.091245	0.102178
503.309530	0.102818
503.527797	0.103056
503.746045	0.102988
503.964275	0.103532
504.182487	0.103935
504.400681	0.104449
504.618856	0.103868
504.837013	0.104091
505.055152	0.104232
505.273273	0.103664
505.491376	0.103674
505.709460	0.102514
505.927526	0.102107
506.145574	0.101357
506.363604	0.099958
506.581615	0.099266
506.799608	0.098776
507.017583	0.099722
507.235540	0.101202
507.453478	0.100861
507.671399	0.102634
507.889301	0.103761
508.107185	0.103728
508.325050	0.104530
508.542898	0.105520
508.760727	0.106211
508.978538	0.104713
509.196330	0.104389
509.414105	0.105526
509.631861	0.105730
509.849599	0.105957
510.067319	0.106621
510.285021	0.106837
510.502704	0.106869
510.720369	0.107297
510.938016	0.108268
511.155645	0.107773
511.373255	0.107089
511.590848	0.107482
511.808422	0.107922
512.025977	0.108352
512.243515	0.108802
512.461034	0.108374
512.678536	0.109283
512.896018	0.109503
513.113483	0.109404
513.330930	0.109479
513.548358	0.109587
513.765768	0.108713
513.983160	0.108873
514.200533	0.109349
514.417889	0.110934
514.635226	0.110540
514.852545	0.111256
515.069845	0.112074
515.287128	0.112147
515.504392	0.112435
515.721638	0.112640
515.938866	0.112825
516.156075	0.113493
516.373267	0.112843
516.590440	0.113217
516.807594	0.114367
517.024731	0.114567
517.241850	0.114554
517.458950	0.114550
517.676032	0.115076
517.893095	0.114557
518.110141	0.113718
518.327168	0.114530
518.544177	0.114543
518.761168	0.113572
518.978141	0.113773
519.195095	0.114201
519.412031	0.113631
519.628949	0.114207
519.845849	0.114766
520.062731	0.114759
520.279594	0.114650
520.496439	0.114719
520.713266	0.114850
520.930074	0.115212
521.146865	0.115754
521.363637	0.116090
521.580391	0.115655
521.797127	0.116042
522.013844	0.116807
522.230543	0.117050
522.447224	0.117407
522.663887	0.117959
522.880532	0.118904
523.097158	0.119634
523.313766	0.120479
523.530356	0.120725
523.746928	0.120389
523.963481	0.120764
524.180017	0.120984
524.396534	0.121334
524.613032	0.121201
524.829513	0.120541
525.045975	0.120476
525.262420	0.120861
525.478845	0.121490
525.695253	0.121993
525.911643	0.122002
526.128014	0.121467
526.344367	0.121570
526.560702	0.122002
526.777018	0.122888
526.993316	0.123174
527.209597	0.122534
527.425858	0.122513
527.642102	0.122471
527.858328	0.122943
528.074535	0.123927
528.290724	0.124425
528.506894	0.124250
528.723047	0.124171
528.939181	0.124200
529.155297	0.124859
529.371395	0.124789
529.587475	0.125402
529.803536	0.125865
530.019579	0.126560
530.235604	0.126660
530.451611	0.127682
530.667600	0.128441
530.883570	0.128840
531.099522	0.129294
531.315456	0.129831
531.531372	0.129927
531.747269	0.129824
531.963148	0.129969
532.179009	0.130329
532.394852	0.129982
532.610676	0.130352
532.826482	0.130648
533.042271	0.130811
533.258040	0.131201
533.473792	0.131858
533.689525	0.132569
533.905240	0.132699
534.120937	0.132962
534.336616	0.133816
534.552277	0.133600
534.767919	0.134273
534.983543	0.134710
535.199149	0.135382
535.414736	0.135288
535.630306	0.135870
535.845857	0.136143
536.061390	0.135808
536.276904	0.135576
536.492401	0.135369
536.707879	0.135892
536.923339	0.136229
537.138781	0.136195
537.354204	0.136960
537.569610	0.136885
537.784997	0.137104
538.000366	0.138189
538.215716	0.138954
538.431049	0.139967
538.646363	0.140064
538.861659	0.140667
539.076937	0.140656
539.292196	0.140634
539.507438	0.140775
539.722661	0.141108
539.937866	0.141532
540.153052	0.141262
540.368221	0.141462
540.583371	0.141518
540.798503	0.141774
541.013617	0.142742
541.228712	0.143485
541.443789	0.143659
541.658848	0.144104
541.873889	0.144297
542.088912	0.144596
542.303916	0.144578
542.518902	0.144604
542.733870	0.144481
542.948820	0.144667
543.163752	0.144638
543.378665	0.144875
543.593560	0.145114
543.808437	0.144883
544.023295	0.145537
544.238136	0.146048
544.452958	0.146255
544.667762	0.146886
544.882548	0.146748
545.097315	0.146491
545.312064	0.147399
545.526795	0.147907
545.741508	0.147966
545.956203	0.148142
546.170879	0.148023
546.385537	0.148090
546.600177	0.148374
546.814799	0.148277
547.029402	0.149276
547.243988	0.148754
547.458555	0.148828
547.673103	0.149272
547.887634	0.149482
548.102146	0.150046
548.316640	0.150628
548.531116	0.150676
548.745574	0.151632
548.960013	0.151485
549.174435	0.151921
549.388838	0.151607
549.603222	0.152012
549.817589	0.152610
550.031937	0.152604
550.246267	0.152871
550.460579	0.152648
550.674873	0.152618
550.889148	0.153087
551.103405	0.153792
551.317644	0.154493
551.531865	0.154419
551.746068	0.154175
551.960252	0.154763
552.174418	0.154671
552.388566	0.154867
552.602696	0.154716
552.816807	0.154841
553.030900	0.154761
553.244975	0.155117
553.459032	0.155495
553.673070	0.155698
553.887091	0.155762
554.101093	0.156367
554.315077	0.156728
554.529042	0.157306
554.742990	0.157015
554.956919	0.156887
555.170830	0.156504
555.384722	0.157027
555.598597	0.157507
555.812453	0.157528
556.026291	0.157453
556.240111	0.157591
556.453913	0.157869
556.667696	0.158168
556.881461	0.158279
557.095208	0.159011
557.308937	0.158992
557.522647	0.158763
557.736339	0.158526
557.950013	0.158517
558.163669	0.158721
558.377307	0.158388
558.590926	0.158528
558.804527	0.158856
559.018110	0.158930
559.231675	0.159284
559.445221	0.159565
559.658749	0.160350
559.872259	0.160277
560.085751	0.160349
560.299225	0.160498
560.512680	0.160943
560.726117	0.160913
560.939536	0.160878
561.152937	0.160659
561.366319	0.160625
561.579683	0.160562
561.793029	0.161165
562.006357	0.161451
562.219667	0.161896
562.432958	0.161765
562.646231	0.161819
562.859486	0.161555
563.072723	0.161734
563.285941	0.162114
563.499141	0.161890
563.712323	0.162093
563.925487	0.162316
564.138632	0.162629
564.351760	0.162725
564.564869	0.163148
564.777960	0.164050
564.991032	0.164127
565.204087	0.164036
565.417123	0.164694
565.630141	0.164631
565.843140	0.164745
566.056122	0.164335
566.269085	0.164874
566.482030	0.165256
566.694957	0.165151
566.907866	0.165499
567.120756	0.165816
567.333628	0.165534
567.546482	0.165903
567.759318	0.165897
567.972135	0.166163
568.184935	0.166062
568.397716	0.165803
568.610478	0.165750
568.823223	0.165708
569.035949	0.165637
569.248657	0.165658
569.461347	0.165373
569.674019	0.165679
569.886672	0.165679
570.099308	0.165852
570.311925	0.165973
570.524523	0.166187
570.737104	0.165914
570.949666	0.166189
571.162210	0.166609
571.374736	0.167002
571.587244	0.167067
571.799733	0.167262
572.012205	0.167566
572.224658	0.167511
572.437092	0.167411
572.649509	0.168150
572.861907	0.168222
573.074287	0.168410
573.286649	0.168574
573.498993	0.168668
573.711318	0.168714
573.923625	0.168557
574.135914	0.168634
574.348185	0.169020
574.560438	0.168561
574.772672	0.168718
574.984888	0.168756
575.197086	0.168613
575.409266	0.168751
575.621427	0.169148
575.833570	0.169579
576.045695	0.169999
576.257802	0.169840
576.469890	0.170424
576.681961	0.170874
576.894013	0.171230
577.106046	0.171542
577.318062	0.171749
577.530059	0.172129
577.742039	0.172363
577.954000	0.172445
578.165942	0.172940
578.377867	0.173136
578.589773	0.172719
578.801661	0.172560
579.013531	0.172592
579.225382	0.172934
579.437216	0.172675
579.649031	0.172569
579.860828	0.172401
580.072606	0.172184
580.284367	0.172016
580.496109	0.172480
580.707833	0.172944
580.919539	0.173370
581.131227	0.173018
581.342896	0.173344
581.554547	0.173818
581.766180	0.174401
581.977795	0.174823
582.189391	0.175148
582.400969	0.175142
582.612529	0.175254
582.824071	0.175167
583.035595	0.175581
583.247100	0.176176
583.458587	0.176005
583.670056	0.176022
583.881506	0.176107
584.092939	0.176265
584.304353	0.176546
584.515749	0.176427
584.727127	0.176624
584.938486	0.176595
585.149828	0.176155
585.361151	0.176178
585.572456	0.176689
585.783742	0.176778
585.995011	0.177157
586.206261	0.177292
586.417493	0.177438
586.628706	0.177390
586.839902	0.177528
587.051079	0.177806
587.262238	0.177813
587.473379	0.177503
587.684502	0.177714
587.895606	0.177656
588.106692	0.178088
588.317760	0.178302
588.528810	0.178736
588.739841	0.178763
588.950855	0.179054
589.161850	0.179321
589.372827	0.179294
589.583785	0.179567
589.794726	0.179363
590.005648	0.179244
590.216552	0.179445
590.427437	0.179474
590.638305	0.179781
590.849154	0.179705
591.059985	0.180324
591.270798	0.180662
591.481592	0.180800
591.692369	0.181021
591.903127	0.180890
592.113867	0.180827
592.324588	0.181002
592.535292	0.181076
592.745977	0.181098
592.956644	0.180644
593.167293	0.180778
593.377923	0.180960
593.588536	0.180907
593.799130	0.181411
594.009706	0.182103
594.220263	0.181894
594.430803	0.181997
594.641324	0.182642
594.851827	0.183301
595.062312	0.183214
595.272778	0.183213
595.483227	0.183960
595.693657	0.183877
595.904069	0.183535
596.114462	0.183927
596.324838	0.184224
596.535195	0.184139
596.745534	0.184287
596.955855	0.184529
597.166157	0.184400
597.376441	0.184297
597.586707	0.184327
597.796955	0.184464
598.007185	0.184910
598.217396	0.185246
598.427589	0.185246
598.637764	0.184921
598.847921	0.185369
599.058060	0.185904
599.268180	0.186079
599.478282	0.186288
599.688366	0.186206
599.898431	0.186147
600.108479	0.186414
600.318508	0.186659
600.528519	0.187029
600.738511	0.187142
600.948486	0.187113
601.158442	0.186868
601.368380	0.187018
601.578300	0.187459
601.788202	0.187738
601.998085	0.187735
602.207950	0.187768
602.417797	0.187984
602.627626	0.187879
602.837436	0.188236
603.047228	0.188842
603.257002	0.188879
603.466758	0.189097
603.676496	0.189376
603.886215	0.189156
604.095916	0.189672
604.305599	0.189568
604.515264	0.189788
604.724910	0.189669
604.934538	0.189844
605.144148	0.189850
605.353740	0.189922
605.563314	0.189821
605.772869	0.190093
605.982406	0.189990
606.191925	0.189579
606.401425	0.189721
606.610908	0.189865
606.820372	0.189779
607.029818	0.190077
607.239246	0.190250
607.448655	0.190138
607.658047	0.190131
607.867420	0.190184
608.076775	0.190748
608.286111	0.191061
608.495430	0.191141
608.704730	0.191586
608.914012	0.191810
609.123275	0.191886
609.332521	0.192465
609.541748	0.192507
609.750957	0.192803
609.960148	0.193292
610.169321	0.193244
610.378475	0.193502
610.587611	0.193397
610.796729	0.193411
611.005829	0.193500
611.214910	0.193371
611.423974	0.193670
611.633019	0.193541
611.842045	0.193664
612.051054	0.193765
612.260044	0.193808
612.469017	0.193828
612.677970	0.193962
612.886906	0.194176
613.095824	0.194226
613.304723	0.194466
613.513604	0.194734
613.722467	0.194701
613.931311	0.194562
614.140138	0.194685
614.348946	0.194930
614.557736	0.195140
614.766507	0.195260
614.975261	0.195488
615.183996	0.195671
615.392713	0.195813
615.601412	0.196126
615.810092	0.196252
616.018754	0.196499
616.227399	0.196852
616.436024	0.197129
616.644632	0.196929
616.853222	0.196868
617.061793	0.196712
617.270346	0.196800
617.478880	0.196462
617.687397	0.196898
617.895895	0.196839
618.104375	0.196613
618.312837	0.196196
618.521281	0.196270
618.729706	0.196391
618.938113	0.196541
619.146502	0.196275
619.354873	0.196493
619.563226	0.196658
619.771560	0.196699
619.979876	0.196767
620.188174	0.197219
620.396453	0.197423
620.604715	0.197741
620.812958	0.198011
621.021183	0.198443
621.229390	0.198545
621.437578	0.198789
621.645748	0.198697
621.853900	0.198963
622.062034	0.198823
622.270150	0.198999
622.478247	0.198986
622.686326	0.199093
622.894387	0.199172
623.102430	0.199287
623.310454	0.199132
623.518461	0.199667
623.726449	0.199770
623.934418	0.200272
624.142370	0.200611
624.350303	0.200570
624.558218	0.200703
624.766115	0.200870
624.973994	0.201258
625.181855	0.201248
625.389697	0.201604
625.597521	0.201762
625.805327	0.201938
626.013114	0.201893
626.220883	0.202145
626.428634	0.202391
626.636367	0.202480
626.844082	0.202518
627.051778	0.203136
627.259457	0.203080
627.467117	0.203214
627.674758	0.203389
627.882382	0.203428
628.089987	0.203444
628.297574	0.203406
628.505143	0.203667
628.712694	0.203671
628.920226	0.203726
629.127740	0.203780
629.335236	0.203888
629.542714	0.203907
629.750174	0.204091
629.957615	0.204309
630.165038	0.204306
630.372443	0.204140
630.579829	0.204392
630.787198	0.204626
630.994548	0.204803
631.201880	0.205028
631.409194	0.205139
631.616489	0.205455
631.823766	0.205569
632.031025	0.205847
632.238266	0.206352
632.445489	0.206709
632.652693	0.206650
632.859879	0.206990
633.067047	0.207051
633.274197	0.207027
633.481329	0.207197
633.688442	0.207297
633.895537	0.207726
634.102614	0.207715
634.309672	0.207502
634.516713	0.207490
634.723735	0.207485
634.930739	0.207532
635.137724	0.207728
635.344692	0.207920
635.551641	0.208118
635.758572	0.207988
635.965485	0.208156
636.172379	0.208461
636.379256	0.208749
636.586114	0.208555
636.792954	0.208861
636.999775	0.209210
637.206579	0.209452
637.413364	0.209766
637.620131	0.209804
637.826880	0.209966
638.033610	0.210159
638.240323	0.210332
638.447017	0.210614
638.653692	0.210825
638.860350	0.210929
639.066990	0.211059
639.273611	0.211198
639.480214	0.211547
639.686798	0.211604
639.893365	0.211565
640.099913	0.211686
640.306443	0.211946
640.512955	0.212133
640.719449	0.212240
640.925924	0.212402
641.132381	0.212688
641.338820	0.212686
641.545241	0.212946
641.751644	0.213413
641.958028	0.213445
642.164394	0.213614
642.370742	0.213519
642.577071	0.213586
642.783383	0.213827
642.989676	0.213957
643.195951	0.214011
643.402207	0.214155
643.608446	0.214382
643.814666	0.214475
644.020868	0.214742
644.227052	0.215172
644.433218	0.215453
644.639365	0.215516
644.845494	0.215535
645.051605	0.215687
645.257698	0.215922
645.463772	0.215861
645.669828	0.216292
645.875866	0.216310
646.081886	0.216228
646.287888	0.216487
646.493871	0.216570
646.699836	0.216759
646.905783	0.217010
647.111712	0.217126
647.317622	0.217315
647.523514	0.217351
647.729388	0.217533
647.935244	0.217805
648.141082	0.218058
648.346901	0.218273
648.552702	0.218145
648.758485	0.218587
648.964250	0.218612
649.169996	0.218804
649.375724	0.219298
649.581434	0.219520
649.787126	0.219531
649.992800	0.219708
650.198455	0.219552
650.404092	0.219966
650.609711	0.219678
650.815311	0.219904
651.020894	0.220132
651.226458	0.220083
651.432004	0.220080
651.637532	0.220300
651.843041	0.220227
652.048532	0.220840
652.254006	0.221016
652.459460	0.221688
652.664897	0.222005
652.870315	0.222174
653.075716	0.222258
653.281097	0.222713
653.486461	0.222728
653.691807	0.223083
653.897134	0.222880
654.102443	0.223354
654.307734	0.223415
654.513006	0.223587
654.718261	0.223587
654.923497	0.223819
655.128715	0.223940
655.333915	0.224334
655.539096	0.224183
655.744259	0.224504
655.949404	0.224504
656.154531	0.224597
656.359640	0.224441
656.564730	0.224900
656.769802	0.225004
656.974856	0.225094
657.179892	0.225066
657.384909	0.225487
657.589908	0.225583
657.794889	0.225523
657.999852	0.225467
658.204797	0.225772
658.409723	0.225696
658.614631	0.225714
658.819521	0.225798
659.024393	0.226262
659.229246	0.226466
659.434081	0.226831
659.638898	0.227080
659.843697	0.227305
660.048478	0.227527
660.253240	0.227487
660.457984	0.227807
660.662710	0.227874
660.867417	0.228016
661.072107	0.228078
661.276778	0.228102
661.481431	0.228333
661.686066	0.228563
661.890682	0.228850
662.095281	0.229302
662.299861	0.229508
662.504422	0.229833
662.708966	0.229980
662.913491	0.230150
663.117999	0.230440
663.322488	0.230555
663.526958	0.230814
663.731411	0.231127
663.935845	0.231083
664.140261	0.231325
664.344659	0.231578
664.549038	0.231723
664.753400	0.232067
664.957743	0.232231
665.162068	0.232597
665.366375	0.233014
665.570663	0.233001
665.774933	0.233565
665.979185	0.233797
666.183419	0.234053
666.387635	0.234211
666.591832	0.234385
666.796011	0.234573
667.000172	0.234612
667.204315	0.234811
667.408439	0.234965
667.612545	0.235276
667.816634	0.235452
668.020703	0.235504
668.224755	0.235718
668.428788	0.235605
668.632803	0.235792
668.836800	0.236232
669.040779	0.236243
669.244739	0.236397
669.448681	0.236500
669.652605	0.236677
669.856511	0.236786
670.060399	0.237150
670.264268	0.237537
670.468119	0.237654
670.671952	0.237700
670.875767	0.237828
671.079563	0.238064
671.283341	0.238051
671.487101	0.238321
671.690843	0.238867
671.894567	0.239046
672.098272	0.239059
672.301959	0.239114
672.505628	0.239358
672.709278	0.239546
672.912911	0.239722
673.116525	0.240039
673.320121	0.240084
673.523699	0.240027
673.727258	0.240103
673.930799	0.240506
674.134322	0.240849
674.337827	0.240951
674.541314	0.241188
674.744782	0.241617
674.948232	0.241568
675.151664	0.241827
675.355078	0.242011
675.558474	0.242273
675.761851	0.242355
675.965210	0.242472
676.168551	0.242553
676.371873	0.242672
676.575178	0.242519
676.778464	0.242728
676.981732	0.242616
677.184981	0.243124
677.388213	0.243058
677.591426	0.243176
677.794621	0.243510
677.997798	0.243769
678.200956	0.243925
678.404097	0.244441
678.607219	0.244863
678.810323	0.245330
679.013408	0.245217
679.216476	0.245548
679.419525	0.245591
679.622556	0.245553
679.825569	0.245770
680.028563	0.246068
680.231540	0.245766
680.434498	0.245746
680.637438	0.245828
680.840359	0.245805
681.043263	0.245917
681.246148	0.246386
681.449015	0.246516
681.651864	0.246553
681.854694	0.246589
682.057506	0.246940
682.260301	0.247113
682.463076	0.247191
682.665834	0.247294
682.868573	0.247607
683.071295	0.247797
683.273998	0.248101
683.476682	0.248427
683.679349	0.248635
683.881997	0.248981
684.084627	0.249411
684.287239	0.249859
684.489833	0.250506
684.692408	0.250679
684.894965	0.250780
685.097504	0.251034
685.300025	0.251229
685.502527	0.251619
685.705012	0.251712
685.907478	0.251544
686.109925	0.251727
686.312355	0.251802
686.514766	0.251856
686.717159	0.252352
686.919534	0.252460
687.121891	0.252593
687.324230	0.252801
687.526550	0.253216
687.728852	0.253532
687.931136	0.253491
688.133401	0.253530
688.335649	0.253732
688.537878	0.253325
688.740089	0.253619
688.942281	0.253673
689.144456	0.253813
689.346612	0.253881
689.548750	0.254145
689.750870	0.254454
689.952971	0.254599
690.155055	0.254806
690.357120	0.255174
690.559167	0.255201
690.761195	0.255540
690.963206	0.255478
691.165198	0.255462
691.367172	0.255505
691.569128	0.255521
691.771065	0.255565
691.972984	0.255458
692.174885	0.255687
692.376768	0.255691
692.578633	0.255624
692.780479	0.255925
692.982308	0.255934
693.184118	0.256009
693.385909	0.256195
693.587683	0.256397
693.789438	0.256585
693.991175	0.256526
694.192894	0.256938
694.394595	0.257199
694.596277	0.257160
694.797941	0.257416
694.999587	0.257768
695.201215	0.257896
695.402824	0.258042
695.604416	0.258149
695.805989	0.258585
696.007543	0.258676
696.209080	0.258993
696.410598	0.259263
696.612099	0.259526
696.813580	0.259534
697.015044	0.259670
697.216490	0.259951
697.417917	0.260433
697.619326	0.260437
697.820717	0.260613
698.022089	0.260499
698.223444	0.260562
698.424780	0.260635
698.626098	0.260655
698.827397	0.260717
699.028679	0.260791
699.229942	0.260676
699.431187	0.260669
699.632414	0.260826
699.833622	0.260881
700.034813	0.260836
700.235985	0.260911
700.437139	0.260908
700.638274	0.260760
700.839392	0.260827
701.040491	0.260723
701.241572	0.261107
701.442635	0.260933
701.643679	0.261188
701.844706	0.261201
702.045714	0.260977
702.246704	0.261285
702.447675	0.261573
702.648629	0.261378
702.849564	0.261544
703.050481	0.261423
703.251380	0.261658
703.452260	0.261547
703.653122	0.261828
703.853966	0.262165
704.054792	0.262088
704.255600	0.262146
704.456389	0.262198
704.657160	0.262310
704.857913	0.262218
705.058648	0.261979
705.259365	0.261876
705.460063	0.261603
705.660743	0.261678
705.861405	0.261633
706.062048	0.261744
706.262674	0.261951
706.463281	0.262015
706.663870	0.261897
706.864441	0.262085
707.064993	0.262179
707.265527	0.262328
707.466043	0.262125
707.666541	0.262143
707.867021	0.262176
708.067482	0.262045
708.267925	0.261913
708.468350	0.262125
708.668757	0.262185
708.869145	0.262283
709.069516	0.262226
709.269868	0.262389
709.470201	0.262622
709.670517	0.262610
709.870814	0.262814
710.071093	0.262852
710.271354	0.262932
710.471597	0.262901
710.671821	0.262742
710.872028	0.262799
711.072216	0.262980
711.272385	0.262924
711.472537	0.262638
711.672670	0.262593
711.872785	0.262579
712.072882	0.262433
712.272961	0.262245
712.473021	0.262366
712.673063	0.262486
712.873087	0.262154
713.073093	0.261908
713.273081	0.262016
713.473050	0.262062
713.673001	0.262112
713.872934	0.262179
714.072849	0.262391
714.272745	0.262483
714.472623	0.262272
714.672483	0.262381
714.872325	0.262392
715.072148	0.262293
715.271954	0.262118
715.471741	0.262170
715.671509	0.261931
715.871260	0.261637
716.070992	0.261235
716.270707	0.261119
716.470403	0.260857
716.670080	0.260831
716.869740	0.260862
717.069381	0.260531
717.269004	0.260136
717.468609	0.260150
717.668195	0.260286
717.867764	0.260479
718.067314	0.260499
718.266846	0.260666
718.466360	0.260398
718.665855	0.260404
718.865332	0.260439
719.064791	0.260696
719.264232	0.260538
719.463655	0.260111
719.663059	0.260197
719.862445	0.260196
720.061813	0.260010
720.261163	0.260127
720.460494	0.260063
720.659807	0.259991
720.859102	0.260041
721.058379	0.259881
721.257638	0.260080
721.456878	0.259807
721.656100	0.259749
721.855304	0.259491
722.054490	0.259315
722.253657	0.259384
722.452806	0.259292
722.651937	0.259136
722.851050	0.259272
723.050145	0.259239
723.249221	0.259132
723.448279	0.258753
723.647319	0.258791
723.846340	0.258967
724.045344	0.258611
724.244329	0.258797
724.443296	0.258393
724.642245	0.258107
724.841175	0.257736
725.040088	0.257426
725.238982	0.257542
725.437857	0.257318
725.636715	0.256972
725.835554	0.256598
726.034376	0.256278
726.233179	0.256318
726.431963	0.256295
726.630730	0.256204
726.829478	0.256165
727.028208	0.256088
727.226920	0.255900
727.425614	0.255443
727.624289	0.255617
727.822946	0.255523
728.021585	0.255242
728.220206	0.255021
728.418808	0.254911
728.617392	0.254818
728.815958	0.254696
729.014506	0.254819
729.213036	0.254818
729.411547	0.254624
729.610040	0.254192
729.808515	0.254110
730.006972	0.254039
730.205410	0.254068
730.403831	0.254097
730.602233	0.253682
730.800616	0.253207
730.998982	0.253065
731.197329	0.252850
731.395658	0.252848
731.593969	0.252703
731.792262	0.252405
731.990536	0.252090
732.188793	0.251521
732.387031	0.251270
732.585250	0.251241
732.783452	0.251078
732.981635	0.250846
733.179800	0.250931
733.377947	0.250656
733.576076	0.250612
733.774186	0.250356
733.972278	0.250336
734.170352	0.250472
734.368408	0.250542
734.566446	0.250570
734.764465	0.250447
734.962466	0.250190
735.160449	0.249981
735.358413	0.249871
735.556360	0.249832
735.754288	0.249667
735.952198	0.249345
736.150090	0.249114
736.347963	0.249116
736.545818	0.249049
736.743655	0.248726
736.941474	0.248870
737.139275	0.248580
737.337057	0.248418
737.534821	0.248267
737.732567	0.248019
737.930295	0.247835
738.128005	0.247438
738.325696	0.247086
738.523369	0.247056
738.721024	0.246706
738.918660	0.246710
739.116279	0.246517
739.313879	0.246267
739.511461	0.246307
739.709024	0.246184
739.906570	0.245991
740.104097	0.245652
740.301606	0.245571
740.499097	0.245297
740.696569	0.245117
740.894024	0.244868
741.091460	0.244845
741.288878	0.244580
741.486277	0.244502
741.683659	0.244503
741.881022	0.244498
742.078367	0.244015
742.275694	0.244013
742.473002	0.243596
742.670293	0.243544
742.867565	0.243242
743.064819	0.242961
743.262054	0.242502
743.459272	0.242256
743.656471	0.242006
743.853652	0.242028
744.050815	0.241658
744.247959	0.241538
744.445085	0.241312
744.642194	0.241319
744.839283	0.241236
745.036355	0.241137
745.233408	0.240646
745.430444	0.240405
745.627461	0.240090
745.824459	0.239833
746.021440	0.239667
746.218402	0.239367
746.415346	0.239074
746.612272	0.238798
746.809180	0.238292
747.006069	0.238153
747.202940	0.238123
747.399793	0.237940
747.596628	0.237839
747.793444	0.237554
747.990243	0.237650
748.187023	0.237343
748.383784	0.237266
748.580528	0.237544
748.777253	0.237678
748.973960	0.237545
749.170649	0.237427
749.367320	0.237387
749.563973	0.237346
749.760607	0.236736
749.957223	0.236671
750.153821	0.236370
750.350400	0.236015
750.546962	0.235731
750.743505	0.235535
750.940030	0.235252
751.136536	0.235039
751.333025	0.234944
751.529495	0.235148
751.725947	0.235143
751.922381	0.235215
752.118796	0.234923
752.315194	0.234645
752.511573	0.234563
752.707934	0.234687
752.904276	0.234328
753.100601	0.234051
753.296907	0.233852
753.493195	0.233829
753.689465	0.233626
753.885716	0.233654
754.081949	0.233806
754.278164	0.233744
754.474361	0.233346
754.670540	0.233483
754.866700	0.233585
755.062843	0.233412
755.258967	0.233030
755.455072	0.232959
755.651160	0.233025
755.847229	0.232772
756.043280	0.232869
756.239313	0.232854
756.435328	0.233150
756.631324	0.233191
756.827302	0.233190
757.023262	0.233160
757.219204	0.233181
757.415127	0.232853
757.611033	0.232774
757.806920	0.232523
758.002788	0.232467
758.198639	0.231974
758.394471	0.231669
758.590286	0.231508
758.786081	0.231606
758.981859	0.231310
759.177619	0.231174
759.373360	0.230828
759.569083	0.230613
759.764788	0.230419
759.960474	0.230305
760.156143	0.230273
760.351793	0.230084
760.547425	0.229722
760.743038	0.229566
760.938634	0.229337
761.134211	0.229091
761.329770	0.229060
761.525311	0.229142
761.720833	0.229003
761.916338	0.228668
762.111824	0.228590
762.307292	0.228343
762.502741	0.228337
762.698173	0.228234
762.893586	0.228343
763.088981	0.227918
763.284358	0.227827
763.479716	0.227804
763.675057	0.227631
763.870379	0.227834
764.065683	0.227855
764.260968	0.227743
764.456236	0.227860
764.651485	0.227844
764.846716	0.228111
765.041929	0.227880
765.237123	0.227689
765.432299	0.227847
765.627457	0.227415
765.822597	0.227019
766.017719	0.226836
766.212822	0.226511
766.407907	0.226204
766.602974	0.225746
766.798023	0.225691
766.993054	0.225447
767.188066	0.225272
767.383060	0.225004
767.578036	0.225294
767.772993	0.225185
767.967933	0.225261
768.162854	0.225555
768.357757	0.225826
768.552642	0.225791
768.747508	0.225819
768.942356	0.225655
769.137186	0.225694
769.331998	0.225566
769.526792	0.225394
769.721567	0.225269
769.916324	0.225116
770.111063	0.224872
770.305784	0.224880
770.500486	0.224802
770.695171	0.224959
770.889837	0.224820
771.084484	0.224711
771.279114	0.225005
771.473725	0.224934
771.668318	0.224753
771.862893	0.224797
772.057450	0.224121
772.251988	0.224143
772.446509	0.223844
772.641011	0.223907
772.835494	0.223924
773.029960	0.223953
773.224407	0.224004
773.418836	0.223958
773.613247	0.223876
773.807640	0.224399
774.002014	0.224253
774.196370	0.224358
774.390708	0.224285
774.585028	0.224096
774.779330	0.223766
774.973613	0.223918
775.167878	0.223741
775.362125	0.223667
775.556354	0.223622
775.750564	0.223674
775.944756	0.223777
776.138930	0.223970
776.333086	0.224239
776.527223	0.224297
776.721343	0.224155
776.915444	0.224276
777.109526	0.224238
777.303591	0.224243
777.497637	0.224297
777.691666	0.224350
777.885676	0.224336
778.079667	0.224019
778.273641	0.224062
778.467596	0.223987
778.661533	0.224092
778.855452	0.224201
779.049352	0.224039
779.243235	0.224032
779.437099	0.223914
779.630945	0.223735
779.824773	0.223857
780.018582	0.223935
780.212373	0.224077
780.406146	0.224028
780.599901	0.224039
780.793638	0.224493
780.987356	0.224524
781.181056	0.224521
781.374738	0.224445
781.568402	0.224443
781.762047	0.224334
781.955674	0.224342
782.149283	0.224261
782.342874	0.224405
782.536447	0.224079
782.730001	0.223925
782.923537	0.224182
783.117055	0.224465
783.310555	0.224676
783.504036	0.224688
783.697499	0.224732
783.890944	0.225038
784.084371	0.225040
784.277780	0.225096
784.471170	0.225534
784.664542	0.225268
784.857896	0.225282
785.051231	0.225499
785.244549	0.225762
785.437848	0.225769
785.631129	0.225754
785.824392	0.225729
786.017636	0.225897
786.210863	0.225817
786.404071	0.225882
786.597260	0.226081
786.790432	0.226066
786.983585	0.226151
787.176721	0.225786
787.369838	0.225842
787.562936	0.225922
787.756017	0.225883
787.949079	0.225808
788.142123	0.225942
788.335149	0.225813
788.528156	0.225574
788.721146	0.225519
788.914117	0.226031
789.107070	0.226228
789.300005	0.226009
789.492921	0.226260
789.685819	0.226441
789.878699	0.226564
790.071561	0.226646
790.264405	0.226888
790.457230	0.226917
790.650037	0.226976
790.842826	0.226850
791.035597	0.226981
791.228349	0.226833
791.421084	0.226884
791.613800	0.226965
791.806497	0.227100
791.999177	0.227489
792.191838	0.227539
792.384481	0.227529
792.577106	0.227725
792.769713	0.228214
792.962301	0.228531
793.154871	0.228893
793.347423	0.228978
793.539957	0.229043
793.732473	0.229158
793.924970	0.229098
794.117449	0.229428
794.309910	0.229481
794.502353	0.229474
794.694777	0.229646
794.887183	0.229571
795.079571	0.229962
795.271941	0.230117
795.464293	0.230239
795.656626	0.230615
795.848941	0.230547
796.041238	0.230731
796.233516	0.230946
796.425777	0.231167
796.618019	0.231233
796.810243	0.231214
797.002449	0.231512
797.194636	0.231767
797.386805	0.232173
797.578956	0.232770
797.771089	0.233040
797.963204	0.233253
798.155300	0.233088
798.347378	0.233517
798.539438	0.233712
798.731480	0.234139
798.923503	0.233963
799.115509	0.233938
799.307496	0.233903
799.499465	0.234070
799.691415	0.234410
799.883348	0.234909
800.075262	0.235240
800.267158	0.235424
800.459035	0.235293
800.650895	0.235564
800.842736	0.235864
801.034559	0.236186
801.226364	0.235992
801.418150	0.236168
801.609919	0.236316
801.801669	0.236198
801.993401	0.236480
802.185114	0.236499
802.376810	0.236821
802.568487	0.236622
802.760146	0.236658
802.951787	0.237158
803.143409	0.237181
803.335014	0.237287
803.526600	0.237258
803.718168	0.237336
803.909717	0.237769
804.101249	0.237640
804.292762	0.238176
804.484257	0.238339
804.675734	0.238629
804.867192	0.238914
805.058632	0.239065
805.250054	0.239524
805.441458	0.239884
805.632844	0.240133
805.824211	0.240473
806.015561	0.240682
806.206891	0.240888
806.398204	0.241211
806.589499	0.241173
806.780775	0.241404
806.972033	0.241856
807.163273	0.241942
807.354495	0.242052
807.545698	0.242224
807.736883	0.242629
807.928050	0.242892
808.119199	0.243057
808.310329	0.243391
808.501441	0.243606
808.692535	0.243625
808.883611	0.243857
809.074669	0.244208
809.265708	0.244665
809.456729	0.244577
809.647732	0.244924
809.838717	0.245232
810.029683	0.245704
810.220632	0.245925
810.411562	0.246201
810.602474	0.246591
810.793367	0.246977
810.984242	0.247072
811.175100	0.247428
811.365938	0.247730
811.556759	0.247860
811.747562	0.247889
811.938346	0.248050
812.129112	0.248245
812.319860	0.248338
812.510589	0.248550
812.701300	0.248944
812.891994	0.249595
813.082668	0.249880
813.273325	0.250495
813.463964	0.251021
813.654584	0.251729
813.845186	0.252366
814.035769	0.252698
814.226335	0.252843
814.416882	0.253161
814.607411	0.253217
814.797922	0.253580
814.988415	0.253362
815.178889	0.253443
815.369345	0.253670
815.559783	0.253714
815.750203	0.254055
815.940605	0.254297
816.130988	0.254657
816.321353	0.255165
816.511700	0.255472
816.702028	0.255989
816.892339	0.256559
817.082631	0.256917
817.272905	0.257070
817.463161	0.257051
817.653398	0.257603
817.843617	0.257708
818.033819	0.257413
818.224001	0.257234
818.414166	0.257519
818.604312	0.257475
818.794440	0.257494
818.984550	0.257970
819.174642	0.258707
819.364716	0.258615
819.554771	0.259065
819.744808	0.259935
819.934827	0.260217
820.124827	0.260676
820.314810	0.261180
820.504774	0.261578
820.694720	0.261989
820.884647	0.262116
821.074557	0.262684
821.264448	0.262764
821.454321	0.263014
821.644176	0.263714
821.834012	0.263933
822.023831	0.264495
822.213631	0.264857
822.403413	0.265212
822.593176	0.265648
822.782922	0.265934
822.972649	0.266332
823.162358	0.266348
823.352049	0.266404
823.541721	0.266377
823.731376	0.266539
823.921012	0.266886
824.110629	0.266884
824.300229	0.267090
824.489811	0.267421
824.679374	0.267921
824.868919	0.268251
825.058445	0.268556
825.247954	0.269069
825.437444	0.268742
825.626916	0.269136
825.816370	0.269671
826.005806	0.269748
826.195223	0.270047
826.384622	0.270060
826.574003	0.270450
826.763366	0.270899
826.952711	0.271367
827.142037	0.272221
827.331345	0.272405
827.520635	0.272662
827.709906	0.273234
827.899160	0.273562
828.088395	0.274224
828.277612	0.274556
828.466810	0.274954
828.655991	0.275461
828.845153	0.275711
829.034297	0.276052
829.223423	0.276321
829.412531	0.276791
829.601620	0.277304
829.790691	0.277334
829.979744	0.277753
830.168779	0.277952
830.357795	0.278085
830.546793	0.278514
830.735773	0.278882
830.924735	0.279297
831.113679	0.279787
831.302604	0.280251
831.491511	0.280557
831.680400	0.281160
831.869271	0.281776
832.058123	0.282357
832.246957	0.282991
832.435773	0.283562
832.624571	0.284048
832.813351	0.284160
833.002112	0.284352
833.190855	0.284951
833.379580	0.284958
833.568287	0.285311
833.756975	0.285516
833.945645	0.285487
834.134297	0.285774
834.322931	0.286224
834.511547	0.286604
834.700144	0.286931
834.888723	0.287472
835.077284	0.288185
835.265826	0.288516
835.454351	0.289214
835.642857	0.289707
835.831345	0.289960
836.019815	0.290032
836.208266	0.290476
836.396699	0.290803
836.585114	0.291049
836.773511	0.291038
836.961890	0.291654
837.150250	0.291817
837.338592	0.292468
837.526916	0.292972
837.715222	0.293719
837.903510	0.294323
838.091779	0.295260
838.280030	0.295866
838.468263	0.296601
838.656477	0.296837
838.844674	0.297141
839.032852	0.297190
839.221012	0.297477
839.409153	0.297661
839.597277	0.297785
839.785382	0.297619
839.973469	0.297635
840.161538	0.298155
840.349589	0.298563
840.537621	0.299030
840.725635	0.299761
840.913631	0.300113
841.101609	0.300559
841.289568	0.301139
841.477509	0.301589
841.665432	0.302230
841.853337	0.302452
842.041224	0.302664
842.229092	0.302811
842.416942	0.303165
842.604774	0.303696
842.792588	0.304180
842.980383	0.304455
843.168160	0.304594
843.355919	0.304920
843.543660	0.305261
843.731382	0.305851
843.919087	0.306460
844.106773	0.306437
844.294441	0.306757
844.482090	0.307069
844.669722	0.307202
844.857335	0.307935
845.044930	0.308678
845.232507	0.309165
845.420065	0.309504
845.607605	0.310001
845.795127	0.310414
845.982631	0.310795
846.170117	0.311036
846.357584	0.311519
846.545033	0.312359
846.732464	0.312517
846.919877	0.312867
847.107272	0.313429
847.294648	0.313822
847.482006	0.314315
847.669346	0.314980
847.856667	0.315544
848.043971	0.316232
848.231256	0.316425
848.418523	0.316871
848.605771	0.317316
848.793002	0.317820
848.980214	0.318414
849.167408	0.319098
849.354584	0.319575
849.541742	0.319805
849.728881	0.320060
849.916002	0.320940
850.103105	0.321094
850.290190	0.321196
850.477256	0.321516
850.664304	0.321665
850.851334	0.322268
851.038346	0.322352
851.225340	0.322876
851.412315	0.323474
851.599272	0.323031
851.786211	0.323529
851.973132	0.324086
852.160034	0.324382
852.346918	0.325044
852.533784	0.325161
852.720632	0.325599
852.907462	0.325991
853.094273	0.326367
853.281066	0.327003
853.467841	0.327789
853.654598	0.328405
853.841336	0.329152
854.028056	0.329185
854.214758	0.329722
854.401442	0.329999
854.588107	0.330562
854.774755	0.331324
854.961384	0.331833
855.147995	0.332254
855.334587	0.332702
855.521162	0.333183
855.707718	0.333571
855.894256	0.334038
856.080775	0.334768
856.267277	0.334989
856.453760	0.334876
856.640225	0.335171
856.826672	0.335436
857.013101	0.335690
857.199511	0.335495
857.385903	0.335906
857.572277	0.336029
857.758633	0.336211
857.944970	0.336735
858.131290	0.337657
858.317591	0.338087
858.503873	0.338542
858.690138	0.338948
858.876384	0.339380
859.062612	0.339842
859.248822	0.340615
859.435014	0.341118
859.621188	0.341154
859.807343	0.340877
859.993480	0.341206
860.179599	0.341367
860.365699	0.341821
860.551781	0.342145
860.737846	0.342905
860.923891	0.342914
861.109919	0.342995
861.295929	0.344083
861.481920	0.344794
861.667893	0.345433
861.853848	0.345861
862.039784	0.346247
862.225702	0.346477
862.411603	0.346548
862.597484	0.346975
862.783348	0.347306
862.969193	0.347376
863.155021	0.347592
863.340830	0.347944
863.526620	0.348236
863.712393	0.348701
863.898147	0.349326
864.083883	0.350030
864.269601	0.350039
864.455301	0.350632
864.640982	0.350705
864.826645	0.351005
865.012290	0.351280
865.197917	0.351794
865.383526	0.351710
865.569116	0.352015
865.754688	0.351663
865.940242	0.352448
866.125777	0.352724
866.311295	0.353114
866.496794	0.353889
866.682275	0.353891
866.867737	0.354041
867.053182	0.354431
867.238608	0.354769
867.424016	0.355151
867.609406	0.355115
867.794778	0.355362
867.980131	0.355678
868.165466	0.355694
868.350783	0.355756
868.536082	0.356135
868.721362	0.356683
868.906625	0.356953
869.091869	0.357457
869.277094	0.358019
869.462302	0.357980
869.647491	0.358426
869.832662	0.358705
870.017815	0.359408
870.202950	0.359589
870.388066	0.359896
870.573165	0.360192
870.758245	0.360392
870.943306	0.360608
871.128350	0.361557
871.313375	0.361644
871.498382	0.361722
871.683371	0.362062
871.868342	0.362128
872.053294	0.361909
872.238229	0.361729
872.423144	0.362024
872.608042	0.362324
872.792922	0.362334
872.977783	0.363044
873.162626	0.363389
873.347451	0.363453
873.532258	0.364033
873.717046	0.364940
873.901816	0.365511
874.086568	0.365739
874.271302	0.365798
874.456017	0.366167
874.640715	0.365654
874.825394	0.365671
875.010055	0.365979
875.194697	0.366243
875.379322	0.366134
875.563928	0.366759
875.748516	0.366831
875.933085	0.366807
876.117637	0.367080
876.302170	0.367610
876.486685	0.368075
876.671182	0.368176
876.855661	0.368171
877.040121	0.368586
877.224563	0.368041
877.408987	0.368635
877.593393	0.369369
877.777780	0.369001
877.962150	0.369669
878.146501	0.369710
878.330833	0.369729
878.515148	0.369798
878.699444	0.370225
878.883722	0.371294
879.067982	0.371590
879.252224	0.371412
879.436447	0.372070
879.620653	0.371913
879.804840	0.371821
879.989008	0.372584
880.173159	0.372579
880.357291	0.372421
880.541405	0.372073
880.725501	0.372220
880.909579	0.372476
881.093638	0.372397
881.277680	0.372504
881.461703	0.373092
881.645707	0.372798
881.829694	0.373058
882.013662	0.373024
882.197612	0.373633
882.381544	0.373451
882.565458	0.374070
882.749353	0.374272
882.933230	0.373936
883.117089	0.373928
883.300930	0.373816
883.484753	0.373744
883.668557	0.374019
883.852343	0.374147
884.036111	0.374236
884.219861	0.374071
884.403592	0.373983
884.587305	0.374305
884.771000	0.374066
884.954677	0.373832
885.138335	0.374027
885.321976	0.374097
885.505598	0.373818
885.689201	0.373833
885.872787	0.374010
886.056354	0.374098
886.239904	0.374596
886.423434	0.375354
886.606947	0.376288
886.790442	0.376483
886.973918	0.376327
887.157376	0.376171
887.340816	0.375887
887.524237	0.375040
887.707641	0.375090
887.891026	0.374442
888.074393	0.373519
888.257741	0.373015
888.441072	0.373075
888.624384	0.372553
888.807678	0.372379
888.990954	0.373303
889.174211	0.373972
889.357451	0.374049
889.540672	0.374660
889.723875	0.375079
889.907059	0.374639
890.090226	0.374378
890.273374	0.374973
890.456504	0.375414
890.639616	0.374853
890.822709	0.374682
891.005785	0.375019
891.188842	0.374963
891.371881	0.375354
891.554901	0.375652
891.737904	0.375967
891.920888	0.375505
892.103854	0.375543
892.286802	0.375627
892.469731	0.375620
892.652643	0.375204
892.835536	0.374991
893.018410	0.374809
893.201267	0.374772
893.384106	0.374423
893.566926	0.374521
893.749728	0.374164
893.932511	0.374218
894.115277	0.373787
894.298024	0.374049
894.480753	0.373828
894.663464	0.373816
894.846157	0.374122
895.028831	0.374446
895.211487	0.374251
895.394125	0.373978
895.576745	0.374151
895.759346	0.374160
895.941930	0.373596
896.124495	0.373680
896.307041	0.373106
896.489570	0.372879
896.672080	0.372969
896.854573	0.373206
897.037046	0.372631
897.219502	0.371671
897.401940	0.372106
897.584359	0.372242
897.766760	0.371403
897.949143	0.371383
898.131507	0.371198
898.313854	0.369871
898.496182	0.369918
898.678492	0.370367
898.860783	0.370590
899.043057	0.370234
899.225312	0.369907
899.407549	0.369973
899.589768	0.369545
899.771968	0.369289
899.954151	0.369460
900.136315	0.368651
900.318461	0.367920
900.500588	0.367838
900.682698	0.367368
900.864789	0.366916
901.046862	0.367078
901.228917	0.366919
901.410953	0.366606
901.592971	0.366287
901.774972	0.365996
901.956953	0.366110
902.138917	0.365516
902.320862	0.365281
902.502790	0.365227
902.684699	0.364476
902.866589	0.364171
903.048462	0.363542
903.230316	0.363521
903.412152	0.363361
903.593970	0.363211
903.775770	0.362515
903.957551	0.362031
904.139314	0.362199
904.321059	0.361774
904.502786	0.361811
904.684494	0.361727
904.866185	0.361436
905.047857	0.361286
905.229510	0.360794
905.411146	0.361151
905.592763	0.361389
905.774363	0.360141
905.955943	0.360514
906.137506	0.359874
906.319051	0.359993
906.500577	0.360284
906.682085	0.360337
906.863575	0.360350
907.045046	0.359327
907.226500	0.358637
907.407935	0.358768
907.589352	0.358260
907.770750	0.357513
907.952131	0.356906
908.133493	0.355431
908.314837	0.354300
908.496163	0.353385
908.677470	0.353095
908.858760	0.352305
909.040031	0.351325
909.221284	0.350208
909.402518	0.349810
909.583735	0.349437
909.764933	0.349593
909.946113	0.349896
910.127275	0.349834
910.308418	0.349521
910.489544	0.349433
910.670651	0.349618
910.851740	0.349651
911.032810	0.349789
911.213863	0.349155
911.394897	0.348598
911.575913	0.347311
911.756911	0.347039
911.937890	0.346663
912.118851	0.346251
912.299794	0.345431
912.480719	0.345416
912.661626	0.344954
912.842514	0.344413
913.023384	0.343790
913.204236	0.343718
913.385070	0.343581
913.565886	0.342748
913.746683	0.342058
913.927462	0.341891
914.108223	0.340977
914.288965	0.340272
914.469690	0.340449
914.650396	0.340318
914.831084	0.339271
915.011754	0.338317
915.192405	0.338390
915.373038	0.338005
915.553653	0.337540
915.734250	0.337060
915.914829	0.336987
916.095389	0.335924
916.275931	0.335372
916.456455	0.335718
916.636961	0.334339
916.817448	0.333059
916.997917	0.332591
917.178368	0.331182
917.358801	0.330239
917.539216	0.328887
917.719612	0.328307
917.899990	0.327743
918.080350	0.326309
918.260692	0.325768
918.441015	0.325175
918.621320	0.324267
918.801607	0.324471
918.981876	0.323978
919.162127	0.323569
919.342359	0.322820
919.522573	0.321818
919.702769	0.321496
919.882947	0.321679
920.063106	0.321643
920.243247	0.320614
920.423370	0.319223
920.603475	0.318083
920.783562	0.317737
920.963630	0.317136
921.143680	0.316799
921.323712	0.315771
921.503725	0.314798
921.683721	0.313447
921.863698	0.312588
922.043657	0.311892
922.223598	0.311500
922.403520	0.310650
922.583424	0.309824
922.763311	0.308535
922.943178	0.307811
923.123028	0.306771
923.302859	0.306336
923.482673	0.305788
923.662467	0.305451
923.842244	0.305311
924.022003	0.304263
924.201743	0.302844
924.381465	0.302504
924.561169	0.301649
924.740854	0.300797
924.920522	0.299736
925.100171	0.298910
925.279802	0.297593
925.459414	0.296078
925.639009	0.294746
925.818585	0.294398
925.998143	0.293348
926.177683	0.293259
926.357205	0.291829
926.536708	0.291434
926.716193	0.290357
926.895660	0.291025
927.075109	0.289764
927.254539	0.288853
927.433951	0.288751
927.613345	0.287222
927.792721	0.285349
927.972079	0.285167
928.151418	0.283899
928.330739	0.283609
928.510042	0.281128
928.689327	0.280928
928.868593	0.281019
929.047841	0.278821
929.227071	0.278532
929.406283	0.278103
929.585476	0.277096
929.764652	0.276224
929.943809	0.275225
930.122948	0.274314
930.302068	0.273701
930.481171	0.272999
930.660255	0.272193
930.839321	0.270767
931.018369	0.269773
931.197398	0.268411
931.376409	0.267622
931.555402	0.266986
931.734377	0.266057
931.913334	0.264282
932.092272	0.262494
932.271192	0.262557
932.450094	0.261861
932.628978	0.261640
932.807844	0.261300
932.986691	0.260427
933.165520	0.259124
933.344331	0.259431
933.523123	0.258778
933.701898	0.257888
933.880654	0.256053
934.059392	0.255282
934.238111	0.254105
934.416813	0.252780
934.595496	0.251827
934.774161	0.251352
934.952808	0.249781
935.131437	0.248766
935.310047	0.247766
935.488639	0.247380
935.667213	0.246624
935.845769	0.245566
936.024306	0.245014
936.202825	0.242566
936.381326	0.241460
936.559809	0.240578
936.738274	0.238782
936.916720	0.237994
937.095148	0.236957
937.273558	0.235315
937.451950	0.234223
937.630323	0.233539
937.808678	0.233067
937.987015	0.231357
938.165334	0.229746
938.343635	0.229901
938.521917	0.229081
938.700181	0.227411
938.878427	0.226481
939.056655	0.225250
939.234864	0.223624
939.413055	0.224007
939.591228	0.223373
939.769383	0.222956
939.947519	0.222360
940.125638	0.220965
940.303738	0.219836
940.481820	0.218908
940.659883	0.218119
940.837929	0.217178
941.015956	0.214316
941.193965	0.213157
941.371955	0.210998
941.549928	0.209806
941.727882	0.208450
941.905818	0.208319
942.083736	0.208289
942.261636	0.207381
942.439517	0.205076
942.617380	0.205291
942.795225	0.205022
942.973052	0.204028
943.150860	0.203014
943.328651	0.201792
943.506423	0.199379
943.684176	0.197821
943.861912	0.196346
944.039629	0.197446
944.217328	0.196088
944.395009	0.194590
944.572672	0.194433
944.750317	0.193000
944.927943	0.192403
945.105551	0.191561
945.283141	0.189964
945.460712	0.189354
945.638265	0.187258
945.815801	0.186684
945.993317	0.184749
946.170816	0.183277
946.348297	0.182093
946.525759	0.181587
946.703203	0.180680
946.880629	0.178337
947.058036	0.176431
947.235425	0.174881
947.412797	0.173838
947.590149	0.173360
947.767484	0.172319
947.944800	0.170805
948.122099	0.168286
948.299379	0.167117
948.476640	0.166525
948.653884	0.166226
948.831109	0.165140
949.008316	0.163604
949.185505	0.161754
949.362676	0.159489
949.539828	0.157800
949.716962	0.157359
949.894078	0.155164
950.071176	0.154296
950.248256	0.151220
950.425317	0.151198
950.602360	0.149486
950.779385	0.148197
950.956391	0.146924
951.133380	0.145768
951.310350	0.144028
951.487302	0.143356
951.664235	0.143059
951.841151	0.142757
952.018048	0.139904
952.194927	0.139547
952.371788	0.139053
952.548631	0.137939
952.725455	0.135751
952.902261	0.134820
953.079049	0.135359
953.255819	0.132336
953.432570	0.129961
953.609303	0.128957
953.786018	0.128301
953.962715	0.127649
954.139394	0.128885
954.316054	0.130189
954.492696	0.127559
954.669320	0.125021
954.845926	0.128035
955.022513	0.128838
955.199083	0.128357
955.375634	0.128964
955.552166	0.128383
955.728681	0.126441
955.905177	0.123320
956.081655	0.124902
956.258115	0.126419
956.434557	0.122901
956.610980	0.120203
956.787385	0.119077
956.963772	0.116057
957.140141	0.112540
957.316492	0.112136
957.492824	0.113254
957.669138	0.112539
957.845434	0.109254
958.021712	0.109402
958.197971	0.112856
958.374212	0.111467
958.550435	0.111502
958.726640	0.112768
958.902826	0.111890
959.078995	0.110967
959.255145	0.111492
959.431277	0.112214
959.607390	0.111738
959.783486	0.106867
959.959563	0.108373
960.135622	0.107770
960.311662	0.106158
960.487685	0.104886
960.663689	0.105487
960.839675	0.103502
961.015643	0.102391
961.191593	0.101104
961.367524	0.103697
961.543437	0.104884
961.719332	0.103707
961.895209	0.103517
962.071067	0.103841
962.246907	0.100854
962.422730	0.099182
962.598533	0.097877
962.774319	0.097639
962.950086	0.095823
963.125835	0.094952
963.301566	0.094297
963.477279	0.093647
963.652973	0.094139
963.828650	0.097666
964.004308	0.098228
964.179947	0.098924
964.355569	0.100103
964.531172	0.099145
964.706757	0.096828
964.882324	0.096465
965.057873	0.097445
965.233403	0.095854
965.408916	0.092813
965.584410	0.091769
965.759885	0.092449
965.935343	0.088458
966.110782	0.088104
966.286203	0.087645
966.461606	0.087580
966.636991	0.087210
966.812357	0.086330
966.987705	0.087055
967.163035	0.087918
967.338347	0.088132
967.513641	0.091139
967.688916	0.089454
967.864173	0.088443
968.039412	0.088220
968.214632	0.088282
968.389835	0.090125
968.565019	0.088206
968.740185	0.086915
968.915333	0.086951
969.090462	0.084943
969.265573	0.086527
969.440667	0.089367
969.615741	0.091487
969.790798	0.090676
969.965836	0.089444
970.140856	0.091641
970.315858	0.093574
970.490842	0.091552
970.665808	0.091735
970.840755	0.093446
971.015684	0.090984
971.190595	0.092589
971.365487	0.092847
971.540362	0.092101
971.715218	0.090769
971.890056	0.090645
972.064875	0.092102
972.239677	0.093306
972.414460	0.090381
972.589225	0.091911
972.763972	0.089881
972.938700	0.088877
973.113411	0.090286
973.288103	0.089135
973.462777	0.088646
973.637432	0.087750
973.812070	0.087123
973.986689	0.089573
974.161290	0.087304
974.335873	0.087237
974.510437	0.088583
974.684984	0.090294
974.859512	0.090680
975.034022	0.089437
975.208513	0.089472
975.382987	0.090217
975.557442	0.089770
975.731879	0.090373
975.906298	0.088749
976.080698	0.087757
976.255080	0.088483
976.429445	0.088660
976.603790	0.090565
976.778118	0.088468
976.952427	0.088471
977.126719	0.088428
977.300992	0.090063
977.475246	0.091133
977.649483	0.091760
977.823701	0.088542
977.997901	0.090314
978.172083	0.089995
978.346247	0.092005
978.520392	0.092119
978.694519	0.091174
978.868628	0.090117
979.042719	0.088602
979.216791	0.089668
979.390845	0.090288
979.564882	0.087650
979.738899	0.087903
979.912899	0.089699
980.086880	0.089973
980.260843	0.090810
980.434788	0.089669
980.608715	0.089701
980.782623	0.088114
980.956514	0.085582
981.130386	0.086643
981.304240	0.086937
981.478075	0.085543
981.651892	0.085604
981.825692	0.085611
981.999472	0.086672
982.173235	0.087320
982.346980	0.088082
982.520706	0.091001
982.694414	0.093687
982.868104	0.093751
983.041775	0.092441
983.215428	0.090903
983.389064	0.092539
983.562680	0.094889
983.736279	0.094619
983.909860	0.093824
984.083422	0.093133
984.256966	0.090025
984.430491	0.088744
984.603999	0.091092
984.777488	0.092368
984.950959	0.091781
985.124412	0.090435
985.297847	0.089919
985.471263	0.090622
985.644661	0.090898
985.818041	0.091963
985.991403	0.090707
986.164747	0.089645
986.338072	0.087780
986.511379	0.087132
986.684668	0.087445
986.857938	0.088411
987.031191	0.088037
987.204425	0.087715
987.377641	0.087199
987.550839	0.088825
987.724018	0.089472
987.897179	0.092138
988.070322	0.093748
988.243447	0.094420
988.416554	0.094489
988.589642	0.096111
988.762712	0.096553
988.935764	0.096601
989.108798	0.095198
989.281813	0.095596
989.454811	0.094215
989.627790	0.094177
989.800751	0.092434
989.973693	0.091928
990.146617	0.091249
990.319524	0.091396
990.492412	0.092869
990.665281	0.094807
990.838133	0.091842
991.010966	0.090811
991.183781	0.090821
991.356578	0.091008
991.529356	0.091719
991.702117	0.092770
991.874859	0.093735
992.047583	0.092469
992.220288	0.090738
992.392976	0.094149
992.565645	0.093417
992.738296	0.092159
992.910929	0.091546
993.083543	0.091888
993.256139	0.090832
993.428718	0.090530
993.601277	0.091903
993.773819	0.092384
993.946342	0.090494
994.118848	0.091305
994.291335	0.091324
994.463803	0.092917
994.636254	0.092837
994.808686	0.092765
994.981100	0.092830
995.153496	0.092365
995.325874	0.093477
995.498233	0.094300
995.670574	0.095344
995.842897	0.095189
996.015202	0.093261
996.187488	0.090634
996.359757	0.090975
996.532007	0.091062
996.704239	0.089623
996.876452	0.089779
997.048648	0.089125
997.220825	0.088709
997.392984	0.089495
997.565124	0.093454
997.737247	0.095774
997.909351	0.096247
998.081437	0.094233
998.253505	0.095735
998.425554	0.094931
998.597586	0.093228
998.769599	0.094877
998.941594	0.093359
999.113571	0.090046
999.285529	0.089328
999.457469	0.087556
999.629391	0.088664
999.801295	0.087903
999.973181	0.090041
1000.145048	0.092785
1000.316897	0.092922
1000.488728	0.093901
1000.660541	0.095441
1000.832335	0.096911
1001.004111	0.097055
1001.175869	0.096940
1001.347609	0.096466
1001.519331	0.095596
1001.691034	0.096028
1001.862719	0.095632
1002.034386	0.097355
1002.206035	0.096024
1002.377665	0.096144
1002.549277	0.096798
1002.720871	0.097394
1002.892447	0.097046
1003.064004	0.095194
1003.235544	0.094546
1003.407065	0.092394
1003.578568	0.091609
1003.750052	0.092581
1003.921519	0.091642
1004.092967	0.093777
1004.264397	0.091538
1004.435809	0.092213
1004.607202	0.093831
1004.778577	0.093214
1004.949934	0.095185
1005.121273	0.094291
1005.292594	0.094090
1005.463896	0.096530
1005.635180	0.095448
1005.806446	0.098343
1005.977694	0.099142
1006.148923	0.099334
1006.320135	0.099639
1006.491328	0.097785
1006.662503	0.096936
1006.833659	0.096709
1007.004798	0.096401
1007.175918	0.097322
1007.347020	0.097964
1007.518103	0.098594
1007.689169	0.098782
1007.860216	0.099521
1008.031245	0.103035
1008.202256	0.104965
1008.373248	0.106584
1008.544223	0.105340
1008.715179	0.104357
1008.886117	0.101987
1009.057036	0.100265
1009.227938	0.099079
1009.398821	0.098690
1009.569686	0.096847
1009.740533	0.095430
1009.911361	0.094031
1010.082172	0.093951
1010.252964	0.093107
1010.423738	0.094072
1010.594493	0.096040
1010.765231	0.095469
1010.935950	0.094818
1011.106651	0.094912
1011.277334	0.094999
1011.447998	0.096023
1011.618645	0.095625
1011.789273	0.095746
1011.959882	0.097649
1012.130474	0.096770
1012.301048	0.097716
1012.471603	0.098832
1012.642140	0.097618
1012.812658	0.099616
1012.983159	0.098078
1013.153641	0.097913
1013.324105	0.097975
1013.494551	0.096350
1013.664979	0.097365
1013.835388	0.096373
1014.005779	0.094515
1014.176152	0.095077
1014.346507	0.093253
1014.516843	0.095170
1014.687162	0.094585
1014.857462	0.092822
1015.027744	0.092546
1015.198007	0.091658
1015.368252	0.092948
1015.538480	0.096253
1015.708689	0.096225
1015.878879	0.094818
1016.049052	0.094370
1016.219206	0.096049
1016.389342	0.098618
1016.559460	0.097528
1016.729559	0.095259
1016.899641	0.095171
1017.069704	0.092625
1017.239749	0.092567
1017.409775	0.092652
1017.579784	0.090773
1017.749774	0.089489
1017.919746	0.091896
1018.089700	0.091948
1018.259635	0.093818
1018.429553	0.092697
1018.599452	0.094341
1018.769333	0.093745
1018.939195	0.095299
1019.109040	0.097660
1019.278866	0.097699
1019.448674	0.095283
1019.618464	0.096430
1019.788235	0.097088
1019.957989	0.098089
1020.127724	0.096754
1020.297441	0.098919
1020.467139	0.098633
1020.636820	0.097143
1020.806482	0.098619
1020.976126	0.096684
1021.145752	0.097215
1021.315359	0.098041
1021.484948	0.097903
1021.654519	0.097101
1021.824072	0.094436
1021.993607	0.094416
1022.163123	0.094627
1022.332621	0.093777
1022.502101	0.094092
1022.671563	0.093621
1022.841007	0.092260
1023.010432	0.091341
1023.179839	0.092695
1023.349228	0.093518
1023.518598	0.093323
1023.687951	0.094454
1023.857285	0.093945
1024.026601	0.095202
1024.195899	0.094034
1024.365178	0.094385
1024.534439	0.095033
1024.703682	0.095828
1024.872907	0.096299
1025.042114	0.096927
1025.211302	0.096575
1025.380472	0.096784
1025.549624	0.096882
1025.718758	0.098077
1025.887873	0.098176
1026.056970	0.099600
1026.226049	0.098889
1026.395110	0.099964
1026.564153	0.099605
1026.733177	0.098998
1026.902183	0.098315
1027.071171	0.099256
1027.240141	0.100741
1027.409092	0.099193
1027.578026	0.098362
1027.746940	0.096919
1027.915837	0.095492
1028.084716	0.095727
1028.253576	0.094066
1028.422418	0.095137
1028.591242	0.094804
1028.760048	0.094153
1028.928835	0.095128
1029.097604	0.095123
1029.266355	0.095611
1029.435088	0.096710
1029.603803	0.096169
1029.772499	0.098822
1029.941177	0.098911
1030.109837	0.098007
1030.278478	0.096653
1030.447102	0.096769
1030.615707	0.095359
1030.784294	0.098652
1030.952863	0.097103
1031.121413	0.099311
1031.289945	0.098096
1031.458460	0.096133
1031.626955	0.096510
1031.795433	0.097670
1031.963892	0.098771
1032.132334	0.100426
1032.300756	0.096274
1032.469161	0.097032
1032.637548	0.093882
1032.805916	0.094141
1032.974266	0.096201
1033.142598	0.093699
1033.310911	0.093242
1033.479207	0.092692
1033.647484	0.092054
1033.815743	0.094006
1033.983983	0.093890
1034.152206	0.094999
1034.320410	0.093168
1034.488596	0.093000
1034.656764	0.095435
1034.824914	0.095855
1034.993045	0.095700
1035.161158	0.095253
1035.329253	0.093916
1035.497330	0.094072
1035.665388	0.093818
1035.833428	0.095664
1036.001450	0.097060
1036.169454	0.097158
1036.337440	0.095248
1036.505407	0.095914
1036.673356	0.096533
1036.841287	0.098441
1037.009200	0.099436
1037.177094	0.100248
1037.344970	0.100072
1037.512828	0.097192
1037.680668	0.096704
1037.848489	0.098811
1038.016293	0.099755
1038.184078	0.101418
1038.351845	0.101859
1038.519593	0.100315
1038.687324	0.099676
1038.855036	0.098722
1039.022730	0.099135
1039.190406	0.097655
1039.358063	0.097012
1039.525702	0.094062
1039.693323	0.093135
1039.860926	0.092294
1040.028511	0.091602
1040.196077	0.090983
1040.363625	0.092505
1040.531155	0.094574
1040.698667	0.095554
1040.866161	0.094537
1041.033636	0.095701
1041.201093	0.094986
1041.368532	0.093805
1041.535952	0.095766
1041.703355	0.097783
1041.870739	0.097201
1042.038105	0.096125
1042.205452	0.097042
1042.372782	0.096770
1042.540093	0.096872
1042.707386	0.096965
1042.874661	0.098474
1043.041918	0.097375
1043.209156	0.095418
1043.376376	0.094994
1043.543578	0.095767
1043.710762	0.094944
1043.877927	0.096105
1044.045074	0.095159
1044.212203	0.093977
1044.379314	0.093144
1044.546407	0.092531
1044.713481	0.095880
1044.880537	0.095094
1045.047575	0.094208
1045.214595	0.094276
1045.381596	0.095367
1045.548579	0.096058
1045.715544	0.097672
1045.882491	0.097820
1046.049420	0.097893
1046.216330	0.097084
1046.383222	0.098803
1046.550096	0.099165
1046.716951	0.099337
1046.883789	0.099323
1047.050608	0.098888
1047.217409	0.097509
1047.384192	0.098238
1047.550956	0.099461
1047.717703	0.098342
1047.884431	0.098146
1048.051140	0.097040
1048.217832	0.098943
1048.384505	0.097610
1048.551161	0.099594
1048.717798	0.100839
1048.884416	0.099141
1049.051017	0.100256
1049.217599	0.097648
1049.384163	0.097435
1049.550709	0.097070
1049.717237	0.094748
1049.883746	0.095633
1050.050237	0.095453
1050.216710	0.095330
1050.383165	0.097585
1050.549601	0.097356
1050.716019	0.098724
1050.882420	0.097390
1051.048801	0.101258
1051.215165	0.101515
1051.381510	0.101087
1051.547837	0.099158
1051.714146	0.097498
1051.880437	0.096653
1052.046709	0.095408
1052.212964	0.096164
1052.379200	0.098376
1052.545417	0.093909
1052.711617	0.095727
1052.877798	0.096398
1053.043961	0.097960
1053.210106	0.100333
1053.376233	0.097353
1053.542341	0.098613
1053.708432	0.100039
1053.874504	0.099442
1054.040557	0.100385
1054.206593	0.097708
1054.372610	0.097111
1054.538609	0.096784
1054.704590	0.096872
1054.870553	0.099930
1055.036497	0.098632
1055.202424	0.098082
1055.368331	0.096814
1055.534221	0.097863
1055.700093	0.099039
1055.865946	0.100078
1056.031781	0.099968
1056.197598	0.100316
1056.363397	0.099640
1056.529177	0.101774
1056.694939	0.101955
1056.860683	0.103930
1057.026409	0.103854
1057.192116	0.104784
1057.357806	0.102756
1057.523477	0.101403
1057.689130	0.102050
1057.854764	0.101156
1058.020381	0.099936
1058.185979	0.100172
1058.351559	0.099562
1058.517120	0.097746
1058.682664	0.098134
1058.848189	0.099388
1059.013696	0.100021
1059.179185	0.097709
1059.344656	0.097684
1059.510108	0.098490
1059.675542	0.099336
1059.840958	0.100932
1060.006356	0.102822
1060.171735	0.099837
1060.337096	0.097777
1060.502439	0.095714
1060.667764	0.095291
1060.833071	0.095934
1060.998359	0.094553
1061.163629	0.093056
1061.328881	0.090504
1061.494115	0.088552
1061.659330	0.090304
1061.824527	0.092607
1061.989706	0.096800
1062.154867	0.098574
1062.320010	0.098077
1062.485134	0.099043
1062.650240	0.099894
1062.815328	0.100206
1062.980398	0.103318
1063.145449	0.106619
1063.310482	0.105287
1063.475497	0.105192
1063.640494	0.103747
1063.805473	0.105666
1063.970433	0.105070
1064.135375	0.105395
1064.300299	0.104211
1064.465204	0.105681
1064.630092	0.103018
1064.794961	0.104851
1064.959812	0.102713
1065.124645	0.106414
1065.289459	0.105367
1065.454256	0.105484
1065.619034	0.103225
1065.783793	0.106543
1065.948535	0.105019
1066.113258	0.106213
1066.277964	0.106875
1066.442651	0.108021
1066.607319	0.105590
1066.771970	0.105046
1066.936602	0.105768
1067.101216	0.106506
1067.265812	0.104416
1067.430389	0.101715
1067.594949	0.098510
1067.759490	0.099111
1067.924013	0.096930
1068.088518	0.098368
1068.253004	0.098794
1068.417472	0.098773
1068.581922	0.099168
1068.746354	0.100312
1068.910768	0.100596
1069.075163	0.104632
1069.239540	0.101273
1069.403899	0.103216
1069.568240	0.101646
1069.732562	0.102592
1069.896866	0.101876
1070.061152	0.101982
1070.225420	0.102555
1070.389670	0.105057
1070.553901	0.103025
1070.718114	0.106545
1070.882309	0.106532
1071.046486	0.108365
1071.210644	0.107988
1071.374784	0.109623
1071.538906	0.109748
1071.703010	0.108312
1071.867096	0.105166
1072.031163	0.105845
1072.195212	0.103970
1072.359243	0.105312
1072.523256	0.104926
1072.687250	0.105172
1072.851226	0.104047
1073.015184	0.105266
1073.179124	0.105568
1073.343045	0.107790
1073.506949	0.108975
1073.670834	0.106918
1073.834701	0.107413
1073.998549	0.106605
1074.162380	0.107534
1074.326192	0.108949
1074.489986	0.109879
1074.653761	0.110989
1074.817519	0.110363
1074.981258	0.108285
1075.144979	0.111702
1075.308682	0.113198
1075.472367	0.114208
1075.636033	0.114444
1075.799681	0.114229
1075.963311	0.116535
1076.126923	0.117345
1076.290516	0.120465
1076.454092	0.121820
1076.617649	0.120207
1076.781187	0.116822
1076.944708	0.117374
1077.108210	0.115785
1077.271695	0.115091
1077.435160	0.109604
1077.598608	0.108130
1077.762038	0.108105
1077.925449	0.106022
1078.088842	0.105276
1078.252217	0.106336
1078.415573	0.106221
1078.578912	0.107994
1078.742232	0.108573
1078.905534	0.110930
1079.068817	0.111791
1079.232083	0.109083
1079.395330	0.111311
1079.558559	0.110712
1079.721770	0.109867
1079.884962	0.109695
1080.048136	0.108328
1080.211293	0.107805
1080.374430	0.108556
1080.537550	0.107200
1080.700651	0.106949
1080.863735	0.103176
1081.026800	0.107438
1081.189846	0.107228
1081.352875	0.104621
1081.515885	0.104725
1081.678877	0.103745
1081.841851	0.104742
1082.004807	0.107021
1082.167744	0.107785
1082.330663	0.108391
1082.493564	0.105819
1082.656447	0.107282
1082.819312	0.107431
1082.982158	0.109299
1083.144986	0.109387
1083.307796	0.108318
1083.470587	0.107577
1083.633361	0.108427
1083.796116	0.112938
1083.958853	0.112401
1084.121571	0.114190
1084.284272	0.115468
1084.446954	0.112392
1084.609618	0.114248
1084.772264	0.109866
1084.934892	0.109769
1085.097501	0.110357
1085.260092	0.109105
1085.422665	0.110615
1085.585220	0.106658
1085.747756	0.105724
1085.910274	0.107522
1086.072774	0.105831
1086.235256	0.108581
1086.397720	0.111476
1086.560165	0.111088
1086.722592	0.110557
1086.885001	0.110355
1087.047392	0.113917
1087.209764	0.116197
1087.372119	0.119948
1087.534455	0.121131
1087.696772	0.121113
1087.859072	0.121325
1088.021353	0.121353
1088.183616	0.122854
1088.345861	0.122765
1088.508088	0.120297
1088.670296	0.120588
1088.832486	0.118712
1088.994658	0.117110
1089.156812	0.117773
1089.318948	0.115566
1089.481065	0.117487
1089.643164	0.118030
1089.805245	0.119571
1089.967308	0.117562
1090.129352	0.115907
1090.291378	0.113751
1090.453386	0.117405
1090.615376	0.116148
1090.777347	0.117534
1090.939301	0.114737
1091.101236	0.114073
1091.263153	0.111296
1091.425051	0.113415
1091.586932	0.116954
1091.748794	0.116683
1091.910638	0.112550
1092.072463	0.116060
1092.234271	0.110769
1092.396060	0.110946
1092.557831	0.111087
1092.719584	0.110482
1092.881319	0.113338
1093.043035	0.111026
1093.204733	0.111985
1093.366413	0.116000
1093.528075	0.112751
1093.689718	0.115754
1093.851343	0.117590
1094.012950	0.114416
1094.174539	0.113460
1094.336110	0.111385
1094.497662	0.113570
1094.659196	0.110972
1094.820712	0.109579
1094.982210	0.109317
1095.143689	0.108581
1095.305151	0.111443
1095.466594	0.116171
1095.628018	0.118659
1095.789425	0.120646
1095.950813	0.114693
1096.112183	0.116384
1096.273535	0.117862
1096.434869	0.119838
1096.596184	0.122738
1096.757482	0.120401
1096.918761	0.117157
1097.080021	0.118381
1097.241264	0.119832
1097.402488	0.123494
1097.563694	0.126805
1097.724882	0.126429
1097.886052	0.126694
1098.047203	0.124206
1098.208336	0.122200
1098.369451	0.123351
1098.530548	0.119604
1098.691627	0.115685
1098.852687	0.114273
1099.013729	0.113694
1099.174753	0.112231
1099.335758	0.110211
1099.496746	0.111920
1099.657715	0.113281
1099.818666	0.113613
1099.979599	0.115270
1100.140513	0.114654
1100.301409	0.117039
1100.462287	0.115116
1100.623147	0.114383
1100.783989	0.115119
1100.944812	0.114265
1101.105617	0.114140
1101.266404	0.110146
1101.427173	0.113128
1101.587923	0.114499
1101.748656	0.114053
1101.909370	0.110693
1102.070066	0.108651
1102.230743	0.107839
1102.391403	0.109327
1102.552044	0.110383
1102.712667	0.115602
1102.873271	0.115934
1103.033858	0.115755
1103.194426	0.116791
1103.354976	0.118906
1103.515508	0.123636
1103.676021	0.124047
1103.836517	0.120359
1103.996994	0.118171
1104.157453	0.119175
1104.317893	0.117503
1104.478316	0.119122
1104.638720	0.117967
1104.799106	0.119655
1104.959474	0.117959
1105.119823	0.120495
1105.280155	0.122855
1105.440468	0.124632
1105.600763	0.121121
1105.761039	0.119018
1105.921298	0.116737
1106.081538	0.116294
1106.241760	0.118197
1106.401964	0.116525
1106.562149	0.116279
1106.722316	0.115372
1106.882465	0.115479
1107.042596	0.118545
1107.202709	0.120825
1107.362803	0.125804
1107.522879	0.126567
1107.682937	0.128299
1107.842977	0.131871
1108.002999	0.131749
1108.163002	0.132397
1108.322987	0.132812
1108.482954	0.138581
1108.642902	0.138559
1108.802833	0.135428
1108.962745	0.135747
1109.122639	0.132630
1109.282515	0.132335
1109.442372	0.127421
1109.602211	0.129702
1109.762032	0.124692
1109.921835	0.120142
1110.081620	0.120536
1110.241386	0.116424
1110.401134	0.118218
1110.560864	0.119709
1110.720576	0.115507
1110.880269	0.120976
1111.039945	0.121408
1111.199602	0.128492
1111.359240	0.129840
1111.518861	0.128025
1111.678463	0.134457
1111.838047	0.130281
1111.997613	0.125072
1112.157161	0.129879
1112.316690	0.131836
1112.476202	0.128110
1112.635695	0.125191
1112.795169	0.122650
1112.954626	0.122959
1113.114064	0.122412
1113.273484	0.121356
1113.432886	0.122264
1113.592270	0.123123
1113.751635	0.117857
1113.910983	0.122567
1114.070312	0.123553
1114.229622	0.123078
1114.388915	0.126579
1114.548189	0.120134
1114.707445	0.123815
1114.866683	0.130294
1115.025903	0.126388
1115.185104	0.131882
1115.344287	0.133547
1115.503452	0.133202
1115.662599	0.134058
1115.821727	0.134447
1115.980838	0.137795
1116.139930	0.137416
1116.299004	0.131270
1116.458059	0.132895
1116.617097	0.129370
1116.776116	0.125430
1116.935117	0.124698
1117.094099	0.126552
1117.253064	0.123934
1117.412010	0.131609
1117.570938	0.137984
1117.729848	0.146235
1117.888740	0.147368
1118.047613	0.146052
1118.206468	0.148355
1118.365305	0.156270
1118.524124	0.153745
1118.682924	0.157216
1118.841707	0.153450
1119.000471	0.142160
1119.159216	0.134338
1119.317944	0.135322
1119.476653	0.137164
1119.635344	0.137924
1119.794017	0.132391
1119.952672	0.135886
1120.111308	0.135339
1120.269927	0.136209
1120.428527	0.141367
1120.587108	0.143436
1120.745672	0.138594
1120.904217	0.141381
1121.062744	0.138437
1121.221253	0.134433
1121.379744	0.130974
1121.538216	0.131503
1121.696671	0.130689
1121.855107	0.128805
1122.013524	0.127830
1122.171924	0.134505
1122.330305	0.133012
1122.488668	0.137982
1122.647013	0.136498
1122.805340	0.132987
1122.963648	0.124628
1123.121938	0.127212
1123.280210	0.125598
1123.438464	0.130591
1123.596700	0.130679
1123.754917	0.132080
1123.913116	0.123999
1124.071297	0.125722
1124.229459	0.127027
1124.387604	0.133095
1124.545730	0.129788
1124.703838	0.135908
1124.861928	0.137003
1125.019999	0.134511
1125.178052	0.133362
1125.336088	0.137290
1125.494104	0.141354
1125.652103	0.141375
1125.810083	0.146828
1125.968045	0.146393
1126.125989	0.140829
1126.283915	0.137174
1126.441823	0.139227
1126.599712	0.136798
1126.757583	0.140903
1126.915436	0.143295
1127.073270	0.144094
1127.231087	0.144672
1127.388885	0.150047
1127.546665	0.148058
1127.704426	0.148656
1127.862170	0.144321
1128.019895	0.146628
1128.177602	0.143973
1128.335291	0.139031
1128.492961	0.141575
1128.650614	0.138828
1128.808248	0.130997
1128.965864	0.134643
1129.123461	0.135834
1129.281041	0.138529
1129.438602	0.135896
1129.596145	0.135369
1129.753670	0.139152
1129.911176	0.137335
1130.068665	0.136976
1130.226135	0.140557
1130.383587	0.141959
1130.541020	0.139908
1130.698436	0.135414
1130.855833	0.134767
1131.013212	0.137097
1131.170573	0.135690
1131.327915	0.138876
1131.485239	0.138364
1131.642545	0.139079
1131.799833	0.134523
1131.957103	0.135875
1132.114354	0.136678
1132.271588	0.139067
1132.428803	0.140054
1132.585999	0.139132
1132.743178	0.140868
1132.900338	0.140596
1133.057480	0.142190
1133.214604	0.148194
1133.371710	0.152829
1133.528797	0.159803
1133.685866	0.163424
1133.842917	0.156553
1133.999950	0.154845
1134.156964	0.144889
1134.313960	0.142873
1134.470938	0.136672
1134.627898	0.126602
1134.784840	0.119052
1134.941763	0.119624
1135.098668	0.115661
1135.255555	0.116300
1135.412424	0.119478
1135.569274	0.125358
1135.726107	0.128742
1135.882921	0.132932
1136.039716	0.143389
1136.196494	0.139756
1136.353253	0.136901
1136.509995	0.134514
1136.666717	0.139772
1136.823422	0.131232
1136.980109	0.129400
1137.136777	0.129490
1137.293427	0.129391
1137.450059	0.130882
1137.606672	0.143546
1137.763267	0.138653
1137.919844	0.137309
1138.076403	0.131154
1138.232944	0.141706
1138.389466	0.139551
1138.545971	0.139991
1138.702457	0.136565
1138.858924	0.135744
1139.015374	0.125616
1139.171805	0.127155
1139.328218	0.134093
1139.484613	0.138105
1139.640990	0.135152
1139.797348	0.136432
1139.953688	0.133448
1140.110010	0.131550
1140.266314	0.126220
1140.422600	0.123519
1140.578867	0.127477
1140.735116	0.124113
1140.891347	0.116374
1141.047559	0.118204
1141.203754	0.118416
1141.359930	0.122977
1141.516088	0.125392
1141.672228	0.125062
1141.828349	0.133006
1141.984452	0.125849
1142.140537	0.135671
1142.296604	0.149037
1142.452653	0.148811
1142.608683	0.154258
1142.764695	0.154211
1142.920689	0.158907
1143.076665	0.158767
1143.232622	0.153898
1143.388562	0.160569
1143.544483	0.159740
1143.700385	0.151668
1143.856270	0.147920
1144.012136	0.144729
1144.167985	0.136734
1144.323814	0.135229
1144.479626	0.143311
1144.635420	0.145354
1144.791195	0.139769
1144.946952	0.135217
1145.102691	0.140652
1145.258411	0.141002
1145.414113	0.142759
1145.569798	0.142218
1145.725463	0.144369
1145.881111	0.141264
1146.036741	0.140356
1146.192352	0.146599
1146.347945	0.135139
1146.503519	0.133650
1146.659076	0.132244
1146.814614	0.127845
1146.970134	0.131340
1147.125636	0.128870
1147.281120	0.122040
1147.436585	0.127988
1147.592032	0.128790
1147.747461	0.141809
1147.902872	0.142497
1148.058265	0.143520
1148.213639	0.148236
1148.368995	0.152044
1148.524333	0.146162
1148.679653	0.155841
1148.834954	0.155773
1148.990237	0.154857
1149.145502	0.154290
1149.300749	0.147864
1149.455977	0.147974
1149.611188	0.143399
1149.766380	0.140250
1149.921553	0.138234
1150.076709	0.138837
1150.231846	0.129058
1150.386966	0.122283
1150.542066	0.122775
1150.697149	0.114123
1150.852214	0.108825
1151.007260	0.108259
1151.162288	0.110869
1151.317298	0.113395
1151.472289	0.109106
1151.627263	0.115170
1151.782218	0.118229
1151.937155	0.123918
1152.092073	0.131667
1152.246974	0.130766
1152.401856	0.134117
1152.556720	0.128504
1152.711566	0.130018
1152.866393	0.133477
1153.021203	0.134792
1153.175994	0.138674
1153.330767	0.124324
1153.485521	0.131671
1153.640258	0.139606
1153.794976	0.138248
1153.949676	0.139919
1154.104358	0.136472
1154.259021	0.138139
1154.413667	0.137509
1154.568294	0.132045
1154.722903	0.137664
1154.877493	0.127694
1155.032066	0.122662
1155.186620	0.122619
1155.341156	0.129369
1155.495674	0.136632
1155.650173	0.138650
1155.804654	0.129635
1155.959118	0.130255
1156.113562	0.125649
1156.267989	0.132775
1156.422397	0.141922
1156.576788	0.141189
1156.731160	0.136552
1156.885513	0.135475
1157.039849	0.128206
1157.194166	0.133830
1157.348465	0.125917
1157.502746	0.135652
1157.657009	0.138493
1157.811253	0.140293
1157.965479	0.128577
1158.119687	0.139811
1158.273877	0.138326
1158.428048	0.137645
1158.582201	0.137348
1158.736337	0.145663
1158.890453	0.130385
1159.044552	0.124009
1159.198632	0.122453
1159.352694	0.129271
1159.506738	0.109559
1159.660764	0.118358
1159.814771	0.122382
1159.968761	0.124828
1160.122732	0.135491
1160.276685	0.145239
1160.430619	0.144406
1160.584535	0.138060
1160.738434	0.141138
1160.892313	0.153957
1161.046175	0.138721
1161.200019	0.130198
1161.353844	0.126593
1161.507651	0.119733
1161.661440	0.106518
1161.815210	0.111042
1161.968962	0.108698
1162.122697	0.105091
1162.276412	0.093075
1162.430110	0.093659
1162.583789	0.105367
1162.737451	0.107672
1162.891094	0.095801
1163.044718	0.106686
1163.198325	0.104381
1163.351913	0.109167
1163.505483	0.117005
1163.659035	0.113907
1163.812569	0.114566
1163.966084	0.111109
1164.119581	0.108192
1164.273060	0.134056
1164.426521	0.136320
1164.579964	0.138922
1164.733388	0.132181
1164.886794	0.137104
1165.040182	0.156261
1165.193551	0.154858
1165.346903	0.159955
1165.500236	0.178557
1165.653551	0.150723
1165.806848	0.146577
1165.960126	0.145875
1166.113386	0.155280
1166.266628	0.155922
1166.419852	0.150863
1166.573058	0.165563
1166.726245	0.154713
1166.879414	0.146495
1167.032565	0.178700
1167.185698	0.170897
1167.338812	0.156545
1167.491909	0.152558
1167.644987	0.143210
1167.798046	0.122597
1167.951088	0.115052
1168.104111	0.108960
1168.257117	0.095362
1168.410103	0.083169
1168.563072	0.088027
1168.716023	0.090629
1168.868955	0.088777
1169.021869	0.087687
1169.174765	0.104650
1169.327642	0.111229
1169.480501	0.122202
1169.633343	0.120960
1169.786165	0.118547
1169.938970	0.111438
1170.091757	0.118600
1170.244525	0.109393
1170.397275	0.114919
1170.550007	0.119027
1170.702720	0.112460
1170.855415	0.107019
1171.008092	0.125953
1171.160751	0.131148
1171.313392	0.152153
1171.466014	0.114686
1171.618619	0.208165
1171.771205	0.208165
1171.923772	0.208165
