sample name	sample
index	1432
start time	 05-10-2021  12:36:36 PM
880	0.353134
Peak Time (s)	92.536
Peak Height 	0.3531
calc peak height	90,93
Baseline Time (s)	9.036
Baseline Value 	-0.005335
subtract baseline	10,4
Abs	0.215989
Peak Time (s)	91.036
Peak Height 	0.216
calc peak height	90,93
Baseline Time (s)	10.036
Baseline Value 	4.0348E-4
subtract baseline	10,3
PK_550	0.115804
Peak Time (s)	91.036
Peak Height 	0.1158
calc peak height	90,93
Baseline Time (s)	11.037
Baseline Value 	-1.5571E-4
subtract baseline	10,2
PK_880	0.194354
Peak Time (s)	92.037
Peak Height 	0.1944
calc peak height	90,93
Baseline Time (s)	11.037
Baseline Value 	0.001519
subtract baseline	10,1


Time (s)	A880-A510	A880-A775	A880-A975	A880	I510	I775	I975	I880	
0.035500	-0.003262	0.000825	-0.003172	0.003231	6450.311506	43924.796108	3925.876490	22560.975499
0.536000	-0.003031	-0.000206	0.005581	0.005491	6433.531951	43615.372267	3942.605502	22458.711593
1.036500	-0.000163	0.000265	0.000529	0.004621	6464.508925	43741.210793	3931.803844	22498.039127
1.537000	-0.003164	-0.000027	0.000205	0.005829	6429.656648	43600.544701	3927.870274	22443.487997
2.037000	-0.000058	0.000951	0.001871	0.001996	6487.293633	44053.392351	3942.047948	22617.080864
2.537500	-0.001125	-0.000502	0.002857	0.001010	6486.627805	44009.366540	3947.178375	22662.030199
3.040500	0.001647	0.000265	0.004729	-0.000552	6523.083683	44230.140221	3956.159952	22733.349559
3.535000	-0.003559	0.000161	0.001223	0.005207	6431.527005	43676.424207	3932.079885	22471.553614
4.035500	0.000376	-0.000077	-0.002459	0.000282	6505.330238	44118.476064	3935.281284	22695.238455
4.538500	-0.000354	0.001361	0.001306	0.000966	6493.452446	44190.036722	3943.255477	22664.020719
5.035500	-0.000861	-0.000591	0.001784	-0.000976	6505.506033	44189.075320	3949.557145	22752.779091
5.536000	0.001469	0.000942	-0.003530	0.000313	6514.278257	44212.270775	3932.444352	22693.823194
6.036500	0.000222	0.000784	0.002864	0.000353	6503.439969	44193.424509	3948.907773	22691.981807
6.540000	-0.000188	0.000578	0.003295	-0.000094	6503.758358	44216.410618	3951.203298	22712.441358
7.037500	-0.000323	0.001146	0.003890	0.000721	6495.768764	44192.940576	3950.627635	22675.218686
7.540500	-0.000535	0.001059	0.001130	0.000639	6494.673823	44192.339199	3943.646315	22678.926787
8.035000	0.002547	0.000746	0.002291	0.000108	6525.127167	44213.179241	3948.053368	22703.204078
8.535000	-0.003615	-0.000615	0.000143	0.002697	6451.817080	43839.412060	3935.763184	22585.226080
9.035500	0.001338	0.000133	0.002691	0.000000	6515.819603	44165.135646	3949.377210	22708.122834
9.536000	0.001518	-0.000019	-0.001043	-0.000136	6518.478519	44163.606686	3940.020269	22714.323805
10.036000	0.001476	0.001365	0.000000	0.000803	6510.208582	44205.956960	3940.291799	22671.474521
10.536000	-0.000913	-0.000121	-0.000044	0.003590	6466.845155	43801.870701	3932.980044	22544.714063
11.037000	0.000000	0.000000	-0.001470	-0.000101	6505.387997	44162.076536	3938.824532	22712.719872
11.537000	-0.001263	0.000220	0.002886	-0.000306	6496.502825	44202.559414	3950.687436	22722.135353
12.037500	0.001738	0.000923	0.008018	0.000334	6516.371298	44208.507692	3962.493173	22692.868254
12.534000	-0.000366	0.000556	0.002203	0.000196	6499.815711	44186.690446	3947.593708	22699.173997
13.035000	0.000281	0.000917	0.000132	0.000172	6505.462208	44223.280162	3942.270195	22700.274106
13.535000	0.000653	0.000461	0.003085	0.000787	6503.408348	44121.603619	3948.351717	22672.173441
14.035500	-0.000196	0.000293	-0.001360	0.001955	6486.483285	43995.056745	3933.802294	22618.962165
14.535500	-0.004118	-0.000147	-0.000167	0.004143	6435.689667	43747.419266	3931.242004	22519.668000
15.036000	-0.001014	0.000221	0.003813	0.000129	6494.932625	44161.199143	3951.972805	22702.208948
15.536500	-0.004550	0.000450	0.002737	0.005829	6418.250855	43645.271700	3934.375857	22443.484446
16.037000	0.000825	0.001143	0.000612	0.000822	6504.567322	44182.979677	3941.827422	22670.581398
16.537500	-0.002271	-0.000342	-0.003340	0.002864	6461.592048	43849.395481	3926.387910	22577.660142
17.037000	-0.001178	0.000278	0.005132	-0.002826	6518.437460	44448.142416	3963.217305	22837.726782
17.535000	-0.000328	0.001516	0.006468	0.003241	6474.632470	43989.180757	3950.777223	22560.531569
18.035000	-0.001055	0.001288	0.003165	0.001706	6481.381319	44112.874388	3946.166188	22630.289958
18.535500	0.000260	-0.000043	-0.001827	0.001502	6494.105132	44006.219429	3933.766387	22639.591584
19.035500	-0.000804	0.000629	0.001844	0.001238	6487.403962	44094.774429	3943.946919	22651.633969
19.536000	-0.001851	0.000562	0.002117	0.001252	6478.521163	44087.088522	3944.620185	22650.974184
20.036500	-0.002272	-0.000690	-0.004187	-0.000105	6486.355317	44097.055903	3931.828340	22712.928997
20.537000	0.000153	0.001220	0.000857	0.002618	6483.861129	44020.090335	3937.812879	22588.824176
21.036500	-0.000539	0.000128	-0.001850	0.000710	6494.048164	44097.351108	3935.748311	22675.716102
21.537500	0.000588	0.000567	0.001091	0.001433	6497.435508	44070.457335	3941.484748	22642.725412
22.035000	-0.000830	0.001054	-0.002888	0.001427	6485.600900	44117.153850	3931.229611	22643.004170
22.535500	-0.002535	0.000917	-0.001397	0.002327	6463.858859	44018.911128	3932.750516	22602.054449
23.035500	-0.000406	0.001028	0.001287	0.001386	6489.492210	44118.579629	3942.113756	22644.858007
23.535500	-0.002738	0.000439	0.001448	0.000754	6475.276411	44122.604243	3944.173901	22673.676664
24.035500	0.000016	0.001083	-0.000294	0.001445	6492.530484	44118.181921	3937.867051	22642.167597
24.536000	-0.001271	0.000517	0.000464	0.002778	6470.626977	43938.511978	3936.383327	22581.551615
25.039500	0.000795	0.000860	0.001545	0.001927	6495.028724	44051.485788	3941.382119	22620.260746
25.536500	-0.002677	0.000408	0.000021	0.001057	6473.254320	44090.992102	3939.685858	22659.850044
26.037000	-0.001608	0.001055	-0.002779	0.001438	6479.003587	44116.249540	3931.481224	22642.521075
26.537500	-0.000977	-0.000026	0.002977	0.000982	6488.096323	44056.972473	3947.563206	22663.299688
27.037500	0.000972	0.000869	0.002890	-0.001282	6523.558745	44357.204629	3953.252993	22766.812423
27.535500	-0.003047	0.000626	0.004088	0.003561	6449.368002	43874.967900	3943.743160	22546.043928
28.035000	0.000406	0.000672	0.002456	0.000259	6505.781930	44191.786344	3948.088983	22696.293686
28.535500	-0.000985	0.000407	-0.001406	0.004918	6455.208180	43726.665724	3926.080249	22484.609719
29.036000	-0.001607	0.000546	-0.000184	0.000325	6488.322268	44173.568538	3941.053268	22693.280266
29.538500	-0.002319	-0.000400	-0.001844	0.003643	6454.717752	43770.669012	3928.221298	22542.301839
30.036500	0.000709	0.000790	0.001754	0.001141	6500.905316	44119.231069	3943.966078	22656.042738
30.537000	-0.002946	0.000681	0.001702	0.005125	6437.259917	43732.955973	3933.524154	22475.272691
31.037000	0.000412	0.001172	0.001856	0.002021	6491.028369	44071.988969	3941.944407	22615.954283
31.534500	-0.000507	0.000261	0.001306	0.002377	6480.355402	43952.254747	3939.596294	22599.772683
32.035000	-0.000023	0.000885	0.000128	0.000491	6500.215030	44189.939456	3941.430284	22685.673177
32.535000	-0.002752	0.000883	0.000358	0.004776	6441.742153	43784.729563	3930.963709	22491.014125
33.035500	0.000416	0.000359	-0.000985	0.000147	6506.809231	44172.695741	3939.437618	22701.404926
33.535500	-0.000336	0.000621	-0.003658	0.002577	6480.116413	43967.341903	3926.306025	22590.679999
34.038500	0.000278	0.000174	0.000850	0.000589	6501.924711	44113.165674	3943.050891	22681.213968
34.536500	-0.003764	0.001027	0.003224	0.003408	6444.693864	43927.202626	3941.894074	22552.954113
35.036500	-0.001075	0.000690	0.003076	0.001784	6480.566326	44048.837167	3945.731695	22626.750824
35.536500	-0.002649	0.000168	0.002772	0.001684	6468.267427	44008.919375	3945.199979	22631.310597
36.037000	-0.001480	0.000305	0.001063	0.001807	6476.985894	44010.204528	3940.443040	22625.705796
36.535000	0.000820	0.000562	0.003621	0.001266	6500.789453	44085.789672	3948.500254	22650.327391
37.035000	-0.001605	-0.000355	-0.002552	0.001110	6481.767298	44013.776411	3932.908521	22657.446634
37.535500	-0.000783	0.000827	0.002931	0.002409	6477.785619	44002.663770	3943.727306	22598.323458
38.035500	-0.000412	0.000970	0.001793	0.001940	6484.805078	44060.555580	3941.992124	22619.643732
38.535500	-0.003138	-0.000314	0.004019	0.001064	6469.358464	44021.953081	3950.068050	22659.557539
39.036500	-0.003070	-0.000339	0.002245	0.001230	6468.536258	44003.919955	3945.008321	22651.966451
39.536500	-0.002440	0.001016	0.003459	0.002149	6466.139849	44045.242945	3945.778051	22610.163132
40.037000	-0.000988	0.000473	0.005184	0.001448	6484.102687	44060.111710	3952.112030	22642.068965
40.537000	-0.000012	0.000639	0.001936	0.003122	6478.272292	43917.629346	3939.298840	22565.952279
41.037500	-0.000750	0.000840	-0.001945	0.001921	6482.140529	44050.149786	3932.385446	22620.528163
41.535000	-0.000079	0.000977	0.003444	0.001765	6489.062505	44077.855985	3946.740353	22627.629151
42.038000	0.000730	0.000572	-0.000618	0.001780	6495.717725	44038.023429	3936.164161	22626.913528
42.535500	-0.001043	0.000613	0.002355	0.003281	6468.334770	43900.066585	3939.971124	22558.716928
43.035500	-0.000643	0.000627	0.002049	0.001839	6483.718685	44037.735366	3942.917829	22624.262193
43.536000	-0.000922	0.000985	0.001875	0.001887	6480.987534	44067.074218	3942.341719	22622.084085
44.036000	0.002904	0.001428	0.003947	-0.001473	6541.555428	44428.713999	3956.528240	22775.560773
44.536500	-0.001540	0.000858	-0.000872	0.004425	6454.692504	43815.354044	3928.707260	22506.887011
45.037000	0.000521	0.001633	0.003261	0.000771	6502.438757	44234.420726	3948.854204	22672.928436
45.537000	-0.001060	0.000947	0.000769	0.001318	6484.583629	44117.336426	3940.948229	22647.956105
46.037500	0.000177	0.000772	0.003578	0.000346	6503.125287	44193.006550	3950.793232	22692.323675
46.535000	-0.001366	0.000929	0.005619	0.004055	6459.215205	43857.012833	3946.440352	22523.670768
47.036000	-0.001459	0.000287	0.002813	-0.000058	6492.774463	44185.262689	3949.847834	22710.775644
47.535500	-0.000273	0.000931	-0.005828	0.003118	6476.119961	43945.501183	3919.393371	22566.134628
48.035500	0.000269	0.001057	0.004377	0.003270	6479.377658	43943.077252	3945.249795	22559.230284
48.536000	-0.002375	0.001149	-0.000305	0.004642	6445.976062	43822.352404	3929.608177	22497.088158
49.036500	-0.001277	0.000290	0.003986	-0.000061	6494.330237	44185.931267	3952.924813	22710.932605
49.537000	-0.000434	0.001205	0.004077	0.001665	6486.917536	44108.869660	3948.649171	22632.153425
50.037000	0.002617	0.001665	0.004375	-0.001556	6539.815954	44459.330332	3957.869589	22779.352285
50.537000	-0.001253	0.000992	0.002632	0.004784	6454.102419	43794.324852	3936.801140	22490.679360
51.037500	0.000643	0.000081	0.003963	0.003451	6480.987336	43833.986404	3943.701692	22551.004914
51.537500	0.016028	-0.004190	0.041575	0.186456	5318.465997	29509.496736	3622.657778	15779.452061
52.035500	-0.002895	-0.023562	0.004861	0.045636	6118.196241	38082.409758	3841.366761	20728.154095
52.536000	-0.006407	-0.012719	0.011443	0.100315	5708.402936	34708.403860	3733.795917	18614.142975
53.035500	-0.021344	-0.055920	-0.026778	-0.214844	8555.802638	62362.793910	4553.192630	35411.996713
53.536500	-0.015974	-0.079862	-0.027388	-0.254657	9181.350895	64574.658952	4717.371437	38537.382003
54.036500	0.003880	-0.047125	-0.003466	-0.203012	8734.461525	61948.583201	4599.740264	34537.033187
54.536500	-0.000580	-0.024592	-0.004272	-0.124913	7715.794426	54861.775131	4303.276065	29323.131168
55.036500	-0.002966	-0.022981	0.003515	-0.134531	7797.496242	56221.748640	4364.120750	29915.758881
55.537500	-0.002590	-0.025168	-0.001214	-0.159418	8093.808759	59080.894625	4437.709426	31511.600045
56.038000	0.011905	-0.022943	0.020612	-0.145808	8104.499661	57628.179856	4468.691922	30627.550188
56.535000	0.018718	-0.010639	0.030679	-0.068782	7320.179172	50056.409842	4232.452488	26114.511454
57.035500	0.030719	0.000042	0.045049	-0.001200	6783.225112	44270.508931	4069.025234	22763.031589
57.536000	0.047232	0.012575	0.065295	0.039954	6566.301503	41634.611974	4010.097561	20963.494368
58.036500	0.068431	0.027599	0.075146	0.068575	6503.331617	40441.919220	3959.558346	19808.790327
58.536500	0.078494	0.032975	0.092342	0.099535	6331.726774	38296.542211	3923.858639	18642.484256
59.037000	0.092080	0.042221	0.105718	0.133695	6170.643758	36325.307078	3872.053834	17448.523283
59.536500	0.100028	0.048113	0.117984	0.163274	6009.330053	34553.211651	3830.756090	16487.910704
60.037000	0.113513	0.057318	0.118465	0.159673	6136.079285	35499.234518	3840.344728	16601.381299
60.540500	0.120663	0.060222	0.131414	0.167087	6134.087630	35162.936551	3853.493914	16368.772046
61.035000	0.130701	0.067481	0.138432	0.207704	5910.827239	32780.525173	3776.199388	15162.492397
61.535500	0.137880	0.072384	0.149317	0.226876	5827.468856	31816.046827	3758.035419	14631.132820
62.036000	0.141898	0.072107	0.165851	0.268899	5578.017489	29136.146544	3704.296543	13545.361005
62.536000	0.147728	0.081499	0.167065	0.285529	5511.023482	28703.145912	3673.293080	13143.862651
63.036500	0.148870	0.083247	0.165462	0.280110	5551.525468	29131.897607	3680.865693	13273.012595
63.539000	0.154161	0.087204	0.172022	0.278655	5593.813272	29460.295834	3696.989745	13307.969502
64.037000	0.157649	0.089155	0.172912	0.278426	5617.396767	29593.793149	3699.264235	13313.487432
64.537000	0.161233	0.092916	0.175082	0.280761	5625.359927	29681.407493	3698.926363	13257.411456
65.037000	0.161395	0.092325	0.179700	0.281345	5622.664795	29609.142917	3707.173893	13243.436148
65.535000	0.162983	0.092331	0.175675	0.283703	5617.749938	29465.128791	3694.160404	13187.199423
66.037500	0.163846	0.094623	0.176647	0.287332	5600.187160	29383.572443	3688.799176	13101.251760
66.535000	0.163945	0.095104	0.178781	0.289301	5588.368115	29293.148728	3689.132003	13054.921517
67.036000	0.167843	0.098069	0.183665	0.293280	5587.859653	29231.666615	3690.954873	12961.927162
67.536500	0.168028	0.099679	0.182792	0.296429	5569.245068	29138.688671	3682.884059	12888.941843
68.036500	0.170041	0.099430	0.188699	0.297821	5573.132525	29039.918619	3691.949553	12856.842174
68.536000	0.171151	0.100273	0.186331	0.303963	5541.766063	28723.338836	3674.937736	12716.422255
69.037000	0.174014	0.103167	0.186979	0.302469	5568.907262	28985.198585	3679.189416	12750.411802
69.537500	0.175761	0.103795	0.190981	0.304591	5566.557495	28895.729882	3682.936200	12702.179530
70.034500	0.174649	0.104909	0.191809	0.306223	5549.453919	28864.870969	3681.333770	12665.274630
70.535000	0.177872	0.104896	0.191271	0.308527	5555.173244	28726.908375	3675.683350	12613.386598
71.035500	0.179167	0.105777	0.200411	0.310861	5548.702763	28640.744823	3689.273484	12561.087156
71.535500	0.177921	0.106382	0.191945	0.313376	5525.441264	28527.968457	3667.451897	12505.071854
72.036000	0.177221	0.107372	0.200844	0.315512	5508.028490	28460.538249	3680.826928	12457.737339
72.536000	0.177152	0.107885	0.198456	0.322189	5467.063399	28100.879409	3662.945677	12311.280987
73.036500	0.180832	0.107343	0.195215	0.319429	5506.153735	28229.667657	3662.006666	12371.538894
73.537000	0.180661	0.107413	0.198188	0.320377	5499.322869	28178.627099	3665.966831	12350.807986
74.037000	0.180969	0.108516	0.204119	0.322894	5485.878631	28096.589308	3672.678497	12295.940772
74.534500	0.179657	0.108355	0.194964	0.327989	5447.281687	27793.920715	3645.000856	12185.863905
75.035000	0.184278	0.110844	0.205973	0.325094	5492.622243	28103.986511	3671.996970	12248.260930
75.535000	0.183000	0.111755	0.197906	0.327576	5469.844353	28013.155420	3651.436568	12194.749450
76.035500	0.187621	0.111586	0.204927	0.329060	5488.832120	27917.921802	3662.165274	12162.903358
76.535500	0.185368	0.112315	0.205510	0.336049	5433.278245	27560.447645	3649.765094	12014.358901
77.035500	0.185693	0.113946	0.206185	0.332815	5454.534404	27837.783085	3657.311403	12082.803792
77.539000	0.187208	0.112121	0.201773	0.333067	5462.120132	27719.039599	3648.316159	12077.453172
78.039000	0.188913	0.113401	0.202055	0.334549	5463.460386	27707.498488	3646.018155	12046.045893
78.537000	0.188837	0.113874	0.207652	0.335391	5457.945019	27686.494199	3655.164640	12028.254587
79.037500	0.188258	0.114265	0.205051	0.336773	5446.190452	27630.013703	3647.494356	11999.107152
79.534500	0.186291	0.113948	0.203625	0.336899	5433.712644	27604.870358	3644.526547	11996.459033
80.035000	0.187480	0.114134	0.206791	0.337331	5438.221660	27590.921192	3649.764336	11987.380760
80.535500	0.188299	0.114550	0.206553	0.337986	5439.199898	27577.344135	3648.050189	11973.623536
81.035500	0.186885	0.114275	0.198049	0.338483	5427.830519	27533.596372	3630.967674	11963.193770
81.536000	0.187206	0.115152	0.205907	0.340098	5420.161487	27491.855002	3642.777835	11929.405313
82.036500	0.189441	0.115087	0.208099	0.340277	5432.356432	27478.019709	3646.622066	11925.656092
82.542000	0.190898	0.116022	0.205596	0.340726	5438.353728	27505.502427	3640.990133	11916.281976
83.036500	0.190623	0.114901	0.209392	0.342013	5429.065384	27369.686796	3645.774270	11889.478966
83.545500	0.192090	0.114784	0.206772	0.340863	5444.650786	27427.875715	3642.967772	11913.432229
84.037500	0.189964	0.115280	0.207267	0.341708	5426.958855	27408.161596	3642.299775	11895.823211
84.534500	0.192033	0.116893	0.207754	0.343413	5429.123142	27403.037939	3639.985091	11860.425650
85.035500	0.188872	0.114233	0.206232	0.342425	5416.256885	27308.994643	3638.973196	11880.928966
85.535500	0.190483	0.114658	0.210620	0.342397	5425.954974	27334.466719	3647.389628	11881.505821
86.035500	0.190469	0.114151	0.205209	0.341923	5428.685384	27332.583191	3637.984902	11891.357350
86.535500	0.192779	0.114674	0.206526	0.342491	5439.050338	27330.064850	3639.404607	11879.559759
87.039000	0.193759	0.114644	0.209183	0.343005	5441.828674	27299.542560	3643.480777	11868.885947
87.536500	0.191870	0.115086	0.209748	0.343887	5425.344582	27274.830194	3642.876711	11850.598821
88.036500	0.194681	0.114346	0.210080	0.344270	5439.781040	27212.040534	3642.780314	11842.677779
88.537500	0.189435	0.113042	0.208240	0.348739	5382.500784	26891.496124	3630.845129	11750.703040
89.037500	0.190199	0.114761	0.211842	0.347895	5391.892342	27033.264097	3639.237669	11768.000305
89.535000	0.193074	0.115530	0.216896	0.346940	5414.405600	27129.144120	3650.718754	11787.615700
90.035000	0.191416	0.113878	0.208697	0.345172	5415.055370	27135.540259	3638.436075	11824.025895
90.535500	0.186770	0.112437	0.208048	0.350128	5358.976333	26781.788810	3627.881899	11722.308012
91.036000	0.191288	0.115804	0.215989	0.351325	5378.231350	26901.207869	3640.599071	11697.904410
91.535500	0.189722	0.113850	0.214607	0.346943	5394.668998	27035.554837	3646.319362	11787.539117
92.036500	0.194354	0.114227	0.213510	0.347383	5419.352720	27032.057039	3643.384603	11778.507557
92.536000	0.187465	0.113887	0.208025	0.353134	5345.660310	26696.514700	3622.232908	11661.156891
93.037000	0.191113	0.113567	0.212542	0.350767	5380.458634	26808.766665	3635.126263	11709.264296
93.537500	0.191532	0.114251	0.208707	0.348678	5395.110216	26961.615933	3631.836729	11751.937853
94.034500	0.191046	0.113955	0.210818	0.347949	5396.538861	26985.575547	3637.194962	11766.883531
94.538000	0.189657	0.113176	0.209610	0.353931	5353.687059	26614.190970	3623.698971	11645.022485
95.035500	0.188821	0.113984	0.209718	0.352697	5355.981390	26725.739915	3626.200889	11670.018133
95.535500	0.191907	0.113101	0.209516	0.349592	5391.955733	26847.768612	3631.640405	11733.246621
96.036500	0.193220	0.113813	0.215094	0.350643	5393.491496	26829.140243	3640.194857	11711.806291
96.536000	0.191608	0.113324	0.209178	0.349952	5388.099305	26840.203885	3630.328372	11725.890344
