sample name	sample
index	257
start time	 02-25-2021  10:48:00 AM


Wavelength (nm)	Absorbance
494.344910	-0.039197
494.563924	-0.039197
494.782919	-0.039197
495.001897	0.155606
495.220856	-0.045572
495.439797	-0.038304
495.658719	-0.037812
495.877624	-0.043508
496.096510	-0.075822
496.315378	-0.051012
496.534227	-0.049091
496.753059	-0.026314
496.971872	-0.021281
497.190667	0.040242
497.409444	0.054515
497.628203	0.058731
497.846943	0.060752
498.065665	0.064105
498.284369	0.064363
498.503055	0.063666
498.721723	0.062950
498.940372	0.065588
499.159003	0.065128
499.377616	0.064365
499.596210	0.064550
499.814787	0.063843
500.033345	0.064098
500.251885	0.064152
500.470406	0.064807
500.688910	0.065041
500.907395	0.063811
501.125862	0.064718
501.344311	0.065671
501.562742	0.065155
501.781154	0.065905
501.999548	0.065235
502.217924	0.064307
502.436282	0.064190
502.654621	0.064450
502.872942	0.065037
503.091245	0.064968
503.309530	0.063862
503.527797	0.064967
503.746045	0.065122
503.964275	0.065482
504.182487	0.066372
504.400681	0.065654
504.618856	0.066540
504.837013	0.066152
505.055152	0.066246
505.273273	0.067874
505.491376	0.067733
505.709460	0.068510
505.927526	0.069088
506.145574	0.069259
506.363604	0.069556
506.581615	0.068864
506.799608	0.068066
507.017583	0.068599
507.235540	0.068634
507.453478	0.069163
507.671399	0.068499
507.889301	0.067483
508.107185	0.066899
508.325050	0.067978
508.542898	0.068894
508.760727	0.069988
508.978538	0.069969
509.196330	0.069780
509.414105	0.069401
509.631861	0.069787
509.849599	0.070648
510.067319	0.071132
510.285021	0.070620
510.502704	0.069802
510.720369	0.069480
510.938016	0.068560
511.155645	0.068695
511.373255	0.068711
511.590848	0.068219
511.808422	0.067463
512.025977	0.067602
512.243515	0.067782
512.461034	0.068415
512.678536	0.068505
512.896018	0.070002
513.113483	0.069580
513.330930	0.069076
513.548358	0.069488
513.765768	0.070508
513.983160	0.070585
514.200533	0.071194
514.417889	0.070786
514.635226	0.071055
514.852545	0.070587
515.069845	0.071324
515.287128	0.072874
515.504392	0.072609
515.721638	0.072276
515.938866	0.073665
516.156075	0.073106
516.373267	0.073116
516.590440	0.073733
516.807594	0.073457
517.024731	0.073550
517.241850	0.073037
517.458950	0.073459
517.676032	0.074178
517.893095	0.072940
518.110141	0.073329
518.327168	0.073531
518.544177	0.072822
518.761168	0.072935
518.978141	0.072803
519.195095	0.072200
519.412031	0.072216
519.628949	0.071572
519.845849	0.071876
520.062731	0.072032
520.279594	0.072254
520.496439	0.072707
520.713266	0.073561
520.930074	0.073416
521.146865	0.073264
521.363637	0.074168
521.580391	0.074060
521.797127	0.074906
522.013844	0.074828
522.230543	0.075043
522.447224	0.075001
522.663887	0.075079
522.880532	0.075113
523.097158	0.076114
523.313766	0.075555
523.530356	0.076256
523.746928	0.075646
523.963481	0.076007
524.180017	0.076598
524.396534	0.076974
524.613032	0.076395
524.829513	0.076711
525.045975	0.076673
525.262420	0.077073
525.478845	0.076663
525.695253	0.076693
525.911643	0.076442
526.128014	0.075351
526.344367	0.075849
526.560702	0.076378
526.777018	0.076841
526.993316	0.076981
527.209597	0.076573
527.425858	0.077253
527.642102	0.077645
527.858328	0.078325
528.074535	0.078997
528.290724	0.078628
528.506894	0.079181
528.723047	0.078990
528.939181	0.079300
529.155297	0.080322
529.371395	0.080444
529.587475	0.081069
529.803536	0.080682
530.019579	0.080934
530.235604	0.081143
530.451611	0.080610
530.667600	0.080858
530.883570	0.080859
531.099522	0.080893
531.315456	0.081226
531.531372	0.081023
531.747269	0.081760
531.963148	0.082207
532.179009	0.082404
532.394852	0.082802
532.610676	0.083129
532.826482	0.083614
533.042271	0.083868
533.258040	0.083491
533.473792	0.083740
533.689525	0.083447
533.905240	0.083475
534.120937	0.083977
534.336616	0.084304
534.552277	0.084119
534.767919	0.083619
534.983543	0.083375
535.199149	0.083998
535.414736	0.083999
535.630306	0.084792
535.845857	0.085265
536.061390	0.085013
536.276904	0.084707
536.492401	0.085010
536.707879	0.085342
536.923339	0.085503
537.138781	0.085489
537.354204	0.085905
537.569610	0.085787
537.784997	0.086041
538.000366	0.086876
538.215716	0.087096
538.431049	0.087055
538.646363	0.086942
538.861659	0.086970
539.076937	0.087303
539.292196	0.087327
539.507438	0.087593
539.722661	0.087378
539.937866	0.086986
540.153052	0.087686
540.368221	0.088478
540.583371	0.089402
540.798503	0.089861
541.013617	0.089891
541.228712	0.090094
541.443789	0.090186
541.658848	0.090193
541.873889	0.090364
542.088912	0.090097
542.303916	0.089504
542.518902	0.088930
542.733870	0.088597
542.948820	0.088813
543.163752	0.088488
543.378665	0.088195
543.593560	0.088480
543.808437	0.088619
544.023295	0.088996
544.238136	0.089173
544.452958	0.090032
544.667762	0.090254
544.882548	0.090479
545.097315	0.091644
545.312064	0.092178
545.526795	0.092374
545.741508	0.092396
545.956203	0.092202
546.170879	0.092752
546.385537	0.092189
546.600177	0.092707
546.814799	0.092554
547.029402	0.091811
547.243988	0.091531
547.458555	0.091783
547.673103	0.091991
547.887634	0.092188
548.102146	0.092369
548.316640	0.092763
548.531116	0.093038
548.745574	0.093458
548.960013	0.093598
549.174435	0.094034
549.388838	0.093763
549.603222	0.093773
549.817589	0.094085
550.031937	0.093760
550.246267	0.094007
550.460579	0.093681
550.674873	0.093262
550.889148	0.093279
551.103405	0.093296
551.317644	0.093386
551.531865	0.093702
551.746068	0.093658
551.960252	0.094120
552.174418	0.094194
552.388566	0.094369
552.602696	0.094679
552.816807	0.094911
553.030900	0.094965
553.244975	0.095388
553.459032	0.095503
553.673070	0.095539
553.887091	0.095420
554.101093	0.095065
554.315077	0.095326
554.529042	0.095395
554.742990	0.095355
554.956919	0.095673
555.170830	0.095648
555.384722	0.095542
555.598597	0.095888
555.812453	0.095966
556.026291	0.096684
556.240111	0.096506
556.453913	0.096587
556.667696	0.096914
556.881461	0.097044
557.095208	0.096785
557.308937	0.096929
557.522647	0.096903
557.736339	0.097131
557.950013	0.096832
558.163669	0.096778
558.377307	0.096887
558.590926	0.097019
558.804527	0.097253
559.018110	0.097601
559.231675	0.097757
559.445221	0.097701
559.658749	0.097578
559.872259	0.097736
560.085751	0.098296
560.299225	0.098260
560.512680	0.098200
560.726117	0.097987
560.939536	0.098054
561.152937	0.098017
561.366319	0.098335
561.579683	0.098490
561.793029	0.098784
562.006357	0.098591
562.219667	0.099014
562.432958	0.099473
562.646231	0.099554
562.859486	0.099710
563.072723	0.099560
563.285941	0.099317
563.499141	0.099561
563.712323	0.099585
563.925487	0.099979
564.138632	0.099839
564.351760	0.099501
564.564869	0.099692
564.777960	0.100061
564.991032	0.100439
565.204087	0.100666
565.417123	0.100833
565.630141	0.100705
565.843140	0.100838
566.056122	0.100954
566.269085	0.101141
566.482030	0.101299
566.694957	0.101210
566.907866	0.101277
567.120756	0.101579
567.333628	0.101355
567.546482	0.101273
567.759318	0.101075
567.972135	0.101041
568.184935	0.101124
568.397716	0.101165
568.610478	0.100981
568.823223	0.100958
569.035949	0.101129
569.248657	0.101367
569.461347	0.101608
569.674019	0.101933
569.886672	0.102048
570.099308	0.101917
570.311925	0.101638
570.524523	0.101885
570.737104	0.101849
570.949666	0.101509
571.162210	0.101278
571.374736	0.101246
571.587244	0.101174
571.799733	0.101328
572.012205	0.101801
572.224658	0.102003
572.437092	0.101818
572.649509	0.102265
572.861907	0.102599
573.074287	0.103143
573.286649	0.103529
573.498993	0.103550
573.711318	0.103575
573.923625	0.103717
574.135914	0.103840
574.348185	0.104541
574.560438	0.104147
574.772672	0.103980
574.984888	0.103922
575.197086	0.103854
575.409266	0.104159
575.621427	0.104273
575.833570	0.104097
576.045695	0.104241
576.257802	0.103706
576.469890	0.104182
576.681961	0.104351
576.894013	0.104505
577.106046	0.104643
577.318062	0.104706
577.530059	0.104821
577.742039	0.105158
577.954000	0.105351
578.165942	0.105600
578.377867	0.105388
578.589773	0.105586
578.801661	0.105393
579.013531	0.105657
579.225382	0.105308
579.437216	0.105555
579.649031	0.105577
579.860828	0.105609
580.072606	0.106045
580.284367	0.106390
580.496109	0.106654
580.707833	0.107079
580.919539	0.107150
581.131227	0.107456
581.342896	0.107443
581.554547	0.107512
581.766180	0.107730
581.977795	0.107776
582.189391	0.108075
582.400969	0.108066
582.612529	0.107978
582.824071	0.107703
583.035595	0.107931
583.247100	0.108176
583.458587	0.108220
583.670056	0.108143
583.881506	0.107982
584.092939	0.107875
584.304353	0.108138
584.515749	0.108217
584.727127	0.108544
584.938486	0.108739
585.149828	0.108779
585.361151	0.108805
585.572456	0.108737
585.783742	0.108695
585.995011	0.108391
586.206261	0.108122
586.417493	0.108325
586.628706	0.108305
586.839902	0.108192
587.051079	0.108177
587.262238	0.108340
587.473379	0.108826
587.684502	0.108584
587.895606	0.109108
588.106692	0.109224
588.317760	0.109061
588.528810	0.109089
588.739841	0.109100
588.950855	0.109035
589.161850	0.109017
589.372827	0.108621
589.583785	0.108827
589.794726	0.108811
590.005648	0.108766
590.216552	0.109079
590.427437	0.109293
590.638305	0.109447
590.849154	0.109952
591.059985	0.109947
591.270798	0.109915
591.481592	0.110456
591.692369	0.110460
591.903127	0.110791
592.113867	0.110688
592.324588	0.110791
592.535292	0.110816
592.745977	0.110584
592.956644	0.110670
593.167293	0.111040
593.377923	0.110980
593.588536	0.110934
593.799130	0.110788
594.009706	0.110945
594.220263	0.111288
594.430803	0.111407
594.641324	0.111587
594.851827	0.111490
595.062312	0.111340
595.272778	0.111282
595.483227	0.111636
595.693657	0.111705
595.904069	0.111855
596.114462	0.111628
596.324838	0.111694
596.535195	0.111591
596.745534	0.111841
596.955855	0.112090
597.166157	0.112349
597.376441	0.112420
597.586707	0.112637
597.796955	0.112767
598.007185	0.112562
598.217396	0.112692
598.427589	0.112766
598.637764	0.112953
598.847921	0.112947
599.058060	0.112817
599.268180	0.112594
599.478282	0.112803
599.688366	0.112942
599.898431	0.113491
600.108479	0.113680
600.318508	0.113883
600.528519	0.114042
600.738511	0.114303
600.948486	0.114516
601.158442	0.114897
601.368380	0.115005
601.578300	0.114967
601.788202	0.114836
601.998085	0.114683
602.207950	0.114850
602.417797	0.114768
602.627626	0.114835
602.837436	0.115021
603.047228	0.115030
603.257002	0.115082
603.466758	0.114948
603.676496	0.115306
603.886215	0.115624
604.095916	0.115878
604.305599	0.116070
604.515264	0.115909
604.724910	0.115830
604.934538	0.115873
605.144148	0.115532
605.353740	0.115294
605.563314	0.115020
605.772869	0.115054
605.982406	0.114552
606.191925	0.114332
606.401425	0.114491
606.610908	0.114321
606.820372	0.114213
607.029818	0.114264
607.239246	0.114614
607.448655	0.114595
607.658047	0.114688
607.867420	0.114682
608.076775	0.114672
608.286111	0.114769
608.495430	0.115195
608.704730	0.115495
608.914012	0.115745
609.123275	0.115956
609.332521	0.115995
609.541748	0.115933
609.750957	0.116219
609.960148	0.116489
610.169321	0.116605
610.378475	0.116476
610.587611	0.116303
610.796729	0.116180
611.005829	0.116052
611.214910	0.115934
611.423974	0.115821
611.633019	0.115898
611.842045	0.116060
612.051054	0.116040
612.260044	0.116076
612.469017	0.116062
612.677970	0.116414
612.886906	0.117081
613.095824	0.117658
613.304723	0.117801
613.513604	0.117729
613.722467	0.117869
613.931311	0.117963
614.140138	0.118216
614.348946	0.118532
614.557736	0.118594
614.766507	0.118146
614.975261	0.118098
615.183996	0.118049
615.392713	0.118242
615.601412	0.118077
615.810092	0.117938
616.018754	0.117826
616.227399	0.117795
616.436024	0.117648
616.644632	0.117803
616.853222	0.117919
617.061793	0.118008
617.270346	0.118011
617.478880	0.118275
617.687397	0.118578
617.895895	0.118764
618.104375	0.118798
618.312837	0.119022
618.521281	0.118890
618.729706	0.118831
618.938113	0.118955
619.146502	0.119093
619.354873	0.119046
619.563226	0.119143
619.771560	0.119154
619.979876	0.119196
620.188174	0.119398
620.396453	0.119502
620.604715	0.119686
620.812958	0.119767
621.021183	0.119791
621.229390	0.119950
621.437578	0.119907
621.645748	0.119699
621.853900	0.119867
622.062034	0.119761
622.270150	0.119874
622.478247	0.119859
622.686326	0.119982
622.894387	0.120184
623.102430	0.119996
623.310454	0.120480
623.518461	0.121042
623.726449	0.121141
623.934418	0.121372
624.142370	0.121786
624.350303	0.122103
624.558218	0.122230
624.766115	0.122263
624.973994	0.122665
625.181855	0.122728
625.389697	0.122975
625.597521	0.123120
625.805327	0.123182
626.013114	0.123080
626.220883	0.123191
626.428634	0.123266
626.636367	0.123424
626.844082	0.123196
627.051778	0.123125
627.259457	0.122780
627.467117	0.122878
627.674758	0.122722
627.882382	0.122726
628.089987	0.122557
628.297574	0.122728
628.505143	0.122973
628.712694	0.123137
628.920226	0.122976
629.127740	0.122910
629.335236	0.122841
629.542714	0.123056
629.750174	0.123159
629.957615	0.123386
630.165038	0.123294
630.372443	0.122911
630.579829	0.122924
630.787198	0.123000
630.994548	0.123132
631.201880	0.123438
631.409194	0.123690
631.616489	0.123690
631.823766	0.123716
632.031025	0.123832
632.238266	0.124120
632.445489	0.124377
632.652693	0.124668
632.859879	0.124963
633.067047	0.124917
633.274197	0.125023
633.481329	0.125093
633.688442	0.125000
633.895537	0.125052
634.102614	0.124847
634.309672	0.124877
634.516713	0.124781
634.723735	0.124834
634.930739	0.124773
635.137724	0.124639
635.344692	0.124924
635.551641	0.125159
635.758572	0.124976
635.965485	0.125373
636.172379	0.125566
636.379256	0.125485
636.586114	0.125586
636.792954	0.125832
636.999775	0.125723
637.206579	0.125569
637.413364	0.125324
637.620131	0.125894
637.826880	0.125829
638.033610	0.125789
638.240323	0.126012
638.447017	0.125983
638.653692	0.126143
638.860350	0.126301
639.066990	0.126519
639.273611	0.126825
639.480214	0.126629
639.686798	0.126707
639.893365	0.126868
640.099913	0.126883
640.306443	0.127017
640.512955	0.126876
640.719449	0.127049
640.925924	0.126848
641.132381	0.127020
641.338820	0.127300
641.545241	0.127417
641.751644	0.127313
641.958028	0.127527
642.164394	0.127632
642.370742	0.127865
642.577071	0.127979
642.783383	0.128241
642.989676	0.128208
643.195951	0.128081
643.402207	0.128272
643.608446	0.128417
643.814666	0.128525
644.020868	0.128657
644.227052	0.128572
644.433218	0.128498
644.639365	0.128713
644.845494	0.128870
645.051605	0.129101
645.257698	0.129261
645.463772	0.129404
645.669828	0.129258
645.875866	0.129277
646.081886	0.129399
646.287888	0.129564
646.493871	0.129607
646.699836	0.129653
646.905783	0.129432
647.111712	0.129362
647.317622	0.129429
647.523514	0.129747
647.729388	0.129863
647.935244	0.129907
648.141082	0.130111
648.346901	0.130131
648.552702	0.130130
648.758485	0.130484
648.964250	0.130660
649.169996	0.130932
649.375724	0.131142
649.581434	0.131293
649.787126	0.131706
649.992800	0.131715
650.198455	0.131880
650.404092	0.131950
650.609711	0.132111
650.815311	0.132159
651.020894	0.132192
651.226458	0.132234
651.432004	0.132245
651.637532	0.132163
651.843041	0.132260
652.048532	0.132447
652.254006	0.132629
652.459460	0.132751
652.664897	0.132758
652.870315	0.132666
653.075716	0.132429
653.281097	0.132638
653.486461	0.132561
653.691807	0.132573
653.897134	0.132500
654.102443	0.132434
654.307734	0.132418
654.513006	0.132595
654.718261	0.132890
654.923497	0.133194
655.128715	0.133070
655.333915	0.133246
655.539096	0.133398
655.744259	0.133591
655.949404	0.133825
656.154531	0.133863
656.359640	0.133977
656.564730	0.134046
656.769802	0.133985
656.974856	0.133993
657.179892	0.134118
657.384909	0.134220
657.589908	0.134192
657.794889	0.134354
657.999852	0.134658
658.204797	0.134623
658.409723	0.134646
658.614631	0.135020
658.819521	0.135284
659.024393	0.135159
659.229246	0.135477
659.434081	0.135725
659.638898	0.136031
659.843697	0.136112
660.048478	0.136193
660.253240	0.136209
660.457984	0.136129
660.662710	0.136275
660.867417	0.136711
661.072107	0.136639
661.276778	0.136661
661.481431	0.136648
661.686066	0.136386
661.890682	0.136522
662.095281	0.136642
662.299861	0.136556
662.504422	0.136639
662.708966	0.136785
662.913491	0.136966
663.117999	0.137249
663.322488	0.137198
663.526958	0.137460
663.731411	0.137594
663.935845	0.137479
664.140261	0.138075
664.344659	0.138252
664.549038	0.138233
664.753400	0.138288
664.957743	0.138256
665.162068	0.138326
665.366375	0.138322
665.570663	0.138554
665.774933	0.138986
665.979185	0.138711
666.183419	0.138745
666.387635	0.138853
666.591832	0.138861
666.796011	0.138718
667.000172	0.138817
667.204315	0.138770
667.408439	0.138752
667.612545	0.138720
667.816634	0.138959
668.020703	0.138889
668.224755	0.138680
668.428788	0.138848
668.632803	0.139251
668.836800	0.139288
669.040779	0.139719
669.244739	0.139847
669.448681	0.140019
669.652605	0.140159
669.856511	0.140252
670.060399	0.140557
670.264268	0.140780
670.468119	0.140698
670.671952	0.140946
670.875767	0.141066
671.079563	0.141224
671.283341	0.141122
671.487101	0.140981
671.690843	0.141140
671.894567	0.141203
672.098272	0.140993
672.301959	0.141167
672.505628	0.141132
672.709278	0.141244
672.912911	0.141324
673.116525	0.141686
673.320121	0.141959
673.523699	0.142234
673.727258	0.142393
673.930799	0.142678
674.134322	0.142862
674.337827	0.143176
674.541314	0.143326
674.744782	0.143380
674.948232	0.143424
675.151664	0.143637
675.355078	0.143844
675.558474	0.144219
675.761851	0.144492
675.965210	0.144680
676.168551	0.144790
676.371873	0.144828
676.575178	0.144978
676.778464	0.145144
676.981732	0.145232
677.184981	0.145200
677.388213	0.145017
677.591426	0.144839
677.794621	0.144826
677.997798	0.144916
678.200956	0.144987
678.404097	0.145137
678.607219	0.145408
678.810323	0.145510
679.013408	0.145749
679.216476	0.145880
679.419525	0.146168
679.622556	0.146261
679.825569	0.146382
680.028563	0.146708
680.231540	0.146937
680.434498	0.146958
680.637438	0.146934
680.840359	0.146889
681.043263	0.146922
681.246148	0.147014
681.449015	0.147201
681.651864	0.147227
681.854694	0.147259
682.057506	0.147334
682.260301	0.147397
682.463076	0.147630
682.665834	0.147794
682.868573	0.148209
683.071295	0.148280
683.273998	0.148520
683.476682	0.148646
683.679349	0.148762
683.881997	0.148795
684.084627	0.148879
684.287239	0.148802
684.489833	0.148745
684.692408	0.148617
684.894965	0.148664
685.097504	0.148417
685.300025	0.148477
685.502527	0.148468
685.705012	0.148272
685.907478	0.148258
686.109925	0.148574
686.312355	0.148822
686.514766	0.148848
686.717159	0.148884
686.919534	0.149248
687.121891	0.149340
687.324230	0.149310
687.526550	0.149679
687.728852	0.149886
687.931136	0.149883
688.133401	0.149935
688.335649	0.150133
688.537878	0.150299
688.740089	0.150345
688.942281	0.150419
689.144456	0.150566
689.346612	0.150557
689.548750	0.150485
689.750870	0.150404
689.952971	0.150307
690.155055	0.150395
690.357120	0.150384
690.559167	0.150310
690.761195	0.150296
690.963206	0.150137
691.165198	0.150032
691.367172	0.150216
691.569128	0.150386
691.771065	0.150517
691.972984	0.150510
692.174885	0.150732
692.376768	0.150767
692.578633	0.150921
692.780479	0.151165
692.982308	0.151469
693.184118	0.151373
693.385909	0.151477
693.587683	0.151656
693.789438	0.151786
693.991175	0.151734
694.192894	0.151871
694.394595	0.151769
694.596277	0.151854
694.797941	0.151904
694.999587	0.152024
695.201215	0.152128
695.402824	0.152228
695.604416	0.152031
695.805989	0.151986
696.007543	0.152098
696.209080	0.152378
696.410598	0.152491
696.612099	0.152597
696.813580	0.152534
697.015044	0.152703
697.216490	0.152760
697.417917	0.153154
697.619326	0.153455
697.820717	0.153504
698.022089	0.153522
698.223444	0.153720
698.424780	0.153484
698.626098	0.153677
698.827397	0.153595
699.028679	0.153571
699.229942	0.153456
699.431187	0.153534
699.632414	0.153626
699.833622	0.153654
700.034813	0.153470
700.235985	0.153691
700.437139	0.153808
700.638274	0.153793
700.839392	0.154131
701.040491	0.154248
701.241572	0.154353
701.442635	0.154297
701.643679	0.154434
701.844706	0.154617
702.045714	0.154652
702.246704	0.154694
702.447675	0.154873
702.648629	0.154640
702.849564	0.154719
703.050481	0.154544
703.251380	0.154539
703.452260	0.154518
703.653122	0.154738
703.853966	0.155047
704.054792	0.155211
704.255600	0.155048
704.456389	0.155008
704.657160	0.154997
704.857913	0.155091
705.058648	0.155148
705.259365	0.154963
705.460063	0.154561
705.660743	0.154456
705.861405	0.154313
706.062048	0.154450
706.262674	0.154460
706.463281	0.154466
706.663870	0.154505
706.864441	0.154668
707.064993	0.154650
707.265527	0.154722
707.466043	0.154794
707.666541	0.154667
707.867021	0.154690
708.067482	0.154780
708.267925	0.155043
708.468350	0.155130
708.668757	0.155060
708.869145	0.155394
709.069516	0.155693
709.269868	0.155677
709.470201	0.156004
709.670517	0.156174
709.870814	0.156375
710.071093	0.156181
710.271354	0.156253
710.471597	0.156477
710.671821	0.156519
710.872028	0.156524
711.072216	0.156635
711.272385	0.156659
711.472537	0.156714
711.672670	0.156620
711.872785	0.156738
712.072882	0.156643
712.272961	0.156349
712.473021	0.156246
712.673063	0.156049
712.873087	0.155734
713.073093	0.155444
713.273081	0.155350
713.473050	0.155308
713.673001	0.155279
713.872934	0.155058
714.072849	0.155203
714.272745	0.155058
714.472623	0.155298
714.672483	0.155385
714.872325	0.155495
715.072148	0.155527
715.271954	0.155556
715.471741	0.155633
715.671509	0.155850
715.871260	0.155740
716.070992	0.156070
716.270707	0.155844
716.470403	0.155968
716.670080	0.156108
716.869740	0.156126
717.069381	0.156257
717.269004	0.156192
717.468609	0.156112
717.668195	0.156216
717.867764	0.156156
718.067314	0.156257
718.266846	0.156364
718.466360	0.156150
718.665855	0.156039
718.865332	0.155873
719.064791	0.155558
719.264232	0.155650
719.463655	0.155573
719.663059	0.155231
719.862445	0.155273
720.061813	0.155013
720.261163	0.155111
720.460494	0.155085
720.659807	0.154986
720.859102	0.155176
721.058379	0.155170
721.257638	0.155075
721.456878	0.155245
721.656100	0.155058
721.855304	0.155023
722.054490	0.154930
722.253657	0.154896
722.452806	0.154862
722.651937	0.154722
722.851050	0.154725
723.050145	0.154945
723.249221	0.154896
723.448279	0.154992
723.647319	0.155017
723.846340	0.155160
724.045344	0.154966
724.244329	0.155063
724.443296	0.155062
724.642245	0.154816
724.841175	0.154628
725.040088	0.154525
725.238982	0.154516
725.437857	0.154472
725.636715	0.154381
725.835554	0.154505
726.034376	0.154521
726.233179	0.154595
726.431963	0.154521
726.630730	0.154473
726.829478	0.154363
727.028208	0.154267
727.226920	0.154195
727.425614	0.154135
727.624289	0.154157
727.822946	0.153938
728.021585	0.153771
728.220206	0.153857
728.418808	0.153681
728.617392	0.153817
728.815958	0.153753
729.014506	0.153853
729.213036	0.153718
729.411547	0.153441
729.610040	0.153523
729.808515	0.153574
730.006972	0.153477
730.205410	0.153584
730.403831	0.153516
730.602233	0.153369
730.800616	0.153153
730.998982	0.153204
731.197329	0.153243
731.395658	0.153090
731.593969	0.152803
731.792262	0.152799
731.990536	0.152681
732.188793	0.152680
732.387031	0.152675
732.585250	0.152687
732.783452	0.152666
732.981635	0.152677
733.179800	0.152593
733.377947	0.152959
733.576076	0.152970
733.774186	0.152891
733.972278	0.152927
734.170352	0.152694
734.368408	0.152680
734.566446	0.152429
734.764465	0.152270
734.962466	0.152237
735.160449	0.151810
735.358413	0.151703
735.556360	0.151608
735.754288	0.151450
735.952198	0.151625
736.150090	0.151569
736.347963	0.151639
736.545818	0.151710
736.743655	0.151594
736.941474	0.151898
737.139275	0.151768
737.337057	0.151666
737.534821	0.151441
737.732567	0.151243
737.930295	0.151150
738.128005	0.150871
738.325696	0.150705
738.523369	0.150634
738.721024	0.150435
738.918660	0.150343
739.116279	0.150283
739.313879	0.150337
739.511461	0.150329
739.709024	0.150290
739.906570	0.150425
740.104097	0.150347
740.301606	0.150370
740.499097	0.150071
740.696569	0.149847
740.894024	0.150045
741.091460	0.149781
741.288878	0.149750
741.486277	0.149544
741.683659	0.149443
741.881022	0.149306
742.078367	0.149386
742.275694	0.149549
742.473002	0.149748
742.670293	0.149691
742.867565	0.149720
743.064819	0.149635
743.262054	0.149717
743.459272	0.149688
743.656471	0.149697
743.853652	0.149345
744.050815	0.149114
744.247959	0.148813
744.445085	0.148545
744.642194	0.148552
744.839283	0.148532
745.036355	0.148506
745.233408	0.148305
745.430444	0.148100
745.627461	0.148271
745.824459	0.148120
746.021440	0.148229
746.218402	0.148126
746.415346	0.147898
746.612272	0.147814
746.809180	0.147477
747.006069	0.147259
747.202940	0.147333
747.399793	0.147190
747.596628	0.147385
747.793444	0.147339
747.990243	0.147382
748.187023	0.147656
748.383784	0.147537
748.580528	0.147609
748.777253	0.147768
748.973960	0.147729
749.170649	0.147776
749.367320	0.147575
749.563973	0.147546
749.760607	0.147339
749.957223	0.147173
750.153821	0.146984
750.350400	0.147073
750.546962	0.147058
750.743505	0.146945
750.940030	0.146735
751.136536	0.146697
751.333025	0.146472
751.529495	0.146519
751.725947	0.146498
751.922381	0.146583
752.118796	0.146454
752.315194	0.146403
752.511573	0.146483
752.707934	0.146526
752.904276	0.146554
753.100601	0.146739
753.296907	0.146740
753.493195	0.146611
753.689465	0.146532
753.885716	0.146663
754.081949	0.146703
754.278164	0.146629
754.474361	0.146672
754.670540	0.146678
754.866700	0.146705
755.062843	0.146876
755.258967	0.147013
755.455072	0.147098
755.651160	0.146750
755.847229	0.146381
756.043280	0.146249
756.239313	0.145926
756.435328	0.145779
756.631324	0.145690
756.827302	0.145214
757.023262	0.144868
757.219204	0.144702
757.415127	0.144741
757.611033	0.144849
757.806920	0.144880
758.002788	0.144702
758.198639	0.144451
758.394471	0.143968
758.590286	0.144014
758.786081	0.143862
758.981859	0.143722
759.177619	0.143635
759.373360	0.143659
759.569083	0.143446
759.764788	0.143680
759.960474	0.143678
760.156143	0.144015
760.351793	0.143905
760.547425	0.144005
760.743038	0.143820
760.938634	0.143551
761.134211	0.143195
761.329770	0.143116
761.525311	0.142817
761.720833	0.142895
761.916338	0.142822
762.111824	0.142832
762.307292	0.142964
762.502741	0.143154
762.698173	0.143450
762.893586	0.143827
763.088981	0.143806
763.284358	0.143853
763.479716	0.143701
763.675057	0.143711
763.870379	0.143582
764.065683	0.143459
764.260968	0.143333
764.456236	0.143068
764.651485	0.142827
764.846716	0.142759
765.041929	0.142799
765.237123	0.142735
765.432299	0.142531
765.627457	0.142572
765.822597	0.142415
766.017719	0.142593
766.212822	0.142860
766.407907	0.142878
766.602974	0.143029
766.798023	0.142957
766.993054	0.143139
767.188066	0.142990
767.383060	0.143053
767.578036	0.143016
767.772993	0.142801
767.967933	0.142485
768.162854	0.142507
768.357757	0.142499
768.552642	0.142423
768.747508	0.142190
768.942356	0.142108
769.137186	0.141890
769.331998	0.141882
769.526792	0.141764
769.721567	0.141806
769.916324	0.141785
770.111063	0.141667
770.305784	0.141651
770.500486	0.141740
770.695171	0.141600
770.889837	0.141562
771.084484	0.141646
771.279114	0.141654
771.473725	0.141677
771.668318	0.141480
771.862893	0.141509
772.057450	0.141624
772.251988	0.141451
772.446509	0.141786
772.641011	0.141971
772.835494	0.141818
773.029960	0.141928
773.224407	0.141913
773.418836	0.141884
773.613247	0.141748
773.807640	0.141655
774.002014	0.141572
774.196370	0.141445
774.390708	0.141406
774.585028	0.141387
774.779330	0.141270
774.973613	0.141087
775.167878	0.141027
775.362125	0.141192
775.556354	0.140953
775.750564	0.141053
775.944756	0.141042
776.138930	0.140995
776.333086	0.140961
776.527223	0.140915
776.721343	0.140807
776.915444	0.140770
777.109526	0.140757
777.303591	0.140985
777.497637	0.140883
777.691666	0.140996
777.885676	0.140644
778.079667	0.140712
778.273641	0.140747
778.467596	0.140979
778.661533	0.141243
778.855452	0.141371
779.049352	0.141401
779.243235	0.141402
779.437099	0.141128
779.630945	0.141478
779.824773	0.141471
780.018582	0.141611
780.212373	0.141601
780.406146	0.141396
780.599901	0.141135
780.793638	0.141049
780.987356	0.141360
781.181056	0.141520
781.374738	0.141427
781.568402	0.141342
781.762047	0.141204
781.955674	0.141275
782.149283	0.141422
782.342874	0.141451
782.536447	0.141397
782.730001	0.141077
782.923537	0.141083
783.117055	0.141139
783.310555	0.141090
783.504036	0.141018
783.697499	0.140722
783.890944	0.140670
784.084371	0.140546
784.277780	0.140460
784.471170	0.140517
784.664542	0.140231
784.857896	0.140201
785.051231	0.140142
785.244549	0.140061
785.437848	0.140177
785.631129	0.140015
785.824392	0.139915
786.017636	0.139756
786.210863	0.139752
786.404071	0.140057
786.597260	0.139708
786.790432	0.139746
786.983585	0.139675
787.176721	0.139728
787.369838	0.139844
787.562936	0.139767
787.756017	0.139817
787.949079	0.139675
788.142123	0.139392
788.335149	0.139570
788.528156	0.139438
788.721146	0.139627
788.914117	0.139389
789.107070	0.139187
789.300005	0.139391
789.492921	0.139511
789.685819	0.139448
789.878699	0.139556
790.071561	0.139651
790.264405	0.139851
790.457230	0.139752
790.650037	0.139950
790.842826	0.140133
791.035597	0.140225
791.228349	0.140321
791.421084	0.140347
791.613800	0.140473
791.806497	0.140533
791.999177	0.140684
792.191838	0.140868
792.384481	0.141067
792.577106	0.140988
792.769713	0.141094
792.962301	0.141136
793.154871	0.141666
793.347423	0.141699
793.539957	0.142011
793.732473	0.142261
793.924970	0.142291
794.117449	0.142556
794.309910	0.142781
794.502353	0.142831
794.694777	0.142871
794.887183	0.142733
795.079571	0.142841
795.271941	0.142763
795.464293	0.142558
795.656626	0.142505
795.848941	0.142251
796.041238	0.142184
796.233516	0.141985
796.425777	0.142292
796.618019	0.142327
796.810243	0.142609
797.002449	0.142538
797.194636	0.142888
797.386805	0.143043
797.578956	0.143077
797.771089	0.143284
797.963204	0.143487
798.155300	0.143419
798.347378	0.143305
798.539438	0.142916
798.731480	0.142956
798.923503	0.142907
799.115509	0.142940
799.307496	0.143121
799.499465	0.143098
799.691415	0.143172
799.883348	0.143088
800.075262	0.143265
800.267158	0.143414
800.459035	0.143518
800.650895	0.143238
800.842736	0.143410
801.034559	0.143294
801.226364	0.143639
801.418150	0.143878
801.609919	0.143844
801.801669	0.144165
801.993401	0.144389
802.185114	0.144624
802.376810	0.144810
802.568487	0.144757
802.760146	0.144854
802.951787	0.144988
803.143409	0.145059
803.335014	0.145502
803.526600	0.145367
803.718168	0.145425
803.909717	0.145499
804.101249	0.145732
804.292762	0.146067
804.484257	0.146118
804.675734	0.146048
804.867192	0.146170
805.058632	0.146256
805.250054	0.146264
805.441458	0.146442
805.632844	0.146420
805.824211	0.146349
806.015561	0.146295
806.206891	0.146245
806.398204	0.146318
806.589499	0.146314
806.780775	0.146086
806.972033	0.146346
807.163273	0.146516
807.354495	0.146601
807.545698	0.146871
807.736883	0.146941
807.928050	0.147166
808.119199	0.147214
808.310329	0.147353
808.501441	0.147609
808.692535	0.147483
808.883611	0.147363
809.074669	0.147327
809.265708	0.147214
809.456729	0.147484
809.647732	0.147718
809.838717	0.147733
810.029683	0.147583
810.220632	0.147409
810.411562	0.147574
810.602474	0.147668
810.793367	0.147757
810.984242	0.147739
811.175100	0.147727
811.365938	0.147849
811.556759	0.147860
811.747562	0.148004
811.938346	0.148311
812.129112	0.148398
812.319860	0.148620
812.510589	0.148905
812.701300	0.149295
812.891994	0.149300
813.082668	0.149326
813.273325	0.149607
813.463964	0.149745
813.654584	0.149948
813.845186	0.150294
814.035769	0.150374
814.226335	0.150519
814.416882	0.150693
814.607411	0.150760
814.797922	0.150861
814.988415	0.150981
815.178889	0.151053
815.369345	0.151006
815.559783	0.151135
815.750203	0.151468
815.940605	0.151605
816.130988	0.151621
816.321353	0.151864
816.511700	0.152099
816.702028	0.152067
816.892339	0.152174
817.082631	0.152451
817.272905	0.152356
817.463161	0.152278
817.653398	0.152279
817.843617	0.152286
818.033819	0.152401
818.224001	0.152564
818.414166	0.152781
818.604312	0.153033
818.794440	0.153289
818.984550	0.153434
819.174642	0.153502
819.364716	0.153662
819.554771	0.154187
819.744808	0.154204
819.934827	0.154107
820.124827	0.154228
820.314810	0.154330
820.504774	0.154249
820.694720	0.154511
820.884647	0.154624
821.074557	0.155006
821.264448	0.154812
821.454321	0.154968
821.644176	0.155194
821.834012	0.155567
822.023831	0.155645
822.213631	0.155771
822.403413	0.155821
822.593176	0.155896
822.782922	0.155840
822.972649	0.156095
823.162358	0.156463
823.352049	0.156671
823.541721	0.156295
823.731376	0.156514
823.921012	0.156675
824.110629	0.157131
824.300229	0.157429
824.489811	0.157379
824.679374	0.157454
824.868919	0.157455
825.058445	0.157340
825.247954	0.157684
825.437444	0.157608
825.626916	0.157300
825.816370	0.157151
826.005806	0.157020
826.195223	0.157209
826.384622	0.157390
826.574003	0.157343
826.763366	0.157773
826.952711	0.157912
827.142037	0.158281
827.331345	0.158787
827.520635	0.158767
827.709906	0.159046
827.899160	0.159080
828.088395	0.159183
828.277612	0.159450
828.466810	0.159555
828.655991	0.159732
828.845153	0.159820
829.034297	0.159960
829.223423	0.160241
829.412531	0.160417
829.601620	0.160953
829.790691	0.160972
829.979744	0.161137
830.168779	0.161341
830.357795	0.161617
830.546793	0.161820
830.735773	0.161818
830.924735	0.161954
831.113679	0.162049
831.302604	0.162056
831.491511	0.162396
831.680400	0.162715
831.869271	0.162612
832.058123	0.162655
832.246957	0.162919
832.435773	0.163383
832.624571	0.163755
832.813351	0.164336
833.002112	0.164393
833.190855	0.164297
833.379580	0.164044
833.568287	0.164196
833.756975	0.164246
833.945645	0.164259
834.134297	0.164200
834.322931	0.164168
834.511547	0.164105
834.700144	0.164350
834.888723	0.164430
835.077284	0.164590
835.265826	0.164651
835.454351	0.164826
835.642857	0.164873
835.831345	0.165194
836.019815	0.165190
836.208266	0.165315
836.396699	0.165493
836.585114	0.166120
836.773511	0.166602
836.961890	0.167226
837.150250	0.167642
837.338592	0.167795
837.526916	0.168055
837.715222	0.168354
837.903510	0.168818
838.091779	0.168892
838.280030	0.168756
838.468263	0.169134
838.656477	0.169130
838.844674	0.169171
839.032852	0.169524
839.221012	0.169434
839.409153	0.169561
839.597277	0.169548
839.785382	0.169523
839.973469	0.169866
840.161538	0.169690
840.349589	0.169645
840.537621	0.169636
840.725635	0.169713
840.913631	0.170198
841.101609	0.170483
841.289568	0.170253
841.477509	0.170664
841.665432	0.170662
841.853337	0.171168
842.041224	0.171640
842.229092	0.172059
842.416942	0.172583
842.604774	0.172690
842.792588	0.172799
842.980383	0.173405
843.168160	0.173694
843.355919	0.173890
843.543660	0.173837
843.731382	0.174086
843.919087	0.174331
844.106773	0.174418
844.294441	0.174721
844.482090	0.175167
844.669722	0.175203
844.857335	0.175178
845.044930	0.175635
845.232507	0.176106
845.420065	0.176403
845.607605	0.176429
845.795127	0.176494
845.982631	0.176693
846.170117	0.176935
846.357584	0.177463
846.545033	0.178041
846.732464	0.178260
846.919877	0.178247
847.107272	0.178331
847.294648	0.178713
847.482006	0.178982
847.669346	0.179302
847.856667	0.179425
848.043971	0.179399
848.231256	0.179188
848.418523	0.179149
848.605771	0.179173
848.793002	0.179233
848.980214	0.179074
849.167408	0.179057
849.354584	0.178990
849.541742	0.179036
849.728881	0.179275
849.916002	0.179526
850.103105	0.179839
850.290190	0.180254
850.477256	0.180413
850.664304	0.180977
850.851334	0.181320
851.038346	0.181547
851.225340	0.181576
851.412315	0.181656
851.599272	0.181834
851.786211	0.182166
851.973132	0.182076
852.160034	0.182080
852.346918	0.182232
852.533784	0.182112
852.720632	0.182275
852.907462	0.182551
853.094273	0.182398
853.281066	0.182788
853.467841	0.182761
853.654598	0.183192
853.841336	0.183648
854.028056	0.183790
854.214758	0.184274
854.401442	0.184372
854.588107	0.184555
854.774755	0.184871
854.961384	0.184922
855.147995	0.185249
855.334587	0.185599
855.521162	0.185843
855.707718	0.185926
855.894256	0.186206
856.080775	0.186424
856.267277	0.186652
856.453760	0.186856
856.640225	0.186934
856.826672	0.186803
857.013101	0.186759
857.199511	0.186786
857.385903	0.186854
857.572277	0.186622
857.758633	0.186504
857.944970	0.186769
858.131290	0.186998
858.317591	0.187357
858.503873	0.187682
858.690138	0.187944
858.876384	0.187978
859.062612	0.188236
859.248822	0.188747
859.435014	0.189156
859.621188	0.189077
859.807343	0.189151
859.993480	0.189188
860.179599	0.189447
860.365699	0.189479
860.551781	0.189485
860.737846	0.189619
860.923891	0.189597
861.109919	0.190004
861.295929	0.190411
861.481920	0.190601
861.667893	0.190720
861.853848	0.190402
862.039784	0.190304
862.225702	0.190588
862.411603	0.190730
862.597484	0.191016
862.783348	0.190815
862.969193	0.191135
863.155021	0.191126
863.340830	0.191131
863.526620	0.191520
863.712393	0.192064
863.898147	0.192391
864.083883	0.192672
864.269601	0.192562
864.455301	0.192845
864.640982	0.192748
864.826645	0.193428
865.012290	0.193874
865.197917	0.194114
865.383526	0.193912
865.569116	0.194050
865.754688	0.193835
865.940242	0.193971
866.125777	0.194015
866.311295	0.194039
866.496794	0.193885
866.682275	0.194083
866.867737	0.193965
867.053182	0.194323
867.238608	0.193973
867.424016	0.194225
867.609406	0.194218
867.794778	0.194518
867.980131	0.194641
868.165466	0.194538
868.350783	0.194327
868.536082	0.194739
868.721362	0.194551
868.906625	0.194939
869.091869	0.195013
869.277094	0.195457
869.462302	0.195482
869.647491	0.195805
869.832662	0.196069
870.017815	0.196077
870.202950	0.195962
870.388066	0.196590
870.573165	0.196799
870.758245	0.196901
870.943306	0.197155
871.128350	0.197279
871.313375	0.196875
871.498382	0.196601
871.683371	0.197004
871.868342	0.197308
872.053294	0.197246
872.238229	0.197435
872.423144	0.197701
872.608042	0.197738
872.792922	0.197944
872.977783	0.198517
873.162626	0.199185
873.347451	0.199234
873.532258	0.199357
873.717046	0.199310
873.901816	0.199484
874.086568	0.199469
874.271302	0.199527
874.456017	0.199615
874.640715	0.199650
874.825394	0.199595
875.010055	0.199345
875.194697	0.199112
875.379322	0.199422
875.563928	0.199327
875.748516	0.199516
875.933085	0.199078
876.117637	0.198869
876.302170	0.198819
876.486685	0.198739
876.671182	0.198858
876.855661	0.199043
877.040121	0.198801
877.224563	0.198905
877.408987	0.198883
877.593393	0.199189
877.777780	0.199437
877.962150	0.199506
878.146501	0.199868
878.330833	0.200162
878.515148	0.200221
878.699444	0.200468
878.883722	0.200355
879.067982	0.200658
879.252224	0.200956
879.436447	0.201035
879.620653	0.201416
879.804840	0.201119
879.989008	0.201158
880.173159	0.201404
880.357291	0.201210
880.541405	0.201209
880.725501	0.201481
880.909579	0.201474
881.093638	0.201301
881.277680	0.201131
881.461703	0.201185
881.645707	0.201288
881.829694	0.201198
882.013662	0.201278
882.197612	0.201442
882.381544	0.200996
882.565458	0.200813
882.749353	0.201060
882.933230	0.201014
883.117089	0.201230
883.300930	0.201237
883.484753	0.201202
883.668557	0.201294
883.852343	0.201162
884.036111	0.201396
884.219861	0.201242
884.403592	0.201331
884.587305	0.201364
884.771000	0.201559
884.954677	0.201811
885.138335	0.201793
885.321976	0.201743
885.505598	0.201692
885.689201	0.201401
885.872787	0.201814
886.056354	0.201419
886.239904	0.201556
886.423434	0.201237
886.606947	0.200973
886.790442	0.201204
886.973918	0.201253
887.157376	0.201428
887.340816	0.201563
887.524237	0.201820
887.707641	0.202557
887.891026	0.202584
888.074393	0.202325
888.257741	0.202436
888.441072	0.202303
888.624384	0.202213
888.807678	0.202440
888.990954	0.202430
889.174211	0.202135
889.357451	0.201562
889.540672	0.201297
889.723875	0.201708
889.907059	0.201694
890.090226	0.201721
890.273374	0.201593
890.456504	0.201415
890.639616	0.201314
890.822709	0.201171
891.005785	0.200656
891.188842	0.200509
891.371881	0.200648
891.554901	0.200530
891.737904	0.200877
891.920888	0.201259
892.103854	0.201294
892.286802	0.201576
892.469731	0.201378
892.652643	0.201993
892.835536	0.202204
893.018410	0.201813
893.201267	0.201673
893.384106	0.201357
893.566926	0.201102
893.749728	0.200871
893.932511	0.200778
894.115277	0.200731
894.298024	0.200986
894.480753	0.200935
894.663464	0.200900
894.846157	0.201213
895.028831	0.200822
895.211487	0.200702
895.394125	0.200932
895.576745	0.200447
895.759346	0.200513
895.941930	0.199819
896.124495	0.199817
896.307041	0.199653
896.489570	0.199465
896.672080	0.199810
896.854573	0.199716
897.037046	0.199468
897.219502	0.199666
897.401940	0.199776
897.584359	0.199739
897.766760	0.199798
897.949143	0.199847
898.131507	0.199471
898.313854	0.198858
898.496182	0.198729
898.678492	0.198847
898.860783	0.198360
899.043057	0.197908
899.225312	0.198029
899.407549	0.197792
899.589768	0.197846
899.771968	0.197323
899.954151	0.197289
900.136315	0.197243
900.318461	0.196695
900.500588	0.196745
900.682698	0.196661
900.864789	0.196170
901.046862	0.195397
901.228917	0.195397
901.410953	0.195524
901.592971	0.195392
901.774972	0.195052
901.956953	0.194697
902.138917	0.195107
902.320862	0.195468
902.502790	0.195720
902.684699	0.195897
902.866589	0.195095
903.048462	0.195252
903.230316	0.195354
903.412152	0.195170
903.593970	0.195479
903.775770	0.194809
903.957551	0.194091
904.139314	0.193902
904.321059	0.194001
904.502786	0.194083
904.684494	0.193851
904.866185	0.193840
905.047857	0.193683
905.229510	0.193223
905.411146	0.193083
905.592763	0.193337
905.774363	0.192480
905.955943	0.192178
906.137506	0.192002
906.319051	0.191356
906.500577	0.190505
906.682085	0.190286
906.863575	0.190301
907.045046	0.189904
907.226500	0.189671
907.407935	0.189933
907.589352	0.189858
907.770750	0.189631
907.952131	0.189566
908.133493	0.189587
908.314837	0.189705
908.496163	0.189525
908.677470	0.189947
908.858760	0.189260
909.040031	0.189232
909.221284	0.188566
909.402518	0.188198
909.583735	0.188294
909.764933	0.187637
909.946113	0.186940
910.127275	0.186467
910.308418	0.185755
910.489544	0.185693
910.670651	0.185512
910.851740	0.185436
911.032810	0.185519
911.213863	0.185419
911.394897	0.185771
911.575913	0.186052
911.756911	0.186203
911.937890	0.186093
912.118851	0.186339
912.299794	0.185841
912.480719	0.185328
912.661626	0.185061
912.842514	0.184740
913.023384	0.184452
913.204236	0.183888
913.385070	0.183921
913.565886	0.183658
913.746683	0.183041
913.927462	0.182715
914.108223	0.182981
914.288965	0.182759
914.469690	0.181960
914.650396	0.181245
914.831084	0.181244
915.011754	0.180369
915.192405	0.179766
915.373038	0.179444
915.553653	0.179012
915.734250	0.178569
915.914829	0.178178
916.095389	0.177845
916.275931	0.177677
916.456455	0.176989
916.636961	0.176577
916.817448	0.176855
916.997917	0.176401
917.178368	0.176430
917.358801	0.175971
917.539216	0.175321
917.719612	0.175705
917.899990	0.175572
918.080350	0.175195
918.260692	0.174705
918.441015	0.173815
918.621320	0.173379
918.801607	0.172970
918.981876	0.172608
919.162127	0.172501
919.342359	0.171687
919.522573	0.171706
919.702769	0.171933
919.882947	0.171500
920.063106	0.171316
920.243247	0.170800
920.423370	0.170451
920.603475	0.169966
920.783562	0.169584
920.963630	0.169398
921.143680	0.168699
921.323712	0.167929
921.503725	0.167723
921.683721	0.167323
921.863698	0.167013
922.043657	0.166471
922.223598	0.166080
922.403520	0.165583
922.583424	0.165518
922.763311	0.165177
922.943178	0.164865
923.123028	0.164915
923.302859	0.164176
923.482673	0.164056
923.662467	0.163591
923.842244	0.163257
924.022003	0.163138
924.201743	0.162328
924.381465	0.161634
924.561169	0.161397
924.740854	0.160860
924.920522	0.160895
925.100171	0.160016
925.279802	0.159825
925.459414	0.159386
925.639009	0.158718
925.818585	0.158731
925.998143	0.158939
926.177683	0.158420
926.357205	0.157817
926.536708	0.157110
926.716193	0.156979
926.895660	0.156650
927.075109	0.156481
927.254539	0.156071
927.433951	0.155364
927.613345	0.154242
927.792721	0.153762
927.972079	0.153466
928.151418	0.153028
928.330739	0.152878
928.510042	0.151977
928.689327	0.150982
928.868593	0.150516
929.047841	0.150322
929.227071	0.150434
929.406283	0.149184
929.585476	0.148876
929.764652	0.148318
929.943809	0.147597
930.122948	0.147354
930.302068	0.147565
930.481171	0.146648
930.660255	0.145321
930.839321	0.143923
931.018369	0.143646
931.197398	0.142390
931.376409	0.142144
931.555402	0.141115
931.734377	0.140431
931.913334	0.139638
932.092272	0.139836
932.271192	0.138672
932.450094	0.138847
932.628978	0.138438
932.807844	0.138399
932.986691	0.137565
933.165520	0.138059
933.344331	0.137595
933.523123	0.136536
933.701898	0.135819
933.880654	0.136006
934.059392	0.134993
934.238111	0.134914
934.416813	0.133990
934.595496	0.133717
934.774161	0.133360
934.952808	0.132953
935.131437	0.132317
935.310047	0.131800
935.488639	0.131189
935.667213	0.130744
935.845769	0.129565
936.024306	0.129487
936.202825	0.128665
936.381326	0.127264
936.559809	0.126205
936.738274	0.126302
936.916720	0.125430
937.095148	0.125626
937.273558	0.125743
937.451950	0.126385
937.630323	0.125695
937.808678	0.124693
937.987015	0.124254
938.165334	0.124488
938.343635	0.123658
938.521917	0.123442
938.700181	0.122458
938.878427	0.122222
939.056655	0.120776
939.234864	0.119667
939.413055	0.119830
939.591228	0.119493
939.769383	0.118756
939.947519	0.118405
940.125638	0.118452
940.303738	0.117785
940.481820	0.116440
940.659883	0.116206
940.837929	0.115587
941.015956	0.114727
941.193965	0.113955
941.371955	0.113964
941.549928	0.113740
941.727882	0.111667
941.905818	0.111220
942.083736	0.111248
942.261636	0.110297
942.439517	0.111333
942.617380	0.111507
942.795225	0.110637
942.973052	0.108783
943.150860	0.107763
943.328651	0.108076
943.506423	0.106782
943.684176	0.105238
943.861912	0.105498
944.039629	0.103666
944.217328	0.101664
944.395009	0.101593
944.572672	0.101987
944.750317	0.102061
944.927943	0.101138
945.105551	0.101308
945.283141	0.101449
945.460712	0.100676
945.638265	0.101248
945.815801	0.101392
945.993317	0.100050
946.170816	0.098867
946.348297	0.097651
946.525759	0.096903
946.703203	0.096767
946.880629	0.094465
947.058036	0.092874
947.235425	0.091720
947.412797	0.092299
947.590149	0.091554
947.767484	0.091537
947.944800	0.091118
948.122099	0.091310
948.299379	0.089991
948.476640	0.091577
948.653884	0.091866
948.831109	0.090608
949.008316	0.088569
949.185505	0.088897
949.362676	0.087462
949.539828	0.085088
949.716962	0.083951
949.894078	0.084000
950.071176	0.082262
950.248256	0.081084
950.425317	0.080583
950.602360	0.081587
950.779385	0.081173
950.956391	0.080890
951.133380	0.080972
951.310350	0.079884
951.487302	0.079514
951.664235	0.079364
951.841151	0.079203
952.018048	0.079083
952.194927	0.078528
952.371788	0.077509
952.548631	0.077563
952.725455	0.077698
952.902261	0.078655
953.079049	0.077815
953.255819	0.077514
953.432570	0.077307
953.609303	0.076918
953.786018	0.075766
953.962715	0.075107
954.139394	0.074154
954.316054	0.074660
954.492696	0.074691
954.669320	0.073480
954.845926	0.073565
955.022513	0.073258
955.199083	0.072447
955.375634	0.071610
955.552166	0.073216
955.728681	0.073508
955.905177	0.073240
956.081655	0.070148
956.258115	0.070366
956.434557	0.071326
956.610980	0.071249
956.787385	0.072372
956.963772	0.071965
957.140141	0.070847
957.316492	0.070268
957.492824	0.069549
957.669138	0.072032
957.845434	0.071439
958.021712	0.069796
958.197971	0.067230
958.374212	0.066270
958.550435	0.065132
958.726640	0.063114
958.902826	0.061791
959.078995	0.063229
959.255145	0.061182
959.431277	0.060152
959.607390	0.059927
959.783486	0.060260
959.959563	0.059794
960.135622	0.060895
960.311662	0.061386
960.487685	0.061997
960.663689	0.059265
960.839675	0.060102
961.015643	0.062411
961.191593	0.061814
961.367524	0.062705
961.543437	0.063094
961.719332	0.063699
961.895209	0.063276
962.071067	0.064141
962.246907	0.064532
962.422730	0.065500
962.598533	0.064366
962.774319	0.066342
962.950086	0.065028
963.125835	0.066104
963.301566	0.065983
963.477279	0.067227
963.652973	0.066452
963.828650	0.067450
964.004308	0.065878
964.179947	0.065722
964.355569	0.062497
964.531172	0.065347
964.706757	0.064470
964.882324	0.063827
965.057873	0.063791
965.233403	0.062409
965.408916	0.062479
965.584410	0.064002
965.759885	0.064176
965.935343	0.064784
966.110782	0.063561
966.286203	0.063600
966.461606	0.063563
966.636991	0.062914
966.812357	0.063753
966.987705	0.063180
967.163035	0.061945
967.338347	0.060403
967.513641	0.061328
967.688916	0.060169
967.864173	0.060971
968.039412	0.061327
968.214632	0.062998
968.389835	0.062737
968.565019	0.064609
968.740185	0.063675
968.915333	0.064109
969.090462	0.063864
969.265573	0.065813
969.440667	0.064678
969.615741	0.063186
969.790798	0.061465
969.965836	0.063269
970.140856	0.061574
970.315858	0.063141
970.490842	0.062835
970.665808	0.060984
970.840755	0.059357
971.015684	0.057308
971.190595	0.058610
971.365487	0.057711
971.540362	0.057091
971.715218	0.056047
971.890056	0.055640
972.064875	0.056584
972.239677	0.058637
972.414460	0.058784
972.589225	0.060232
972.763972	0.059584
972.938700	0.060996
973.113411	0.061378
973.288103	0.061553
973.462777	0.061933
973.637432	0.061715
973.812070	0.059434
973.986689	0.060445
974.161290	0.058937
974.335873	0.059617
974.510437	0.059551
974.684984	0.060025
974.859512	0.061927
975.034022	0.061693
975.208513	0.062779
975.382987	0.065947
975.557442	0.065295
975.731879	0.067613
975.906298	0.067557
976.080698	0.068509
976.255080	0.067894
976.429445	0.066534
976.603790	0.066222
976.778118	0.064605
976.952427	0.064039
977.126719	0.063715
977.300992	0.063843
977.475246	0.064744
977.649483	0.063610
977.823701	0.060759
977.997901	0.061002
978.172083	0.062458
978.346247	0.062889
978.520392	0.063564
978.694519	0.064324
978.868628	0.061678
979.042719	0.060742
979.216791	0.059628
979.390845	0.061062
979.564882	0.063248
979.738899	0.060683
979.912899	0.061299
980.086880	0.059743
980.260843	0.058767
980.434788	0.061318
980.608715	0.061708
980.782623	0.062522
980.956514	0.063081
981.130386	0.058843
981.304240	0.060137
981.478075	0.059939
981.651892	0.061395
981.825692	0.062333
981.999472	0.061338
982.173235	0.060978
982.346980	0.061772
982.520706	0.060761
982.694414	0.062969
982.868104	0.061419
983.041775	0.062612
983.215428	0.061293
983.389064	0.060952
983.562680	0.061571
983.736279	0.061074
983.909860	0.061614
984.083422	0.063224
984.256966	0.062489
984.430491	0.063338
984.603999	0.062153
984.777488	0.060727
984.950959	0.062548
985.124412	0.062105
985.297847	0.064184
985.471263	0.063097
985.644661	0.061896
985.818041	0.062187
985.991403	0.061901
986.164747	0.061669
986.338072	0.062378
986.511379	0.060053
986.684668	0.060016
986.857938	0.059128
987.031191	0.059944
987.204425	0.059599
987.377641	0.058514
987.550839	0.058331
987.724018	0.059280
987.897179	0.059658
988.070322	0.059967
988.243447	0.059434
988.416554	0.059347
988.589642	0.058116
988.762712	0.060422
988.935764	0.062469
989.108798	0.064106
989.281813	0.063540
989.454811	0.063083
989.627790	0.065178
989.800751	0.065870
989.973693	0.064861
990.146617	0.066738
990.319524	0.065585
990.492412	0.064425
990.665281	0.063696
990.838133	0.062605
991.010966	0.063992
991.183781	0.062998
991.356578	0.061534
991.529356	0.062082
991.702117	0.060782
991.874859	0.060473
992.047583	0.060859
992.220288	0.062173
992.392976	0.063162
992.565645	0.062758
992.738296	0.062918
992.910929	0.063046
993.083543	0.064579
993.256139	0.065847
993.428718	0.066514
993.601277	0.067199
993.773819	0.065108
993.946342	0.064215
994.118848	0.065067
994.291335	0.064387
994.463803	0.065583
994.636254	0.063377
994.808686	0.062426
994.981100	0.062553
995.153496	0.061770
995.325874	0.063307
995.498233	0.064812
995.670574	0.063853
995.842897	0.063442
996.015202	0.064158
996.187488	0.063923
996.359757	0.063353
996.532007	0.063586
996.704239	0.063668
996.876452	0.062897
997.048648	0.062963
997.220825	0.061275
997.392984	0.061945
997.565124	0.061910
997.737247	0.063519
997.909351	0.063032
998.081437	0.062549
998.253505	0.063304
998.425554	0.062601
998.597586	0.061404
998.769599	0.062089
998.941594	0.061531
999.113571	0.061236
999.285529	0.061961
999.457469	0.063697
999.629391	0.062613
999.801295	0.062447
999.973181	0.062198
1000.145048	0.062330
1000.316897	0.063198
1000.488728	0.061745
1000.660541	0.062249
1000.832335	0.059283
1001.004111	0.058176
1001.175869	0.058167
1001.347609	0.059550
1001.519331	0.061187
1001.691034	0.061066
1001.862719	0.061226
1002.034386	0.064678
1002.206035	0.061833
1002.377665	0.064015
1002.549277	0.064292
1002.720871	0.063807
1002.892447	0.063157
1003.064004	0.062024
1003.235544	0.062948
1003.407065	0.064617
1003.578568	0.062834
1003.750052	0.064816
1003.921519	0.063924
1004.092967	0.065362
1004.264397	0.066704
1004.435809	0.065014
1004.607202	0.066250
1004.778577	0.066474
1004.949934	0.065412
1005.121273	0.064557
1005.292594	0.063786
1005.463896	0.063581
1005.635180	0.062610
1005.806446	0.063389
1005.977694	0.064144
1006.148923	0.064415
1006.320135	0.063345
1006.491328	0.061688
1006.662503	0.062916
1006.833659	0.065844
1007.004798	0.065022
1007.175918	0.063507
1007.347020	0.063060
1007.518103	0.061847
1007.689169	0.060885
1007.860216	0.061540
1008.031245	0.062299
1008.202256	0.061451
1008.373248	0.059850
1008.544223	0.060392
1008.715179	0.059183
1008.886117	0.058610
1009.057036	0.059908
1009.227938	0.060495
1009.398821	0.060643
1009.569686	0.060054
1009.740533	0.059789
1009.911361	0.059283
1010.082172	0.059999
1010.252964	0.062041
1010.423738	0.062121
1010.594493	0.061965
1010.765231	0.061372
1010.935950	0.060120
1011.106651	0.061798
1011.277334	0.060906
1011.447998	0.060234
1011.618645	0.060472
1011.789273	0.061442
1011.959882	0.060388
1012.130474	0.060016
1012.301048	0.059121
1012.471603	0.059940
1012.642140	0.058876
1012.812658	0.061016
1012.983159	0.062300
1013.153641	0.061794
1013.324105	0.060644
1013.494551	0.061361
1013.664979	0.060852
1013.835388	0.061927
1014.005779	0.063007
1014.176152	0.062169
1014.346507	0.062055
1014.516843	0.060081
1014.687162	0.060246
1014.857462	0.062021
1015.027744	0.062863
1015.198007	0.063292
1015.368252	0.063471
1015.538480	0.061991
1015.708689	0.063413
1015.878879	0.062833
1016.049052	0.065317
1016.219206	0.065099
1016.389342	0.064881
1016.559460	0.064306
1016.729559	0.064766
1016.899641	0.064195
1017.069704	0.063756
1017.239749	0.063722
1017.409775	0.063072
1017.579784	0.062142
1017.749774	0.061497
1017.919746	0.060145
1018.089700	0.059836
1018.259635	0.060401
1018.429553	0.060411
1018.599452	0.061064
1018.769333	0.058946
1018.939195	0.058400
1019.109040	0.057978
1019.278866	0.059168
1019.448674	0.059142
1019.618464	0.059260
1019.788235	0.058210
1019.957989	0.057367
1020.127724	0.056938
1020.297441	0.058341
1020.467139	0.059541
1020.636820	0.060395
1020.806482	0.058934
1020.976126	0.059639
1021.145752	0.061030
1021.315359	0.060610
1021.484948	0.060800
1021.654519	0.062634
1021.824072	0.062860
1021.993607	0.062878
1022.163123	0.062066
1022.332621	0.064362
1022.502101	0.064546
1022.671563	0.062396
1022.841007	0.062506
1023.010432	0.062572
1023.179839	0.061110
1023.349228	0.061436
1023.518598	0.061450
1023.687951	0.061572
1023.857285	0.059795
1024.026601	0.058515
1024.195899	0.061281
1024.365178	0.061615
1024.534439	0.062077
1024.703682	0.061638
1024.872907	0.062384
1025.042114	0.061996
1025.211302	0.062952
1025.380472	0.063802
1025.549624	0.065310
1025.718758	0.062088
1025.887873	0.061857
1026.056970	0.062134
1026.226049	0.062697
1026.395110	0.061437
1026.564153	0.061452
1026.733177	0.059680
1026.902183	0.057920
1027.071171	0.057107
1027.240141	0.059294
1027.409092	0.060155
1027.578026	0.061985
1027.746940	0.061475
1027.915837	0.060469
1028.084716	0.059356
1028.253576	0.060748
1028.422418	0.061803
1028.591242	0.060533
1028.760048	0.059671
1028.928835	0.058589
1029.097604	0.057043
1029.266355	0.058888
1029.435088	0.060123
1029.603803	0.061888
1029.772499	0.060230
1029.941177	0.059372
1030.109837	0.061324
1030.278478	0.061618
1030.447102	0.061625
1030.615707	0.060574
1030.784294	0.060518
1030.952863	0.059045
1031.121413	0.059262
1031.289945	0.059071
1031.458460	0.060386
1031.626955	0.058981
1031.795433	0.058385
1031.963892	0.058164
1032.132334	0.060498
1032.300756	0.059303
1032.469161	0.061274
1032.637548	0.060470
1032.805916	0.061382
1032.974266	0.061104
1033.142598	0.062444
1033.310911	0.063083
1033.479207	0.063538
1033.647484	0.062011
1033.815743	0.060693
1033.983983	0.061125
1034.152206	0.060806
1034.320410	0.059735
1034.488596	0.060138
1034.656764	0.058688
1034.824914	0.057226
1034.993045	0.057296
1035.161158	0.056190
1035.329253	0.056284
1035.497330	0.055986
1035.665388	0.055583
1035.833428	0.055526
1036.001450	0.053851
1036.169454	0.055402
1036.337440	0.058451
1036.505407	0.057195
1036.673356	0.058080
1036.841287	0.057623
1037.009200	0.057959
1037.177094	0.059919
1037.344970	0.061278
1037.512828	0.063518
1037.680668	0.061546
1037.848489	0.058935
1038.016293	0.060652
1038.184078	0.062014
1038.351845	0.062560
1038.519593	0.061909
1038.687324	0.061477
1038.855036	0.061402
1039.022730	0.061102
1039.190406	0.061214
1039.358063	0.061083
1039.525702	0.060584
1039.693323	0.059498
1039.860926	0.059863
1040.028511	0.058533
1040.196077	0.058039
1040.363625	0.058500
1040.531155	0.058703
1040.698667	0.060502
1040.866161	0.060332
1041.033636	0.060886
1041.201093	0.061296
1041.368532	0.061417
1041.535952	0.062833
1041.703355	0.061876
1041.870739	0.061113
1042.038105	0.059109
1042.205452	0.059156
1042.372782	0.059716
1042.540093	0.059360
1042.707386	0.058804
1042.874661	0.059095
1043.041918	0.057781
1043.209156	0.058229
1043.376376	0.058442
1043.543578	0.058970
1043.710762	0.058067
1043.877927	0.058813
1044.045074	0.057489
1044.212203	0.058736
1044.379314	0.059546
1044.546407	0.060202
1044.713481	0.061207
1044.880537	0.062085
1045.047575	0.063021
1045.214595	0.063223
1045.381596	0.060802
1045.548579	0.061318
1045.715544	0.061759
1045.882491	0.060013
1046.049420	0.059509
1046.216330	0.059745
1046.383222	0.058615
1046.550096	0.058256
1046.716951	0.057308
1046.883789	0.059616
1047.050608	0.059880
1047.217409	0.059676
1047.384192	0.060792
1047.550956	0.061686
1047.717703	0.061134
1047.884431	0.062623
1048.051140	0.062879
1048.217832	0.061946
1048.384505	0.061523
1048.551161	0.062682
1048.717798	0.061414
1048.884416	0.060794
1049.051017	0.060542
1049.217599	0.060905
1049.384163	0.058666
1049.550709	0.058435
1049.717237	0.061181
1049.883746	0.061268
1050.050237	0.059791
1050.216710	0.058517
1050.383165	0.060044
1050.549601	0.061068
1050.716019	0.060810
1050.882420	0.061781
1051.048801	0.062156
1051.215165	0.060708
1051.381510	0.061694
1051.547837	0.064606
1051.714146	0.065021
1051.880437	0.064884
1052.046709	0.064079
1052.212964	0.063835
1052.379200	0.065162
1052.545417	0.066318
1052.711617	0.066394
1052.877798	0.065342
1053.043961	0.064317
1053.210106	0.064547
1053.376233	0.063602
1053.542341	0.063304
1053.708432	0.062348
1053.874504	0.061551
1054.040557	0.061798
1054.206593	0.062063
1054.372610	0.061870
1054.538609	0.061365
1054.704590	0.059213
1054.870553	0.059394
1055.036497	0.059230
1055.202424	0.059782
1055.368331	0.058844
1055.534221	0.057568
1055.700093	0.057637
1055.865946	0.056706
1056.031781	0.055408
1056.197598	0.057764
1056.363397	0.057629
1056.529177	0.056949
1056.694939	0.058541
1056.860683	0.060410
1057.026409	0.060671
1057.192116	0.058870
1057.357806	0.058270
1057.523477	0.058420
1057.689130	0.060919
1057.854764	0.060475
1058.020381	0.061271
1058.185979	0.060340
1058.351559	0.059555
1058.517120	0.059838
1058.682664	0.061119
1058.848189	0.062010
1059.013696	0.062961
1059.179185	0.060776
1059.344656	0.061343
1059.510108	0.061626
1059.675542	0.060676
1059.840958	0.059789
1060.006356	0.058104
1060.171735	0.058286
1060.337096	0.059775
1060.502439	0.058233
1060.667764	0.057876
1060.833071	0.059663
1060.998359	0.059690
1061.163629	0.058707
1061.328881	0.059859
1061.494115	0.060049
1061.659330	0.060786
1061.824527	0.060798
1061.989706	0.061212
1062.154867	0.062468
1062.320010	0.060636
1062.485134	0.059843
1062.650240	0.062811
1062.815328	0.061819
1062.980398	0.064141
1063.145449	0.065747
1063.310482	0.064015
1063.475497	0.065986
1063.640494	0.064303
1063.805473	0.064957
1063.970433	0.064989
1064.135375	0.064623
1064.300299	0.062899
1064.465204	0.062174
1064.630092	0.059092
1064.794961	0.060657
1064.959812	0.059680
1065.124645	0.059008
1065.289459	0.058368
1065.454256	0.058714
1065.619034	0.057621
1065.783793	0.060146
1065.948535	0.059552
1066.113258	0.060875
1066.277964	0.060043
1066.442651	0.062461
1066.607319	0.063010
1066.771970	0.062546
1066.936602	0.063206
1067.101216	0.063482
1067.265812	0.062870
1067.430389	0.063497
1067.594949	0.063579
1067.759490	0.062083
1067.924013	0.059755
1068.088518	0.061609
1068.253004	0.061401
1068.417472	0.060649
1068.581922	0.060898
1068.746354	0.063175
1068.910768	0.063109
1069.075163	0.063426
1069.239540	0.064815
1069.403899	0.063313
1069.568240	0.062692
1069.732562	0.062069
1069.896866	0.061577
1070.061152	0.059968
1070.225420	0.058361
1070.389670	0.057002
1070.553901	0.055955
1070.718114	0.056135
1070.882309	0.057401
1071.046486	0.056627
1071.210644	0.058306
1071.374784	0.059742
1071.538906	0.058312
1071.703010	0.057069
1071.867096	0.058588
1072.031163	0.058526
1072.195212	0.058817
1072.359243	0.061643
1072.523256	0.063292
1072.687250	0.062354
1072.851226	0.061833
1073.015184	0.064976
1073.179124	0.065831
1073.343045	0.064676
1073.506949	0.068205
1073.670834	0.069105
1073.834701	0.066429
1073.998549	0.065711
1074.162380	0.066389
1074.326192	0.064432
1074.489986	0.063103
1074.653761	0.064186
1074.817519	0.065491
1074.981258	0.061691
1075.144979	0.061067
1075.308682	0.060839
1075.472367	0.059797
1075.636033	0.059660
1075.799681	0.061708
1075.963311	0.062520
1076.126923	0.060279
1076.290516	0.059998
1076.454092	0.059949
1076.617649	0.060946
1076.781187	0.061324
1076.944708	0.060482
1077.108210	0.063202
1077.271695	0.062044
1077.435160	0.064204
1077.598608	0.067440
1077.762038	0.067364
1077.925449	0.068326
1078.088842	0.067110
1078.252217	0.067653
1078.415573	0.068406
1078.578912	0.066985
1078.742232	0.068555
1078.905534	0.067115
1079.068817	0.064088
1079.232083	0.065284
1079.395330	0.064653
1079.558559	0.063018
1079.721770	0.060784
1079.884962	0.061298
1080.048136	0.059785
1080.211293	0.058164
1080.374430	0.058523
1080.537550	0.059656
1080.700651	0.057950
1080.863735	0.058578
1081.026800	0.060704
1081.189846	0.062915
1081.352875	0.063545
1081.515885	0.062636
1081.678877	0.064645
1081.841851	0.061336
1082.004807	0.062914
1082.167744	0.064482
1082.330663	0.065505
1082.493564	0.064799
1082.656447	0.065708
1082.819312	0.066283
1082.982158	0.068002
1083.144986	0.067684
1083.307796	0.069542
1083.470587	0.068749
1083.633361	0.066751
1083.796116	0.065576
1083.958853	0.065350
1084.121571	0.063608
1084.284272	0.062693
1084.446954	0.062516
1084.609618	0.062952
1084.772264	0.063918
1084.934892	0.062498
1085.097501	0.061783
1085.260092	0.062883
1085.422665	0.065528
1085.585220	0.066476
1085.747756	0.065132
1085.910274	0.063684
1086.072774	0.062905
1086.235256	0.062268
1086.397720	0.061919
1086.560165	0.065477
1086.722592	0.064979
1086.885001	0.062459
1087.047392	0.061123
1087.209764	0.059893
1087.372119	0.063155
1087.534455	0.062432
1087.696772	0.063429
1087.859072	0.064617
1088.021353	0.061891
1088.183616	0.061158
1088.345861	0.064501
1088.508088	0.065517
1088.670296	0.067178
1088.832486	0.069287
1088.994658	0.070330
1089.156812	0.070564
1089.318948	0.069965
1089.481065	0.071699
1089.643164	0.070446
1089.805245	0.069330
1089.967308	0.069544
1090.129352	0.069922
1090.291378	0.067535
1090.453386	0.069451
1090.615376	0.068479
1090.777347	0.071568
1090.939301	0.069820
1091.101236	0.071273
1091.263153	0.070925
1091.425051	0.069791
1091.586932	0.072377
1091.748794	0.074757
1091.910638	0.074459
1092.072463	0.074740
1092.234271	0.072347
1092.396060	0.071504
1092.557831	0.073165
1092.719584	0.072684
1092.881319	0.074595
1093.043035	0.074120
1093.204733	0.071345
1093.366413	0.070489
1093.528075	0.071628
1093.689718	0.070428
1093.851343	0.072179
1094.012950	0.072361
1094.174539	0.071843
1094.336110	0.069136
1094.497662	0.067507
1094.659196	0.068631
1094.820712	0.065716
1094.982210	0.065003
1095.143689	0.066164
1095.305151	0.065493
1095.466594	0.064859
1095.628018	0.064922
1095.789425	0.068641
1095.950813	0.068430
1096.112183	0.066044
1096.273535	0.068312
1096.434869	0.068620
1096.596184	0.068840
1096.757482	0.067194
1096.918761	0.066109
1097.080021	0.064195
1097.241264	0.060847
1097.402488	0.061102
1097.563694	0.059355
1097.724882	0.060034
1097.886052	0.060271
1098.047203	0.058792
1098.208336	0.060697
1098.369451	0.060277
1098.530548	0.061481
1098.691627	0.062402
1098.852687	0.063989
1099.013729	0.067405
1099.174753	0.064664
1099.335758	0.064300
1099.496746	0.065722
1099.657715	0.066260
1099.818666	0.067163
1099.979599	0.067688
1100.140513	0.069392
1100.301409	0.070064
1100.462287	0.068903
1100.623147	0.070923
1100.783989	0.071414
1100.944812	0.074005
1101.105617	0.075477
1101.266404	0.075185
1101.427173	0.077679
1101.587923	0.075758
1101.748656	0.074175
1101.909370	0.074058
1102.070066	0.073050
1102.230743	0.069723
1102.391403	0.067095
1102.552044	0.063026
1102.712667	0.064315
1102.873271	0.063959
1103.033858	0.065608
1103.194426	0.064029
1103.354976	0.065439
1103.515508	0.065260
1103.676021	0.067170
1103.836517	0.066065
1103.996994	0.066601
1104.157453	0.063378
1104.317893	0.058033
1104.478316	0.057285
1104.638720	0.059903
1104.799106	0.056410
1104.959474	0.056488
1105.119823	0.060202
1105.280155	0.062880
1105.440468	0.063708
1105.600763	0.063906
1105.761039	0.069371
1105.921298	0.066721
1106.081538	0.066612
1106.241760	0.068213
1106.401964	0.070260
1106.562149	0.067737
1106.722316	0.065700
1106.882465	0.064165
1107.042596	0.067099
1107.202709	0.066605
1107.362803	0.071683
1107.522879	0.068808
1107.682937	0.068408
1107.842977	0.067523
1108.002999	0.066107
1108.163002	0.066120
1108.322987	0.070054
1108.482954	0.065866
1108.642902	0.063394
1108.802833	0.060003
1108.962745	0.062446
1109.122639	0.061486
1109.282515	0.061086
1109.442372	0.060437
1109.602211	0.061478
1109.762032	0.060663
1109.921835	0.067591
1110.081620	0.071991
1110.241386	0.071924
1110.401134	0.072944
1110.560864	0.076847
1110.720576	0.080559
1110.880269	0.079664
1111.039945	0.081705
1111.199602	0.079109
1111.359240	0.076431
1111.518861	0.072287
1111.678463	0.074109
1111.838047	0.073002
1111.997613	0.073308
1112.157161	0.068411
1112.316690	0.069180
1112.476202	0.067703
1112.635695	0.069966
1112.795169	0.072163
1112.954626	0.075392
1113.114064	0.073908
1113.273484	0.072122
1113.432886	0.072667
1113.592270	0.074941
1113.751635	0.075796
1113.910983	0.075222
1114.070312	0.077714
1114.229622	0.075575
1114.388915	0.074828
1114.548189	0.077347
1114.707445	0.075921
1114.866683	0.073799
1115.025903	0.070625
1115.185104	0.071723
1115.344287	0.071150
1115.503452	0.066447
1115.662599	0.067014
1115.821727	0.066092
1115.980838	0.062373
1116.139930	0.064886
1116.299004	0.061127
1116.458059	0.065241
1116.617097	0.064241
1116.776116	0.066677
1116.935117	0.068139
1117.094099	0.062921
1117.253064	0.061178
1117.412010	0.062483
1117.570938	0.063043
1117.729848	0.065198
1117.888740	0.061822
1118.047613	0.062810
1118.206468	0.058796
1118.365305	0.058942
1118.524124	0.060683
1118.682924	0.061568
1118.841707	0.064117
1119.000471	0.063632
1119.159216	0.066636
1119.317944	0.070904
1119.476653	0.072379
1119.635344	0.073801
1119.794017	0.075537
1119.952672	0.079292
1120.111308	0.081714
1120.269927	0.079505
1120.428527	0.081886
1120.587108	0.080258
1120.745672	0.077961
1120.904217	0.077167
1121.062744	0.077454
1121.221253	0.073752
1121.379744	0.070319
1121.538216	0.068632
1121.696671	0.069062
1121.855107	0.068249
1122.013524	0.071427
1122.171924	0.068474
1122.330305	0.069301
1122.488668	0.068418
1122.647013	0.069909
1122.805340	0.071666
1122.963648	0.071054
1123.121938	0.071023
1123.280210	0.073404
1123.438464	0.067958
1123.596700	0.074378
1123.754917	0.068959
1123.913116	0.070889
1124.071297	0.074278
1124.229459	0.073121
1124.387604	0.073079
1124.545730	0.072210
1124.703838	0.067550
1124.861928	0.067518
1125.019999	0.065349
1125.178052	0.070188
1125.336088	0.064326
1125.494104	0.059933
1125.652103	0.059878
1125.810083	0.059990
1125.968045	0.060165
1126.125989	0.060328
1126.283915	0.064727
1126.441823	0.063556
1126.599712	0.063956
1126.757583	0.068997
1126.915436	0.075288
1127.073270	0.072439
1127.231087	0.074172
1127.388885	0.074273
1127.546665	0.075185
1127.704426	0.072018
1127.862170	0.072935
1128.019895	0.073161
1128.177602	0.071118
1128.335291	0.069636
1128.492961	0.073704
1128.650614	0.070979
1128.808248	0.072301
1128.965864	0.070945
1129.123461	0.069698
1129.281041	0.067304
1129.438602	0.065171
1129.596145	0.067328
1129.753670	0.066524
1129.911176	0.063196
1130.068665	0.064671
1130.226135	0.062524
1130.383587	0.065588
1130.541020	0.069771
1130.698436	0.071901
1130.855833	0.069857
1131.013212	0.069458
1131.170573	0.068781
1131.327915	0.078069
1131.485239	0.076643
1131.642545	0.079776
1131.799833	0.076605
1131.957103	0.073725
1132.114354	0.070688
1132.271588	0.072325
1132.428803	0.076244
1132.585999	0.073254
1132.743178	0.068491
1132.900338	0.071098
1133.057480	0.066743
1133.214604	0.068186
1133.371710	0.069648
1133.528797	0.070404
1133.685866	0.069725
1133.842917	0.065751
1133.999950	0.070209
1134.156964	0.070055
1134.313960	0.068974
1134.470938	0.066711
1134.627898	0.062527
1134.784840	0.060158
1134.941763	0.067806
1135.098668	0.067960
1135.255555	0.070846
1135.412424	0.074308
1135.569274	0.074589
1135.726107	0.074329
1135.882921	0.078980
1136.039716	0.086044
1136.196494	0.092019
1136.353253	0.089546
1136.509995	0.091703
1136.666717	0.092767
1136.823422	0.084938
1136.980109	0.084849
1137.136777	0.087895
1137.293427	0.086172
1137.450059	0.082761
1137.606672	0.078013
1137.763267	0.074452
1137.919844	0.071636
1138.076403	0.067832
1138.232944	0.075362
1138.389466	0.071708
1138.545971	0.069714
1138.702457	0.066780
1138.858924	0.068811
1139.015374	0.072232
1139.171805	0.072178
1139.328218	0.070605
1139.484613	0.069254
1139.640990	0.065237
1139.797348	0.070093
1139.953688	0.064120
1140.110010	0.066572
1140.266314	0.063851
1140.422600	0.060692
1140.578867	0.065081
1140.735116	0.068598
1140.891347	0.075981
1141.047559	0.074667
1141.203754	0.068423
1141.359930	0.072059
1141.516088	0.080900
1141.672228	0.081955
1141.828349	0.079352
1141.984452	0.077393
1142.140537	0.079276
1142.296604	0.067807
1142.452653	0.066534
1142.608683	0.073134
1142.764695	0.071073
1142.920689	0.065054
1143.076665	0.065901
1143.232622	0.070216
1143.388562	0.067158
1143.544483	0.066620
1143.700385	0.072761
1143.856270	0.073721
1144.012136	0.067374
1144.167985	0.068697
1144.323814	0.071512
1144.479626	0.075088
1144.635420	0.075452
1144.791195	0.070596
1144.946952	0.072748
1145.102691	0.072101
1145.258411	0.067275
1145.414113	0.074542
1145.569798	0.076262
1145.725463	0.070186
1145.881111	0.062685
1146.036741	0.060187
1146.192352	0.063022
1146.347945	0.057092
1146.503519	0.059844
1146.659076	0.066189
1146.814614	0.059247
1146.970134	0.065779
1147.125636	0.068332
1147.281120	0.073461
1147.436585	0.077605
1147.592032	0.079390
1147.747461	0.083667
1147.902872	0.081682
1148.058265	0.073534
1148.213639	0.080308
1148.368995	0.074249
1148.524333	0.075452
1148.679653	0.072419
1148.834954	0.064829
1148.990237	0.058987
1149.145502	0.055447
1149.300749	0.058938
1149.455977	0.062376
1149.611188	0.058686
1149.766380	0.058902
1149.921553	0.059432
1150.076709	0.058925
1150.231846	0.069660
1150.386966	0.085612
1150.542066	0.086748
1150.697149	0.077891
1150.852214	0.075726
1151.007260	0.075993
1151.162288	0.077073
1151.317298	0.079449
1151.472289	0.073437
1151.627263	0.067424
1151.782218	0.052061
1151.937155	0.054962
1152.092073	0.059306
1152.246974	0.065332
1152.401856	0.067290
1152.556720	0.069499
1152.711566	0.068154
1152.866393	0.078864
1153.021203	0.077831
1153.175994	0.079554
1153.330767	0.076526
1153.485521	0.077726
1153.640258	0.079169
1153.794976	0.078696
1153.949676	0.075774
1154.104358	0.071677
1154.259021	0.068866
1154.413667	0.077513
1154.568294	0.078015
1154.722903	0.080195
1154.877493	0.082603
1155.032066	0.076594
1155.186620	0.072862
1155.341156	0.075502
1155.495674	0.076502
1155.650173	0.072002
1155.804654	0.066014
1155.959118	0.067345
1156.113562	0.064461
1156.267989	0.058255
1156.422397	0.065062
1156.576788	0.067017
1156.731160	0.061435
1156.885513	0.059488
1157.039849	0.062632
1157.194166	0.060915
1157.348465	0.066374
1157.502746	0.060864
1157.657009	0.059349
1157.811253	0.056767
1157.965479	0.058098
1158.119687	0.056209
1158.273877	0.059268
1158.428048	0.059499
1158.582201	0.059122
1158.736337	0.057584
1158.890453	0.063021
1159.044552	0.067657
1159.198632	0.065054
1159.352694	0.060544
1159.506738	0.057813
1159.660764	0.056115
1159.814771	0.055310
1159.968761	0.055691
1160.122732	0.045672
1160.276685	0.047762
1160.430619	0.044688
1160.584535	0.047971
1160.738434	0.048052
1160.892313	0.052647
1161.046175	0.051076
1161.200019	0.050574
1161.353844	0.053646
1161.507651	0.062572
1161.661440	0.063933
1161.815210	0.071262
1161.968962	0.071554
1162.122697	0.079505
1162.276412	0.087950
1162.430110	0.092205
1162.583789	0.093524
1162.737451	0.080991
1162.891094	0.078057
1163.044718	0.077487
1163.198325	0.067883
1163.351913	0.067986
1163.505483	0.060798
1163.659035	0.054267
1163.812569	0.044442
1163.966084	0.044834
1164.119581	0.046643
1164.273060	0.052587
1164.426521	0.056641
1164.579964	0.065194
1164.733388	0.062188
1164.886794	0.064274
1165.040182	0.063281
1165.193551	0.066416
1165.346903	0.064356
1165.500236	0.077136
1165.653551	0.068572
1165.806848	0.067758
1165.960126	0.073323
1166.113386	0.067061
1166.266628	0.072784
1166.419852	0.076787
1166.573058	0.082094
1166.726245	0.080303
1166.879414	0.075801
1167.032565	0.090210
1167.185698	0.084432
1167.338812	0.081124
1167.491909	0.089469
1167.644987	0.078115
1167.798046	0.080129
1167.951088	0.078683
1168.104111	0.073450
1168.257117	0.073888
1168.410103	0.064047
1168.563072	0.057667
1168.716023	0.054216
1168.868955	0.053774
1169.021869	0.060697
1169.174765	0.051500
1169.327642	0.050839
1169.480501	0.052721
1169.633343	0.036876
1169.786165	0.035800
1169.938970	0.042145
1170.091757	0.029519
1170.244525	0.026953
1170.397275	0.020052
1170.550007	0.019028
1170.702720	0.026559
1170.855415	0.032738
1171.008092	0.046905
1171.160751	0.050814
1171.313392	0.051195
1171.466014	0.064668
1171.618619	0.077563
1171.771205	0.077563
1171.923772	0.077563
