sample name	sample
index	433
start time	 03-08-2021  12:17:20 PM


Wavelength (nm)	Absorbance
494.344910	0.803262
494.563924	0.803262
494.782919	0.803262
495.001897	0.565679
495.220856	0.130729
495.439797	0.011216
495.658719	-0.009799
495.877624	0.011591
496.096510	0.002759
496.315378	0.000277
496.534227	-0.059459
496.753059	0.010253
496.971872	-0.025079
497.190667	0.123289
497.409444	0.147304
497.628203	0.151186
497.846943	0.151167
498.065665	0.150829
498.284369	0.152014
498.503055	0.152492
498.721723	0.153417
498.940372	0.153663
499.159003	0.154147
499.377616	0.153247
499.596210	0.153657
499.814787	0.154884
500.033345	0.156136
500.251885	0.156753
500.470406	0.156663
500.688910	0.156941
500.907395	0.156098
501.125862	0.155917
501.344311	0.156144
501.562742	0.156014
501.781154	0.155423
501.999548	0.155588
502.217924	0.154637
502.436282	0.155226
502.654621	0.155200
502.872942	0.156365
503.091245	0.156211
503.309530	0.156330
503.527797	0.156464
503.746045	0.156708
503.964275	0.156389
504.182487	0.156510
504.400681	0.156857
504.618856	0.156459
504.837013	0.158051
505.055152	0.157925
505.273273	0.158600
505.491376	0.158407
505.709460	0.157851
505.927526	0.157966
506.145574	0.159343
506.363604	0.159311
506.581615	0.160355
506.799608	0.159478
507.017583	0.161280
507.235540	0.161690
507.453478	0.161327
507.671399	0.161708
507.889301	0.162879
508.107185	0.162001
508.325050	0.161455
508.542898	0.161132
508.760727	0.162321
508.978538	0.161312
509.196330	0.161131
509.414105	0.161657
509.631861	0.162377
509.849599	0.161793
510.067319	0.162468
510.285021	0.162881
510.502704	0.162930
510.720369	0.161339
510.938016	0.162025
511.155645	0.162270
511.373255	0.163118
511.590848	0.162736
511.808422	0.161894
512.025977	0.161907
512.243515	0.162607
512.461034	0.163106
512.678536	0.163603
512.896018	0.164238
513.113483	0.163774
513.330930	0.163483
513.548358	0.163206
513.765768	0.164532
513.983160	0.164923
514.200533	0.164409
514.417889	0.163473
514.635226	0.163832
514.852545	0.163650
515.069845	0.163862
515.287128	0.164140
515.504392	0.164888
515.721638	0.164950
515.938866	0.164880
516.156075	0.165455
516.373267	0.166665
516.590440	0.167126
516.807594	0.166923
517.024731	0.168083
517.241850	0.168972
517.458950	0.169363
517.676032	0.169268
517.893095	0.169483
518.110141	0.169552
518.327168	0.169319
518.544177	0.168883
518.761168	0.168559
518.978141	0.168837
519.195095	0.169222
519.412031	0.169582
519.628949	0.170246
519.845849	0.170580
520.062731	0.170771
520.279594	0.170960
520.496439	0.171164
520.713266	0.171500
520.930074	0.171875
521.146865	0.171619
521.363637	0.171700
521.580391	0.172035
521.797127	0.172628
522.013844	0.172730
522.230543	0.172876
522.447224	0.174330
522.663887	0.174758
522.880532	0.174744
523.097158	0.174985
523.313766	0.175006
523.530356	0.174915
523.746928	0.175353
523.963481	0.176173
524.180017	0.176586
524.396534	0.175934
524.613032	0.176557
524.829513	0.176697
525.045975	0.176468
525.262420	0.176698
525.478845	0.177112
525.695253	0.176740
525.911643	0.176607
526.128014	0.176410
526.344367	0.176666
526.560702	0.177228
526.777018	0.177658
526.993316	0.178124
527.209597	0.178639
527.425858	0.178840
527.642102	0.178752
527.858328	0.178965
528.074535	0.179929
528.290724	0.180218
528.506894	0.180920
528.723047	0.180744
528.939181	0.180626
529.155297	0.181592
529.371395	0.182091
529.587475	0.183161
529.803536	0.183634
530.019579	0.183580
530.235604	0.184587
530.451611	0.184099
530.667600	0.184622
530.883570	0.186036
531.099522	0.185132
531.315456	0.185866
531.531372	0.186033
531.747269	0.186370
531.963148	0.187342
532.179009	0.186923
532.394852	0.187036
532.610676	0.187608
532.826482	0.187676
533.042271	0.189277
533.258040	0.189230
533.473792	0.189430
533.689525	0.189796
533.905240	0.190168
534.120937	0.191014
534.336616	0.191561
534.552277	0.191655
534.767919	0.191679
534.983543	0.191062
535.199149	0.191219
535.414736	0.191697
535.630306	0.191840
535.845857	0.191627
536.061390	0.191539
536.276904	0.192249
536.492401	0.192575
536.707879	0.193079
536.923339	0.193972
537.138781	0.194446
537.354204	0.194734
537.569610	0.195536
537.784997	0.196338
538.000366	0.196792
538.215716	0.197702
538.431049	0.197815
538.646363	0.198338
538.861659	0.199059
539.076937	0.198910
539.292196	0.199156
539.507438	0.199357
539.722661	0.199852
539.937866	0.200963
540.153052	0.200365
540.368221	0.201067
540.583371	0.201079
540.798503	0.201275
541.013617	0.202193
541.228712	0.202702
541.443789	0.203167
541.658848	0.203326
541.873889	0.203386
542.088912	0.203776
542.303916	0.203667
542.518902	0.203855
542.733870	0.203630
542.948820	0.203295
543.163752	0.203626
543.378665	0.203725
543.593560	0.203710
543.808437	0.203817
544.023295	0.204308
544.238136	0.205405
544.452958	0.206323
544.667762	0.206374
544.882548	0.207377
545.097315	0.208222
545.312064	0.208288
545.526795	0.209098
545.741508	0.208836
545.956203	0.208961
546.170879	0.208687
546.385537	0.208462
546.600177	0.208946
546.814799	0.208862
547.029402	0.208682
547.243988	0.209171
547.458555	0.208836
547.673103	0.209542
547.887634	0.209955
548.102146	0.210186
548.316640	0.210422
548.531116	0.210536
548.745574	0.210933
548.960013	0.211012
549.174435	0.211345
549.388838	0.212096
549.603222	0.212517
549.817589	0.213235
550.031937	0.213666
550.246267	0.213808
550.460579	0.214340
550.674873	0.214538
550.889148	0.214881
551.103405	0.215080
551.317644	0.214947
551.531865	0.214964
551.746068	0.214886
551.960252	0.214775
552.174418	0.215599
552.388566	0.216298
552.602696	0.216822
552.816807	0.217097
553.030900	0.217047
553.244975	0.217499
553.459032	0.218031
553.673070	0.218338
553.887091	0.219062
554.101093	0.219295
554.315077	0.219037
554.529042	0.219156
554.742990	0.219237
554.956919	0.219583
555.170830	0.219346
555.384722	0.219450
555.598597	0.219720
555.812453	0.219679
556.026291	0.219557
556.240111	0.219868
556.453913	0.219966
556.667696	0.220541
556.881461	0.220764
557.095208	0.221728
557.308937	0.221654
557.522647	0.221529
557.736339	0.221973
557.950013	0.222406
558.163669	0.222515
558.377307	0.222492
558.590926	0.222670
558.804527	0.222866
559.018110	0.222772
559.231675	0.223429
559.445221	0.224125
559.658749	0.223889
559.872259	0.223664
560.085751	0.224406
560.299225	0.224593
560.512680	0.224366
560.726117	0.224752
560.939536	0.225269
561.152937	0.225173
561.366319	0.225386
561.579683	0.226032
561.793029	0.226649
562.006357	0.226048
562.219667	0.226727
562.432958	0.227403
562.646231	0.227590
562.859486	0.227455
563.072723	0.227939
563.285941	0.227794
563.499141	0.227601
563.712323	0.227642
563.925487	0.228389
564.138632	0.228582
564.351760	0.228650
564.564869	0.228746
564.777960	0.228924
564.991032	0.228798
565.204087	0.229024
565.417123	0.229556
565.630141	0.230348
565.843140	0.230274
566.056122	0.230456
566.269085	0.230577
566.482030	0.231068
566.694957	0.231230
566.907866	0.231809
567.120756	0.232127
567.333628	0.232386
567.546482	0.232527
567.759318	0.233096
567.972135	0.233168
568.184935	0.233452
568.397716	0.233546
568.610478	0.234054
568.823223	0.234047
569.035949	0.233995
569.248657	0.234110
569.461347	0.233504
569.674019	0.233417
569.886672	0.233936
570.099308	0.233808
570.311925	0.233886
570.524523	0.234139
570.737104	0.234417
570.949666	0.234683
571.162210	0.235245
571.374736	0.236026
571.587244	0.236318
571.799733	0.236257
572.012205	0.236914
572.224658	0.237299
572.437092	0.237392
572.649509	0.237371
572.861907	0.237271
573.074287	0.237406
573.286649	0.237500
573.498993	0.237976
573.711318	0.238366
573.923625	0.238099
574.135914	0.238593
574.348185	0.238979
574.560438	0.239187
574.772672	0.239843
574.984888	0.239870
575.197086	0.239904
575.409266	0.239462
575.621427	0.239431
575.833570	0.239551
576.045695	0.239444
576.257802	0.239219
576.469890	0.240003
576.681961	0.240740
576.894013	0.240816
577.106046	0.241341
577.318062	0.242273
577.530059	0.242352
577.742039	0.243205
577.954000	0.243539
578.165942	0.243458
578.377867	0.243369
578.589773	0.242987
578.801661	0.243428
579.013531	0.243570
579.225382	0.243494
579.437216	0.243261
579.649031	0.243303
579.860828	0.243435
580.072606	0.244102
580.284367	0.244604
580.496109	0.244775
580.707833	0.245174
580.919539	0.245291
581.131227	0.245878
581.342896	0.246946
581.554547	0.247059
581.766180	0.247248
581.977795	0.247377
582.189391	0.247684
582.400969	0.247848
582.612529	0.248037
582.824071	0.247978
583.035595	0.247845
583.247100	0.247985
583.458587	0.248250
583.670056	0.248424
583.881506	0.248966
584.092939	0.248674
584.304353	0.249231
584.515749	0.249402
584.727127	0.250308
584.938486	0.250619
585.149828	0.250679
585.361151	0.251274
585.572456	0.251464
585.783742	0.251627
585.995011	0.252116
586.206261	0.252173
586.417493	0.252090
586.628706	0.251952
586.839902	0.252007
587.051079	0.252329
587.262238	0.252374
587.473379	0.253033
587.684502	0.253145
587.895606	0.253014
588.106692	0.253048
588.317760	0.253123
588.528810	0.253607
588.739841	0.253819
588.950855	0.254358
589.161850	0.254080
589.372827	0.254000
589.583785	0.254405
589.794726	0.254775
590.005648	0.255164
590.216552	0.255904
590.427437	0.255772
590.638305	0.256184
590.849154	0.255946
591.059985	0.256354
591.270798	0.256504
591.481592	0.256680
591.692369	0.256874
591.903127	0.256944
592.113867	0.256950
592.324588	0.257261
592.535292	0.257422
592.745977	0.258140
592.956644	0.258683
593.167293	0.259258
593.377923	0.259555
593.588536	0.260344
593.799130	0.260703
594.009706	0.260995
594.220263	0.260781
594.430803	0.260873
594.641324	0.260712
594.851827	0.261026
595.062312	0.261136
595.272778	0.261157
595.483227	0.261027
595.693657	0.261178
595.904069	0.261441
596.114462	0.261950
596.324838	0.262404
596.535195	0.262553
596.745534	0.262705
596.955855	0.262924
597.166157	0.263336
597.376441	0.263331
597.586707	0.263520
597.796955	0.263481
598.007185	0.263520
598.217396	0.263456
598.427589	0.263654
598.637764	0.263823
598.847921	0.263726
599.058060	0.263835
599.268180	0.264055
599.478282	0.264269
599.688366	0.264668
599.898431	0.265129
600.108479	0.265490
600.318508	0.265730
600.528519	0.265820
600.738511	0.266426
600.948486	0.266558
601.158442	0.267038
601.368380	0.267440
601.578300	0.267271
601.788202	0.267564
601.998085	0.267746
602.207950	0.267803
602.417797	0.268017
602.627626	0.268315
602.837436	0.268574
603.047228	0.268813
603.257002	0.268987
603.466758	0.269223
603.676496	0.269604
603.886215	0.269800
604.095916	0.270171
604.305599	0.270422
604.515264	0.270106
604.724910	0.270313
604.934538	0.270212
605.144148	0.270323
605.353740	0.270878
605.563314	0.270933
605.772869	0.271122
605.982406	0.271060
606.191925	0.271086
606.401425	0.271384
606.610908	0.271588
606.820372	0.271767
607.029818	0.271924
607.239246	0.271949
607.448655	0.271940
607.658047	0.271941
607.867420	0.272338
608.076775	0.272326
608.286111	0.272362
608.495430	0.272644
608.704730	0.272790
608.914012	0.273202
609.123275	0.273319
609.332521	0.273422
609.541748	0.273745
609.750957	0.273964
609.960148	0.274436
610.169321	0.274765
610.378475	0.275134
610.587611	0.275133
610.796729	0.275369
611.005829	0.275610
611.214910	0.276126
611.423974	0.276248
611.633019	0.276403
611.842045	0.276250
612.051054	0.276450
612.260044	0.276095
612.469017	0.276779
612.677970	0.276497
612.886906	0.276711
613.095824	0.276903
613.304723	0.277036
613.513604	0.277081
613.722467	0.277616
613.931311	0.277960
614.140138	0.278021
614.348946	0.277830
614.557736	0.278295
614.766507	0.278382
614.975261	0.278285
615.183996	0.278649
615.392713	0.278984
615.601412	0.279135
615.810092	0.279127
616.018754	0.279527
616.227399	0.279841
616.436024	0.279912
616.644632	0.280351
616.853222	0.280426
617.061793	0.280636
617.270346	0.280642
617.478880	0.280841
617.687397	0.281101
617.895895	0.281187
618.104375	0.281364
618.312837	0.281569
618.521281	0.281696
618.729706	0.282338
618.938113	0.282737
619.146502	0.283221
619.354873	0.283308
619.563226	0.283340
619.771560	0.283580
619.979876	0.283686
620.188174	0.283896
620.396453	0.283889
620.604715	0.283886
620.812958	0.283725
621.021183	0.283537
621.229390	0.283960
621.437578	0.284178
621.645748	0.284541
621.853900	0.284715
622.062034	0.284996
622.270150	0.285284
622.478247	0.285316
622.686326	0.285490
622.894387	0.285989
623.102430	0.285941
623.310454	0.285884
623.518461	0.285990
623.726449	0.286362
623.934418	0.286537
624.142370	0.286681
624.350303	0.287187
624.558218	0.287381
624.766115	0.287441
624.973994	0.287926
625.181855	0.288361
625.389697	0.288544
625.597521	0.288555
625.805327	0.288662
626.013114	0.289022
626.220883	0.289015
626.428634	0.289238
626.636367	0.289538
626.844082	0.289579
627.051778	0.289823
627.259457	0.289840
627.467117	0.290298
627.674758	0.290460
627.882382	0.291052
628.089987	0.291586
628.297574	0.291998
628.505143	0.292143
628.712694	0.292309
628.920226	0.292789
629.127740	0.293292
629.335236	0.293565
629.542714	0.293940
629.750174	0.293469
629.957615	0.293273
630.165038	0.293329
630.372443	0.293514
630.579829	0.293699
630.787198	0.293676
630.994548	0.293665
631.201880	0.293523
631.409194	0.293543
631.616489	0.293648
631.823766	0.293697
632.031025	0.293841
632.238266	0.293918
632.445489	0.294081
632.652693	0.294156
632.859879	0.294275
633.067047	0.294570
633.274197	0.294615
633.481329	0.294884
633.688442	0.295186
633.895537	0.295372
634.102614	0.295545
634.309672	0.295779
634.516713	0.295973
634.723735	0.296396
634.930739	0.296366
635.137724	0.296735
635.344692	0.296970
635.551641	0.297049
635.758572	0.297019
635.965485	0.297312
636.172379	0.297286
636.379256	0.297482
636.586114	0.297409
636.792954	0.297730
636.999775	0.297752
637.206579	0.297800
637.413364	0.298016
637.620131	0.298357
637.826880	0.298463
638.033610	0.298704
638.240323	0.298955
638.447017	0.299500
638.653692	0.299771
638.860350	0.300009
639.066990	0.300442
639.273611	0.300859
639.480214	0.301066
639.686798	0.301324
639.893365	0.301569
640.099913	0.301775
640.306443	0.301827
640.512955	0.301849
640.719449	0.302037
640.925924	0.302151
641.132381	0.302551
641.338820	0.302932
641.545241	0.302937
641.751644	0.303196
641.958028	0.303381
642.164394	0.303602
642.370742	0.304045
642.577071	0.304398
642.783383	0.304554
642.989676	0.304651
643.195951	0.304682
643.402207	0.305107
643.608446	0.305300
643.814666	0.305379
644.020868	0.305587
644.227052	0.305624
644.433218	0.305425
644.639365	0.305537
644.845494	0.305360
645.051605	0.305484
645.257698	0.305741
645.463772	0.305850
645.669828	0.306054
645.875866	0.306198
646.081886	0.306254
646.287888	0.306966
646.493871	0.307345
646.699836	0.307527
646.905783	0.307834
647.111712	0.308076
647.317622	0.308191
647.523514	0.308305
647.729388	0.308423
647.935244	0.308759
648.141082	0.308779
648.346901	0.309061
648.552702	0.309541
648.758485	0.309553
648.964250	0.309740
649.169996	0.310083
649.375724	0.310326
649.581434	0.310639
649.787126	0.310917
649.992800	0.311024
650.198455	0.310840
650.404092	0.311238
650.609711	0.311698
650.815311	0.311676
651.020894	0.311813
651.226458	0.312284
651.432004	0.312322
651.637532	0.312735
651.843041	0.312999
652.048532	0.313365
652.254006	0.312949
652.459460	0.313416
652.664897	0.313501
652.870315	0.313748
653.075716	0.313819
653.281097	0.314115
653.486461	0.314289
653.691807	0.314437
653.897134	0.315005
654.102443	0.315471
654.307734	0.315301
654.513006	0.315797
654.718261	0.315990
654.923497	0.315891
655.128715	0.316329
655.333915	0.316367
655.539096	0.317046
655.744259	0.316968
655.949404	0.317350
656.154531	0.317722
656.359640	0.317777
656.564730	0.317928
656.769802	0.318610
656.974856	0.318649
657.179892	0.318820
657.384909	0.318602
657.589908	0.318916
657.794889	0.319202
657.999852	0.319326
658.204797	0.319742
658.409723	0.320274
658.614631	0.320237
658.819521	0.320510
659.024393	0.320713
659.229246	0.321125
659.434081	0.321068
659.638898	0.321147
659.843697	0.321447
660.048478	0.321547
660.253240	0.321509
660.457984	0.322014
660.662710	0.322191
660.867417	0.322662
661.072107	0.322560
661.276778	0.323204
661.481431	0.323213
661.686066	0.323390
661.890682	0.323864
662.095281	0.324017
662.299861	0.324073
662.504422	0.324316
662.708966	0.324230
662.913491	0.324776
663.117999	0.325154
663.322488	0.325672
663.526958	0.325962
663.731411	0.326020
663.935845	0.326390
664.140261	0.326660
664.344659	0.327025
664.549038	0.327616
664.753400	0.327880
664.957743	0.327815
665.162068	0.328266
665.366375	0.328715
665.570663	0.328984
665.774933	0.329490
665.979185	0.329876
666.183419	0.330164
666.387635	0.330556
666.591832	0.330874
666.796011	0.331053
667.000172	0.331288
667.204315	0.331462
667.408439	0.331977
667.612545	0.332039
667.816634	0.332391
668.020703	0.332549
668.224755	0.332762
668.428788	0.333242
668.632803	0.333775
668.836800	0.333804
669.040779	0.334118
669.244739	0.334103
669.448681	0.334451
669.652605	0.334417
669.856511	0.334659
670.060399	0.334782
670.264268	0.334683
670.468119	0.335146
670.671952	0.335370
670.875767	0.335442
671.079563	0.335734
671.283341	0.335835
671.487101	0.336330
671.690843	0.336543
671.894567	0.336589
672.098272	0.336963
672.301959	0.336764
672.505628	0.337043
672.709278	0.337134
672.912911	0.337233
673.116525	0.337543
673.320121	0.337831
673.523699	0.338051
673.727258	0.338290
673.930799	0.338370
674.134322	0.338598
674.337827	0.338765
674.541314	0.338950
674.744782	0.339288
674.948232	0.339631
675.151664	0.339834
675.355078	0.339999
675.558474	0.340235
675.761851	0.340436
675.965210	0.340866
676.168551	0.341142
676.371873	0.341602
676.575178	0.341748
676.778464	0.341902
676.981732	0.342070
677.184981	0.342723
677.388213	0.343024
677.591426	0.343567
677.794621	0.343655
677.997798	0.343951
678.200956	0.343932
678.404097	0.344395
678.607219	0.344620
678.810323	0.344741
679.013408	0.344718
679.216476	0.344961
679.419525	0.345159
679.622556	0.345487
679.825569	0.345712
680.028563	0.346354
680.231540	0.346599
680.434498	0.346560
680.637438	0.346867
680.840359	0.347074
681.043263	0.347261
681.246148	0.347330
681.449015	0.347422
681.651864	0.347287
681.854694	0.347140
682.057506	0.347211
682.260301	0.347926
682.463076	0.348019
682.665834	0.348329
682.868573	0.348839
683.071295	0.349284
683.273998	0.349684
683.476682	0.350172
683.679349	0.350602
683.881997	0.351066
684.084627	0.351389
684.287239	0.351661
684.489833	0.351973
684.692408	0.352157
684.894965	0.352134
685.097504	0.352429
685.300025	0.352996
685.502527	0.353169
685.705012	0.353316
685.907478	0.353319
686.109925	0.353569
686.312355	0.353804
686.514766	0.353658
686.717159	0.353984
686.919534	0.354144
687.121891	0.354247
687.324230	0.354592
687.526550	0.354593
687.728852	0.354795
687.931136	0.355065
688.133401	0.355047
688.335649	0.355538
688.537878	0.355833
688.740089	0.356018
688.942281	0.356112
689.144456	0.356075
689.346612	0.356543
689.548750	0.356718
689.750870	0.357056
689.952971	0.357290
690.155055	0.357748
690.357120	0.357702
690.559167	0.357981
690.761195	0.358129
690.963206	0.358433
691.165198	0.358387
691.367172	0.358511
691.569128	0.358387
691.771065	0.358735
691.972984	0.358569
692.174885	0.358767
692.376768	0.358707
692.578633	0.359143
692.780479	0.359153
692.982308	0.359459
693.184118	0.359917
693.385909	0.360186
693.587683	0.360201
693.789438	0.360434
693.991175	0.360646
694.192894	0.360932
694.394595	0.361231
694.596277	0.361557
694.797941	0.361572
694.999587	0.361513
695.201215	0.361735
695.402824	0.361880
695.604416	0.362208
695.805989	0.362394
696.007543	0.362763
696.209080	0.362375
696.410598	0.362787
696.612099	0.363073
696.813580	0.363033
697.015044	0.363136
697.216490	0.363431
697.417917	0.363432
697.619326	0.363587
697.820717	0.363370
698.022089	0.363799
698.223444	0.364180
698.424780	0.364280
698.626098	0.364752
698.827397	0.365056
699.028679	0.365455
699.229942	0.365503
699.431187	0.365563
699.632414	0.366058
699.833622	0.366291
700.034813	0.366136
700.235985	0.366498
700.437139	0.366768
700.638274	0.366991
700.839392	0.366792
701.040491	0.366989
701.241572	0.367645
701.442635	0.367708
701.643679	0.367796
701.844706	0.368023
702.045714	0.368089
702.246704	0.368177
702.447675	0.368222
702.648629	0.368447
702.849564	0.368554
703.050481	0.368439
703.251380	0.368802
703.452260	0.368813
703.653122	0.368874
703.853966	0.368957
704.054792	0.368897
704.255600	0.368990
704.456389	0.368997
704.657160	0.369043
704.857913	0.369015
705.058648	0.368911
705.259365	0.369170
705.460063	0.369024
705.660743	0.369083
705.861405	0.369087
706.062048	0.368908
706.262674	0.368935
706.463281	0.369108
706.663870	0.369159
706.864441	0.369080
707.064993	0.369325
707.265527	0.369276
707.466043	0.369436
707.666541	0.369501
707.867021	0.369890
708.067482	0.370122
708.267925	0.370455
708.468350	0.370543
708.668757	0.370777
708.869145	0.370738
709.069516	0.371287
709.269868	0.371328
709.470201	0.371658
709.670517	0.371732
709.870814	0.371805
710.071093	0.371769
710.271354	0.372164
710.471597	0.372173
710.671821	0.372056
710.872028	0.371746
711.072216	0.371955
711.272385	0.371893
711.472537	0.371896
711.672670	0.371788
711.872785	0.371772
712.072882	0.371634
712.272961	0.371574
712.473021	0.371675
712.673063	0.371769
712.873087	0.371639
713.073093	0.371688
713.273081	0.371655
713.473050	0.371756
713.673001	0.371655
713.872934	0.371495
714.072849	0.371773
714.272745	0.371862
714.472623	0.371988
714.672483	0.372212
714.872325	0.372298
715.072148	0.372347
715.271954	0.372406
715.471741	0.372451
715.671509	0.372051
715.871260	0.371696
716.070992	0.371662
716.270707	0.371773
716.470403	0.371350
716.670080	0.371304
716.869740	0.371091
717.069381	0.371077
717.269004	0.370979
717.468609	0.370921
717.668195	0.370967
717.867764	0.370727
718.067314	0.370438
718.266846	0.370724
718.466360	0.370654
718.665855	0.370731
718.865332	0.370685
719.064791	0.370395
719.264232	0.370608
719.463655	0.370556
719.663059	0.370311
719.862445	0.370212
720.061813	0.369693
720.261163	0.369600
720.460494	0.369645
720.659807	0.369364
720.859102	0.369410
721.058379	0.369569
721.257638	0.369703
721.456878	0.370006
721.656100	0.369849
721.855304	0.370127
722.054490	0.370121
722.253657	0.369867
722.452806	0.369954
722.651937	0.370132
722.851050	0.370131
723.050145	0.369779
723.249221	0.369466
723.448279	0.369611
723.647319	0.369443
723.846340	0.369162
724.045344	0.369447
724.244329	0.369571
724.443296	0.369591
724.642245	0.369451
724.841175	0.369528
725.040088	0.369744
725.238982	0.369727
725.437857	0.369716
725.636715	0.369705
725.835554	0.369503
726.034376	0.368868
726.233179	0.368567
726.431963	0.368718
726.630730	0.368648
726.829478	0.368389
727.028208	0.368315
727.226920	0.368185
727.425614	0.368101
727.624289	0.367644
727.822946	0.367903
728.021585	0.367921
728.220206	0.367562
728.418808	0.367540
728.617392	0.367419
728.815958	0.367058
729.014506	0.366951
729.213036	0.366795
729.411547	0.367064
729.610040	0.366988
729.808515	0.366657
730.006972	0.366560
730.205410	0.366477
730.403831	0.366454
730.602233	0.366685
730.800616	0.366324
730.998982	0.366132
731.197329	0.365612
731.395658	0.365471
731.593969	0.365459
731.792262	0.365386
731.990536	0.364920
732.188793	0.364793
732.387031	0.364525
732.585250	0.364419
732.783452	0.364154
732.981635	0.364270
733.179800	0.364069
733.377947	0.364061
733.576076	0.363644
733.774186	0.363695
733.972278	0.363354
734.170352	0.363108
734.368408	0.363169
734.566446	0.363166
734.764465	0.362965
734.962466	0.362883
735.160449	0.362929
735.358413	0.363039
735.556360	0.362813
735.754288	0.362918
735.952198	0.362994
736.150090	0.362980
736.347963	0.362938
736.545818	0.362763
736.743655	0.362557
736.941474	0.362187
737.139275	0.361999
737.337057	0.361887
737.534821	0.361649
737.732567	0.361325
737.930295	0.360609
738.128005	0.360499
738.325696	0.360217
738.523369	0.360093
738.721024	0.359806
738.918660	0.359551
739.116279	0.359556
739.313879	0.359220
739.511461	0.359087
739.709024	0.359268
739.906570	0.359250
740.104097	0.359320
740.301606	0.359019
740.499097	0.358887
740.696569	0.358479
740.894024	0.358270
741.091460	0.358108
741.288878	0.357836
741.486277	0.357644
741.683659	0.357142
741.881022	0.356838
742.078367	0.356691
742.275694	0.356418
742.473002	0.356375
742.670293	0.356029
742.867565	0.355883
743.064819	0.355871
743.262054	0.355933
743.459272	0.355671
743.656471	0.355189
743.853652	0.354717
744.050815	0.354474
744.247959	0.354282
744.445085	0.354062
744.642194	0.353885
744.839283	0.353342
745.036355	0.352761
745.233408	0.352536
745.430444	0.352563
745.627461	0.352365
745.824459	0.352266
746.021440	0.351970
746.218402	0.351340
746.415346	0.350912
746.612272	0.350455
746.809180	0.350228
747.006069	0.350021
747.202940	0.349643
747.399793	0.349657
747.596628	0.349359
747.793444	0.349243
747.990243	0.349337
748.187023	0.349207
748.383784	0.349415
748.580528	0.348975
748.777253	0.348806
748.973960	0.348678
749.170649	0.348452
749.367320	0.348215
749.563973	0.347920
749.760607	0.347623
749.957223	0.347515
750.153821	0.347094
750.350400	0.346936
750.546962	0.346603
750.743505	0.346430
750.940030	0.346058
751.136536	0.345910
751.333025	0.345818
751.529495	0.345601
751.725947	0.345088
751.922381	0.344858
752.118796	0.344755
752.315194	0.344886
752.511573	0.344751
752.707934	0.344566
752.904276	0.344189
753.100601	0.344152
753.296907	0.344162
753.493195	0.344314
753.689465	0.344120
753.885716	0.344015
754.081949	0.343569
754.278164	0.343228
754.474361	0.343177
754.670540	0.343290
754.866700	0.342811
755.062843	0.342525
755.258967	0.342176
755.455072	0.342354
755.651160	0.342160
755.847229	0.341856
756.043280	0.341679
756.239313	0.341745
756.435328	0.341720
756.631324	0.341474
756.827302	0.341352
757.023262	0.341337
757.219204	0.341109
757.415127	0.341219
757.611033	0.341151
757.806920	0.341089
758.002788	0.340779
758.198639	0.340494
758.394471	0.340481
758.590286	0.340454
758.786081	0.340177
758.981859	0.340053
759.177619	0.339642
759.373360	0.339668
759.569083	0.339670
759.764788	0.339556
759.960474	0.339041
760.156143	0.339105
760.351793	0.338914
760.547425	0.338723
760.743038	0.338555
760.938634	0.338290
761.134211	0.337821
761.329770	0.337341
761.525311	0.336991
761.720833	0.336788
761.916338	0.336348
762.111824	0.335932
762.307292	0.335537
762.502741	0.335128
762.698173	0.335016
762.893586	0.335145
763.088981	0.335046
763.284358	0.334914
763.479716	0.334797
763.675057	0.334689
763.870379	0.334704
764.065683	0.334879
764.260968	0.334742
764.456236	0.334686
764.651485	0.334499
764.846716	0.334500
765.041929	0.334054
765.237123	0.334057
765.432299	0.333837
765.627457	0.333608
765.822597	0.333315
766.017719	0.333117
766.212822	0.333154
766.407907	0.333050
766.602974	0.332790
766.798023	0.332825
766.993054	0.333148
767.188066	0.332887
767.383060	0.332856
767.578036	0.332886
767.772993	0.332685
767.967933	0.332117
768.162854	0.331989
768.357757	0.332004
768.552642	0.332007
768.747508	0.331501
768.942356	0.331586
769.137186	0.331211
769.331998	0.330739
769.526792	0.330815
769.721567	0.330912
769.916324	0.330552
770.111063	0.330106
770.305784	0.329956
770.500486	0.329813
770.695171	0.329608
770.889837	0.329668
771.084484	0.330018
771.279114	0.329939
771.473725	0.330008
771.668318	0.329827
771.862893	0.329896
772.057450	0.329551
772.251988	0.329599
772.446509	0.329529
772.641011	0.329432
772.835494	0.329400
773.029960	0.329297
773.224407	0.328768
773.418836	0.328959
773.613247	0.328678
773.807640	0.328923
774.002014	0.328845
774.196370	0.328770
774.390708	0.328798
774.585028	0.328339
774.779330	0.328179
774.973613	0.328280
775.167878	0.327901
775.362125	0.328146
775.556354	0.327974
775.750564	0.327652
775.944756	0.327555
776.138930	0.327304
776.333086	0.327363
776.527223	0.327252
776.721343	0.327108
776.915444	0.327289
777.109526	0.327149
777.303591	0.327086
777.497637	0.327246
777.691666	0.327317
777.885676	0.327289
778.079667	0.327072
778.273641	0.327145
778.467596	0.327356
778.661533	0.327243
778.855452	0.327031
779.049352	0.327214
779.243235	0.326957
779.437099	0.326787
779.630945	0.327003
779.824773	0.327190
780.018582	0.327054
780.212373	0.327156
780.406146	0.327261
780.599901	0.327501
780.793638	0.327504
780.987356	0.327552
781.181056	0.327607
781.374738	0.327210
781.568402	0.327307
781.762047	0.327127
781.955674	0.327069
782.149283	0.327274
782.342874	0.327129
782.536447	0.326832
782.730001	0.326735
782.923537	0.326722
783.117055	0.326860
783.310555	0.326828
783.504036	0.327063
783.697499	0.326920
783.890944	0.326357
784.084371	0.326340
784.277780	0.326049
784.471170	0.326166
784.664542	0.326187
784.857896	0.326439
785.051231	0.326257
785.244549	0.326252
785.437848	0.326249
785.631129	0.326610
785.824392	0.326754
786.017636	0.327101
786.210863	0.327141
786.404071	0.326979
786.597260	0.326716
786.790432	0.326777
786.983585	0.326721
787.176721	0.326477
787.369838	0.326426
787.562936	0.326482
787.756017	0.326392
787.949079	0.326352
788.142123	0.326626
788.335149	0.326643
788.528156	0.326681
788.721146	0.326792
788.914117	0.327229
789.107070	0.327147
789.300005	0.327074
789.492921	0.327319
789.685819	0.327347
789.878699	0.326933
790.071561	0.327002
790.264405	0.327111
790.457230	0.327090
790.650037	0.326747
790.842826	0.326899
791.035597	0.326898
791.228349	0.326917
791.421084	0.326873
791.613800	0.327336
791.806497	0.327466
791.999177	0.327678
792.191838	0.327776
792.384481	0.327707
792.577106	0.327914
792.769713	0.327967
792.962301	0.327896
793.154871	0.328148
793.347423	0.327996
793.539957	0.328374
793.732473	0.328270
793.924970	0.328638
794.117449	0.329189
794.309910	0.329594
794.502353	0.329894
794.694777	0.330125
794.887183	0.330238
795.079571	0.330584
795.271941	0.330495
795.464293	0.330801
795.656626	0.330717
795.848941	0.330733
796.041238	0.330587
796.233516	0.330614
796.425777	0.330664
796.618019	0.330720
796.810243	0.330905
797.002449	0.330959
797.194636	0.330875
797.386805	0.331041
797.578956	0.331206
797.771089	0.331103
797.963204	0.331209
798.155300	0.331635
798.347378	0.331883
798.539438	0.332053
798.731480	0.332176
798.923503	0.332202
799.115509	0.332417
799.307496	0.332515
799.499465	0.332850
799.691415	0.333158
799.883348	0.333229
800.075262	0.333478
800.267158	0.333476
800.459035	0.333615
800.650895	0.333844
800.842736	0.333865
801.034559	0.333922
801.226364	0.334007
801.418150	0.333922
801.609919	0.334106
801.801669	0.334123
801.993401	0.334483
802.185114	0.334756
802.376810	0.335116
802.568487	0.335455
802.760146	0.335769
802.951787	0.335958
803.143409	0.336360
803.335014	0.336279
803.526600	0.336538
803.718168	0.336533
803.909717	0.336736
804.101249	0.336966
804.292762	0.337077
804.484257	0.337287
804.675734	0.337617
804.867192	0.337917
805.058632	0.338070
805.250054	0.337975
805.441458	0.338600
805.632844	0.338855
805.824211	0.338900
806.015561	0.338954
806.206891	0.339064
806.398204	0.339216
806.589499	0.339251
806.780775	0.339670
806.972033	0.339969
807.163273	0.340003
807.354495	0.340332
807.545698	0.340849
807.736883	0.341460
807.928050	0.341953
808.119199	0.342074
808.310329	0.342644
808.501441	0.342811
808.692535	0.343053
808.883611	0.342992
809.074669	0.342909
809.265708	0.342913
809.456729	0.342725
809.647732	0.342942
809.838717	0.343227
810.029683	0.343047
810.220632	0.343369
810.411562	0.343832
810.602474	0.344212
810.793367	0.344596
810.984242	0.344821
811.175100	0.345240
811.365938	0.345341
811.556759	0.345633
811.747562	0.345725
811.938346	0.346173
812.129112	0.346430
812.319860	0.346615
812.510589	0.346911
812.701300	0.347470
812.891994	0.347707
813.082668	0.348190
813.273325	0.348651
813.463964	0.349282
813.654584	0.349359
813.845186	0.349567
814.035769	0.350012
814.226335	0.350399
814.416882	0.350448
814.607411	0.350715
814.797922	0.350900
814.988415	0.351125
815.178889	0.351293
815.369345	0.351705
815.559783	0.352089
815.750203	0.352520
815.940605	0.352703
816.130988	0.353192
816.321353	0.353354
816.511700	0.353621
816.702028	0.353882
816.892339	0.354234
817.082631	0.354501
817.272905	0.354941
817.463161	0.355253
817.653398	0.355553
817.843617	0.355750
818.033819	0.356187
818.224001	0.356591
818.414166	0.356868
818.604312	0.357409
818.794440	0.357734
818.984550	0.358191
819.174642	0.358338
819.364716	0.358695
819.554771	0.358949
819.744808	0.359343
819.934827	0.359376
820.124827	0.359761
820.314810	0.359644
820.504774	0.359957
820.694720	0.359948
820.884647	0.360202
821.074557	0.360380
821.264448	0.360824
821.454321	0.361335
821.644176	0.361929
821.834012	0.362228
822.023831	0.362905
822.213631	0.363111
822.403413	0.363279
822.593176	0.363627
822.782922	0.364032
822.972649	0.364295
823.162358	0.364542
823.352049	0.365034
823.541721	0.365520
823.731376	0.365566
823.921012	0.366014
824.110629	0.366526
824.300229	0.367106
824.489811	0.367455
824.679374	0.367748
824.868919	0.367911
825.058445	0.368041
825.247954	0.368331
825.437444	0.368910
825.626916	0.369276
825.816370	0.369771
826.005806	0.370067
826.195223	0.370800
826.384622	0.371264
826.574003	0.371771
826.763366	0.372462
826.952711	0.372386
827.142037	0.372939
827.331345	0.373654
827.520635	0.374014
827.709906	0.374324
827.899160	0.374763
828.088395	0.375248
828.277612	0.375624
828.466810	0.375732
828.655991	0.376718
828.845153	0.377358
829.034297	0.377511
829.223423	0.377959
829.412531	0.378476
829.601620	0.378536
829.790691	0.379065
829.979744	0.379898
830.168779	0.380387
830.357795	0.380768
830.546793	0.380994
830.735773	0.381340
830.924735	0.381608
831.113679	0.381987
831.302604	0.382646
831.491511	0.382829
831.680400	0.383108
831.869271	0.383787
832.058123	0.384102
832.246957	0.384771
832.435773	0.385169
832.624571	0.385840
832.813351	0.386471
833.002112	0.387085
833.190855	0.387400
833.379580	0.387698
833.568287	0.387836
833.756975	0.387820
833.945645	0.387621
834.134297	0.388139
834.322931	0.388315
834.511547	0.388470
834.700144	0.388294
834.888723	0.388929
835.077284	0.389185
835.265826	0.389614
835.454351	0.390458
835.642857	0.391036
835.831345	0.391744
836.019815	0.392472
836.208266	0.393073
836.396699	0.393772
836.585114	0.394116
836.773511	0.394498
836.961890	0.394752
837.150250	0.395155
837.338592	0.395722
837.526916	0.395816
837.715222	0.396041
837.903510	0.396429
838.091779	0.396769
838.280030	0.397276
838.468263	0.397952
838.656477	0.398857
838.844674	0.399238
839.032852	0.399433
839.221012	0.399972
839.409153	0.400857
839.597277	0.401300
839.785382	0.401718
839.973469	0.402203
840.161538	0.402607
840.349589	0.403086
840.537621	0.403728
840.725635	0.404391
840.913631	0.405003
841.101609	0.405093
841.289568	0.405633
841.477509	0.406293
841.665432	0.406728
841.853337	0.407216
842.041224	0.407444
842.229092	0.407775
842.416942	0.408184
842.604774	0.408476
842.792588	0.408724
842.980383	0.409044
843.168160	0.409496
843.355919	0.409831
843.543660	0.410446
843.731382	0.410969
843.919087	0.411597
844.106773	0.412081
844.294441	0.412535
844.482090	0.413001
844.669722	0.413465
844.857335	0.414008
845.044930	0.414493
845.232507	0.414905
845.420065	0.415270
845.607605	0.415930
845.795127	0.416364
845.982631	0.416875
846.170117	0.417651
846.357584	0.418109
846.545033	0.418278
846.732464	0.418434
846.919877	0.418899
847.107272	0.419983
847.294648	0.420115
847.482006	0.420957
847.669346	0.421734
847.856667	0.422216
848.043971	0.422990
848.231256	0.423797
848.418523	0.424494
848.605771	0.425122
848.793002	0.425108
848.980214	0.425528
849.167408	0.425844
849.354584	0.426213
849.541742	0.426380
849.728881	0.426562
849.916002	0.426711
850.103105	0.427459
850.290190	0.427688
850.477256	0.428358
850.664304	0.428681
850.851334	0.429560
851.038346	0.429833
851.225340	0.430641
851.412315	0.431044
851.599272	0.431679
851.786211	0.432016
851.973132	0.432816
852.160034	0.433117
852.346918	0.433853
852.533784	0.433792
852.720632	0.434034
852.907462	0.434552
853.094273	0.435116
853.281066	0.435591
853.467841	0.436174
853.654598	0.436304
853.841336	0.436662
854.028056	0.437179
854.214758	0.437460
854.401442	0.438296
854.588107	0.438312
854.774755	0.438549
854.961384	0.439172
855.147995	0.439556
855.334587	0.439983
855.521162	0.440603
855.707718	0.440668
855.894256	0.441365
856.080775	0.441511
856.267277	0.442284
856.453760	0.442772
856.640225	0.443139
856.826672	0.443313
857.013101	0.443503
857.199511	0.443885
857.385903	0.444127
857.572277	0.444158
857.758633	0.444588
857.944970	0.444561
858.131290	0.445132
858.317591	0.445291
858.503873	0.445810
858.690138	0.446453
858.876384	0.446523
859.062612	0.447592
859.248822	0.448050
859.435014	0.448144
859.621188	0.448973
859.807343	0.448900
859.993480	0.449463
860.179599	0.450156
860.365699	0.450756
860.551781	0.451282
860.737846	0.451733
860.923891	0.452401
861.109919	0.453221
861.295929	0.453765
861.481920	0.454842
861.667893	0.455118
861.853848	0.455184
862.039784	0.455228
862.225702	0.455655
862.411603	0.455842
862.597484	0.455998
862.783348	0.456147
862.969193	0.456312
863.155021	0.456409
863.340830	0.456623
863.526620	0.457219
863.712393	0.457820
863.898147	0.458383
864.083883	0.458568
864.269601	0.459293
864.455301	0.459981
864.640982	0.460312
864.826645	0.460865
865.012290	0.460996
865.197917	0.461521
865.383526	0.461407
865.569116	0.461698
865.754688	0.462255
865.940242	0.462701
866.125777	0.462849
866.311295	0.463369
866.496794	0.463587
866.682275	0.464600
866.867737	0.464700
867.053182	0.465579
867.238608	0.465961
867.424016	0.466247
867.609406	0.466338
867.794778	0.466886
867.980131	0.467180
868.165466	0.467719
868.350783	0.467952
868.536082	0.468322
868.721362	0.468204
868.906625	0.468043
869.091869	0.468288
869.277094	0.468757
869.462302	0.468905
869.647491	0.469046
869.832662	0.469115
870.017815	0.469456
870.202950	0.469950
870.388066	0.470165
870.573165	0.470787
870.758245	0.471147
870.943306	0.471218
871.128350	0.471806
871.313375	0.472049
871.498382	0.472707
871.683371	0.473323
871.868342	0.473551
872.053294	0.474670
872.238229	0.474547
872.423144	0.474758
872.608042	0.475093
872.792922	0.475154
872.977783	0.475428
873.162626	0.475383
873.347451	0.475303
873.532258	0.474955
873.717046	0.474837
873.901816	0.475718
874.086568	0.476272
874.271302	0.476413
874.456017	0.476473
874.640715	0.476840
874.825394	0.477122
875.010055	0.477194
875.194697	0.477824
875.379322	0.477790
875.563928	0.477879
875.748516	0.477741
875.933085	0.477711
876.117637	0.478202
876.302170	0.478355
876.486685	0.478848
876.671182	0.479352
876.855661	0.479940
877.040121	0.480803
877.224563	0.480805
877.408987	0.481356
877.593393	0.481991
877.777780	0.482099
877.962150	0.482240
878.146501	0.481943
878.330833	0.482199
878.515148	0.482141
878.699444	0.481963
878.883722	0.482459
879.067982	0.482616
879.252224	0.482407
879.436447	0.482515
879.620653	0.482415
879.804840	0.482986
879.989008	0.482805
880.173159	0.482883
880.357291	0.482992
880.541405	0.482673
880.725501	0.482538
880.909579	0.482890
881.093638	0.483307
881.277680	0.484024
881.461703	0.483819
881.645707	0.483854
881.829694	0.483871
882.013662	0.483856
882.197612	0.484207
882.381544	0.484206
882.565458	0.484608
882.749353	0.484529
882.933230	0.484515
883.117089	0.484859
883.300930	0.485368
883.484753	0.485509
883.668557	0.485331
883.852343	0.485442
884.036111	0.485328
884.219861	0.485567
884.403592	0.485203
884.587305	0.485365
884.771000	0.485127
884.954677	0.484909
885.138335	0.484908
885.321976	0.485552
885.505598	0.485811
885.689201	0.486299
885.872787	0.486446
886.056354	0.487031
886.239904	0.487136
886.423434	0.487369
886.606947	0.487321
886.790442	0.487396
886.973918	0.487113
887.157376	0.487072
887.340816	0.486971
887.524237	0.486840
887.707641	0.486965
887.891026	0.486698
888.074393	0.486263
888.257741	0.486329
888.441072	0.486147
888.624384	0.485834
888.807678	0.485569
888.990954	0.485149
889.174211	0.484671
889.357451	0.484412
889.540672	0.484358
889.723875	0.484703
889.907059	0.484856
890.090226	0.485178
890.273374	0.485276
890.456504	0.485029
890.639616	0.485248
890.822709	0.485382
891.005785	0.485216
891.188842	0.485013
891.371881	0.484951
891.554901	0.484636
891.737904	0.483852
891.920888	0.484129
892.103854	0.484685
892.286802	0.484530
892.469731	0.484278
892.652643	0.484424
892.835536	0.484422
893.018410	0.484696
893.201267	0.484530
893.384106	0.485547
893.566926	0.485142
893.749728	0.484551
893.932511	0.484489
894.115277	0.484586
894.298024	0.484048
894.480753	0.483766
894.663464	0.482986
894.846157	0.483216
895.028831	0.482623
895.211487	0.482162
895.394125	0.482083
895.576745	0.481954
895.759346	0.481385
895.941930	0.481216
896.124495	0.481224
896.307041	0.481068
896.489570	0.480835
896.672080	0.480204
896.854573	0.480148
897.037046	0.479820
897.219502	0.479639
897.401940	0.479410
897.584359	0.479083
897.766760	0.479171
897.949143	0.478671
898.131507	0.477958
898.313854	0.477524
898.496182	0.477186
898.678492	0.476894
898.860783	0.476975
899.043057	0.476817
899.225312	0.477094
899.407549	0.476108
899.589768	0.476238
899.771968	0.475966
899.954151	0.475988
900.136315	0.475724
900.318461	0.475548
900.500588	0.475112
900.682698	0.474131
900.864789	0.473471
901.046862	0.473254
901.228917	0.472872
901.410953	0.473215
901.592971	0.473218
901.774972	0.472866
901.956953	0.472877
902.138917	0.472132
902.320862	0.472342
902.502790	0.472065
902.684699	0.472289
902.866589	0.471702
903.048462	0.470580
903.230316	0.470282
903.412152	0.470850
903.593970	0.470243
903.775770	0.469948
903.957551	0.469468
904.139314	0.469142
904.321059	0.468512
904.502786	0.468539
904.684494	0.468105
904.866185	0.467235
905.047857	0.465915
905.229510	0.465300
905.411146	0.465445
905.592763	0.464864
905.774363	0.464642
905.955943	0.464113
906.137506	0.463299
906.319051	0.463620
906.500577	0.463528
906.682085	0.463443
906.863575	0.462991
907.045046	0.462003
907.226500	0.462033
907.407935	0.460865
907.589352	0.460306
907.770750	0.460421
907.952131	0.459790
908.133493	0.458634
908.314837	0.458084
908.496163	0.458484
908.677470	0.457838
908.858760	0.457191
909.040031	0.457424
909.221284	0.456522
909.402518	0.455792
909.583735	0.455171
909.764933	0.455299
909.946113	0.454849
910.127275	0.453828
910.308418	0.453666
910.489544	0.453408
910.670651	0.452865
910.851740	0.452649
911.032810	0.451996
911.213863	0.451207
911.394897	0.450437
911.575913	0.449890
911.756911	0.449176
911.937890	0.448728
912.118851	0.447584
912.299794	0.446508
912.480719	0.445732
912.661626	0.445174
912.842514	0.444782
913.023384	0.443940
913.204236	0.443366
913.385070	0.442582
913.565886	0.441808
913.746683	0.442006
913.927462	0.441611
914.108223	0.441079
914.288965	0.440580
914.469690	0.439642
914.650396	0.438912
914.831084	0.437942
915.011754	0.437199
915.192405	0.436719
915.373038	0.436279
915.553653	0.435680
915.734250	0.435269
915.914829	0.434796
916.095389	0.434159
916.275931	0.433884
916.456455	0.433295
916.636961	0.432930
916.817448	0.431343
916.997917	0.430251
917.178368	0.428747
917.358801	0.427388
917.539216	0.426097
917.719612	0.425661
917.899990	0.425020
918.080350	0.424470
918.260692	0.423492
918.441015	0.422952
918.621320	0.422054
918.801607	0.422293
918.981876	0.422634
919.162127	0.422151
919.342359	0.420997
919.522573	0.420584
919.702769	0.420013
919.882947	0.419730
920.063106	0.419246
920.243247	0.418827
920.423370	0.417034
920.603475	0.415616
920.783562	0.414970
920.963630	0.414613
921.143680	0.413606
921.323712	0.413101
921.503725	0.412009
921.683721	0.411517
921.863698	0.410294
922.043657	0.410091
922.223598	0.409556
922.403520	0.408686
922.583424	0.407872
922.763311	0.407471
922.943178	0.405557
923.123028	0.404294
923.302859	0.403327
923.482673	0.401515
923.662467	0.400620
923.842244	0.399336
924.022003	0.398314
924.201743	0.396867
924.381465	0.394672
924.561169	0.394191
924.740854	0.393208
924.920522	0.392379
925.100171	0.392386
925.279802	0.391341
925.459414	0.390332
925.639009	0.389457
925.818585	0.388300
925.998143	0.388229
926.177683	0.386888
926.357205	0.386037
926.536708	0.385412
926.716193	0.384136
926.895660	0.382838
927.075109	0.381933
927.254539	0.380824
927.433951	0.379944
927.613345	0.378294
927.792721	0.378474
927.972079	0.377893
928.151418	0.376426
928.330739	0.375336
928.510042	0.374770
928.689327	0.374578
928.868593	0.373169
929.047841	0.372667
929.227071	0.372450
929.406283	0.369950
929.585476	0.368591
929.764652	0.366938
929.943809	0.366200
930.122948	0.365186
930.302068	0.363879
930.481171	0.362731
930.660255	0.361494
930.839321	0.360289
931.018369	0.359921
931.197398	0.358389
931.376409	0.357737
931.555402	0.356762
931.734377	0.355317
931.913334	0.354741
932.092272	0.354255
932.271192	0.353530
932.450094	0.352174
932.628978	0.351232
932.807844	0.350662
932.986691	0.348783
933.165520	0.347699
933.344331	0.347145
933.523123	0.345732
933.701898	0.344767
933.880654	0.343037
934.059392	0.341205
934.238111	0.340140
934.416813	0.339207
934.595496	0.338971
934.774161	0.338573
934.952808	0.337169
935.131437	0.335327
935.310047	0.335154
935.488639	0.334538
935.667213	0.333890
935.845769	0.332536
936.024306	0.331707
936.202825	0.330223
936.381326	0.328665
936.559809	0.326794
936.738274	0.326434
936.916720	0.324303
937.095148	0.322871
937.273558	0.321865
937.451950	0.321095
937.630323	0.319868
937.808678	0.320103
937.987015	0.319482
938.165334	0.319669
938.343635	0.317437
938.521917	0.316819
938.700181	0.315696
938.878427	0.315135
939.056655	0.313672
939.234864	0.311711
939.413055	0.309854
939.591228	0.308192
939.769383	0.307005
939.947519	0.306560
940.125638	0.304606
940.303738	0.303926
940.481820	0.302869
940.659883	0.301581
940.837929	0.300834
941.015956	0.299076
941.193965	0.297530
941.371955	0.296184
941.549928	0.294031
941.727882	0.292697
941.905818	0.290622
942.083736	0.288353
942.261636	0.287900
942.439517	0.287821
942.617380	0.287948
942.795225	0.286403
942.973052	0.286297
943.150860	0.284956
943.328651	0.283677
943.506423	0.283657
943.684176	0.283532
943.861912	0.282335
944.039629	0.280934
944.217328	0.279479
944.395009	0.278910
944.572672	0.275368
944.750317	0.274396
944.927943	0.273822
945.105551	0.272765
945.283141	0.271102
945.460712	0.268424
945.638265	0.266377
945.815801	0.264073
945.993317	0.263544
946.170816	0.263129
946.348297	0.261956
946.525759	0.259378
946.703203	0.257072
946.880629	0.256722
947.058036	0.256612
947.235425	0.255488
947.412797	0.255186
947.590149	0.253684
947.767484	0.252103
947.944800	0.249089
948.122099	0.248086
948.299379	0.246796
948.476640	0.245204
948.653884	0.243041
948.831109	0.240725
949.008316	0.239092
949.185505	0.238191
949.362676	0.237339
949.539828	0.236204
949.716962	0.237586
949.894078	0.236487
950.071176	0.233871
950.248256	0.233614
950.425317	0.233330
950.602360	0.232949
950.779385	0.229710
950.956391	0.228286
951.133380	0.230717
951.310350	0.226215
951.487302	0.225401
951.664235	0.223570
951.841151	0.221757
952.018048	0.220432
952.194927	0.217528
952.371788	0.217607
952.548631	0.218602
952.725455	0.216513
952.902261	0.216837
953.079049	0.216192
953.255819	0.217175
953.432570	0.216730
953.609303	0.216112
953.786018	0.216494
953.962715	0.213870
954.139394	0.211402
954.316054	0.209287
954.492696	0.208254
954.669320	0.205776
954.845926	0.205264
955.022513	0.204432
955.199083	0.202229
955.375634	0.200132
955.552166	0.199402
955.728681	0.198254
955.905177	0.197799
956.081655	0.194980
956.258115	0.195197
956.434557	0.192696
956.610980	0.190627
956.787385	0.189189
956.963772	0.186743
957.140141	0.187659
957.316492	0.185384
957.492824	0.186331
957.669138	0.186491
957.845434	0.186420
958.021712	0.184916
958.197971	0.183204
958.374212	0.183760
958.550435	0.184718
958.726640	0.182858
958.902826	0.181290
959.078995	0.178205
959.255145	0.177680
959.431277	0.175382
959.607390	0.176536
959.783486	0.176462
959.959563	0.174279
960.135622	0.173450
960.311662	0.174273
960.487685	0.173210
960.663689	0.173957
960.839675	0.173299
961.015643	0.171069
961.191593	0.169611
961.367524	0.169572
961.543437	0.169354
961.719332	0.170535
961.895209	0.166135
962.071067	0.167296
962.246907	0.166435
962.422730	0.169089
962.598533	0.166776
962.774319	0.164830
962.950086	0.162482
963.125835	0.162976
963.301566	0.161618
963.477279	0.162657
963.652973	0.162418
963.828650	0.163347
964.004308	0.160799
964.179947	0.163248
964.355569	0.163472
964.531172	0.166760
964.706757	0.164945
964.882324	0.163631
965.057873	0.164698
965.233403	0.164121
965.408916	0.161752
965.584410	0.161392
965.759885	0.159546
965.935343	0.158267
966.110782	0.154961
966.286203	0.156434
966.461606	0.154986
966.636991	0.154580
966.812357	0.153724
966.987705	0.154958
967.163035	0.155467
967.338347	0.158111
967.513641	0.161044
967.688916	0.161871
967.864173	0.161397
968.039412	0.162491
968.214632	0.160012
968.389835	0.158691
968.565019	0.157871
968.740185	0.157499
968.915333	0.155793
969.090462	0.153866
969.265573	0.152675
969.440667	0.151448
969.615741	0.151308
969.790798	0.150626
969.965836	0.153822
970.140856	0.151870
970.315858	0.148073
970.490842	0.147836
970.665808	0.146305
970.840755	0.145493
971.015684	0.146002
971.190595	0.143354
971.365487	0.146650
971.540362	0.144479
971.715218	0.146088
971.890056	0.148965
972.064875	0.148975
972.239677	0.149717
972.414460	0.151035
972.589225	0.150497
972.763972	0.153159
972.938700	0.149666
973.113411	0.150277
973.288103	0.151220
973.462777	0.148635
973.637432	0.150880
973.812070	0.151864
973.986689	0.151895
974.161290	0.150414
974.335873	0.150665
974.510437	0.152889
974.684984	0.153147
974.859512	0.152110
975.034022	0.156302
975.208513	0.155022
975.382987	0.150322
975.557442	0.151310
975.731879	0.152982
975.906298	0.153373
976.080698	0.154037
976.255080	0.154732
976.429445	0.152812
976.603790	0.148743
976.778118	0.146966
976.952427	0.150235
977.126719	0.150591
977.300992	0.150698
977.475246	0.150627
977.649483	0.147816
977.823701	0.147413
977.997901	0.148486
978.172083	0.151179
978.346247	0.151917
978.520392	0.152213
978.694519	0.149689
978.868628	0.149254
979.042719	0.148632
979.216791	0.149021
979.390845	0.148579
979.564882	0.148246
979.738899	0.146333
979.912899	0.146721
980.086880	0.144305
980.260843	0.145888
980.434788	0.145910
980.608715	0.147113
980.782623	0.146525
980.956514	0.147028
981.130386	0.147847
981.304240	0.149214
981.478075	0.147512
981.651892	0.152446
981.825692	0.152461
981.999472	0.151966
982.173235	0.150870
982.346980	0.154626
982.520706	0.154332
982.694414	0.154984
982.868104	0.155714
983.041775	0.156972
983.215428	0.154036
983.389064	0.153319
983.562680	0.153432
983.736279	0.151363
983.909860	0.148083
984.083422	0.146176
984.256966	0.145106
984.430491	0.144724
984.603999	0.145342
984.777488	0.145550
984.950959	0.144649
985.124412	0.143810
985.297847	0.145760
985.471263	0.146141
985.644661	0.146439
985.818041	0.146580
985.991403	0.146434
986.164747	0.146542
986.338072	0.145163
986.511379	0.145213
986.684668	0.147819
986.857938	0.146977
987.031191	0.149085
987.204425	0.150434
987.377641	0.150612
987.550839	0.149909
987.724018	0.150670
987.897179	0.152139
988.070322	0.153028
988.243447	0.151996
988.416554	0.151992
988.589642	0.150376
988.762712	0.149888
988.935764	0.151095
989.108798	0.150669
989.281813	0.149740
989.454811	0.149083
989.627790	0.151069
989.800751	0.151377
989.973693	0.150799
990.146617	0.150760
990.319524	0.150411
990.492412	0.149248
990.665281	0.149093
990.838133	0.147594
991.010966	0.148925
991.183781	0.146836
991.356578	0.145682
991.529356	0.146280
991.702117	0.145416
991.874859	0.145622
992.047583	0.146186
992.220288	0.146236
992.392976	0.146994
992.565645	0.145661
992.738296	0.145138
992.910929	0.145256
993.083543	0.144710
993.256139	0.148371
993.428718	0.149768
993.601277	0.150162
993.773819	0.150012
993.946342	0.151082
994.118848	0.152263
994.291335	0.154251
994.463803	0.155402
994.636254	0.155747
994.808686	0.152881
994.981100	0.152211
995.153496	0.152354
995.325874	0.153866
995.498233	0.153361
995.670574	0.152833
995.842897	0.151689
996.015202	0.151755
996.187488	0.152894
996.359757	0.153122
996.532007	0.153146
996.704239	0.149289
996.876452	0.150796
997.048648	0.149059
997.220825	0.149197
997.392984	0.148648
997.565124	0.148754
997.737247	0.148095
997.909351	0.148528
998.081437	0.149138
998.253505	0.152002
998.425554	0.149995
998.597586	0.149435
998.769599	0.149625
998.941594	0.151098
999.113571	0.148127
999.285529	0.149590
999.457469	0.151127
999.629391	0.149312
999.801295	0.148829
999.973181	0.149209
1000.145048	0.151233
1000.316897	0.152158
1000.488728	0.151908
1000.660541	0.153057
1000.832335	0.151316
1001.004111	0.147095
1001.175869	0.147369
1001.347609	0.146709
1001.519331	0.146434
1001.691034	0.146279
1001.862719	0.145220
1002.034386	0.145005
1002.206035	0.146200
1002.377665	0.147149
1002.549277	0.149724
1002.720871	0.152173
1002.892447	0.153439
1003.064004	0.153153
1003.235544	0.152280
1003.407065	0.150874
1003.578568	0.152059
1003.750052	0.151046
1003.921519	0.149891
1004.092967	0.148707
1004.264397	0.147293
1004.435809	0.145597
1004.607202	0.146213
1004.778577	0.147753
1004.949934	0.148328
1005.121273	0.146298
1005.292594	0.147519
1005.463896	0.147415
1005.635180	0.147043
1005.806446	0.146499
1005.977694	0.148721
1006.148923	0.148777
1006.320135	0.146792
1006.491328	0.148365
1006.662503	0.149976
1006.833659	0.150213
1007.004798	0.149848
1007.175918	0.152215
1007.347020	0.152260
1007.518103	0.150193
1007.689169	0.148837
1007.860216	0.149868
1008.031245	0.149586
1008.202256	0.147107
1008.373248	0.147528
1008.544223	0.148490
1008.715179	0.145765
1008.886117	0.144793
1009.057036	0.145849
1009.227938	0.145432
1009.398821	0.145343
1009.569686	0.144851
1009.740533	0.145953
1009.911361	0.144223
1010.082172	0.143115
1010.252964	0.144421
1010.423738	0.146309
1010.594493	0.146153
1010.765231	0.148149
1010.935950	0.149255
1011.106651	0.148856
1011.277334	0.148170
1011.447998	0.149217
1011.618645	0.150869
1011.789273	0.154956
1011.959882	0.152452
1012.130474	0.153069
1012.301048	0.151110
1012.471603	0.150197
1012.642140	0.150995
1012.812658	0.150726
1012.983159	0.148846
1013.153641	0.149656
1013.324105	0.145599
1013.494551	0.146844
1013.664979	0.147566
1013.835388	0.148082
1014.005779	0.148137
1014.176152	0.147417
1014.346507	0.148182
1014.516843	0.148150
1014.687162	0.147321
1014.857462	0.146894
1015.027744	0.147422
1015.198007	0.148379
1015.368252	0.148960
1015.538480	0.149897
1015.708689	0.150494
1015.878879	0.150095
1016.049052	0.152540
1016.219206	0.151958
1016.389342	0.152019
1016.559460	0.151782
1016.729559	0.150267
1016.899641	0.150070
1017.069704	0.148041
1017.239749	0.147558
1017.409775	0.148747
1017.579784	0.147672
1017.749774	0.146571
1017.919746	0.146608
1018.089700	0.147879
1018.259635	0.148189
1018.429553	0.148422
1018.599452	0.148448
1018.769333	0.149132
1018.939195	0.149459
1019.109040	0.149533
1019.278866	0.149307
1019.448674	0.150936
1019.618464	0.149726
1019.788235	0.147890
1019.957989	0.148780
1020.127724	0.151556
1020.297441	0.150919
1020.467139	0.149412
1020.636820	0.149103
1020.806482	0.151264
1020.976126	0.149384
1021.145752	0.149290
1021.315359	0.150245
1021.484948	0.146895
1021.654519	0.145153
1021.824072	0.146785
1021.993607	0.148170
1022.163123	0.149491
1022.332621	0.148541
1022.502101	0.150107
1022.671563	0.149442
1022.841007	0.150977
1023.010432	0.152801
1023.179839	0.152746
1023.349228	0.151943
1023.518598	0.150519
1023.687951	0.150496
1023.857285	0.150818
1024.026601	0.150285
1024.195899	0.152479
1024.365178	0.150821
1024.534439	0.152632
1024.703682	0.152938
1024.872907	0.152947
1025.042114	0.152356
1025.211302	0.151668
1025.380472	0.151121
1025.549624	0.150161
1025.718758	0.149737
1025.887873	0.150869
1026.056970	0.149736
1026.226049	0.152172
1026.395110	0.150319
1026.564153	0.152006
1026.733177	0.151137
1026.902183	0.151548
1027.071171	0.152703
1027.240141	0.151996
1027.409092	0.150255
1027.578026	0.148488
1027.746940	0.146605
1027.915837	0.147088
1028.084716	0.144942
1028.253576	0.146169
1028.422418	0.146164
1028.591242	0.144963
1028.760048	0.144515
1028.928835	0.145215
1029.097604	0.146521
1029.266355	0.146898
1029.435088	0.146835
1029.603803	0.148045
1029.772499	0.147669
1029.941177	0.146840
1030.109837	0.147047
1030.278478	0.145621
1030.447102	0.145230
1030.615707	0.145240
1030.784294	0.144192
1030.952863	0.146001
1031.121413	0.146923
1031.289945	0.146480
1031.458460	0.146557
1031.626955	0.146495
1031.795433	0.148353
1031.963892	0.146996
1032.132334	0.146839
1032.300756	0.148537
1032.469161	0.147050
1032.637548	0.145991
1032.805916	0.145559
1032.974266	0.143941
1033.142598	0.143976
1033.310911	0.142267
1033.479207	0.145231
1033.647484	0.142892
1033.815743	0.141756
1033.983983	0.141348
1034.152206	0.141188
1034.320410	0.144049
1034.488596	0.145194
1034.656764	0.144822
1034.824914	0.146408
1034.993045	0.144245
1035.161158	0.146674
1035.329253	0.145078
1035.497330	0.146515
1035.665388	0.145577
1035.833428	0.142452
1036.001450	0.143676
1036.169454	0.142254
1036.337440	0.138694
1036.505407	0.139267
1036.673356	0.140164
1036.841287	0.140798
1037.009200	0.141402
1037.177094	0.142833
1037.344970	0.143477
1037.512828	0.143150
1037.680668	0.146162
1037.848489	0.149571
1038.016293	0.149899
1038.184078	0.148418
1038.351845	0.149147
1038.519593	0.148093
1038.687324	0.147306
1038.855036	0.146446
1039.022730	0.145837
1039.190406	0.145176
1039.358063	0.142703
1039.525702	0.142917
1039.693323	0.144675
1039.860926	0.145069
1040.028511	0.143502
1040.196077	0.143666
1040.363625	0.146811
1040.531155	0.145650
1040.698667	0.144604
1040.866161	0.146732
1041.033636	0.146858
1041.201093	0.144821
1041.368532	0.142813
1041.535952	0.143685
1041.703355	0.142445
1041.870739	0.141717
1042.038105	0.143335
1042.205452	0.143001
1042.372782	0.143615
1042.540093	0.142541
1042.707386	0.144310
1042.874661	0.144650
1043.041918	0.146787
1043.209156	0.149106
1043.376376	0.147740
1043.543578	0.146972
1043.710762	0.149247
1043.877927	0.148719
1044.045074	0.147965
1044.212203	0.148032
1044.379314	0.149195
1044.546407	0.146871
1044.713481	0.146778
1044.880537	0.146696
1045.047575	0.147917
1045.214595	0.147213
1045.381596	0.148488
1045.548579	0.147401
1045.715544	0.146909
1045.882491	0.145599
1046.049420	0.146559
1046.216330	0.146681
1046.383222	0.146224
1046.550096	0.144658
1046.716951	0.144537
1046.883789	0.142227
1047.050608	0.145250
1047.217409	0.144582
1047.384192	0.146537
1047.550956	0.146629
1047.717703	0.145833
1047.884431	0.146032
1048.051140	0.147135
1048.217832	0.144962
1048.384505	0.147824
1048.551161	0.147199
1048.717798	0.147563
1048.884416	0.147128
1049.051017	0.146035
1049.217599	0.146499
1049.384163	0.146472
1049.550709	0.146920
1049.717237	0.150704
1049.883746	0.150883
1050.050237	0.150621
1050.216710	0.150588
1050.383165	0.148940
1050.549601	0.147248
1050.716019	0.148313
1050.882420	0.147530
1051.048801	0.145950
1051.215165	0.144344
1051.381510	0.145181
1051.547837	0.142941
1051.714146	0.144440
1051.880437	0.145528
1052.046709	0.147687
1052.212964	0.146707
1052.379200	0.147912
1052.545417	0.149387
1052.711617	0.149010
1052.877798	0.145908
1053.043961	0.148616
1053.210106	0.147380
1053.376233	0.148875
1053.542341	0.149875
1053.708432	0.148930
1053.874504	0.148540
1054.040557	0.148113
1054.206593	0.147331
1054.372610	0.149042
1054.538609	0.150087
1054.704590	0.148844
1054.870553	0.147097
1055.036497	0.146283
1055.202424	0.146307
1055.368331	0.146211
1055.534221	0.148071
1055.700093	0.147733
1055.865946	0.146886
1056.031781	0.146623
1056.197598	0.147693
1056.363397	0.148169
1056.529177	0.147039
1056.694939	0.147003
1056.860683	0.148432
1057.026409	0.147027
1057.192116	0.150168
1057.357806	0.149285
1057.523477	0.149762
1057.689130	0.149767
1057.854764	0.151598
1058.020381	0.152930
1058.185979	0.152621
1058.351559	0.152567
1058.517120	0.151569
1058.682664	0.151320
1058.848189	0.152081
1059.013696	0.150330
1059.179185	0.151304
1059.344656	0.148465
1059.510108	0.148993
1059.675542	0.150065
1059.840958	0.148782
1060.006356	0.151579
1060.171735	0.150376
1060.337096	0.149324
1060.502439	0.149722
1060.667764	0.149495
1060.833071	0.148769
1060.998359	0.147928
1061.163629	0.150965
1061.328881	0.151610
1061.494115	0.148449
1061.659330	0.147688
1061.824527	0.149247
1061.989706	0.149002
1062.154867	0.148337
1062.320010	0.149420
1062.485134	0.151420
1062.650240	0.150635
1062.815328	0.149831
1062.980398	0.151859
1063.145449	0.151595
1063.310482	0.151536
1063.475497	0.152295
1063.640494	0.156579
1063.805473	0.158362
1063.970433	0.156932
1064.135375	0.153404
1064.300299	0.154387
1064.465204	0.151921
1064.630092	0.155087
1064.794961	0.153777
1064.959812	0.154582
1065.124645	0.150333
1065.289459	0.150371
1065.454256	0.149613
1065.619034	0.150972
1065.783793	0.149586
1065.948535	0.152875
1066.113258	0.149786
1066.277964	0.150301
1066.442651	0.149930
1066.607319	0.151288
1066.771970	0.152351
1066.936602	0.153944
1067.101216	0.151536
1067.265812	0.153664
1067.430389	0.150091
1067.594949	0.152395
1067.759490	0.152781
1067.924013	0.153866
1068.088518	0.152305
1068.253004	0.150640
1068.417472	0.149595
1068.581922	0.151602
1068.746354	0.154148
1068.910768	0.157648
1069.075163	0.156228
1069.239540	0.158492
1069.403899	0.156586
1069.568240	0.157262
1069.732562	0.157696
1069.896866	0.155881
1070.061152	0.156027
1070.225420	0.152568
1070.389670	0.149866
1070.553901	0.151039
1070.718114	0.150472
1070.882309	0.150642
1071.046486	0.150303
1071.210644	0.151323
1071.374784	0.152643
1071.538906	0.153302
1071.703010	0.152686
1071.867096	0.156293
1072.031163	0.157945
1072.195212	0.158116
1072.359243	0.156461
1072.523256	0.155596
1072.687250	0.153940
1072.851226	0.154294
1073.015184	0.156410
1073.179124	0.157205
1073.343045	0.156046
1073.506949	0.154828
1073.670834	0.154465
1073.834701	0.155204
1073.998549	0.158796
1074.162380	0.160608
1074.326192	0.161601
1074.489986	0.160377
1074.653761	0.159995
1074.817519	0.157665
1074.981258	0.158442
1075.144979	0.157808
1075.308682	0.159593
1075.472367	0.156811
1075.636033	0.155422
1075.799681	0.155152
1075.963311	0.154193
1076.126923	0.155671
1076.290516	0.158028
1076.454092	0.158501
1076.617649	0.158902
1076.781187	0.157395
1076.944708	0.157760
1077.108210	0.159891
1077.271695	0.160162
1077.435160	0.160951
1077.598608	0.161770
1077.762038	0.162246
1077.925449	0.159065
1078.088842	0.159019
1078.252217	0.160902
1078.415573	0.162480
1078.578912	0.159480
1078.742232	0.158869
1078.905534	0.158589
1079.068817	0.156594
1079.232083	0.153559
1079.395330	0.154996
1079.558559	0.153334
1079.721770	0.153490
1079.884962	0.151419
1080.048136	0.152984
1080.211293	0.153030
1080.374430	0.153626
1080.537550	0.155458
1080.700651	0.157700
1080.863735	0.156469
1081.026800	0.158094
1081.189846	0.157112
1081.352875	0.157901
1081.515885	0.160542
1081.678877	0.159031
1081.841851	0.158991
1082.004807	0.159021
1082.167744	0.160505
1082.330663	0.161715
1082.493564	0.163543
1082.656447	0.163465
1082.819312	0.166768
1082.982158	0.163429
1083.144986	0.167805
1083.307796	0.169350
1083.470587	0.170958
1083.633361	0.168760
1083.796116	0.169052
1083.958853	0.167546
1084.121571	0.167046
1084.284272	0.162544
1084.446954	0.163357
1084.609618	0.161897
1084.772264	0.163696
1084.934892	0.164254
1085.097501	0.167412
1085.260092	0.170664
1085.422665	0.169436
1085.585220	0.170303
1085.747756	0.174327
1085.910274	0.175017
1086.072774	0.176832
1086.235256	0.171946
1086.397720	0.169252
1086.560165	0.169052
1086.722592	0.168862
1086.885001	0.171333
1087.047392	0.173232
1087.209764	0.171015
1087.372119	0.172186
1087.534455	0.173786
1087.696772	0.175265
1087.859072	0.177846
1088.021353	0.174401
1088.183616	0.170143
1088.345861	0.167141
1088.508088	0.167643
1088.670296	0.167917
1088.832486	0.164599
1088.994658	0.161704
1089.156812	0.161438
1089.318948	0.156758
1089.481065	0.158943
1089.643164	0.157610
1089.805245	0.160202
1089.967308	0.157838
1090.129352	0.160312
1090.291378	0.163253
1090.453386	0.163320
1090.615376	0.165482
1090.777347	0.168899
1090.939301	0.166689
1091.101236	0.169330
1091.263153	0.168523
1091.425051	0.169370
1091.586932	0.165488
1091.748794	0.162815
1091.910638	0.161625
1092.072463	0.159964
1092.234271	0.157493
1092.396060	0.161891
1092.557831	0.163150
1092.719584	0.163664
1092.881319	0.163443
1093.043035	0.162707
1093.204733	0.164903
1093.366413	0.163711
1093.528075	0.164083
1093.689718	0.164614
1093.851343	0.166035
1094.012950	0.161957
1094.174539	0.162224
1094.336110	0.159316
1094.497662	0.163577
1094.659196	0.161976
1094.820712	0.163214
1094.982210	0.162094
1095.143689	0.164216
1095.305151	0.159796
1095.466594	0.162316
1095.628018	0.160546
1095.789425	0.166950
1095.950813	0.167327
1096.112183	0.169235
1096.273535	0.171704
1096.434869	0.173844
1096.596184	0.173426
1096.757482	0.174424
1096.918761	0.178175
1097.080021	0.176300
1097.241264	0.175039
1097.402488	0.171738
1097.563694	0.172452
1097.724882	0.171444
1097.886052	0.167644
1098.047203	0.167884
1098.208336	0.166048
1098.369451	0.166395
1098.530548	0.173716
1098.691627	0.172049
1098.852687	0.173061
1099.013729	0.170480
1099.174753	0.172094
1099.335758	0.174375
1099.496746	0.169913
1099.657715	0.171557
1099.818666	0.169606
1099.979599	0.163931
1100.140513	0.165727
1100.301409	0.166959
1100.462287	0.166515
1100.623147	0.163739
1100.783989	0.163737
1100.944812	0.165709
1101.105617	0.165909
1101.266404	0.167045
1101.427173	0.170891
1101.587923	0.166526
1101.748656	0.169922
1101.909370	0.172363
1102.070066	0.174710
1102.230743	0.174384
1102.391403	0.176604
1102.552044	0.178895
1102.712667	0.176780
1102.873271	0.176874
1103.033858	0.181985
1103.194426	0.179560
1103.354976	0.182082
1103.515508	0.179353
1103.676021	0.182887
1103.836517	0.183583
1103.996994	0.182762
1104.157453	0.183456
1104.317893	0.182102
1104.478316	0.180383
1104.638720	0.181232
1104.799106	0.180907
1104.959474	0.186853
1105.119823	0.187248
1105.280155	0.186740
1105.440468	0.188069
1105.600763	0.188498
1105.761039	0.189642
1105.921298	0.186300
1106.081538	0.184086
1106.241760	0.178456
1106.401964	0.177422
1106.562149	0.177807
1106.722316	0.178684
1106.882465	0.175335
1107.042596	0.175566
1107.202709	0.171845
1107.362803	0.176317
1107.522879	0.175120
1107.682937	0.180695
1107.842977	0.177613
1108.002999	0.174118
1108.163002	0.175756
1108.322987	0.178943
1108.482954	0.175988
1108.642902	0.179000
1108.802833	0.173288
1108.962745	0.174837
1109.122639	0.173039
1109.282515	0.172595
1109.442372	0.177204
1109.602211	0.173761
1109.762032	0.167618
1109.921835	0.169198
1110.081620	0.171699
1110.241386	0.177100
1110.401134	0.179042
1110.560864	0.178810
1110.720576	0.180678
1110.880269	0.177865
1111.039945	0.183438
1111.199602	0.188939
1111.359240	0.186272
1111.518861	0.182317
1111.678463	0.181188
1111.838047	0.180254
1111.997613	0.178503
1112.157161	0.179197
1112.316690	0.179995
1112.476202	0.175361
1112.635695	0.174354
1112.795169	0.179944
1112.954626	0.179800
1113.114064	0.183047
1113.273484	0.179448
1113.432886	0.186443
1113.592270	0.187971
1113.751635	0.186900
1113.910983	0.188482
1114.070312	0.185114
1114.229622	0.181037
1114.388915	0.183204
1114.548189	0.183291
1114.707445	0.183067
1114.866683	0.181565
1115.025903	0.175789
1115.185104	0.181414
1115.344287	0.184634
1115.503452	0.196230
1115.662599	0.194654
1115.821727	0.194339
1115.980838	0.189225
1116.139930	0.193228
1116.299004	0.189757
1116.458059	0.197082
1116.617097	0.190657
1116.776116	0.192413
1116.935117	0.181278
1117.094099	0.181750
1117.253064	0.183591
1117.412010	0.186622
1117.570938	0.192926
1117.729848	0.195479
1117.888740	0.191767
1118.047613	0.195333
1118.206468	0.188873
1118.365305	0.192516
1118.524124	0.196741
1118.682924	0.197416
1118.841707	0.203422
1119.000471	0.199797
1119.159216	0.198111
1119.317944	0.203445
1119.476653	0.202811
1119.635344	0.202061
1119.794017	0.204467
1119.952672	0.206247
1120.111308	0.208883
1120.269927	0.201241
1120.428527	0.200031
1120.587108	0.197923
1120.745672	0.193290
1120.904217	0.190997
1121.062744	0.191578
1121.221253	0.189784
1121.379744	0.192474
1121.538216	0.188163
1121.696671	0.193247
1121.855107	0.190136
1122.013524	0.190058
1122.171924	0.197760
1122.330305	0.204181
1122.488668	0.210628
1122.647013	0.210758
1122.805340	0.204542
1122.963648	0.204147
1123.121938	0.199377
1123.280210	0.198629
1123.438464	0.206036
1123.596700	0.201171
1123.754917	0.193971
1123.913116	0.195438
1124.071297	0.193200
1124.229459	0.189954
1124.387604	0.190887
1124.545730	0.191950
1124.703838	0.193047
1124.861928	0.186197
1125.019999	0.182665
1125.178052	0.184949
1125.336088	0.179632
1125.494104	0.178501
1125.652103	0.187016
1125.810083	0.185849
1125.968045	0.191436
1126.125989	0.191001
1126.283915	0.192099
1126.441823	0.197043
1126.599712	0.197987
1126.757583	0.197918
1126.915436	0.203832
1127.073270	0.200428
1127.231087	0.200166
1127.388885	0.200124
1127.546665	0.204701
1127.704426	0.204799
1127.862170	0.201105
1128.019895	0.204245
1128.177602	0.209861
1128.335291	0.208131
1128.492961	0.207958
1128.650614	0.209381
1128.808248	0.205880
1128.965864	0.200711
1129.123461	0.200097
1129.281041	0.198736
1129.438602	0.193102
1129.596145	0.186813
1129.753670	0.191064
1129.911176	0.194174
1130.068665	0.196591
1130.226135	0.189625
1130.383587	0.188192
1130.541020	0.193244
1130.698436	0.197266
1130.855833	0.191949
1131.013212	0.198589
1131.170573	0.194001
1131.327915	0.192736
1131.485239	0.190965
1131.642545	0.198402
1131.799833	0.206818
1131.957103	0.204005
1132.114354	0.199268
1132.271588	0.205752
1132.428803	0.196754
1132.585999	0.198486
1132.743178	0.194444
1132.900338	0.190390
1133.057480	0.195151
1133.214604	0.188319
1133.371710	0.196164
1133.528797	0.199767
1133.685866	0.197469
1133.842917	0.203378
1133.999950	0.204358
1134.156964	0.202987
1134.313960	0.201958
1134.470938	0.198740
1134.627898	0.197560
1134.784840	0.198233
1134.941763	0.199447
1135.098668	0.206447
1135.255555	0.205423
1135.412424	0.204126
1135.569274	0.211437
1135.726107	0.225724
1135.882921	0.223462
1136.039716	0.232589
1136.196494	0.218722
1136.353253	0.214479
1136.509995	0.215580
1136.666717	0.210180
1136.823422	0.205879
1136.980109	0.199897
1137.136777	0.188909
1137.293427	0.191280
1137.450059	0.193537
1137.606672	0.195158
1137.763267	0.201158
1137.919844	0.191786
1138.076403	0.200480
1138.232944	0.207249
1138.389466	0.205249
1138.545971	0.210869
1138.702457	0.202472
1138.858924	0.199289
1139.015374	0.201148
1139.171805	0.200265
1139.328218	0.205349
1139.484613	0.204253
1139.640990	0.209882
1139.797348	0.215150
1139.953688	0.209929
1140.110010	0.220117
1140.266314	0.211521
1140.422600	0.211339
1140.578867	0.211020
1140.735116	0.210330
1140.891347	0.208013
1141.047559	0.203799
1141.203754	0.203748
1141.359930	0.205675
1141.516088	0.201833
1141.672228	0.204100
1141.828349	0.207251
1141.984452	0.202561
1142.140537	0.212049
1142.296604	0.205077
1142.452653	0.202489
1142.608683	0.207602
1142.764695	0.199048
1142.920689	0.199609
1143.076665	0.197564
1143.232622	0.197316
1143.388562	0.200014
1143.544483	0.192157
1143.700385	0.192618
1143.856270	0.191947
1144.012136	0.186350
1144.167985	0.196193
1144.323814	0.195171
1144.479626	0.201115
1144.635420	0.197989
1144.791195	0.195656
1144.946952	0.195187
1145.102691	0.197829
1145.258411	0.203565
1145.414113	0.205578
1145.569798	0.204337
1145.725463	0.208641
1145.881111	0.200659
1146.036741	0.201159
1146.192352	0.197648
1146.347945	0.193346
1146.503519	0.195977
1146.659076	0.199805
1146.814614	0.194863
1146.970134	0.191470
1147.125636	0.179751
1147.281120	0.187507
1147.436585	0.187615
1147.592032	0.193186
1147.747461	0.196312
1147.902872	0.200876
1148.058265	0.198695
1148.213639	0.208364
1148.368995	0.212099
1148.524333	0.221382
1148.679653	0.219195
1148.834954	0.219382
1148.990237	0.228357
1149.145502	0.235420
1149.300749	0.235150
1149.455977	0.227389
1149.611188	0.228972
1149.766380	0.230938
1149.921553	0.230230
1150.076709	0.230418
1150.231846	0.228779
1150.386966	0.219051
1150.542066	0.208086
1150.697149	0.212385
1150.852214	0.203439
1151.007260	0.191926
1151.162288	0.194349
1151.317298	0.195192
1151.472289	0.202981
1151.627263	0.202178
1151.782218	0.197121
1151.937155	0.208980
1152.092073	0.212028
1152.246974	0.222750
1152.401856	0.220768
1152.556720	0.217052
1152.711566	0.218357
1152.866393	0.213563
1153.021203	0.217412
1153.175994	0.235241
1153.330767	0.233598
1153.485521	0.213026
1153.640258	0.213609
1153.794976	0.219651
1153.949676	0.217630
1154.104358	0.216622
1154.259021	0.215964
1154.413667	0.224742
1154.568294	0.203775
1154.722903	0.201708
1154.877493	0.211719
1155.032066	0.207899
1155.186620	0.224914
1155.341156	0.222815
1155.495674	0.230504
1155.650173	0.241167
1155.804654	0.233593
1155.959118	0.251752
1156.113562	0.237815
1156.267989	0.244386
1156.422397	0.249129
1156.576788	0.229328
1156.731160	0.231710
1156.885513	0.230447
1157.039849	0.211862
1157.194166	0.201940
1157.348465	0.188790
1157.502746	0.195687
1157.657009	0.184068
1157.811253	0.180223
1157.965479	0.177775
1158.119687	0.181613
1158.273877	0.164038
1158.428048	0.181498
1158.582201	0.178943
1158.736337	0.176544
1158.890453	0.169565
1159.044552	0.176595
1159.198632	0.172615
1159.352694	0.178858
1159.506738	0.187140
1159.660764	0.197506
1159.814771	0.190807
1159.968761	0.197904
1160.122732	0.195998
1160.276685	0.227274
1160.430619	0.219047
1160.584535	0.225993
1160.738434	0.221176
1160.892313	0.213897
1161.046175	0.217369
1161.200019	0.225187
1161.353844	0.231084
1161.507651	0.247814
1161.661440	0.224497
1161.815210	0.228312
1161.968962	0.227240
1162.122697	0.235450
1162.276412	0.234884
1162.430110	0.235745
1162.583789	0.220895
1162.737451	0.212701
1162.891094	0.198989
1163.044718	0.206969
1163.198325	0.206264
1163.351913	0.203518
1163.505483	0.194067
1163.659035	0.197015
1163.812569	0.182438
1163.966084	0.179421
1164.119581	0.188580
1164.273060	0.192609
1164.426521	0.195942
1164.579964	0.196125
1164.733388	0.193570
1164.886794	0.215127
1165.040182	0.207914
1165.193551	0.220146
1165.346903	0.225885
1165.500236	0.214104
1165.653551	0.221569
1165.806848	0.212729
1165.960126	0.225374
1166.113386	0.215562
1166.266628	0.192918
1166.419852	0.187363
1166.573058	0.182771
1166.726245	0.186491
1166.879414	0.204857
1167.032565	0.191332
1167.185698	0.192956
1167.338812	0.192573
1167.491909	0.206193
1167.644987	0.195520
1167.798046	0.202286
1167.951088	0.202130
1168.104111	0.181188
1168.257117	0.166388
1168.410103	0.181172
1168.563072	0.183625
1168.716023	0.172534
1168.868955	0.172052
1169.021869	0.188030
1169.174765	0.187629
1169.327642	0.195545
1169.480501	0.214892
1169.633343	0.210190
1169.786165	0.206931
1169.938970	0.198073
1170.091757	0.198895
1170.244525	0.209631
1170.397275	0.197845
1170.550007	0.197391
1170.702720	0.196733
1170.855415	0.197287
1171.008092	0.205665
1171.160751	0.200852
1171.313392	0.200592
1171.466014	0.248861
1171.618619	0.176747
1171.771205	0.176747
1171.923772	0.176747
