sample name	sample
index	1137
start time	 04-22-2021  02:35:48 PM
880	0.451642
Peak Time (s)	102.535
Peak Height 	0.4516
calc peak height	100,103
Baseline Time (s)	11.535
Baseline Value 	-0.004017
subtract baseline	10,4
Abs	0.300282
Peak Time (s)	100.035
Peak Height 	0.3003
calc peak height	100,103
Baseline Time (s)	8.536
Baseline Value 	0.003978
subtract baseline	10,3
PK_550	0.172381
Peak Time (s)	101.54
Peak Height 	0.1724
calc peak height	100,103
Baseline Time (s)	11.535
Baseline Value 	0.001241
subtract baseline	10,2
PK_880	0.288143
Peak Time (s)	102.035
Peak Height 	0.2881
calc peak height	100,103
Baseline Time (s)	9.125
Baseline Value 	0.001822
subtract baseline	10,1


Time (s)	A880-A510	A880-A775	A880-A975	A880	I510	I775	I975	I880	
0.039000	-0.002599	-0.001110	-0.005526	0.000984	6259.881302	43156.048203	3911.523080	22720.658091
0.537000	0.000621	-0.001321	-0.002888	0.003120	6268.142592	42939.887696	3912.668174	22623.756390
1.037000	-0.004653	-0.001738	-0.008611	0.006077	6205.995801	42630.929276	3893.092762	22490.314090
1.537000	-0.000212	-0.000946	-0.004348	0.000097	6284.866958	43253.275855	3916.233886	22761.073400
2.038000	-0.000948	-0.000863	0.001289	-0.000127	6280.952376	43281.736948	3929.719670	22771.275336
2.538000	0.000137	-0.000790	-0.000195	-0.000252	6290.219623	43299.984729	3926.576195	22776.964187
3.035500	-0.004876	-0.000975	-0.002660	0.005060	6211.944431	42793.579608	3908.774059	22536.086999
3.535500	-0.000795	-0.000345	-0.003935	0.000034	6280.890171	43314.801144	3917.321745	22763.926788
4.035500	0.000691	0.000824	-0.000631	0.000544	6288.363644	43375.994076	3923.734976	22740.714711
4.536000	0.000523	-0.001288	-0.002252	-0.001168	6300.222809	43338.820140	3923.944761	22818.806099
5.036000	-0.000014	-0.001722	-0.001616	0.000906	6280.186693	43106.671390	3920.636670	22724.199844
5.536500	0.001185	-0.001022	-0.000816	-0.000981	6303.881208	43346.203609	3926.826311	22810.280402
6.037000	0.001326	-0.000512	0.000086	-0.001018	6305.245672	43396.957258	3928.995470	22811.940884
6.537500	-0.003420	-0.000741	-0.000993	-0.000935	6268.241311	43368.023310	3926.310982	22808.169498
7.037500	0.001221	-0.000025	-0.000856	-0.000255	6298.567477	43371.327911	3925.059042	22777.118614
7.535500	0.000843	-0.000225	0.002686	-0.000318	6296.146414	43358.603784	3933.405740	22779.982351
8.035500	-0.000414	-0.000767	-0.000161	-0.001050	6292.111374	43376.238487	3928.498611	22813.409906
8.536000	-0.002020	-0.000515	0.000000	-0.001134	6280.449151	43407.481576	3929.066993	22817.261579
9.125000	0.000000	-0.000989	-0.001727	-0.000134	6288.265370	43270.724942	3922.773966	22771.609200
9.539000	0.001258	0.000116	0.004633	0.000226	6295.159332	43339.802654	3936.672811	22755.188787
10.036000	-0.000727	-0.000627	-0.006100	-0.000319	6284.110515	43321.383302	3913.183589	22780.039900
10.537000	0.000636	0.000529	0.002100	0.000201	6290.573041	43380.430772	3930.838617	22756.317591
11.037500	-0.000472	0.000399	0.002024	0.001611	6271.309328	43237.631852	3927.399271	22692.183318
11.535000	0.003781	0.000000	-0.000213	0.000000	6316.344046	43349.968065	3925.952591	22765.485568
12.035000	0.002064	0.000167	0.002197	-0.000393	6306.125439	43402.009467	3932.444352	22783.434377
12.535000	0.000951	-0.000202	-0.000968	-0.000494	6298.330317	43377.098576	3925.349731	22788.019325
13.035500	-0.000099	0.000244	-0.005304	0.002761	6265.388516	43116.968363	3907.991847	22639.984465
13.536000	0.001520	-0.000011	-0.002793	0.000251	6296.977167	43325.696529	3919.440330	22754.055829
14.036000	-0.000611	0.000173	-0.002413	0.002100	6266.516560	43171.425822	3916.077465	22669.948438
14.536500	0.000902	0.000032	0.003220	0.001792	6280.419407	43186.881426	3929.747315	22683.939182
15.039000	-0.001024	-0.000588	-0.001834	0.001189	6270.316663	43185.319892	3919.489389	22711.354363
15.537000	0.001084	0.000665	-0.003674	0.000329	6293.029482	43381.148514	3917.243681	22750.496783
16.034500	0.001013	-0.000151	-0.001013	-0.000698	6300.379038	43400.780930	3925.717056	22797.338274
16.537500	-0.000701	0.000689	0.002863	0.000241	6280.028092	43391.643224	3932.519559	22754.520670
17.035000	0.002568	-0.000051	-0.001123	-0.001117	6315.602029	43449.053500	3926.432012	22816.501863
17.535500	-0.000564	-0.000276	-0.000317	0.000119	6282.009223	43313.331877	3925.439587	22760.073038
18.036000	-0.001270	-0.000748	-0.004624	0.000551	6273.303750	43229.568415	3914.565425	22740.371040
18.536000	0.000853	-0.000387	0.001836	0.000779	6287.798806	43241.894175	3928.888779	22729.986847
19.039000	-0.000258	-0.000696	0.001025	0.000475	6281.620428	43241.392902	3927.714903	22743.833774
19.536500	0.000718	-0.001061	0.001895	0.000334	6290.179948	43220.660892	3930.055132	22750.258695
20.036500	-0.002376	0.000143	0.000764	0.001043	6261.138055	43266.566313	3925.801799	22717.996528
20.537000	-0.000967	0.000720	-0.001359	0.001206	6270.619339	43304.894481	3920.539446	22710.573980
21.035000	-0.001447	-0.000791	-0.002481	0.000379	6273.271091	43241.511573	3919.863100	22748.212636
21.534500	0.000808	-0.000055	0.004996	0.000669	6288.302081	43282.832842	3936.486403	22735.011905
22.035000	0.000380	-0.000564	0.000526	0.000106	6289.334075	43287.810911	3927.415504	22760.656813
22.535500	-0.001420	-0.000239	0.001530	-0.000047	6276.724445	43332.115465	3930.093295	22767.618346
23.036000	0.001107	-0.000004	0.001373	0.000569	6291.359426	43296.766005	3928.302064	22739.536362
23.536500	0.001380	0.000354	0.000117	0.000804	6291.655630	43308.287230	3924.861066	22728.873021
24.037000	0.000327	-0.000037	-0.003194	0.000683	6284.510921	43283.185414	3917.533165	22734.386948
24.536500	-0.001347	-0.000568	-0.000715	0.000202	6275.384389	43278.534941	3924.331226	22756.291242
25.037000	0.001375	0.000165	-0.001833	0.000561	6293.488091	43313.246952	3920.932540	22739.942515
25.534500	-0.000024	-0.000041	0.000789	0.000371	6284.203650	43311.734930	3927.409789	22748.560552
26.038000	-0.000429	-0.000936	-0.001062	-0.000230	6285.712386	43284.504003	3924.526121	22775.970891
26.535000	-0.000861	-0.000315	-0.000970	0.000246	6278.757653	43297.932798	3923.641144	22754.268651
27.035000	0.002030	-0.000038	-0.002146	-0.002313	6320.684776	43561.709454	3926.829616	22871.215783
27.538500	-0.000370	0.000126	0.001393	-0.001320	6294.525619	43484.434840	3932.728878	22825.773881
28.036000	0.002316	0.000507	0.001868	0.000113	6304.160415	43386.522442	3930.505031	22760.311607
28.538500	-0.000864	-0.000070	-0.000215	-0.001046	6288.631932	43440.664060	3928.364499	22813.230231
29.036500	0.000248	-0.000952	0.003365	-0.000337	6291.723468	43292.857847	3935.029808	22780.845219
29.537000	0.000029	-0.000680	-0.002818	-0.001481	6298.832158	43424.375375	3923.361351	22833.132899
30.036500	0.001508	-0.000122	0.003884	-0.001033	6306.768836	43434.685037	3937.865467	22812.661617
30.534500	-0.001309	-0.000381	-0.002054	0.001098	6268.842068	43212.952445	3919.192022	22715.494845
31.035000	0.000079	-0.001041	0.000281	0.000602	6283.231637	43197.703440	3925.704507	22738.063643
31.535000	0.000997	-0.000121	-0.003489	-0.001080	6303.191911	43439.085185	3920.897148	22814.778241
32.035500	0.000300	0.000087	-0.000940	-0.000737	6295.191546	43426.514996	3925.976639	22799.106714
32.536000	-0.000916	-0.000286	0.000439	-0.001051	6288.274659	43421.103897	3929.891051	22813.474246
33.039000	-0.000183	-0.000820	-0.004631	0.000398	6282.785380	43237.043548	3914.898718	22747.335278
33.536000	0.001258	-0.000197	0.000571	-0.003026	6320.235257	43613.437487	3934.784426	22903.939537
34.036500	-0.000053	-0.000751	-0.005837	0.000178	6285.463516	43263.763332	3912.650823	22757.365092
34.537000	0.000116	-0.000411	-0.000765	0.000545	6283.950135	43261.292141	3923.424680	22740.651090
35.037000	-0.000900	-0.000556	-0.001048	0.000457	6276.844903	43255.981330	3922.975091	22744.643211
35.534500	-0.001054	-0.000061	0.002056	0.000829	6272.834913	43267.414811	3929.282320	22727.732997
36.035000	0.001909	0.000206	-0.000735	0.001216	6292.557977	43256.358457	3921.950958	22710.134808
36.535000	-0.001194	-0.001026	0.001819	0.000228	6276.355759	43233.734168	3930.125605	22755.090904
37.036000	-0.000547	0.000603	-0.000562	0.001408	6272.287764	43275.294409	3921.907235	22701.400321
37.535500	0.000750	0.000059	0.001699	0.000788	6286.940581	43282.344606	3928.551354	22729.578654
38.036500	0.000506	-0.000338	-0.005178	0.000645	6286.170304	43258.807254	3913.088018	22736.115023
38.536000	0.000214	-0.000367	0.004215	0.000679	6283.675622	43253.027965	3934.644529	22734.560727
39.036500	-0.001033	-0.000669	-0.000889	0.000436	6275.997301	43247.547286	3923.389220	22745.608019
39.537000	-0.002058	-0.000219	-0.004365	0.000766	6265.659867	43258.608162	3914.666332	22730.583255
40.037000	0.001054	-0.001223	0.001748	0.000113	6294.450963	43226.082483	3930.226512	22760.315128
40.534500	0.001489	0.000456	0.003185	0.001510	6287.079222	43252.244267	3930.320207	22696.767005
41.035500	0.000381	-0.000827	0.002091	0.000871	6283.481199	43192.613621	3929.266087	22725.808948
41.535500	-0.001877	-0.000342	-0.004000	0.000689	6267.627707	43254.387477	3915.674301	22734.101155
42.036000	-0.001099	-0.000454	-0.000628	0.000386	6275.869778	43271.999036	3924.106208	22747.883346
42.539000	0.000409	0.000620	0.002158	0.001294	6280.455623	43287.403041	3928.441513	22706.563482
43.036500	-0.002426	-0.000678	0.000615	0.000270	6266.639587	43262.061391	3927.241868	22753.185482
43.536500	-0.000620	-0.000341	-0.002262	0.000186	6281.069573	43301.096663	3920.807585	22757.020636
44.037000	0.000290	-0.000065	0.004963	-0.001077	6297.733216	43444.047562	3940.492254	22814.675515
44.534500	-0.001141	-0.000361	-0.002806	-0.001178	6287.524787	43425.922444	3922.694404	22819.290875
45.034500	-0.000006	-0.000406	0.001268	0.001371	6276.696480	43185.353968	3926.206615	22703.069800
45.535000	-0.000202	-0.000782	-0.006688	-0.001177	6294.714705	43386.625128	3913.797123	22819.208816
46.035000	-0.000245	-0.000201	0.008176	-0.000866	6292.002379	43411.712936	3947.544494	22805.013979
46.536000	-0.000365	-0.000131	0.000846	-0.000702	6289.819414	43402.977900	3930.025077	22797.499779
47.039000	-0.000069	-0.000060	0.005068	0.000277	6284.582020	43318.644446	3937.569442	22752.855315
47.536000	0.000076	-0.000372	0.001652	0.001134	6279.136022	43210.429087	3927.640970	22713.838395
48.036000	0.001021	0.000039	-0.000168	0.000261	6293.070244	43329.366648	3925.454614	22753.609493
48.536500	0.001655	0.000369	-0.001148	0.000152	6298.774993	43370.141581	3923.447523	22758.561398
49.036500	0.000809	-0.000164	-0.003401	0.001812	6279.554710	43166.948605	3914.478650	22683.026263
49.537500	0.003827	-0.000613	0.002968	-0.003157	6341.204205	43586.847343	3940.690608	22909.975757
50.035000	0.002406	-0.000584	0.000833	-0.002915	6328.266552	43566.927760	3935.136878	22898.829862
50.534500	0.002468	0.001249	0.002404	0.021527	6144.311820	41510.792365	3883.242578	21807.848838
51.035000	0.020130	-0.024738	0.018615	0.668636	3706.272259	11201.241132	3148.064526	7210.114511
51.536000	0.010066	-0.020086	-0.013510	-0.002479	6384.789870	41748.158413	3901.292575	22878.836199
52.038500	0.010657	-0.074058	-0.011123	-0.255784	9106.314872	64298.021827	4685.179605	38649.370737
52.536000	0.002060	-0.083375	-0.013759	-0.268420	9163.752543	64768.026875	4726.215597	39702.936362
53.036500	0.005759	-0.042784	-0.003417	-0.202678	8337.697327	61294.385454	4510.325661	34541.889163
53.536500	0.008421	-0.033763	0.001225	-0.184135	8144.534243	60030.855661	4460.339440	33221.931846
54.033500	0.005738	-0.028924	-0.001312	-0.172323	7974.314072	59123.110847	4410.395201	32410.085239
54.534000	0.002493	-0.024632	-0.004288	-0.164223	7844.976233	58633.387028	4372.954305	31865.931912
55.035000	0.006655	-0.026887	0.003480	-0.177292	8042.755401	60035.270769	4444.190961	32748.926514
55.535500	0.013307	-0.023044	0.010143	-0.166375	7993.063048	59114.359844	4429.368511	32009.529101
56.035500	0.021588	-0.011419	0.017948	-0.120232	7572.727164	54829.361769	4302.137270	29081.642442
56.536500	0.023262	-0.001764	0.020381	-0.055503	6949.154702	48660.474636	4117.920620	25465.067993
57.036000	0.034281	0.005658	0.034706	-0.024285	6767.802758	46227.673755	4072.355186	23904.346197
57.539000	0.044581	0.014039	0.038160	0.005907	6597.253378	44111.998662	4003.758693	22497.950806
58.037000	0.057779	0.023325	0.056006	0.034477	6470.720507	42327.881469	3977.414051	21254.233653
58.537000	0.073263	0.031263	0.070561	0.077563	6254.441332	39273.078725	3910.406234	19526.710114
59.037500	0.087670	0.040317	0.086601	0.116536	6073.181485	36860.460953	3859.646510	18105.046066
59.535000	0.104687	0.048622	0.098697	0.159239	5894.306386	34284.529124	3795.944839	16687.031377
60.035000	0.117235	0.056312	0.119598	0.196995	5728.749929	32194.235232	3762.737291	15544.320335
60.535000	0.132123	0.066728	0.129323	0.190685	5867.323245	33339.264887	3794.301010	15728.454088
61.035500	0.141095	0.074410	0.145149	0.215821	5761.050112	32145.438335	3775.833045	15010.601862
61.539000	0.148849	0.082697	0.153568	0.260746	5531.161329	29790.261034	3707.122355	13826.666013
62.036500	0.154089	0.085809	0.160070	0.271843	5496.693203	29302.756195	3698.874223	13552.590009
62.536500	0.158720	0.089173	0.170153	0.270854	5529.758772	29567.397574	3718.894043	13576.739521
63.036500	0.164873	0.093110	0.171026	0.271334	5563.562651	29779.443122	3719.613372	13565.000947
63.536500	0.172799	0.099122	0.181487	0.275956	5583.452913	29865.128051	3730.388435	13452.765853
64.037500	0.175241	0.102353	0.183729	0.281587	5564.246761	29717.280950	3724.116890	13317.636545
64.535000	0.180618	0.105013	0.186733	0.289781	5547.402925	29379.435621	3714.607660	13124.109215
65.035000	0.185703	0.106957	0.189812	0.298779	5524.183225	28954.997557	3703.900213	12915.766215
65.535000	0.191029	0.111313	0.201057	0.306705	5508.869817	28742.771484	3709.886784	12735.773693
66.039000	0.193962	0.113107	0.204477	0.316369	5469.643261	28281.055697	3698.662046	12520.705117
66.536500	0.193435	0.115059	0.206485	0.330042	5388.868397	27608.778956	3678.120355	12224.497927
67.036500	0.201361	0.117110	0.212084	0.335929	5400.308133	27392.679167	3677.619744	12099.800127
67.536500	0.208283	0.119554	0.218980	0.344550	5390.769189	27048.673540	3674.631348	11920.219228
68.039500	0.212314	0.120244	0.221127	0.352347	5369.769510	26658.856501	3664.922558	11760.840606
68.537000	0.214358	0.124731	0.230227	0.364882	5312.221312	26225.071970	3659.081754	11510.545384
69.035000	0.211182	0.125479	0.229427	0.366055	5288.765193	26202.371892	3655.747670	11487.482508
69.535000	0.220159	0.127195	0.235240	0.370184	5314.926425	26074.043168	3658.592194	11406.829878
70.035000	0.225214	0.130524	0.236096	0.375675	5312.560995	25959.570685	3650.788624	11300.737999
70.535500	0.222306	0.131465	0.238739	0.381683	5264.724621	25693.660870	3645.176522	11186.189794
71.036000	0.226675	0.134072	0.239607	0.381350	5289.831131	25847.582246	3647.175196	11192.501464
71.536000	0.232160	0.135445	0.248907	0.383934	5305.455566	25784.082534	3658.451317	11143.682408
72.036000	0.235335	0.138116	0.250245	0.386512	5308.681938	25788.924775	3656.356470	11095.260058
72.536500	0.233687	0.139785	0.244207	0.394403	5257.626109	25465.218989	3633.225931	10948.836135
73.034000	0.242403	0.142222	0.253113	0.392397	5315.094908	25695.949687	3651.283520	10985.821109
73.534500	0.244681	0.143789	0.254707	0.394422	5316.472514	25672.042862	3650.563072	10948.501096
74.034000	0.245979	0.143773	0.263826	0.394543	5322.865424	25664.904188	3665.782007	10946.272213
74.539500	0.247184	0.145487	0.260527	0.402280	5287.573412	25353.201399	3647.159342	10805.314299
75.035500	0.251463	0.147548	0.265842	0.399693	5324.687411	25593.361364	3660.444138	10852.159341
75.538500	0.257083	0.149934	0.267873	0.401289	5346.712266	25634.433772	3661.182539	10823.223011
76.035500	0.255502	0.149401	0.269907	0.401389	5337.482767	25601.465689	3664.474845	10821.405843
76.536000	0.253084	0.150873	0.268252	0.408922	5283.591189	25288.730673	3648.964705	10686.274609
77.036500	0.260092	0.153051	0.272017	0.406473	5334.779828	25527.102453	3659.417749	10729.954838
77.533500	0.262091	0.154297	0.266924	0.408512	5334.565346	25486.083787	3647.432680	10693.580227
78.034500	0.263165	0.154619	0.273468	0.409541	5334.808534	25449.595897	3656.685253	10675.290335
78.534000	0.260224	0.156977	0.268024	0.416955	5278.818036	25190.064552	3635.296215	10544.737702
79.035500	0.263331	0.157535	0.273275	0.411778	5323.505511	25484.629315	3652.593298	10635.659709
79.535000	0.264941	0.160051	0.275081	0.413773	5321.405207	25511.536381	3652.276169	10600.490010
80.035500	0.263916	0.159540	0.276615	0.413704	5316.209365	25488.697893	3654.971174	10601.704607
80.536000	0.269895	0.161950	0.279082	0.416422	5333.982573	25472.810523	3654.548404	10554.057103
81.036500	0.269381	0.162399	0.287592	0.418992	5317.172286	25363.475466	3664.615120	10509.267860
81.536000	0.270899	0.164196	0.291718	0.420149	5319.135778	25396.379188	3669.699121	10489.188319
82.036000	0.269648	0.164362	0.283011	0.420917	5308.184098	25365.392539	3653.594899	10475.885672
82.534000	0.269256	0.163530	0.275420	0.427005	5273.389480	25012.414698	3630.960686	10371.318943
83.037500	0.274023	0.166413	0.290403	0.426285	5302.819971	25195.520823	3657.006289	10383.606397
83.534500	0.271438	0.164811	0.283056	0.423733	5302.642001	25244.029637	3648.953740	10427.337285
84.034500	0.274113	0.164135	0.287197	0.424419	5313.399061	25174.478356	3654.747274	10415.553168
84.543500	0.272704	0.164929	0.283831	0.432012	5265.088515	24830.564613	3636.525605	10286.386230
85.038500	0.276500	0.165933	0.294486	0.428197	5305.872623	25073.780190	3660.682307	10351.004171
85.536000	0.280191	0.167325	0.289681	0.430642	5312.619594	25020.428220	3648.478743	10309.535709
86.036000	0.276997	0.165769	0.298266	0.430139	5298.069891	24967.144091	3663.807295	10318.038510
86.536500	0.276009	0.165120	0.287341	0.437494	5253.555297	24566.610653	3633.295802	10194.529109
87.037000	0.281042	0.166991	0.294886	0.433558	5301.448244	24856.492002	3652.310803	10260.373616
87.537500	0.282127	0.166900	0.294974	0.434557	5301.911053	24801.759700	3650.783512	10243.605081
88.037500	0.282759	0.167330	0.294984	0.435908	5298.039950	24755.693567	3648.541935	10220.998072
88.534500	0.277285	0.165247	0.288227	0.440476	5244.561823	24425.514132	3629.879833	10145.051919
89.035500	0.281354	0.166914	0.291863	0.437463	5282.149401	24657.330067	3640.777956	10195.057534
89.538500	0.283447	0.167481	0.293648	0.438078	5290.061918	24654.885683	3642.709996	10184.808733
90.036000	0.284494	0.168167	0.292438	0.439439	5288.379214	24621.322191	3638.465906	10162.215083
90.536000	0.287441	0.168369	0.297999	0.440600	5297.980561	24573.698332	3645.746022	10142.994493
91.036500	0.288135	0.167983	0.291161	0.440586	5301.798995	24555.257978	3634.487856	10143.230748
91.537000	0.285607	0.169718	0.297489	0.442453	5278.202160	24548.702480	3641.827635	10112.423221
92.037000	0.287728	0.168844	0.301503	0.441645	5293.898978	24545.436935	3649.847134	10125.738532
92.537000	0.289909	0.169786	0.298232	0.442797	5299.440778	24535.064394	3642.487904	10106.770228
93.034500	0.283182	0.168321	0.295685	0.442329	5265.951582	24485.793013	3639.055994	10114.479051
93.537500	0.289058	0.169864	0.297628	0.443177	5292.813573	24520.116765	3640.860910	10100.520980
94.035000	0.289540	0.170717	0.297800	0.444164	5290.107868	24513.518566	3639.516859	10084.328276
94.538000	0.282458	0.169432	0.293614	0.448467	5229.776343	24238.896092	3625.658655	10014.118045
95.036000	0.288726	0.171870	0.305396	0.445769	5277.156875	24491.190928	3649.461856	10058.058984
95.536000	0.287736	0.171526	0.299408	0.444789	5277.100253	24522.563932	3641.138671	10074.074572
96.036000	0.288131	0.172598	0.297256	0.445852	5273.536026	24523.036036	3635.845282	10056.690435
96.539500	0.285342	0.170983	0.301633	0.448517	5244.646064	24312.317298	3638.659819	10013.303011
97.037500	0.285550	0.171610	0.299519	0.445856	5259.798450	24474.012966	3639.560134	10056.630304
97.540000	0.289139	0.170949	0.297092	0.444776	5284.669183	24494.690410	3637.342518	10074.288356
98.035000	0.290762	0.172086	0.292006	0.446502	5284.121392	24465.612613	3626.235678	10046.091586
98.535000	0.287293	0.171655	0.294124	0.450921	5242.263391	24227.603713	3622.523150	9974.389627
99.038000	0.288975	0.171912	0.299057	0.446891	5272.497559	24437.836065	3637.097291	10039.748785
99.536000	0.286301	0.171391	0.293930	0.445632	5264.969045	24474.278233	3630.770525	10060.296261
100.035500	0.285975	0.169160	0.300282	0.443644	5273.812120	24462.275455	3644.482670	10092.851262
100.536500	0.286277	0.170376	0.292063	0.450090	5241.288364	24205.741880	3620.544530	9987.815003
101.036500	0.287992	0.171028	0.298319	0.446901	5267.212732	24393.856305	3635.868125	10039.582018
101.540000	0.286477	0.172381	0.297868	0.446769	5259.873403	24466.990162	3635.345342	10041.735463
102.034500	0.288143	0.170674	0.297916	0.445669	5274.576370	24437.062292	3637.229149	10059.684150
102.534500	0.285947	0.170286	0.295111	0.451642	5231.417692	24125.858708	3622.950051	9962.746500
103.035000	0.287525	0.171117	0.301135	0.446932	5264.563896	24396.656576	3640.451807	10039.074588
103.560000	0.291543	0.173290	0.300597	0.449714	5271.138036	24366.732368	3634.991927	9993.892702
104.035000	0.286845	0.170831	0.301678	0.447485	5258.027405	24355.470587	3640.435506	10030.077321
104.538500	0.285437	0.171809	0.293975	0.454016	5216.374548	24084.544379	3617.320288	9924.593374
105.036500	0.288241	0.171090	0.303459	0.449631	5254.061783	24262.994849	3639.831664	9995.236254
105.536000	0.290746	0.173031	0.305701	0.451658	5256.588235	24258.824427	3640.187197	9962.497521
106.037000	0.294515	0.171799	0.299585	0.451191	5279.115821	24221.476283	3630.927325	9970.031846
