sample name	sample
index	549
start time	 03-15-2021  11:29:04 AM


Wavelength (nm)	Absorbance
494.344910	0.501390
494.563924	0.501390
494.782919	0.501390
495.001897	0.430784
495.220856	0.076046
495.439797	-0.019376
495.658719	-0.010462
495.877624	-0.010922
496.096510	-0.068516
496.315378	-0.012125
496.534227	-0.069526
496.753059	-0.098464
496.971872	0.020547
497.190667	0.058365
497.409444	0.066038
497.628203	0.063032
497.846943	0.065145
498.065665	0.063671
498.284369	0.064337
498.503055	0.064521
498.721723	0.065137
498.940372	0.065114
499.159003	0.064953
499.377616	0.064819
499.596210	0.065298
499.814787	0.065213
500.033345	0.066284
500.251885	0.065085
500.470406	0.065420
500.688910	0.066188
500.907395	0.066228
501.125862	0.066289
501.344311	0.067862
501.562742	0.067088
501.781154	0.067207
501.999548	0.067140
502.217924	0.068007
502.436282	0.067689
502.654621	0.066280
502.872942	0.065425
503.091245	0.066147
503.309530	0.065054
503.527797	0.065516
503.746045	0.064366
503.964275	0.064222
504.182487	0.064319
504.400681	0.064409
504.618856	0.065494
504.837013	0.066178
505.055152	0.066647
505.273273	0.067422
505.491376	0.068086
505.709460	0.068263
505.927526	0.067484
506.145574	0.067504
506.363604	0.067413
506.581615	0.067167
506.799608	0.067900
507.017583	0.068172
507.235540	0.066637
507.453478	0.066220
507.671399	0.067169
507.889301	0.068508
508.107185	0.068887
508.325050	0.069258
508.542898	0.069272
508.760727	0.068691
508.978538	0.068419
509.196330	0.069935
509.414105	0.070799
509.631861	0.070999
509.849599	0.071002
510.067319	0.071333
510.285021	0.072292
510.502704	0.072519
510.720369	0.073119
510.938016	0.073576
511.155645	0.072933
511.373255	0.072809
511.590848	0.072391
511.808422	0.072226
512.025977	0.072068
512.243515	0.071493
512.461034	0.071862
512.678536	0.072261
512.896018	0.071106
513.113483	0.071681
513.330930	0.072313
513.548358	0.072413
513.765768	0.072842
513.983160	0.072319
514.200533	0.072998
514.417889	0.073191
514.635226	0.073739
514.852545	0.074078
515.069845	0.074466
515.287128	0.073779
515.504392	0.074571
515.721638	0.075458
515.938866	0.076306
516.156075	0.075973
516.373267	0.075196
516.590440	0.074536
516.807594	0.075386
517.024731	0.075072
517.241850	0.076048
517.458950	0.075423
517.676032	0.075343
517.893095	0.074931
518.110141	0.074808
518.327168	0.076085
518.544177	0.076932
518.761168	0.076684
518.978141	0.076573
519.195095	0.076466
519.412031	0.077176
519.628949	0.076174
519.845849	0.076609
520.062731	0.077046
520.279594	0.076650
520.496439	0.076970
520.713266	0.077329
520.930074	0.077880
521.146865	0.078366
521.363637	0.078419
521.580391	0.078874
521.797127	0.079500
522.013844	0.078937
522.230543	0.079741
522.447224	0.078944
522.663887	0.079468
522.880532	0.079034
523.097158	0.078599
523.313766	0.078343
523.530356	0.079132
523.746928	0.079700
523.963481	0.080168
524.180017	0.080841
524.396534	0.082135
524.613032	0.082523
524.829513	0.083396
525.045975	0.083704
525.262420	0.084122
525.478845	0.084057
525.695253	0.082944
525.911643	0.083415
526.128014	0.082913
526.344367	0.082502
526.560702	0.082552
526.777018	0.083020
526.993316	0.083387
527.209597	0.084498
527.425858	0.085239
527.642102	0.086188
527.858328	0.086430
528.074535	0.086864
528.290724	0.086825
528.506894	0.086548
528.723047	0.086895
528.939181	0.087019
529.155297	0.086342
529.371395	0.086411
529.587475	0.086732
529.803536	0.086945
530.019579	0.087184
530.235604	0.087309
530.451611	0.087810
530.667600	0.087624
530.883570	0.087826
531.099522	0.088113
531.315456	0.088157
531.531372	0.088264
531.747269	0.088963
531.963148	0.089345
532.179009	0.090462
532.394852	0.091231
532.610676	0.091577
532.826482	0.092217
533.042271	0.093418
533.258040	0.093830
533.473792	0.093821
533.689525	0.094062
533.905240	0.093592
534.120937	0.094096
534.336616	0.093834
534.552277	0.094093
534.767919	0.094441
534.983543	0.094055
535.199149	0.094006
535.414736	0.094203
535.630306	0.094120
535.845857	0.094822
536.061390	0.095144
536.276904	0.095943
536.492401	0.097065
536.707879	0.097107
536.923339	0.096861
537.138781	0.097237
537.354204	0.098751
537.569610	0.099353
537.784997	0.099630
538.000366	0.099758
538.215716	0.099636
538.431049	0.098652
538.646363	0.098799
538.861659	0.099887
539.076937	0.100289
539.292196	0.099662
539.507438	0.100097
539.722661	0.100229
539.937866	0.100241
540.153052	0.099931
540.368221	0.100551
540.583371	0.100818
540.798503	0.100864
541.013617	0.100990
541.228712	0.101889
541.443789	0.102000
541.658848	0.102121
541.873889	0.101663
542.088912	0.102018
542.303916	0.101997
542.518902	0.102187
542.733870	0.101971
542.948820	0.102099
543.163752	0.101867
543.378665	0.101654
543.593560	0.102482
543.808437	0.102458
544.023295	0.102859
544.238136	0.103118
544.452958	0.103454
544.667762	0.103982
544.882548	0.104141
545.097315	0.103716
545.312064	0.104454
545.526795	0.104426
545.741508	0.105184
545.956203	0.105523
546.170879	0.105953
546.385537	0.105673
546.600177	0.105822
546.814799	0.106127
547.029402	0.106774
547.243988	0.106449
547.458555	0.106441
547.673103	0.107020
547.887634	0.107303
548.102146	0.107152
548.316640	0.107918
548.531116	0.108269
548.745574	0.108718
548.960013	0.108462
549.174435	0.109308
549.388838	0.109679
549.603222	0.109358
549.817589	0.109839
550.031937	0.110567
550.246267	0.110146
550.460579	0.109690
550.674873	0.109780
550.889148	0.110190
551.103405	0.109943
551.317644	0.110623
551.531865	0.110731
551.746068	0.110613
551.960252	0.110523
552.174418	0.110991
552.388566	0.111682
552.602696	0.112131
552.816807	0.112687
553.030900	0.112909
553.244975	0.112709
553.459032	0.113384
553.673070	0.113568
553.887091	0.113763
554.101093	0.114214
554.315077	0.114071
554.529042	0.113665
554.742990	0.113933
554.956919	0.114342
555.170830	0.114191
555.384722	0.113877
555.598597	0.114029
555.812453	0.114006
556.026291	0.113661
556.240111	0.114024
556.453913	0.114541
556.667696	0.114490
556.881461	0.114241
557.095208	0.114326
557.308937	0.114584
557.522647	0.114919
557.736339	0.115240
557.950013	0.115539
558.163669	0.115807
558.377307	0.115841
558.590926	0.116004
558.804527	0.116502
559.018110	0.116825
559.231675	0.117090
559.445221	0.116706
559.658749	0.117063
559.872259	0.117467
560.085751	0.117408
560.299225	0.117367
560.512680	0.117232
560.726117	0.117324
560.939536	0.117129
561.152937	0.117196
561.366319	0.117839
561.579683	0.117646
561.793029	0.117561
562.006357	0.117424
562.219667	0.117815
562.432958	0.117889
562.646231	0.117807
562.859486	0.118019
563.072723	0.118073
563.285941	0.117499
563.499141	0.117846
563.712323	0.118007
563.925487	0.117919
564.138632	0.118165
564.351760	0.118306
564.564869	0.117875
564.777960	0.117814
564.991032	0.117995
565.204087	0.118516
565.417123	0.118393
565.630141	0.118433
565.843140	0.119213
566.056122	0.119016
566.269085	0.119432
566.482030	0.120253
566.694957	0.120661
566.907866	0.120632
567.120756	0.120839
567.333628	0.120475
567.546482	0.120868
567.759318	0.120807
567.972135	0.120918
568.184935	0.120768
568.397716	0.120509
568.610478	0.120817
568.823223	0.121123
569.035949	0.121301
569.248657	0.121712
569.461347	0.121531
569.674019	0.121568
569.886672	0.121675
570.099308	0.121515
570.311925	0.121835
570.524523	0.121959
570.737104	0.121836
570.949666	0.121941
571.162210	0.122198
571.374736	0.122303
571.587244	0.122478
571.799733	0.122609
572.012205	0.123220
572.224658	0.123541
572.437092	0.123463
572.649509	0.123660
572.861907	0.123782
573.074287	0.123650
573.286649	0.123801
573.498993	0.124013
573.711318	0.124051
573.923625	0.123778
574.135914	0.123201
574.348185	0.123323
574.560438	0.123371
574.772672	0.123395
574.984888	0.123913
575.197086	0.123801
575.409266	0.124012
575.621427	0.123926
575.833570	0.123953
576.045695	0.124491
576.257802	0.124417
576.469890	0.124499
576.681961	0.124527
576.894013	0.124541
577.106046	0.125054
577.318062	0.125142
577.530059	0.125604
577.742039	0.126347
577.954000	0.126235
578.165942	0.126527
578.377867	0.126770
578.589773	0.126999
578.801661	0.126956
579.013531	0.127040
579.225382	0.127337
579.437216	0.127357
579.649031	0.127573
579.860828	0.127915
580.072606	0.128151
580.284367	0.128489
580.496109	0.128601
580.707833	0.128625
580.919539	0.128311
581.131227	0.128172
581.342896	0.128282
581.554547	0.128250
581.766180	0.127986
581.977795	0.128214
582.189391	0.128152
582.400969	0.127949
582.612529	0.128201
582.824071	0.128354
583.035595	0.128458
583.247100	0.128747
583.458587	0.128876
583.670056	0.129283
583.881506	0.129211
584.092939	0.129406
584.304353	0.129458
584.515749	0.129798
584.727127	0.130223
584.938486	0.129977
585.149828	0.129805
585.361151	0.129720
585.572456	0.129882
585.783742	0.129980
585.995011	0.130014
586.206261	0.130502
586.417493	0.130514
586.628706	0.130797
586.839902	0.130996
587.051079	0.131021
587.262238	0.131025
587.473379	0.131030
587.684502	0.131159
587.895606	0.130884
588.106692	0.130989
588.317760	0.131222
588.528810	0.131233
588.739841	0.131423
588.950855	0.131501
589.161850	0.131521
589.372827	0.131519
589.583785	0.131724
589.794726	0.132263
590.005648	0.132266
590.216552	0.132352
590.427437	0.132601
590.638305	0.133063
590.849154	0.133555
591.059985	0.133889
591.270798	0.134264
591.481592	0.134334
591.692369	0.134184
591.903127	0.134222
592.113867	0.133851
592.324588	0.133750
592.535292	0.133356
592.745977	0.133287
592.956644	0.133427
593.167293	0.133534
593.377923	0.133718
593.588536	0.134016
593.799130	0.134361
594.009706	0.135359
594.220263	0.135578
594.430803	0.136162
594.641324	0.136515
594.851827	0.136517
595.062312	0.136854
595.272778	0.136617
595.483227	0.136723
595.693657	0.136863
595.904069	0.136517
596.114462	0.136479
596.324838	0.136371
596.535195	0.136390
596.745534	0.136411
596.955855	0.136847
597.166157	0.137372
597.376441	0.137574
597.586707	0.137372
597.796955	0.137595
598.007185	0.137692
598.217396	0.137934
598.427589	0.138020
598.637764	0.138282
598.847921	0.137720
599.058060	0.137732
599.268180	0.137732
599.478282	0.138145
599.688366	0.138142
599.898431	0.138331
600.108479	0.138247
600.318508	0.138336
600.528519	0.138302
600.738511	0.138749
600.948486	0.138749
601.158442	0.138953
601.368380	0.138924
601.578300	0.138981
601.788202	0.139007
601.998085	0.139404
602.207950	0.139252
602.417797	0.139604
602.627626	0.139860
602.837436	0.139936
603.047228	0.140147
603.257002	0.140140
603.466758	0.140315
603.676496	0.140387
603.886215	0.140567
604.095916	0.140928
604.305599	0.141043
604.515264	0.140923
604.724910	0.141130
604.934538	0.141005
605.144148	0.141352
605.353740	0.141463
605.563314	0.141633
605.772869	0.141513
605.982406	0.141667
606.191925	0.141604
606.401425	0.141658
606.610908	0.142034
606.820372	0.142032
607.029818	0.141960
607.239246	0.142198
607.448655	0.142153
607.658047	0.142264
607.867420	0.142340
608.076775	0.142330
608.286111	0.142369
608.495430	0.142488
608.704730	0.142868
608.914012	0.143022
609.123275	0.143112
609.332521	0.143552
609.541748	0.143921
609.750957	0.143938
609.960148	0.143990
610.169321	0.144186
610.378475	0.144067
610.587611	0.144284
610.796729	0.144561
611.005829	0.144749
611.214910	0.144744
611.423974	0.144497
611.633019	0.144725
611.842045	0.145008
612.051054	0.145120
612.260044	0.145328
612.469017	0.145486
612.677970	0.145565
612.886906	0.145754
613.095824	0.145743
613.304723	0.145965
613.513604	0.145874
613.722467	0.146088
613.931311	0.146256
614.140138	0.146340
614.348946	0.146196
614.557736	0.146665
614.766507	0.146509
614.975261	0.146734
615.183996	0.146733
615.392713	0.146928
615.601412	0.146780
615.810092	0.147043
616.018754	0.147013
616.227399	0.147026
616.436024	0.146742
616.644632	0.146878
616.853222	0.146974
617.061793	0.147242
617.270346	0.147610
617.478880	0.148015
617.687397	0.147900
617.895895	0.148130
618.104375	0.148332
618.312837	0.148516
618.521281	0.148490
618.729706	0.148479
618.938113	0.148734
619.146502	0.148652
619.354873	0.148510
619.563226	0.148753
619.771560	0.148726
619.979876	0.148898
620.188174	0.148490
620.396453	0.148618
620.604715	0.148870
620.812958	0.148703
621.021183	0.148644
621.229390	0.148692
621.437578	0.148608
621.645748	0.148713
621.853900	0.148875
622.062034	0.149392
622.270150	0.149638
622.478247	0.149620
622.686326	0.149674
622.894387	0.149664
623.102430	0.149877
623.310454	0.149916
623.518461	0.149926
623.726449	0.150129
623.934418	0.150323
624.142370	0.150640
624.350303	0.151025
624.558218	0.151346
624.766115	0.151831
624.973994	0.152023
625.181855	0.152127
625.389697	0.152590
625.597521	0.152322
625.805327	0.152343
626.013114	0.152066
626.220883	0.152049
626.428634	0.152003
626.636367	0.152002
626.844082	0.152248
627.051778	0.152592
627.259457	0.152583
627.467117	0.153006
627.674758	0.153187
627.882382	0.153507
628.089987	0.153378
628.297574	0.153550
628.505143	0.153607
628.712694	0.153636
628.920226	0.153669
629.127740	0.153648
629.335236	0.153641
629.542714	0.153911
629.750174	0.154015
629.957615	0.154291
630.165038	0.154224
630.372443	0.154315
630.579829	0.154478
630.787198	0.154421
630.994548	0.154628
631.201880	0.154855
631.409194	0.154794
631.616489	0.154933
631.823766	0.155046
632.031025	0.155406
632.238266	0.155747
632.445489	0.155517
632.652693	0.155592
632.859879	0.155538
633.067047	0.155580
633.274197	0.155616
633.481329	0.155650
633.688442	0.155647
633.895537	0.155592
634.102614	0.155491
634.309672	0.155851
634.516713	0.156202
634.723735	0.156324
634.930739	0.156496
635.137724	0.156653
635.344692	0.156533
635.551641	0.156845
635.758572	0.157071
635.965485	0.157211
636.172379	0.157478
636.379256	0.157656
636.586114	0.158010
636.792954	0.158245
636.999775	0.158309
637.206579	0.158910
637.413364	0.159065
637.620131	0.159117
637.826880	0.159000
638.033610	0.159165
638.240323	0.159429
638.447017	0.159697
638.653692	0.159890
638.860350	0.160217
639.066990	0.160049
639.273611	0.160061
639.480214	0.160332
639.686798	0.160982
639.893365	0.160971
640.099913	0.161058
640.306443	0.160962
640.512955	0.160748
640.719449	0.160600
640.925924	0.160934
641.132381	0.161110
641.338820	0.161183
641.545241	0.161199
641.751644	0.161200
641.958028	0.161066
642.164394	0.161073
642.370742	0.161614
642.577071	0.161850
642.783383	0.161882
642.989676	0.162072
643.195951	0.162267
643.402207	0.162181
643.608446	0.162255
643.814666	0.162413
644.020868	0.162641
644.227052	0.162521
644.433218	0.162652
644.639365	0.162706
644.845494	0.162958
645.051605	0.163025
645.257698	0.163055
645.463772	0.163221
645.669828	0.163363
645.875866	0.163510
646.081886	0.163476
646.287888	0.163579
646.493871	0.163488
646.699836	0.163504
646.905783	0.163698
647.111712	0.164143
647.317622	0.164466
647.523514	0.164602
647.729388	0.164841
647.935244	0.165209
648.141082	0.165622
648.346901	0.166107
648.552702	0.166311
648.758485	0.166172
648.964250	0.166237
649.169996	0.166427
649.375724	0.166749
649.581434	0.166725
649.787126	0.166880
649.992800	0.166494
650.198455	0.166454
650.404092	0.166353
650.609711	0.166708
650.815311	0.166694
651.020894	0.166734
651.226458	0.166623
651.432004	0.166890
651.637532	0.166797
651.843041	0.167269
652.048532	0.167414
652.254006	0.168012
652.459460	0.168529
652.664897	0.168807
652.870315	0.168989
653.075716	0.169124
653.281097	0.169338
653.486461	0.169495
653.691807	0.169453
653.897134	0.169902
654.102443	0.169747
654.307734	0.169750
654.513006	0.169908
654.718261	0.170031
654.923497	0.170335
655.128715	0.170213
655.333915	0.170536
655.539096	0.170851
655.744259	0.170584
655.949404	0.170664
656.154531	0.170599
656.359640	0.170830
656.564730	0.170851
656.769802	0.170694
656.974856	0.171073
657.179892	0.171225
657.384909	0.171225
657.589908	0.171298
657.794889	0.171349
657.999852	0.171483
658.204797	0.171237
658.409723	0.171425
658.614631	0.171941
658.819521	0.171860
659.024393	0.171755
659.229246	0.172147
659.434081	0.172458
659.638898	0.172651
659.843697	0.172692
660.048478	0.173252
660.253240	0.173437
660.457984	0.173439
660.662710	0.173747
660.867417	0.174120
661.072107	0.174338
661.276778	0.174598
661.481431	0.174754
661.686066	0.175043
661.890682	0.175167
662.095281	0.175323
662.299861	0.175421
662.504422	0.175564
662.708966	0.175808
662.913491	0.175678
663.117999	0.175928
663.322488	0.176017
663.526958	0.176069
663.731411	0.176218
663.935845	0.176533
664.140261	0.176762
664.344659	0.176876
664.549038	0.177103
664.753400	0.177267
664.957743	0.177570
665.162068	0.177931
665.366375	0.178105
665.570663	0.178386
665.774933	0.178651
665.979185	0.178849
666.183419	0.179014
666.387635	0.179171
666.591832	0.179601
666.796011	0.179686
667.000172	0.179780
667.204315	0.179987
667.408439	0.180012
667.612545	0.180113
667.816634	0.180172
668.020703	0.180317
668.224755	0.180363
668.428788	0.180625
668.632803	0.180642
668.836800	0.180825
669.040779	0.181318
669.244739	0.181379
669.448681	0.181615
669.652605	0.181755
669.856511	0.182018
670.060399	0.182285
670.264268	0.182193
670.468119	0.182404
670.671952	0.182636
670.875767	0.182429
671.079563	0.182428
671.283341	0.182215
671.487101	0.182566
671.690843	0.182769
671.894567	0.182692
672.098272	0.182822
672.301959	0.182917
672.505628	0.183077
672.709278	0.183471
672.912911	0.183660
673.116525	0.183774
673.320121	0.184041
673.523699	0.184096
673.727258	0.184379
673.930799	0.184368
674.134322	0.184443
674.337827	0.184627
674.541314	0.184528
674.744782	0.184898
674.948232	0.185397
675.151664	0.185204
675.355078	0.185373
675.558474	0.185339
675.761851	0.185675
675.965210	0.185745
676.168551	0.185820
676.371873	0.186091
676.575178	0.186144
676.778464	0.185934
676.981732	0.186034
677.184981	0.186294
677.388213	0.186326
677.591426	0.186395
677.794621	0.186692
677.997798	0.186797
678.200956	0.186954
678.404097	0.186999
678.607219	0.187386
678.810323	0.187505
679.013408	0.187335
679.216476	0.187514
679.419525	0.187468
679.622556	0.187584
679.825569	0.187635
680.028563	0.187525
680.231540	0.187665
680.434498	0.187652
680.637438	0.187913
680.840359	0.188015
681.043263	0.188241
681.246148	0.188774
681.449015	0.188789
681.651864	0.188785
681.854694	0.189062
682.057506	0.189241
682.260301	0.189537
682.463076	0.189789
682.665834	0.189941
682.868573	0.189972
683.071295	0.189928
683.273998	0.190183
683.476682	0.190480
683.679349	0.190631
683.881997	0.190944
684.084627	0.191035
684.287239	0.191061
684.489833	0.191369
684.692408	0.191959
684.894965	0.192190
685.097504	0.192521
685.300025	0.192797
685.502527	0.192976
685.705012	0.193145
685.907478	0.193423
686.109925	0.193698
686.312355	0.193856
686.514766	0.193890
686.717159	0.194111
686.919534	0.194188
687.121891	0.194366
687.324230	0.194547
687.526550	0.194624
687.728852	0.194896
687.931136	0.194986
688.133401	0.195005
688.335649	0.194906
688.537878	0.195157
688.740089	0.195203
688.942281	0.195005
689.144456	0.195097
689.346612	0.195238
689.548750	0.195319
689.750870	0.195562
689.952971	0.195548
690.155055	0.195622
690.357120	0.195408
690.559167	0.195387
690.761195	0.195755
690.963206	0.195719
691.165198	0.195770
691.367172	0.195558
691.569128	0.195445
691.771065	0.195980
691.972984	0.196102
692.174885	0.196356
692.376768	0.196623
692.578633	0.196633
692.780479	0.196726
692.982308	0.196649
693.184118	0.196895
693.385909	0.197087
693.587683	0.197064
693.789438	0.197312
693.991175	0.197359
694.192894	0.197584
694.394595	0.197847
694.596277	0.198186
694.797941	0.198590
694.999587	0.198815
695.201215	0.199021
695.402824	0.199160
695.604416	0.199423
695.805989	0.199706
696.007543	0.199860
696.209080	0.200142
696.410598	0.200378
696.612099	0.200488
696.813580	0.200322
697.015044	0.200325
697.216490	0.200428
697.417917	0.200469
697.619326	0.200495
697.820717	0.200439
698.022089	0.200473
698.223444	0.200619
698.424780	0.200472
698.626098	0.200505
698.827397	0.200661
699.028679	0.200808
699.229942	0.200682
699.431187	0.200514
699.632414	0.200744
699.833622	0.200567
700.034813	0.200384
700.235985	0.200567
700.437139	0.200761
700.638274	0.200639
700.839392	0.200533
701.040491	0.200859
701.241572	0.201138
701.442635	0.201008
701.643679	0.201213
701.844706	0.201268
702.045714	0.201434
702.246704	0.201397
702.447675	0.201533
702.648629	0.201710
702.849564	0.201624
703.050481	0.201517
703.251380	0.201582
703.452260	0.201612
703.653122	0.201912
703.853966	0.201778
704.054792	0.202072
704.255600	0.202009
704.456389	0.201861
704.657160	0.201993
704.857913	0.202059
705.058648	0.202077
705.259365	0.202078
705.460063	0.201908
705.660743	0.202005
705.861405	0.201929
706.062048	0.202124
706.262674	0.202362
706.463281	0.202347
706.663870	0.202516
706.864441	0.202506
707.064993	0.202415
707.265527	0.202670
707.466043	0.202828
707.666541	0.202926
707.867021	0.202984
708.067482	0.203044
708.267925	0.202928
708.468350	0.202911
708.668757	0.203166
708.869145	0.203355
709.069516	0.203243
709.269868	0.203160
709.470201	0.203071
709.670517	0.203183
709.870814	0.203000
710.071093	0.203227
710.271354	0.203234
710.471597	0.203241
710.671821	0.203383
710.872028	0.203282
711.072216	0.203262
711.272385	0.203213
711.472537	0.203124
711.672670	0.203062
711.872785	0.202749
712.072882	0.202633
712.272961	0.202275
712.473021	0.201975
712.673063	0.202042
712.873087	0.202065
713.073093	0.202336
713.273081	0.202250
713.473050	0.202243
713.673001	0.202631
713.872934	0.202702
714.072849	0.202876
714.272745	0.203093
714.472623	0.203030
714.672483	0.202950
714.872325	0.202591
715.072148	0.202635
715.271954	0.202839
715.471741	0.202366
715.671509	0.202301
715.871260	0.202211
716.070992	0.201810
716.270707	0.201639
716.470403	0.201464
716.670080	0.201322
716.869740	0.201223
717.069381	0.201037
717.269004	0.201001
717.468609	0.200826
717.668195	0.200681
717.867764	0.200779
718.067314	0.200754
718.266846	0.200911
718.466360	0.200860
718.665855	0.200626
718.865332	0.200456
719.064791	0.200657
719.264232	0.200823
719.463655	0.200744
719.663059	0.200697
719.862445	0.200330
720.061813	0.200244
720.261163	0.200454
720.460494	0.200392
720.659807	0.200388
720.859102	0.200338
721.058379	0.200203
721.257638	0.200251
721.456878	0.200175
721.656100	0.200247
721.855304	0.200155
722.054490	0.199734
722.253657	0.199774
722.452806	0.199708
722.651937	0.199612
722.851050	0.199512
723.050145	0.199467
723.249221	0.199354
723.448279	0.199378
723.647319	0.199387
723.846340	0.199519
724.045344	0.199558
724.244329	0.199403
724.443296	0.199254
724.642245	0.199089
724.841175	0.198847
725.040088	0.198562
725.238982	0.198520
725.437857	0.198222
725.636715	0.198000
725.835554	0.197725
726.034376	0.197509
726.233179	0.197434
726.431963	0.197110
726.630730	0.196958
726.829478	0.197047
727.028208	0.196807
727.226920	0.196756
727.425614	0.196701
727.624289	0.196400
727.822946	0.196236
728.021585	0.195708
728.220206	0.195595
728.418808	0.195516
728.617392	0.195252
728.815958	0.195169
729.014506	0.195139
729.213036	0.194872
729.411547	0.194750
729.610040	0.194634
729.808515	0.194798
730.006972	0.195002
730.205410	0.194703
730.403831	0.194515
730.602233	0.194352
730.800616	0.193997
730.998982	0.193949
731.197329	0.194045
731.395658	0.194151
731.593969	0.194057
731.792262	0.193898
731.990536	0.194225
732.188793	0.194241
732.387031	0.194140
732.585250	0.194055
732.783452	0.193856
732.981635	0.193717
733.179800	0.193352
733.377947	0.193214
733.576076	0.192808
733.774186	0.192516
733.972278	0.192454
734.170352	0.192158
734.368408	0.192196
734.566446	0.192400
734.764465	0.192607
734.962466	0.192709
735.160449	0.192606
735.358413	0.192794
735.556360	0.192445
735.754288	0.192405
735.952198	0.192375
736.150090	0.192138
736.347963	0.191832
736.545818	0.191409
736.743655	0.191114
736.941474	0.190608
737.139275	0.190236
737.337057	0.190314
737.534821	0.189977
737.732567	0.189874
737.930295	0.189493
738.128005	0.189306
738.325696	0.188777
738.523369	0.188799
738.721024	0.188827
738.918660	0.188788
739.116279	0.188375
739.313879	0.188384
739.511461	0.188367
739.709024	0.188538
739.906570	0.188423
740.104097	0.188450
740.301606	0.188062
740.499097	0.187932
740.696569	0.187494
740.894024	0.187527
741.091460	0.187111
741.288878	0.186752
741.486277	0.186157
741.683659	0.185945
741.881022	0.185937
742.078367	0.185793
742.275694	0.185710
742.473002	0.185528
742.670293	0.185259
742.867565	0.185154
743.064819	0.184911
743.262054	0.185066
743.459272	0.184760
743.656471	0.184646
743.853652	0.184422
744.050815	0.184251
744.247959	0.184584
744.445085	0.184615
744.642194	0.184508
744.839283	0.184377
745.036355	0.184190
745.233408	0.184159
745.430444	0.183950
745.627461	0.183797
745.824459	0.183626
746.021440	0.183051
746.218402	0.182785
746.415346	0.182650
746.612272	0.182759
746.809180	0.182557
747.006069	0.182465
747.202940	0.182059
747.399793	0.181938
747.596628	0.181566
747.793444	0.181778
747.990243	0.181478
748.187023	0.181358
748.383784	0.181108
748.580528	0.180920
748.777253	0.180737
748.973960	0.180695
749.170649	0.180761
749.367320	0.180893
749.563973	0.180383
749.760607	0.180309
749.957223	0.180116
750.153821	0.179775
750.350400	0.179446
750.546962	0.179279
750.743505	0.179057
750.940030	0.178635
751.136536	0.178369
751.333025	0.178292
751.529495	0.178094
751.725947	0.178058
751.922381	0.178053
752.118796	0.178421
752.315194	0.178466
752.511573	0.178575
752.707934	0.178701
752.904276	0.178717
753.100601	0.178589
753.296907	0.178669
753.493195	0.178400
753.689465	0.178240
753.885716	0.178034
754.081949	0.177847
754.278164	0.177768
754.474361	0.177577
754.670540	0.177293
754.866700	0.177232
755.062843	0.177051
755.258967	0.177098
755.455072	0.176837
755.651160	0.176587
755.847229	0.176301
756.043280	0.176045
756.239313	0.175920
756.435328	0.175956
756.631324	0.175867
756.827302	0.175818
757.023262	0.175557
757.219204	0.175734
757.415127	0.175606
757.611033	0.175541
757.806920	0.175678
758.002788	0.175545
758.198639	0.175472
758.394471	0.175500
758.590286	0.175415
758.786081	0.175388
758.981859	0.175128
759.177619	0.175032
759.373360	0.175031
759.569083	0.174836
759.764788	0.174758
759.960474	0.174810
760.156143	0.174587
760.351793	0.174373
760.547425	0.174386
760.743038	0.174355
760.938634	0.174406
761.134211	0.174378
761.329770	0.174131
761.525311	0.174301
761.720833	0.174064
761.916338	0.174024
762.111824	0.174060
762.307292	0.173787
762.502741	0.173721
762.698173	0.173513
762.893586	0.173227
763.088981	0.173088
763.284358	0.172556
763.479716	0.172302
763.675057	0.172189
763.870379	0.172063
764.065683	0.171862
764.260968	0.171810
764.456236	0.171615
764.651485	0.171763
764.846716	0.171784
765.041929	0.171747
765.237123	0.171661
765.432299	0.171629
765.627457	0.171294
765.822597	0.171266
766.017719	0.171041
766.212822	0.170905
766.407907	0.170719
766.602974	0.170652
766.798023	0.171014
766.993054	0.170902
767.188066	0.170811
767.383060	0.170754
767.578036	0.171036
767.772993	0.170974
767.967933	0.171050
768.162854	0.170797
768.357757	0.170735
768.552642	0.170449
768.747508	0.170445
768.942356	0.170372
769.137186	0.170460
769.331998	0.170191
769.526792	0.170138
769.721567	0.170070
769.916324	0.170377
770.111063	0.170296
770.305784	0.170052
770.500486	0.170040
770.695171	0.169984
770.889837	0.169779
771.084484	0.169708
771.279114	0.169708
771.473725	0.169615
771.668318	0.169012
771.862893	0.168967
772.057450	0.168949
772.251988	0.168913
772.446509	0.168732
772.641011	0.168780
772.835494	0.168617
773.029960	0.168603
773.224407	0.168546
773.418836	0.168980
773.613247	0.169051
773.807640	0.169286
774.002014	0.169112
774.196370	0.169302
774.390708	0.169635
774.585028	0.169702
774.779330	0.169766
774.973613	0.169821
775.167878	0.170036
775.362125	0.169933
775.556354	0.169748
775.750564	0.169891
775.944756	0.169840
776.138930	0.169671
776.333086	0.169683
776.527223	0.169690
776.721343	0.169708
776.915444	0.169469
777.109526	0.169348
777.303591	0.169147
777.497637	0.169140
777.691666	0.169020
777.885676	0.168941
778.079667	0.168920
778.273641	0.168920
778.467596	0.168822
778.661533	0.168576
778.855452	0.168771
779.049352	0.168916
779.243235	0.168969
779.437099	0.168997
779.630945	0.169020
779.824773	0.169128
780.018582	0.169197
780.212373	0.169347
780.406146	0.169201
780.599901	0.169322
780.793638	0.169481
780.987356	0.169435
781.181056	0.169436
781.374738	0.169411
781.568402	0.169450
781.762047	0.169360
781.955674	0.169411
782.149283	0.169809
782.342874	0.169843
782.536447	0.169895
782.730001	0.169926
782.923537	0.169994
783.117055	0.170205
783.310555	0.170089
783.504036	0.170315
783.697499	0.170223
783.890944	0.170337
784.084371	0.170281
784.277780	0.170317
784.471170	0.170590
784.664542	0.170663
784.857896	0.170440
785.051231	0.170486
785.244549	0.170193
785.437848	0.170518
785.631129	0.170693
785.824392	0.170695
786.017636	0.170716
786.210863	0.170643
786.404071	0.170743
786.597260	0.170713
786.790432	0.170724
786.983585	0.170938
787.176721	0.170363
787.369838	0.170169
787.562936	0.169960
787.756017	0.169949
787.949079	0.169786
788.142123	0.169872
788.335149	0.170182
788.528156	0.170451
788.721146	0.170506
788.914117	0.170849
789.107070	0.170855
789.300005	0.171167
789.492921	0.170973
789.685819	0.171119
789.878699	0.171275
790.071561	0.171236
790.264405	0.171193
790.457230	0.170976
790.650037	0.171222
790.842826	0.171405
791.035597	0.171418
791.228349	0.171689
791.421084	0.171993
791.613800	0.171802
791.806497	0.171900
791.999177	0.171749
792.191838	0.171982
792.384481	0.172130
792.577106	0.172307
792.769713	0.172527
792.962301	0.172699
793.154871	0.172728
793.347423	0.173150
793.539957	0.173109
793.732473	0.173502
793.924970	0.173758
794.117449	0.173733
794.309910	0.173506
794.502353	0.173851
794.694777	0.173828
794.887183	0.174139
795.079571	0.174129
795.271941	0.174545
795.464293	0.174757
795.656626	0.174984
795.848941	0.175289
796.041238	0.175790
796.233516	0.175480
796.425777	0.175848
796.618019	0.175689
796.810243	0.175904
797.002449	0.175948
797.194636	0.175796
797.386805	0.175704
797.578956	0.175782
797.771089	0.175640
797.963204	0.176177
798.155300	0.176062
798.347378	0.176069
798.539438	0.176038
798.731480	0.176390
798.923503	0.176577
799.115509	0.176922
799.307496	0.176935
799.499465	0.177293
799.691415	0.177405
799.883348	0.177675
800.075262	0.177892
800.267158	0.178172
800.459035	0.178139
800.650895	0.178609
800.842736	0.178597
801.034559	0.178875
801.226364	0.179134
801.418150	0.179095
801.609919	0.179324
801.801669	0.179444
801.993401	0.179847
802.185114	0.180249
802.376810	0.180422
802.568487	0.180938
802.760146	0.181267
802.951787	0.181260
803.143409	0.181475
803.335014	0.181525
803.526600	0.181656
803.718168	0.181511
803.909717	0.181704
804.101249	0.181628
804.292762	0.181657
804.484257	0.181626
804.675734	0.181919
804.867192	0.182225
805.058632	0.182814
805.250054	0.183162
805.441458	0.183416
805.632844	0.183576
805.824211	0.184131
806.015561	0.184304
806.206891	0.184596
806.398204	0.184775
806.589499	0.184552
806.780775	0.184728
806.972033	0.185102
807.163273	0.185269
807.354495	0.185004
807.545698	0.185065
807.736883	0.185425
807.928050	0.185605
808.119199	0.185723
808.310329	0.186021
808.501441	0.186183
808.692535	0.186408
808.883611	0.186453
809.074669	0.186842
809.265708	0.186715
809.456729	0.186660
809.647732	0.186763
809.838717	0.186674
810.029683	0.187086
810.220632	0.187047
810.411562	0.187161
810.602474	0.187620
810.793367	0.187792
810.984242	0.188411
811.175100	0.188620
811.365938	0.188815
811.556759	0.189539
811.747562	0.189750
811.938346	0.190104
812.129112	0.190335
812.319860	0.190375
812.510589	0.190752
812.701300	0.190762
812.891994	0.190988
813.082668	0.191276
813.273325	0.191314
813.463964	0.191643
813.654584	0.191937
813.845186	0.192379
814.035769	0.192670
814.226335	0.192899
814.416882	0.193324
814.607411	0.193911
814.797922	0.194184
814.988415	0.194409
815.178889	0.194647
815.369345	0.195042
815.559783	0.195173
815.750203	0.195625
815.940605	0.195868
816.130988	0.196226
816.321353	0.196396
816.511700	0.196665
816.702028	0.196713
816.892339	0.196838
817.082631	0.196893
817.272905	0.196951
817.463161	0.196986
817.653398	0.196994
817.843617	0.197214
818.033819	0.197344
818.224001	0.197552
818.414166	0.197907
818.604312	0.198154
818.794440	0.198234
818.984550	0.198351
819.174642	0.198452
819.364716	0.199160
819.554771	0.199481
819.744808	0.199603
819.934827	0.199866
820.124827	0.200268
820.314810	0.200217
820.504774	0.200713
820.694720	0.201179
820.884647	0.201747
821.074557	0.201984
821.264448	0.201885
821.454321	0.202209
821.644176	0.202436
821.834012	0.202897
822.023831	0.203456
822.213631	0.203826
822.403413	0.204178
822.593176	0.204025
822.782922	0.203918
822.972649	0.204180
823.162358	0.204458
823.352049	0.204811
823.541721	0.204683
823.731376	0.205118
823.921012	0.205033
824.110629	0.205430
824.300229	0.205829
824.489811	0.206260
824.679374	0.206598
824.868919	0.206614
825.058445	0.206800
825.247954	0.207241
825.437444	0.207409
825.626916	0.207996
825.816370	0.207927
826.005806	0.208257
826.195223	0.208750
826.384622	0.209225
826.574003	0.210059
826.763366	0.210709
826.952711	0.211331
827.142037	0.211888
827.331345	0.212127
827.520635	0.212666
827.709906	0.213106
827.899160	0.213071
828.088395	0.213313
828.277612	0.213340
828.466810	0.213561
828.655991	0.213717
828.845153	0.213713
829.034297	0.213945
829.223423	0.214458
829.412531	0.214932
829.601620	0.215478
829.790691	0.216005
829.979744	0.216517
830.168779	0.216919
830.357795	0.217163
830.546793	0.217573
830.735773	0.217684
830.924735	0.217767
831.113679	0.217894
831.302604	0.217954
831.491511	0.218134
831.680400	0.218285
831.869271	0.218685
832.058123	0.218844
832.246957	0.219096
832.435773	0.219783
832.624571	0.220001
832.813351	0.220305
833.002112	0.220967
833.190855	0.221012
833.379580	0.221385
833.568287	0.221577
833.756975	0.221950
833.945645	0.222202
834.134297	0.222378
834.322931	0.222754
834.511547	0.223179
834.700144	0.223538
834.888723	0.223907
835.077284	0.224166
835.265826	0.224309
835.454351	0.224966
835.642857	0.225407
835.831345	0.225743
836.019815	0.226398
836.208266	0.226738
836.396699	0.227055
836.585114	0.227735
836.773511	0.227834
836.961890	0.228289
837.150250	0.228637
837.338592	0.228953
837.526916	0.229294
837.715222	0.229635
837.903510	0.229767
838.091779	0.229937
838.280030	0.230127
838.468263	0.230855
838.656477	0.231275
838.844674	0.231289
839.032852	0.231860
839.221012	0.232548
839.409153	0.232754
839.597277	0.233351
839.785382	0.233804
839.973469	0.234037
840.161538	0.234537
840.349589	0.234594
840.537621	0.234964
840.725635	0.235330
840.913631	0.235507
841.101609	0.235853
841.289568	0.236276
841.477509	0.236761
841.665432	0.237226
841.853337	0.237298
842.041224	0.237884
842.229092	0.238341
842.416942	0.238768
842.604774	0.238981
842.792588	0.239435
842.980383	0.239805
843.168160	0.240065
843.355919	0.240030
843.543660	0.240440
843.731382	0.240669
843.919087	0.241187
844.106773	0.241355
844.294441	0.241727
844.482090	0.241843
844.669722	0.242084
844.857335	0.242668
845.044930	0.243513
845.232507	0.243798
845.420065	0.244134
845.607605	0.244521
845.795127	0.244842
845.982631	0.244876
846.170117	0.245439
846.357584	0.245869
846.545033	0.245985
846.732464	0.245981
846.919877	0.246718
847.107272	0.247167
847.294648	0.247053
847.482006	0.247654
847.669346	0.248475
847.856667	0.249010
848.043971	0.249220
848.231256	0.249500
848.418523	0.250124
848.605771	0.250323
848.793002	0.250456
848.980214	0.250815
849.167408	0.250976
849.354584	0.251007
849.541742	0.250965
849.728881	0.251323
849.916002	0.252019
850.103105	0.252101
850.290190	0.252044
850.477256	0.252372
850.664304	0.253124
850.851334	0.253365
851.038346	0.253905
851.225340	0.254233
851.412315	0.254631
851.599272	0.254512
851.786211	0.255047
851.973132	0.255590
852.160034	0.256404
852.346918	0.256504
852.533784	0.256985
852.720632	0.257099
852.907462	0.257737
853.094273	0.258359
853.281066	0.258972
853.467841	0.259298
853.654598	0.259570
853.841336	0.259626
854.028056	0.260181
854.214758	0.260680
854.401442	0.261284
854.588107	0.261748
854.774755	0.261758
854.961384	0.261683
855.147995	0.261862
855.334587	0.262235
855.521162	0.262610
855.707718	0.263048
855.894256	0.263188
856.080775	0.263525
856.267277	0.263415
856.453760	0.263805
856.640225	0.264658
856.826672	0.265176
857.013101	0.265997
857.199511	0.266563
857.385903	0.266775
857.572277	0.267223
857.758633	0.267445
857.944970	0.267983
858.131290	0.268705
858.317591	0.268696
858.503873	0.269289
858.690138	0.269526
858.876384	0.269858
859.062612	0.270276
859.248822	0.270659
859.435014	0.271176
859.621188	0.271712
859.807343	0.271802
859.993480	0.272410
860.179599	0.272369
860.365699	0.272174
860.551781	0.272468
860.737846	0.272797
860.923891	0.273066
861.109919	0.273497
861.295929	0.273968
861.481920	0.274310
861.667893	0.274766
861.853848	0.275184
862.039784	0.275846
862.225702	0.276412
862.411603	0.276679
862.597484	0.277148
862.783348	0.277248
862.969193	0.276883
863.155021	0.276936
863.340830	0.276804
863.526620	0.277161
863.712393	0.277520
863.898147	0.277488
864.083883	0.278021
864.269601	0.277901
864.455301	0.278198
864.640982	0.278612
864.826645	0.278814
865.012290	0.279295
865.197917	0.279466
865.383526	0.279205
865.569116	0.279302
865.754688	0.279134
865.940242	0.279350
866.125777	0.279571
866.311295	0.279897
866.496794	0.280540
866.682275	0.280474
866.867737	0.280938
867.053182	0.281422
867.238608	0.281507
867.424016	0.281992
867.609406	0.282854
867.794778	0.283133
867.980131	0.283800
868.165466	0.283900
868.350783	0.284410
868.536082	0.284350
868.721362	0.284865
868.906625	0.285173
869.091869	0.285218
869.277094	0.285128
869.462302	0.285235
869.647491	0.285095
869.832662	0.285111
870.017815	0.285193
870.202950	0.285868
870.388066	0.285976
870.573165	0.286270
870.758245	0.286243
870.943306	0.286565
871.128350	0.286832
871.313375	0.287095
871.498382	0.287449
871.683371	0.287933
871.868342	0.288192
872.053294	0.288442
872.238229	0.288664
872.423144	0.289393
872.608042	0.289350
872.792922	0.289900
872.977783	0.290237
873.162626	0.290561
873.347451	0.290820
873.532258	0.290639
873.717046	0.290781
873.901816	0.291259
874.086568	0.291474
874.271302	0.291800
874.456017	0.292157
874.640715	0.292444
874.825394	0.292970
875.010055	0.293151
875.194697	0.293622
875.379322	0.293711
875.563928	0.293524
875.748516	0.293727
875.933085	0.293832
876.117637	0.293828
876.302170	0.293935
876.486685	0.293526
876.671182	0.293484
876.855661	0.293187
877.040121	0.293602
877.224563	0.293978
877.408987	0.294087
877.593393	0.294089
877.777780	0.294185
877.962150	0.294445
878.146501	0.295269
878.330833	0.295733
878.515148	0.295804
878.699444	0.295806
878.883722	0.296222
879.067982	0.296237
879.252224	0.296962
879.436447	0.297113
879.620653	0.296981
879.804840	0.297016
879.989008	0.297001
880.173159	0.297780
880.357291	0.298162
880.541405	0.298294
880.725501	0.298226
880.909579	0.297774
881.093638	0.297738
881.277680	0.298267
881.461703	0.298288
881.645707	0.298382
881.829694	0.298478
882.013662	0.298505
882.197612	0.298574
882.381544	0.298902
882.565458	0.299016
882.749353	0.299402
882.933230	0.298598
883.117089	0.298391
883.300930	0.298542
883.484753	0.298289
883.668557	0.298856
883.852343	0.298792
884.036111	0.299158
884.219861	0.299348
884.403592	0.299570
884.587305	0.300128
884.771000	0.300425
884.954677	0.300509
885.138335	0.300780
885.321976	0.300330
885.505598	0.300639
885.689201	0.300460
885.872787	0.300461
886.056354	0.299946
886.239904	0.299262
886.423434	0.299054
886.606947	0.298670
886.790442	0.298688
886.973918	0.298409
887.157376	0.298304
887.340816	0.298119
887.524237	0.298427
887.707641	0.298468
887.891026	0.298923
888.074393	0.299073
888.257741	0.299493
888.441072	0.299866
888.624384	0.300550
888.807678	0.300520
888.990954	0.300934
889.174211	0.300824
889.357451	0.301057
889.540672	0.301263
889.723875	0.301540
889.907059	0.301605
890.090226	0.300996
890.273374	0.300555
890.456504	0.300516
890.639616	0.300274
890.822709	0.300427
891.005785	0.300177
891.188842	0.300480
891.371881	0.300308
891.554901	0.300356
891.737904	0.300498
891.920888	0.300568
892.103854	0.301023
892.286802	0.300994
892.469731	0.300985
892.652643	0.301301
892.835536	0.301293
893.018410	0.300883
893.201267	0.300449
893.384106	0.300450
893.566926	0.300545
893.749728	0.300048
893.932511	0.299486
894.115277	0.299414
894.298024	0.299446
894.480753	0.299033
894.663464	0.299241
894.846157	0.299158
895.028831	0.299105
895.211487	0.298667
895.394125	0.298139
895.576745	0.298609
895.759346	0.298548
895.941930	0.298157
896.124495	0.298421
896.307041	0.298240
896.489570	0.298265
896.672080	0.298281
896.854573	0.298247
897.037046	0.298544
897.219502	0.297980
897.401940	0.297678
897.584359	0.297908
897.766760	0.297460
897.949143	0.297389
898.131507	0.297096
898.313854	0.297101
898.496182	0.297054
898.678492	0.296959
898.860783	0.296985
899.043057	0.296579
899.225312	0.296195
899.407549	0.296362
899.589768	0.296417
899.771968	0.296474
899.954151	0.295848
900.136315	0.295951
900.318461	0.295127
900.500588	0.295290
900.682698	0.295453
900.864789	0.294847
901.046862	0.293973
901.228917	0.293441
901.410953	0.293150
901.592971	0.292888
901.774972	0.292315
901.956953	0.292442
902.138917	0.291665
902.320862	0.291255
902.502790	0.291257
902.684699	0.291421
902.866589	0.291429
903.048462	0.290898
903.230316	0.290970
903.412152	0.290880
903.593970	0.290936
903.775770	0.291030
903.957551	0.290368
904.139314	0.290172
904.321059	0.290308
904.502786	0.290018
904.684494	0.290054
904.866185	0.289674
905.047857	0.289383
905.229510	0.288522
905.411146	0.288602
905.592763	0.289131
905.774363	0.288722
905.955943	0.288145
906.137506	0.287483
906.319051	0.287163
906.500577	0.287346
906.682085	0.287305
906.863575	0.287499
907.045046	0.287086
907.226500	0.286928
907.407935	0.286958
907.589352	0.286456
907.770750	0.286549
907.952131	0.286677
908.133493	0.286276
908.314837	0.285391
908.496163	0.285191
908.677470	0.284725
908.858760	0.283856
909.040031	0.283196
909.221284	0.282780
909.402518	0.282240
909.583735	0.281476
909.764933	0.280975
909.946113	0.280737
910.127275	0.280542
910.308418	0.280460
910.489544	0.280284
910.670651	0.280124
910.851740	0.279929
911.032810	0.279392
911.213863	0.279297
911.394897	0.278686
911.575913	0.278283
911.756911	0.277346
911.937890	0.276310
912.118851	0.275718
912.299794	0.275122
912.480719	0.274958
912.661626	0.274721
912.842514	0.274138
913.023384	0.273167
913.204236	0.272860
913.385070	0.272174
913.565886	0.272129
913.746683	0.271645
913.927462	0.271361
914.108223	0.270402
914.288965	0.270240
914.469690	0.269654
914.650396	0.269464
914.831084	0.268731
915.011754	0.268492
915.192405	0.268176
915.373038	0.267849
915.553653	0.267050
915.734250	0.267023
915.914829	0.266115
916.095389	0.266054
916.275931	0.265869
916.456455	0.265098
916.636961	0.265117
916.817448	0.264522
916.997917	0.263838
917.178368	0.263649
917.358801	0.262981
917.539216	0.262807
917.719612	0.262182
917.899990	0.261748
918.080350	0.261844
918.260692	0.261172
918.441015	0.259661
918.621320	0.258775
918.801607	0.258082
918.981876	0.256996
919.162127	0.255997
919.342359	0.254630
919.522573	0.254002
919.702769	0.253177
919.882947	0.252219
920.063106	0.252512
920.243247	0.252339
920.423370	0.251393
920.603475	0.251060
920.783562	0.250763
920.963630	0.250881
921.143680	0.250179
921.323712	0.249707
921.503725	0.249232
921.683721	0.248056
921.863698	0.246868
922.043657	0.246856
922.223598	0.246518
922.403520	0.245544
922.583424	0.244566
922.763311	0.243666
922.943178	0.243419
923.123028	0.242107
923.302859	0.241514
923.482673	0.241214
923.662467	0.240269
923.842244	0.239300
924.022003	0.238974
924.201743	0.237811
924.381465	0.236732
924.561169	0.235964
924.740854	0.236060
924.920522	0.235017
925.100171	0.234332
925.279802	0.233185
925.459414	0.232173
925.639009	0.231106
925.818585	0.230693
925.998143	0.230872
926.177683	0.229801
926.357205	0.228967
926.536708	0.228337
926.716193	0.227053
926.895660	0.226404
927.075109	0.225889
927.254539	0.225480
927.433951	0.224832
927.613345	0.223411
927.792721	0.222467
927.972079	0.221456
928.151418	0.221222
928.330739	0.220894
928.510042	0.219772
928.689327	0.218825
928.868593	0.218048
929.047841	0.216704
929.227071	0.216110
929.406283	0.215451
929.585476	0.215473
929.764652	0.214648
929.943809	0.214077
930.122948	0.213893
930.302068	0.213264
930.481171	0.211872
930.660255	0.211279
930.839321	0.209881
931.018369	0.209164
931.197398	0.207669
931.376409	0.207311
931.555402	0.205260
931.734377	0.203877
931.913334	0.203603
932.092272	0.202791
932.271192	0.201929
932.450094	0.201638
932.628978	0.200471
932.807844	0.198782
932.986691	0.197394
933.165520	0.197454
933.344331	0.197606
933.523123	0.196269
933.701898	0.196266
933.880654	0.196168
934.059392	0.195370
934.238111	0.194708
934.416813	0.194617
934.595496	0.194077
934.774161	0.193281
934.952808	0.191021
935.131437	0.190167
935.310047	0.187903
935.488639	0.186725
935.667213	0.186428
935.845769	0.185892
936.024306	0.184917
936.202825	0.183221
936.381326	0.182740
936.559809	0.183047
936.738274	0.181830
936.916720	0.182330
937.095148	0.180825
937.273558	0.179037
937.451950	0.178171
937.630323	0.177772
937.808678	0.177825
937.987015	0.176519
938.165334	0.175435
938.343635	0.174628
938.521917	0.173173
938.700181	0.173498
938.878427	0.173257
939.056655	0.171853
939.234864	0.171108
939.413055	0.169663
939.591228	0.169213
939.769383	0.168119
939.947519	0.167204
940.125638	0.166864
940.303738	0.165157
940.481820	0.164559
940.659883	0.162862
940.837929	0.161447
941.015956	0.160073
941.193965	0.159105
941.371955	0.158345
941.549928	0.156700
941.727882	0.155144
941.905818	0.155389
942.083736	0.153810
942.261636	0.153322
942.439517	0.153757
942.617380	0.152953
942.795225	0.152148
942.973052	0.151340
943.150860	0.150658
943.328651	0.149885
943.506423	0.148522
943.684176	0.147132
943.861912	0.146234
944.039629	0.143748
944.217328	0.143069
944.395009	0.141765
944.572672	0.140938
944.750317	0.140620
944.927943	0.139325
945.105551	0.138338
945.283141	0.137532
945.460712	0.137319
945.638265	0.135927
945.815801	0.136799
945.993317	0.135242
946.170816	0.133690
946.348297	0.133584
946.525759	0.133120
946.703203	0.131519
946.880629	0.130896
947.058036	0.129578
947.235425	0.127461
947.412797	0.124764
947.590149	0.125237
947.767484	0.124481
947.944800	0.122937
948.122099	0.121880
948.299379	0.120166
948.476640	0.118964
948.653884	0.117697
948.831109	0.118322
949.008316	0.117841
949.185505	0.115540
949.362676	0.114298
949.539828	0.114405
949.716962	0.113982
949.894078	0.113000
950.071176	0.111583
950.248256	0.110608
950.425317	0.109126
950.602360	0.107878
950.779385	0.108845
950.956391	0.108884
951.133380	0.106085
951.310350	0.104275
951.487302	0.103630
951.664235	0.103458
951.841151	0.100835
952.018048	0.099663
952.194927	0.098651
952.371788	0.095713
952.548631	0.093346
952.725455	0.093344
952.902261	0.092957
953.079049	0.092382
953.255819	0.090171
953.432570	0.090679
953.609303	0.090689
953.786018	0.089285
953.962715	0.088846
954.139394	0.087973
954.316054	0.087219
954.492696	0.086651
954.669320	0.085733
954.845926	0.085424
955.022513	0.085460
955.199083	0.085207
955.375634	0.083924
955.552166	0.083776
955.728681	0.085549
955.905177	0.084457
956.081655	0.083151
956.258115	0.081901
956.434557	0.082055
956.610980	0.081917
956.787385	0.080241
956.963772	0.080474
957.140141	0.080044
957.316492	0.077915
957.492824	0.078070
957.669138	0.077763
957.845434	0.077588
958.021712	0.077169
958.197971	0.075661
958.374212	0.074827
958.550435	0.074805
958.726640	0.074480
958.902826	0.074808
959.078995	0.071543
959.255145	0.069939
959.431277	0.070208
959.607390	0.069015
959.783486	0.068688
959.959563	0.068218
960.135622	0.067397
960.311662	0.066174
960.487685	0.064302
960.663689	0.065475
960.839675	0.064741
961.015643	0.064747
961.191593	0.066220
961.367524	0.064961
961.543437	0.065145
961.719332	0.064091
961.895209	0.064991
962.071067	0.064828
962.246907	0.066020
962.422730	0.067470
962.598533	0.067819
962.774319	0.066104
962.950086	0.066562
963.125835	0.067172
963.301566	0.068916
963.477279	0.067806
963.652973	0.068529
963.828650	0.066483
964.004308	0.065870
964.179947	0.064319
964.355569	0.064624
964.531172	0.064509
964.706757	0.063097
964.882324	0.062123
965.057873	0.058336
965.233403	0.058708
965.408916	0.059259
965.584410	0.057140
965.759885	0.057463
965.935343	0.057397
966.110782	0.057339
966.286203	0.056003
966.461606	0.056477
966.636991	0.059367
966.812357	0.059051
966.987705	0.059934
967.163035	0.062321
967.338347	0.062098
967.513641	0.062555
967.688916	0.064202
967.864173	0.063843
968.039412	0.059882
968.214632	0.058036
968.389835	0.058914
968.565019	0.058114
968.740185	0.056093
968.915333	0.054170
969.090462	0.051240
969.265573	0.051609
969.440667	0.054476
969.615741	0.057584
969.790798	0.058565
969.965836	0.055545
970.140856	0.054755
970.315858	0.054935
970.490842	0.057074
970.665808	0.059139
970.840755	0.057185
971.015684	0.056196
971.190595	0.054570
971.365487	0.056507
971.540362	0.056069
971.715218	0.054675
971.890056	0.054960
972.064875	0.055697
972.239677	0.054836
972.414460	0.053166
972.589225	0.052804
972.763972	0.052382
972.938700	0.051203
973.113411	0.051731
973.288103	0.053149
973.462777	0.055436
973.637432	0.054984
973.812070	0.055359
973.986689	0.057330
974.161290	0.058713
974.335873	0.057784
974.510437	0.056605
974.684984	0.056271
974.859512	0.059216
975.034022	0.056786
975.208513	0.056446
975.382987	0.057885
975.557442	0.057980
975.731879	0.058108
975.906298	0.059932
976.080698	0.061022
976.255080	0.061173
976.429445	0.058704
976.603790	0.060312
976.778118	0.061124
976.952427	0.060410
977.126719	0.057346
977.300992	0.057345
977.475246	0.059881
977.649483	0.061345
977.823701	0.062226
977.997901	0.063181
978.172083	0.063008
978.346247	0.062007
978.520392	0.061400
978.694519	0.063212
978.868628	0.061369
979.042719	0.058788
979.216791	0.058352
979.390845	0.058287
979.564882	0.058569
979.738899	0.057135
979.912899	0.055764
980.086880	0.055463
980.260843	0.055745
980.434788	0.058240
980.608715	0.056944
980.782623	0.055981
980.956514	0.056639
981.130386	0.056562
981.304240	0.057381
981.478075	0.059750
981.651892	0.060295
981.825692	0.060971
981.999472	0.059104
982.173235	0.058705
982.346980	0.058383
982.520706	0.058841
982.694414	0.056277
982.868104	0.054367
983.041775	0.053977
983.215428	0.054119
983.389064	0.054730
983.562680	0.053976
983.736279	0.054822
983.909860	0.057409
984.083422	0.057103
984.256966	0.058793
984.430491	0.060817
984.603999	0.060864
984.777488	0.063490
984.950959	0.061618
985.124412	0.062956
985.297847	0.065763
985.471263	0.061371
985.644661	0.061694
985.818041	0.060907
985.991403	0.059636
986.164747	0.059921
986.338072	0.057306
986.511379	0.056966
986.684668	0.056001
986.857938	0.054061
987.031191	0.057883
987.204425	0.057709
987.377641	0.058358
987.550839	0.059935
987.724018	0.059537
987.897179	0.059301
988.070322	0.061055
988.243447	0.061422
988.416554	0.061987
988.589642	0.060985
988.762712	0.059728
988.935764	0.058865
989.108798	0.059380
989.281813	0.059560
989.454811	0.059002
989.627790	0.058297
989.800751	0.056074
989.973693	0.057356
990.146617	0.055811
990.319524	0.056412
990.492412	0.055521
990.665281	0.055309
990.838133	0.053859
991.010966	0.054514
991.183781	0.052429
991.356578	0.055060
991.529356	0.054380
991.702117	0.056004
991.874859	0.056351
992.047583	0.059233
992.220288	0.058239
992.392976	0.059631
992.565645	0.058687
992.738296	0.062189
992.910929	0.060187
993.083543	0.059553
993.256139	0.059540
993.428718	0.058959
993.601277	0.057253
993.773819	0.057930
993.946342	0.057351
994.118848	0.058174
994.291335	0.055469
994.463803	0.055497
994.636254	0.056569
994.808686	0.057296
994.981100	0.057568
995.153496	0.056846
995.325874	0.055272
995.498233	0.056110
995.670574	0.055929
995.842897	0.057149
996.015202	0.060327
996.187488	0.059917
996.359757	0.058998
996.532007	0.059729
996.704239	0.059164
996.876452	0.061716
997.048648	0.061845
997.220825	0.062633
997.392984	0.063471
997.565124	0.059570
997.737247	0.060043
997.909351	0.059373
998.081437	0.058094
998.253505	0.059327
998.425554	0.059139
998.597586	0.057460
998.769599	0.057700
998.941594	0.058424
999.113571	0.060924
999.285529	0.060390
999.457469	0.059174
999.629391	0.058179
999.801295	0.058035
999.973181	0.055303
1000.145048	0.055530
1000.316897	0.055405
1000.488728	0.054443
1000.660541	0.054595
1000.832335	0.054228
1001.004111	0.054009
1001.175869	0.056717
1001.347609	0.058020
1001.519331	0.059890
1001.691034	0.061198
1001.862719	0.060412
1002.034386	0.060082
1002.206035	0.060895
1002.377665	0.063132
1002.549277	0.064085
1002.720871	0.060900
1002.892447	0.059264
1003.064004	0.059016
1003.235544	0.058793
1003.407065	0.058365
1003.578568	0.058692
1003.750052	0.059025
1003.921519	0.055973
1004.092967	0.056917
1004.264397	0.059592
1004.435809	0.058723
1004.607202	0.059895
1004.778577	0.059234
1004.949934	0.060774
1005.121273	0.059421
1005.292594	0.056569
1005.463896	0.057469
1005.635180	0.054999
1005.806446	0.056739
1005.977694	0.058360
1006.148923	0.056905
1006.320135	0.056701
1006.491328	0.056908
1006.662503	0.056216
1006.833659	0.057473
1007.004798	0.056545
1007.175918	0.057029
1007.347020	0.056278
1007.518103	0.056508
1007.689169	0.056111
1007.860216	0.058302
1008.031245	0.058637
1008.202256	0.060900
1008.373248	0.061945
1008.544223	0.062289
1008.715179	0.065157
1008.886117	0.064294
1009.057036	0.065089
1009.227938	0.064836
1009.398821	0.061956
1009.569686	0.059239
1009.740533	0.059314
1009.911361	0.058126
1010.082172	0.057816
1010.252964	0.055507
1010.423738	0.056014
1010.594493	0.054663
1010.765231	0.057056
1010.935950	0.059200
1011.106651	0.061204
1011.277334	0.060931
1011.447998	0.060880
1011.618645	0.062732
1011.789273	0.065684
1011.959882	0.066444
1012.130474	0.067956
1012.301048	0.067150
1012.471603	0.066049
1012.642140	0.067718
1012.812658	0.067710
1012.983159	0.067856
1013.153641	0.067226
1013.324105	0.065244
1013.494551	0.064586
1013.664979	0.062723
1013.835388	0.062205
1014.005779	0.062603
1014.176152	0.060971
1014.346507	0.060412
1014.516843	0.060851
1014.687162	0.061241
1014.857462	0.061394
1015.027744	0.059696
1015.198007	0.061815
1015.368252	0.061939
1015.538480	0.061913
1015.708689	0.063996
1015.878879	0.066090
1016.049052	0.065278
1016.219206	0.065792
1016.389342	0.066453
1016.559460	0.067934
1016.729559	0.066679
1016.899641	0.066763
1017.069704	0.066749
1017.239749	0.064890
1017.409775	0.063601
1017.579784	0.063240
1017.749774	0.060668
1017.919746	0.061223
1018.089700	0.060248
1018.259635	0.059616
1018.429553	0.059265
1018.599452	0.057324
1018.769333	0.055561
1018.939195	0.056332
1019.109040	0.056846
1019.278866	0.058367
1019.448674	0.056574
1019.618464	0.057724
1019.788235	0.058545
1019.957989	0.057581
1020.127724	0.058143
1020.297441	0.059455
1020.467139	0.055809
1020.636820	0.057874
1020.806482	0.057454
1020.976126	0.059242
1021.145752	0.057962
1021.315359	0.059634
1021.484948	0.061070
1021.654519	0.062721
1021.824072	0.062325
1021.993607	0.067209
1022.163123	0.065683
1022.332621	0.064788
1022.502101	0.063789
1022.671563	0.064879
1022.841007	0.063306
1023.010432	0.061981
1023.179839	0.062052
1023.349228	0.061074
1023.518598	0.059814
1023.687951	0.059817
1023.857285	0.061723
1024.026601	0.061799
1024.195899	0.060140
1024.365178	0.060208
1024.534439	0.062907
1024.703682	0.061674
1024.872907	0.063376
1025.042114	0.062597
1025.211302	0.061523
1025.380472	0.060282
1025.549624	0.059943
1025.718758	0.060591
1025.887873	0.059658
1026.056970	0.058490
1026.226049	0.059455
1026.395110	0.058818
1026.564153	0.058812
1026.733177	0.060938
1026.902183	0.062450
1027.071171	0.063695
1027.240141	0.064700
1027.409092	0.065151
1027.578026	0.063030
1027.746940	0.062759
1027.915837	0.061490
1028.084716	0.062492
1028.253576	0.062618
1028.422418	0.062119
1028.591242	0.061926
1028.760048	0.061477
1028.928835	0.062689
1029.097604	0.064971
1029.266355	0.065850
1029.435088	0.067544
1029.603803	0.065758
1029.772499	0.063750
1029.941177	0.063584
1030.109837	0.064162
1030.278478	0.063206
1030.447102	0.060337
1030.615707	0.059926
1030.784294	0.060008
1030.952863	0.060787
1031.121413	0.061974
1031.289945	0.063482
1031.458460	0.064685
1031.626955	0.062046
1031.795433	0.062161
1031.963892	0.064381
1032.132334	0.064340
1032.300756	0.061625
1032.469161	0.060856
1032.637548	0.062032
1032.805916	0.062475
1032.974266	0.061226
1033.142598	0.062744
1033.310911	0.063899
1033.479207	0.063257
1033.647484	0.061541
1033.815743	0.063975
1033.983983	0.063108
1034.152206	0.061569
1034.320410	0.060065
1034.488596	0.059604
1034.656764	0.059507
1034.824914	0.059892
1034.993045	0.060294
1035.161158	0.061407
1035.329253	0.059863
1035.497330	0.061331
1035.665388	0.062071
1035.833428	0.062279
1036.001450	0.062299
1036.169454	0.063457
1036.337440	0.062083
1036.505407	0.063647
1036.673356	0.065558
1036.841287	0.065918
1037.009200	0.066031
1037.177094	0.066935
1037.344970	0.066304
1037.512828	0.066077
1037.680668	0.064302
1037.848489	0.062649
1038.016293	0.062035
1038.184078	0.061104
1038.351845	0.061005
1038.519593	0.058867
1038.687324	0.058610
1038.855036	0.058965
1039.022730	0.059714
1039.190406	0.060601
1039.358063	0.062713
1039.525702	0.062087
1039.693323	0.062534
1039.860926	0.063298
1040.028511	0.064863
1040.196077	0.063200
1040.363625	0.063042
1040.531155	0.062284
1040.698667	0.062128
1040.866161	0.060438
1041.033636	0.060807
1041.201093	0.058607
1041.368532	0.060029
1041.535952	0.059841
1041.703355	0.059549
1041.870739	0.060300
1042.038105	0.060127
1042.205452	0.058503
1042.372782	0.059502
1042.540093	0.058403
1042.707386	0.059110
1042.874661	0.057467
1043.041918	0.057768
1043.209156	0.057321
1043.376376	0.057933
1043.543578	0.059088
1043.710762	0.059943
1043.877927	0.062378
1044.045074	0.062636
1044.212203	0.062603
1044.379314	0.063075
1044.546407	0.061398
1044.713481	0.062602
1044.880537	0.062118
1045.047575	0.060784
1045.214595	0.061940
1045.381596	0.059971
1045.548579	0.059641
1045.715544	0.059768
1045.882491	0.060590
1046.049420	0.062453
1046.216330	0.061270
1046.383222	0.058885
1046.550096	0.058703
1046.716951	0.057767
1046.883789	0.057852
1047.050608	0.059158
1047.217409	0.060478
1047.384192	0.058618
1047.550956	0.058740
1047.717703	0.057880
1047.884431	0.060098
1048.051140	0.059383
1048.217832	0.058655
1048.384505	0.056738
1048.551161	0.055541
1048.717798	0.055171
1048.884416	0.054105
1049.051017	0.054723
1049.217599	0.057962
1049.384163	0.060266
1049.550709	0.061200
1049.717237	0.063197
1049.883746	0.065701
1050.050237	0.065366
1050.216710	0.064497
1050.383165	0.065840
1050.549601	0.065214
1050.716019	0.064602
1050.882420	0.062129
1051.048801	0.062954
1051.215165	0.062337
1051.381510	0.061894
1051.547837	0.059753
1051.714146	0.059914
1051.880437	0.058876
1052.046709	0.057758
1052.212964	0.055633
1052.379200	0.056930
1052.545417	0.057498
1052.711617	0.058113
1052.877798	0.058018
1053.043961	0.062890
1053.210106	0.063994
1053.376233	0.066094
1053.542341	0.066109
1053.708432	0.068403
1053.874504	0.066899
1054.040557	0.067163
1054.206593	0.064604
1054.372610	0.064757
1054.538609	0.061846
1054.704590	0.061151
1054.870553	0.062509
1055.036497	0.063404
1055.202424	0.061428
1055.368331	0.061487
1055.534221	0.061059
1055.700093	0.062157
1055.865946	0.062253
1056.031781	0.063698
1056.197598	0.062983
1056.363397	0.060609
1056.529177	0.060823
1056.694939	0.060792
1056.860683	0.061048
1057.026409	0.060011
1057.192116	0.061213
1057.357806	0.059126
1057.523477	0.057304
1057.689130	0.058961
1057.854764	0.058838
1058.020381	0.057899
1058.185979	0.060172
1058.351559	0.059330
1058.517120	0.060976
1058.682664	0.060457
1058.848189	0.061536
1059.013696	0.064088
1059.179185	0.063135
1059.344656	0.064897
1059.510108	0.064997
1059.675542	0.061880
1059.840958	0.064613
1060.006356	0.062487
1060.171735	0.061168
1060.337096	0.061734
1060.502439	0.060965
1060.667764	0.063057
1060.833071	0.063108
1060.998359	0.064353
1061.163629	0.066861
1061.328881	0.065074
1061.494115	0.064770
1061.659330	0.067263
1061.824527	0.069075
1061.989706	0.067472
1062.154867	0.065811
1062.320010	0.063839
1062.485134	0.063575
1062.650240	0.063280
1062.815328	0.062779
1062.980398	0.065599
1063.145449	0.068071
1063.310482	0.066937
1063.475497	0.067151
1063.640494	0.065310
1063.805473	0.066835
1063.970433	0.066757
1064.135375	0.066422
1064.300299	0.066155
1064.465204	0.065741
1064.630092	0.061707
1064.794961	0.060115
1064.959812	0.060199
1065.124645	0.060702
1065.289459	0.061479
1065.454256	0.061786
1065.619034	0.062251
1065.783793	0.064246
1065.948535	0.065278
1066.113258	0.065896
1066.277964	0.067249
1066.442651	0.067329
1066.607319	0.067047
1066.771970	0.064619
1066.936602	0.065147
1067.101216	0.063958
1067.265812	0.060635
1067.430389	0.058712
1067.594949	0.058446
1067.759490	0.058280
1067.924013	0.057825
1068.088518	0.059128
1068.253004	0.058712
1068.417472	0.057195
1068.581922	0.059176
1068.746354	0.061567
1068.910768	0.062543
1069.075163	0.062482
1069.239540	0.060835
1069.403899	0.061128
1069.568240	0.060888
1069.732562	0.061738
1069.896866	0.061732
1070.061152	0.059379
1070.225420	0.059469
1070.389670	0.058026
1070.553901	0.057434
1070.718114	0.059044
1070.882309	0.061184
1071.046486	0.062356
1071.210644	0.062731
1071.374784	0.062148
1071.538906	0.064017
1071.703010	0.064691
1071.867096	0.065935
1072.031163	0.066975
1072.195212	0.066702
1072.359243	0.065340
1072.523256	0.066022
1072.687250	0.068169
1072.851226	0.069656
1073.015184	0.069129
1073.179124	0.067406
1073.343045	0.068294
1073.506949	0.067755
1073.670834	0.070275
1073.834701	0.069729
1073.998549	0.070167
1074.162380	0.069655
1074.326192	0.068948
1074.489986	0.069195
1074.653761	0.071555
1074.817519	0.069037
1074.981258	0.068203
1075.144979	0.068253
1075.308682	0.067812
1075.472367	0.065427
1075.636033	0.064268
1075.799681	0.064546
1075.963311	0.061607
1076.126923	0.060926
1076.290516	0.064013
1076.454092	0.064816
1076.617649	0.064747
1076.781187	0.068277
1076.944708	0.067743
1077.108210	0.067843
1077.271695	0.068387
1077.435160	0.073244
1077.598608	0.072160
1077.762038	0.069996
1077.925449	0.069315
1078.088842	0.068676
1078.252217	0.066603
1078.415573	0.068343
1078.578912	0.070567
1078.742232	0.070874
1078.905534	0.070748
1079.068817	0.071276
1079.232083	0.071619
1079.395330	0.071609
1079.558559	0.071895
1079.721770	0.071909
1079.884962	0.070050
1080.048136	0.068120
1080.211293	0.064817
1080.374430	0.063172
1080.537550	0.064889
1080.700651	0.064517
1080.863735	0.065652
1081.026800	0.065888
1081.189846	0.066778
1081.352875	0.070518
1081.515885	0.071785
1081.678877	0.074412
1081.841851	0.073758
1082.004807	0.072326
1082.167744	0.070183
1082.330663	0.073172
1082.493564	0.075289
1082.656447	0.075407
1082.819312	0.075822
1082.982158	0.074820
1083.144986	0.074064
1083.307796	0.074946
1083.470587	0.076609
1083.633361	0.079033
1083.796116	0.075508
1083.958853	0.070212
1084.121571	0.070591
1084.284272	0.068887
1084.446954	0.069510
1084.609618	0.071989
1084.772264	0.073257
1084.934892	0.070688
1085.097501	0.071408
1085.260092	0.072286
1085.422665	0.076176
1085.585220	0.076319
1085.747756	0.076786
1085.910274	0.076187
1086.072774	0.076212
1086.235256	0.076068
1086.397720	0.079181
1086.560165	0.079716
1086.722592	0.078564
1086.885001	0.079488
1087.047392	0.078108
1087.209764	0.079311
1087.372119	0.078952
1087.534455	0.076371
1087.696772	0.075242
1087.859072	0.071198
1088.021353	0.071390
1088.183616	0.072328
1088.345861	0.069583
1088.508088	0.067396
1088.670296	0.066504
1088.832486	0.067057
1088.994658	0.067312
1089.156812	0.070540
1089.318948	0.072232
1089.481065	0.070770
1089.643164	0.071280
1089.805245	0.070503
1089.967308	0.072502
1090.129352	0.069220
1090.291378	0.068175
1090.453386	0.068263
1090.615376	0.066283
1090.777347	0.065548
1090.939301	0.067122
1091.101236	0.065855
1091.263153	0.067517
1091.425051	0.067007
1091.586932	0.067923
1091.748794	0.069842
1091.910638	0.069587
1092.072463	0.068780
1092.234271	0.069829
1092.396060	0.069641
1092.557831	0.073049
1092.719584	0.070905
1092.881319	0.074763
1093.043035	0.078316
1093.204733	0.075307
1093.366413	0.076497
1093.528075	0.078709
1093.689718	0.079374
1093.851343	0.080503
1094.012950	0.076669
1094.174539	0.081541
1094.336110	0.079575
1094.497662	0.078393
1094.659196	0.082481
1094.820712	0.084467
1094.982210	0.084540
1095.143689	0.082766
1095.305151	0.083701
1095.466594	0.084785
1095.628018	0.083923
1095.789425	0.085676
1095.950813	0.084552
1096.112183	0.082618
1096.273535	0.082060
1096.434869	0.080061
1096.596184	0.084276
1096.757482	0.080757
1096.918761	0.084441
1097.080021	0.084455
1097.241264	0.085166
1097.402488	0.087346
1097.563694	0.088516
1097.724882	0.085141
1097.886052	0.084336
1098.047203	0.082650
1098.208336	0.084299
1098.369451	0.079735
1098.530548	0.074415
1098.691627	0.071187
1098.852687	0.070549
1099.013729	0.070356
1099.174753	0.073391
1099.335758	0.074447
1099.496746	0.074922
1099.657715	0.073808
1099.818666	0.079037
1099.979599	0.079883
1100.140513	0.078916
1100.301409	0.078529
1100.462287	0.078343
1100.623147	0.077961
1100.783989	0.076648
1100.944812	0.075589
1101.105617	0.076940
1101.266404	0.075849
1101.427173	0.078037
1101.587923	0.081230
1101.748656	0.081486
1101.909370	0.082382
1102.070066	0.080821
1102.230743	0.081304
1102.391403	0.084494
1102.552044	0.085744
1102.712667	0.081160
1102.873271	0.080716
1103.033858	0.077302
1103.194426	0.075814
1103.354976	0.073629
1103.515508	0.074786
1103.676021	0.075681
1103.836517	0.070960
1103.996994	0.068484
1104.157453	0.073209
1104.317893	0.073776
1104.478316	0.074844
1104.638720	0.078785
1104.799106	0.080815
1104.959474	0.082252
1105.119823	0.082430
1105.280155	0.085229
1105.440468	0.086789
1105.600763	0.085962
1105.761039	0.085812
1105.921298	0.084788
1106.081538	0.080014
1106.241760	0.077215
1106.401964	0.076988
1106.562149	0.075762
1106.722316	0.076801
1106.882465	0.075516
1107.042596	0.073483
1107.202709	0.076487
1107.362803	0.075854
1107.522879	0.072279
1107.682937	0.078381
1107.842977	0.076629
1108.002999	0.076661
1108.163002	0.074416
1108.322987	0.079961
1108.482954	0.080178
1108.642902	0.074743
1108.802833	0.079183
1108.962745	0.083852
1109.122639	0.078087
1109.282515	0.076975
1109.442372	0.077181
1109.602211	0.074580
1109.762032	0.069989
1109.921835	0.073894
1110.081620	0.074490
1110.241386	0.074670
1110.401134	0.075339
1110.560864	0.075117
1110.720576	0.074151
1110.880269	0.074561
1111.039945	0.078067
1111.199602	0.076923
1111.359240	0.073434
1111.518861	0.078240
1111.678463	0.074055
1111.838047	0.070891
1111.997613	0.076040
1112.157161	0.080410
1112.316690	0.083234
1112.476202	0.086791
1112.635695	0.087767
1112.795169	0.088264
1112.954626	0.088777
1113.114064	0.087338
1113.273484	0.088998
1113.432886	0.085900
1113.592270	0.086421
1113.751635	0.086921
1113.910983	0.079689
1114.070312	0.082593
1114.229622	0.084542
1114.388915	0.080942
1114.548189	0.086620
1114.707445	0.089081
1114.866683	0.091648
1115.025903	0.090555
1115.185104	0.090428
1115.344287	0.093152
1115.503452	0.091285
1115.662599	0.091907
1115.821727	0.092441
1115.980838	0.094116
1116.139930	0.094643
1116.299004	0.088331
1116.458059	0.092257
1116.617097	0.089042
1116.776116	0.087597
1116.935117	0.087527
1117.094099	0.087424
1117.253064	0.091674
1117.412010	0.090465
1117.570938	0.085873
1117.729848	0.088381
1117.888740	0.080900
1118.047613	0.080799
1118.206468	0.083062
1118.365305	0.079820
1118.524124	0.079084
1118.682924	0.076007
1118.841707	0.076221
1119.000471	0.077565
1119.159216	0.073485
1119.317944	0.078866
1119.476653	0.083604
1119.635344	0.083040
1119.794017	0.090998
1119.952672	0.089977
1120.111308	0.091616
1120.269927	0.091171
1120.428527	0.096704
1120.587108	0.104041
1120.745672	0.100417
1120.904217	0.101715
1121.062744	0.103587
1121.221253	0.098214
1121.379744	0.096432
1121.538216	0.095431
1121.696671	0.096623
1121.855107	0.092620
1122.013524	0.090385
1122.171924	0.087429
1122.330305	0.084028
1122.488668	0.082412
1122.647013	0.084020
1122.805340	0.084507
1122.963648	0.082463
1123.121938	0.080815
1123.280210	0.077967
1123.438464	0.077013
1123.596700	0.082396
1123.754917	0.079955
1123.913116	0.086616
1124.071297	0.083142
1124.229459	0.081436
1124.387604	0.083983
1124.545730	0.083740
1124.703838	0.087220
1124.861928	0.092053
1125.019999	0.094478
1125.178052	0.099372
1125.336088	0.094347
1125.494104	0.095015
1125.652103	0.100494
1125.810083	0.097595
1125.968045	0.098242
1126.125989	0.096153
1126.283915	0.090031
1126.441823	0.086080
1126.599712	0.081481
1126.757583	0.081752
1126.915436	0.081258
1127.073270	0.082978
1127.231087	0.092812
1127.388885	0.091625
1127.546665	0.092846
1127.704426	0.094564
1127.862170	0.094872
1128.019895	0.089433
1128.177602	0.092431
1128.335291	0.093777
1128.492961	0.089849
1128.650614	0.082759
1128.808248	0.080979
1128.965864	0.079886
1129.123461	0.082375
1129.281041	0.078974
1129.438602	0.085862
1129.596145	0.084857
1129.753670	0.087314
1129.911176	0.090437
1130.068665	0.083650
1130.226135	0.084910
1130.383587	0.088703
1130.541020	0.088689
1130.698436	0.091114
1130.855833	0.093891
1131.013212	0.088266
1131.170573	0.091119
1131.327915	0.087855
1131.485239	0.093970
1131.642545	0.091333
1131.799833	0.088816
1131.957103	0.093091
1132.114354	0.096548
1132.271588	0.088488
1132.428803	0.095519
1132.585999	0.087545
1132.743178	0.088714
1132.900338	0.082801
1133.057480	0.085953
1133.214604	0.088027
1133.371710	0.080268
1133.528797	0.082767
1133.685866	0.091672
1133.842917	0.090565
1133.999950	0.098725
1134.156964	0.102310
1134.313960	0.102727
1134.470938	0.105326
1134.627898	0.108460
1134.784840	0.111639
1134.941763	0.105431
1135.098668	0.097060
1135.255555	0.099412
1135.412424	0.093001
1135.569274	0.089361
1135.726107	0.093632
1135.882921	0.092750
1136.039716	0.091159
1136.196494	0.097740
1136.353253	0.095926
1136.509995	0.100549
1136.666717	0.098258
1136.823422	0.098764
1136.980109	0.099049
1137.136777	0.101752
1137.293427	0.105831
1137.450059	0.105305
1137.606672	0.097122
1137.763267	0.103956
1137.919844	0.104612
1138.076403	0.103637
1138.232944	0.100941
1138.389466	0.102745
1138.545971	0.103301
1138.702457	0.098806
1138.858924	0.100524
1139.015374	0.102129
1139.171805	0.099334
1139.328218	0.097907
1139.484613	0.098707
1139.640990	0.099676
1139.797348	0.095505
1139.953688	0.098388
1140.110010	0.098428
1140.266314	0.097438
1140.422600	0.096502
1140.578867	0.094231
1140.735116	0.091942
1140.891347	0.087892
1141.047559	0.085338
1141.203754	0.087241
1141.359930	0.083201
1141.516088	0.080883
1141.672228	0.079986
1141.828349	0.087893
1141.984452	0.090910
1142.140537	0.088571
1142.296604	0.091110
1142.452653	0.096837
1142.608683	0.093742
1142.764695	0.092640
1142.920689	0.093824
1143.076665	0.095306
1143.232622	0.087020
1143.388562	0.088107
1143.544483	0.094928
1143.700385	0.087608
1143.856270	0.084741
1144.012136	0.091738
1144.167985	0.088842
1144.323814	0.090330
1144.479626	0.090294
1144.635420	0.088197
1144.791195	0.089996
1144.946952	0.091403
1145.102691	0.100213
1145.258411	0.108004
1145.414113	0.105275
1145.569798	0.108207
1145.725463	0.107396
1145.881111	0.102119
1146.036741	0.101577
1146.192352	0.108753
1146.347945	0.106288
1146.503519	0.104292
1146.659076	0.100460
1146.814614	0.103181
1146.970134	0.103472
1147.125636	0.102345
1147.281120	0.099726
1147.436585	0.100102
1147.592032	0.087583
1147.747461	0.083025
1147.902872	0.083734
1148.058265	0.081277
1148.213639	0.071858
1148.368995	0.068669
1148.524333	0.070759
1148.679653	0.076368
1148.834954	0.079573
1148.990237	0.083373
1149.145502	0.092034
1149.300749	0.088231
1149.455977	0.091374
1149.611188	0.101431
1149.766380	0.100862
1149.921553	0.100141
1150.076709	0.099950
1150.231846	0.105823
1150.386966	0.103148
1150.542066	0.095182
1150.697149	0.097892
1150.852214	0.092901
1151.007260	0.088092
1151.162288	0.085971
1151.317298	0.085424
1151.472289	0.085057
1151.627263	0.079875
1151.782218	0.082873
1151.937155	0.092450
1152.092073	0.093097
1152.246974	0.101784
1152.401856	0.100922
1152.556720	0.105876
1152.711566	0.107035
1152.866393	0.103038
1153.021203	0.108755
1153.175994	0.097484
1153.330767	0.092321
1153.485521	0.091063
1153.640258	0.090297
1153.794976	0.092270
1153.949676	0.094598
1154.104358	0.092233
1154.259021	0.096411
1154.413667	0.088388
1154.568294	0.094131
1154.722903	0.094853
1154.877493	0.092219
1155.032066	0.078495
1155.186620	0.079466
1155.341156	0.079939
1155.495674	0.080137
1155.650173	0.088555
1155.804654	0.095967
1155.959118	0.102186
1156.113562	0.102565
1156.267989	0.109712
1156.422397	0.112966
1156.576788	0.101371
1156.731160	0.102469
1156.885513	0.105196
1157.039849	0.090434
1157.194166	0.086965
1157.348465	0.077236
1157.502746	0.079382
1157.657009	0.064874
1157.811253	0.065658
1157.965479	0.072994
1158.119687	0.074932
1158.273877	0.078377
1158.428048	0.087214
1158.582201	0.094474
1158.736337	0.094788
1158.890453	0.095702
1159.044552	0.106741
1159.198632	0.118031
1159.352694	0.123914
1159.506738	0.119100
1159.660764	0.114872
1159.814771	0.119861
1159.968761	0.106641
1160.122732	0.112047
1160.276685	0.107054
1160.430619	0.107093
1160.584535	0.100013
1160.738434	0.097171
1160.892313	0.099151
1161.046175	0.091584
1161.200019	0.089078
1161.353844	0.097407
1161.507651	0.094685
1161.661440	0.099372
1161.815210	0.098919
1161.968962	0.105207
1162.122697	0.105788
1162.276412	0.102146
1162.430110	0.113819
1162.583789	0.107475
1162.737451	0.101407
1162.891094	0.106713
1163.044718	0.103620
1163.198325	0.098539
1163.351913	0.089017
1163.505483	0.084796
1163.659035	0.083914
1163.812569	0.090938
1163.966084	0.083094
1164.119581	0.083559
1164.273060	0.079696
1164.426521	0.077302
1164.579964	0.089723
1164.733388	0.104132
1164.886794	0.105454
1165.040182	0.106609
1165.193551	0.094844
1165.346903	0.102527
1165.500236	0.101096
1165.653551	0.109432
1165.806848	0.108048
1165.960126	0.105960
1166.113386	0.084448
1166.266628	0.095586
1166.419852	0.098539
1166.573058	0.112815
1166.726245	0.109135
1166.879414	0.111435
1167.032565	0.107061
1167.185698	0.108091
1167.338812	0.091065
1167.491909	0.098493
1167.644987	0.093647
1167.798046	0.094446
1167.951088	0.090920
1168.104111	0.096673
1168.257117	0.096427
1168.410103	0.102295
1168.563072	0.100696
1168.716023	0.107381
1168.868955	0.115338
1169.021869	0.110511
1169.174765	0.102244
1169.327642	0.082329
1169.480501	0.081232
1169.633343	0.072671
1169.786165	0.067819
1169.938970	0.076713
1170.091757	0.071608
1170.244525	0.060407
1170.397275	0.067294
1170.550007	0.079982
1170.702720	0.078668
1170.855415	0.079343
1171.008092	0.078586
1171.160751	0.068426
1171.313392	0.053958
1171.466014	0.115183
1171.618619	0.023140
1171.771205	0.023140
1171.923772	0.023140
