sample name	sample
index	908
start time	 04-08-2021  04:15:32 PM
880	0.538484
Peak Time (s)	122.536
Peak Height 	0.5385
calc peak height	120,123
Baseline Time (s)	9.535
Baseline Value 	-0.003818
subtract baseline	10,4
Abs	0.364174
Peak Time (s)	121.544
Peak Height 	0.3642
calc peak height	120,123
Baseline Time (s)	10.035
Baseline Value 	0.002423
subtract baseline	10,3
PK_550	0.205751
Peak Time (s)	121.544
Peak Height 	0.2058
calc peak height	120,123
Baseline Time (s)	10.536
Baseline Value 	8.0766E-4
subtract baseline	10,2
PK_880	0.347622
Peak Time (s)	121.544
Peak Height 	0.3476
calc peak height	120,123
Baseline Time (s)	10.536
Baseline Value 	0.00306
subtract baseline	10,1


Time (s)	A880-A510	A880-A775	A880-A975	A880	I510	I775	I975	I880	
0.035000	-0.001722	-0.000548	-0.005413	0.000677	6896.618992	42488.329191	3943.745794	22813.495028
0.535000	-0.000687	-0.000355	0.005086	0.002818	6886.582109	42311.588279	3963.667875	22715.808913
1.036000	-0.004187	0.000057	-0.006826	0.006028	6826.236652	42059.015249	3927.902808	22570.216330
1.537000	-0.001650	-0.000576	-0.004219	0.000047	6903.003898	42543.080756	3948.060201	22842.334382
2.036500	0.000329	-0.000202	-0.003900	-0.000015	6921.624856	42582.905109	3948.966231	22845.204643
2.536500	0.000768	-0.000105	-0.000112	-0.000019	6925.678770	42592.120580	3958.001222	22845.386815
3.037000	-0.003183	-0.000686	0.001502	0.004038	6853.046122	42171.403574	3952.169731	22660.339090
3.537500	-0.000721	0.000356	-0.002554	0.000644	6906.027349	42573.659974	3950.597425	22815.029803
4.037500	-0.000142	-0.000414	-0.004387	-0.000018	6917.342280	42563.774698	3947.815869	22845.310439
4.535000	0.001731	0.000402	0.001289	0.000167	6932.795267	42621.377345	3960.913362	22836.855978
5.035500	-0.003088	0.000329	-0.005823	0.002955	6863.644927	42361.093048	3937.421214	22709.575397
5.536000	-0.000583	0.000403	-0.001814	-0.000187	6914.863705	42653.664034	3954.335877	22853.054486
6.035500	-0.001804	0.000731	-0.004539	0.000192	6900.288310	42649.142376	3946.961240	22835.724195
6.536000	-0.002445	0.000275	-0.002464	-0.000116	6897.251519	42635.531884	3952.618425	22849.809447
7.036500	-0.001157	-0.000076	-0.000648	-0.000552	6912.957082	42643.320551	3957.994681	22869.795649
7.536500	-0.001465	0.000168	-0.001996	0.000595	6899.703314	42560.967799	3952.040507	22817.280887
8.037000	-0.001688	-0.000325	-0.002143	-0.000608	6908.626332	42625.702895	3954.554664	22872.374220
8.537000	-0.002487	-0.000025	0.003576	-0.000186	6897.516051	42614.599483	3967.269805	22853.044649
9.037500	-0.001976	-0.000090	0.000556	0.000163	6898.985014	42576.826732	3959.165476	22837.037126
9.535000	0.001165	0.000285	-0.000957	0.000000	6929.142945	42625.915482	3955.936276	22844.506021
10.035000	0.000305	0.000312	0.000000	0.000225	6919.211648	42607.864413	3957.685659	22834.196699
10.535500	0.000000	0.000000	-0.000681	-0.000013	6918.598589	42601.070510	3956.625773	22845.093798
11.039000	-0.001777	0.000776	-0.001465	0.000433	6898.340431	42631.230321	3953.691325	22824.680905
11.536500	0.000770	-0.000156	0.001472	-0.000096	6926.398355	42594.443290	3961.983920	22848.901195
12.036000	-0.001551	-0.000258	0.000521	0.000207	6902.452203	42557.523469	3958.974713	22835.009840
12.537000	-0.000506	0.000907	-0.003270	0.001072	6904.084658	42584.837544	3947.881540	22795.439856
13.037000	-0.001239	0.000360	-0.001052	-0.000380	6910.641851	42667.395925	3956.616977	22861.911543
13.537500	-0.000264	0.000444	0.000763	0.000248	6913.803399	42617.767230	3959.457215	22833.150015
14.035000	-0.002314	0.000027	-0.006141	0.002389	6875.738189	42385.046949	3938.002953	22735.339666
14.538000	-0.005062	-0.000462	-0.004113	0.001517	6858.821377	42419.873676	3944.834306	22775.138893
15.043500	-0.000737	-0.000092	0.000035	-0.000480	6916.137455	42635.269510	3959.456767	22866.509008
15.538500	-0.002439	0.000489	-0.001002	-0.000085	6897.036839	42652.285862	3956.031847	22848.413586
16.036500	0.000633	0.000676	0.002920	-0.000074	6924.951132	42668.417203	3965.418309	22847.915781
16.536500	-0.001930	-0.000772	-0.002943	0.001374	6888.406417	42404.603761	3947.940377	22781.633630
17.036500	0.001299	0.000537	0.006006	-0.002952	6957.515353	42919.391364	3979.891921	22980.209962
17.537000	-0.000743	0.000972	0.003135	0.001218	6900.606352	42577.419431	3962.822782	22788.766797
18.037000	-0.000659	-0.000333	0.002858	0.000762	6905.520418	42500.167960	3963.253212	22809.613698
18.537500	-0.002112	0.000228	0.002348	0.001167	6888.631127	42514.303145	3961.054463	22791.095251
19.037500	-0.001298	0.000704	0.003505	0.001714	6891.054661	42507.830833	3962.519768	22766.117170
19.535500	-0.001482	0.000141	0.000667	0.000946	6896.360931	42526.571812	3957.558243	22801.223308
20.036500	-0.000770	0.000567	-0.001494	0.001393	6898.767172	42524.690207	3951.335534	22780.790290
20.536000	-0.000419	-0.000215	0.000759	0.001108	6904.549345	42479.428645	3957.388137	22793.789090
21.036000	-0.001919	-0.000232	-0.001002	0.000983	6892.057850	42489.271330	3953.483124	22799.532718
21.536500	-0.001439	0.000013	0.000717	0.001068	6895.644163	42503.758867	3957.384160	22795.632554
22.036500	-0.001732	0.000220	-0.002837	0.000836	6895.091233	42543.813256	3949.469097	22806.255164
22.537000	-0.000064	0.000815	-0.001828	0.001462	6904.560264	42540.955893	3950.376848	22777.634711
23.037500	-0.001922	0.000494	-0.001651	0.001459	6887.707980	42511.938211	3950.803594	22777.751842
23.535000	-0.001930	0.000150	0.003150	0.001112	6890.780197	42512.249822	3963.114297	22793.601418
24.035000	-0.002586	-0.000307	-0.002581	0.000698	6888.585918	42508.346498	3950.404493	22812.547312
24.535500	0.000205	0.000125	-0.003270	0.000922	6911.939713	42527.327402	3948.237142	22802.309548
25.036000	-0.000709	-0.000129	0.000312	0.000948	6903.367050	42501.757290	3956.701875	22801.109454
25.536000	-0.001234	0.000862	0.000507	0.001638	6892.320308	42529.181853	3955.520116	22769.581195
26.036500	-0.000422	0.000734	0.000981	0.001244	6903.291405	42553.405379	3957.595580	22787.605204
26.536500	-0.001605	0.000652	-0.003333	0.001709	6888.316148	42503.619724	3946.223888	22766.341449
27.037000	0.000448	0.000548	0.002790	-0.001022	6931.940452	42743.351659	3967.390318	22891.389961
27.534500	0.000762	0.000163	0.002462	-0.001271	6937.103684	42730.927131	3967.200226	22902.820991
28.037500	0.002585	0.000996	-0.000857	0.000126	6941.017427	42679.350675	3955.873996	22838.753433
28.535000	-0.001995	-0.000965	0.002388	-0.001710	6915.875343	42667.911865	3968.080711	22923.008466
29.035000	-0.001279	0.000014	0.002158	0.000920	6898.444683	42517.396862	3961.193223	22802.400542
29.538500	0.000475	0.000676	-0.000046	-0.001008	6932.051472	42753.770197	3960.529133	22890.736669
30.036000	-0.000308	0.000568	-0.003148	-0.000560	6920.780070	42702.858967	3952.046515	22870.168709
30.536000	-0.001914	0.000490	-0.000007	0.001774	6884.924999	42482.957460	3953.970360	22763.391054
31.036500	-0.001500	0.000427	-0.000920	0.002123	6885.518938	42445.520729	3950.964526	22747.486373
31.545000	-0.000327	0.000303	0.000828	-0.000495	6920.012807	42672.675187	3961.394435	22867.183144
32.037000	0.001307	0.000881	-0.002006	-0.000034	6930.751734	42683.426320	3953.514608	22846.071598
32.559500	0.000472	0.000420	-0.000619	-0.000603	6928.314019	42693.277520	3958.184704	22872.142418
33.034500	-0.001374	0.000296	-0.002127	0.000686	6899.706625	42564.386311	3951.513370	22813.111863
33.539000	0.001389	0.000672	0.003216	-0.001533	6945.266652	42801.537081	3969.656614	22914.875832
34.583500	-0.001654	0.000500	-0.002728	0.003333	6873.178831	42342.391106	3943.816870	22692.391390
35.213500	0.000260	0.000523	0.001599	0.001643	6905.856593	42497.845781	3958.116847	22769.347078
35.305000	-0.000394	0.000852	-0.002452	0.001992	6896.742414	42496.031596	3947.639531	22753.448683
35.536500	-0.001465	0.000862	-0.001307	0.001523	6891.270181	42539.658216	3951.470026	22774.836099
36.036500	-0.001715	0.000116	-0.000690	0.001303	6891.001646	42491.796135	3953.463139	22784.882488
36.537000	-0.002159	0.000629	0.004113	0.001978	6880.862686	42477.118606	3963.348112	22754.101524
37.037000	-0.002297	0.000099	0.000855	0.001195	6886.703407	42500.087173	3957.411737	22789.843535
37.537500	-0.002220	0.001402	-0.001646	0.002466	6875.895555	42502.963415	3948.424892	22731.820169
38.034500	-0.002484	0.000408	0.000125	0.001694	6880.488911	42482.809931	3954.475326	22767.034059
38.538000	-0.001977	-0.000233	-0.003277	0.001404	6887.711339	42450.879423	3947.079722	22780.301000
39.035500	-0.001599	-0.000003	-0.001587	0.002489	6881.296887	42373.282942	3948.512356	22730.774868
39.536000	-0.000803	0.001035	-0.003119	0.002779	6885.891132	42441.178443	3944.199893	22717.587434
40.036000	-0.000761	-0.000251	-0.003960	0.001511	6897.776088	42439.506514	3945.209309	22775.399901
40.536500	-0.000244	0.000699	0.001450	0.002166	6896.529118	42466.349620	3956.512094	22745.528786
41.036500	0.000352	0.000931	-0.002608	0.002227	6901.390366	42481.904670	3946.713982	22742.731466
41.536500	-0.002185	0.000413	-0.000415	0.001298	6886.787303	42519.318513	3954.131894	22785.142297
42.034500	0.001218	0.000972	0.001804	0.001977	6911.548941	42508.339741	3957.810614	22754.130250
42.537500	0.000666	0.001224	0.000875	0.002190	6904.588377	42511.935336	3955.082249	22744.435116
43.035000	-0.000405	0.000769	0.005153	0.002045	6896.162853	42483.713032	3965.691267	22751.038986
43.534500	-0.001252	0.000330	0.001104	0.000460	6902.874793	42588.041181	3959.767062	22823.460052
44.035500	0.001169	-0.000123	0.003375	-0.001693	6944.716884	42743.313170	3970.427705	22922.227839
44.536000	-0.000819	-0.000054	-0.001463	0.002800	6885.550461	42340.422306	3948.068327	22716.614683
45.036500	0.000886	0.000391	0.004314	-0.000611	6932.179490	42691.403697	3970.081105	22872.522727
45.536500	0.002045	0.001130	0.002491	0.000071	6936.562365	42696.664849	3964.034063	22841.270460
46.037000	0.000629	0.000736	0.000244	-0.000558	6929.340480	42718.090595	3960.145662	22870.069863
46.536500	-0.001958	0.000367	-0.000695	0.004568	6859.298317	42218.651607	3945.702845	22636.324283
47.034500	-0.000116	0.000799	0.001980	0.001186	6906.598264	42564.580532	3960.127398	22790.238736
47.541000	-0.002455	0.000001	-0.003248	0.001560	6881.971411	42457.962744	3946.779050	22773.167078
48.035500	-0.000970	0.000597	0.000635	0.000115	6908.584730	42643.888109	3959.471640	22839.249405
48.535500	-0.005771	-0.000068	-0.004232	0.005526	6816.594197	42092.958156	3935.125379	22592.921667
49.038500	0.001222	0.000523	-0.002165	0.000373	6926.244547	42613.629988	3952.167476	22827.433041
49.539000	0.001617	0.000700	-0.000736	-0.002491	6956.198075	42892.005822	3962.434199	22958.984921
50.036500	0.003097	0.002004	0.003437	0.004124	6909.108213	42407.015441	3956.581138	22656.445425
50.536500	-0.009065	-0.002628	-0.003739	0.016001	6695.932433	40936.783597	3912.023915	22124.697744
51.033500	-0.025677	-0.009208	0.001574	0.066520	6159.489009	36261.953412	3813.811441	20018.641362
51.537500	-0.090083	-0.025010	-0.003256	0.282456	4633.204612	22504.177209	3457.039659	13330.052745
52.037500	-0.085511	-0.024010	-0.018713	-0.024389	6397.530532	42634.481767	3971.901651	23993.940142
52.541000	-0.067919	-0.078818	-0.014484	-0.272154	9301.042721	64810.923338	4800.342289	40182.873052
53.035500	-0.047948	-0.071076	-0.010021	-0.263369	9466.739647	64662.628230	4781.705577	39437.217515
53.535500	-0.014351	-0.108765	0.013463	-0.307158	10737.775386	65535.000000	5093.870784	43308.481001
54.035500	0.002441	-0.043436	0.021109	-0.228343	9701.395357	63622.718861	4765.070328	36609.781620
54.536000	0.013545	-0.009250	0.032701	-0.149384	8724.868430	57683.389115	4499.745201	31013.511415
55.036500	0.029687	0.000976	0.045676	-0.118685	8534.511202	55164.936995	4436.511967	29097.977970
55.536500	0.049500	0.015148	0.055519	-0.070707	8183.861048	51257.757010	4308.905518	26362.781703
56.037000	0.066815	0.027693	0.069991	-0.022594	7825.581538	47462.251618	4205.269450	23907.117496
56.537500	0.082996	0.037616	0.086096	0.019741	7540.653766	44264.161809	4129.854892	21960.276253
57.035000	0.096756	0.047267	0.102059	0.059438	7274.531543	41505.252854	4065.433064	20299.334046
57.535000	0.111602	0.056127	0.112981	0.108239	6949.328570	38121.226181	3969.639176	18454.942882
58.035500	0.127359	0.065370	0.130587	0.144171	6767.802362	36027.342443	3926.207975	17223.438908
58.536000	0.141228	0.073825	0.142706	0.166955	6690.246953	34955.172589	3901.763957	16493.735429
59.036000	0.152727	0.082213	0.162332	0.216249	6378.538071	32081.924177	3836.838816	15040.089720
59.536000	0.167797	0.089657	0.175916	0.263495	6133.719537	29534.300272	3768.348343	13793.428964
60.036500	0.177300	0.097522	0.186709	0.299019	5948.593034	27896.565343	3721.307379	12941.472125
60.537000	0.189185	0.103760	0.202888	0.333505	5796.554136	26328.183757	3688.170683	12178.473542
61.037500	0.202104	0.111711	0.215084	0.355330	5738.781426	25594.442555	3671.295904	11725.977397
61.535000	0.216250	0.122463	0.231805	0.368149	5747.315204	25487.109569	3678.089474	11470.614493
62.035000	0.231239	0.127966	0.241776	0.371280	5824.730145	25610.312273	3690.145998	11409.368230
62.535500	0.242707	0.136003	0.254334	0.382849	5824.067973	25427.107857	3691.905899	11186.903577
63.035500	0.246370	0.140005	0.268827	0.387116	5820.068804	25413.425221	3710.330968	11106.321816
63.536000	0.255677	0.146129	0.278744	0.406232	5755.984559	24752.577346	3693.737186	10754.939747
64.036500	0.263750	0.151391	0.285905	0.379395	5990.821449	26421.911634	3756.859822	11252.694002
64.536500	0.259308	0.152522	0.286043	0.441742	5557.416437	23341.436001	3644.980268	10141.854561
65.037000	0.260898	0.155427	0.295247	0.410332	5763.229222	25014.579936	3716.194615	10681.553453
65.537000	0.268600	0.159273	0.297574	0.401175	5874.576307	25683.966941	3737.567506	10846.388736
66.037000	0.280016	0.167197	0.310786	0.416162	5850.625757	25317.905076	3734.228603	10578.412304
66.535000	0.278807	0.165596	0.299617	0.389389	6026.476565	26650.234918	3764.068638	11063.733845
67.035000	0.289151	0.169042	0.308175	0.392413	6078.756834	26673.197607	3774.912297	11007.397702
67.535500	0.292613	0.170698	0.307331	0.392936	6100.005630	26735.077171	3772.220821	10997.708312
68.041000	0.298031	0.173810	0.314858	0.395986	6117.220177	26738.464116	3781.065876	10941.345337
68.536000	0.297929	0.175242	0.311742	0.399481	6091.104006	26625.914821	3768.036240	10877.262710
69.036500	0.301802	0.177633	0.314870	0.399876	6116.359531	26734.806887	3773.398673	10870.058399
69.536500	0.303571	0.179461	0.321614	0.401031	6120.836481	26771.638323	3784.470742	10849.008367
70.037000	0.308111	0.182359	0.322450	0.405095	6124.312365	26707.871714	3778.059525	10775.408830
70.534500	0.311110	0.181790	0.323791	0.405221	6145.382204	26669.950831	3780.468283	10773.141324
71.040000	0.313119	0.182408	0.324870	0.405810	6155.843802	26671.563086	3781.441015	10762.534654
71.535000	0.314593	0.184717	0.326849	0.407896	6151.330587	26683.661134	3781.227565	10725.069320
72.035000	0.317872	0.186514	0.330200	0.408851	6168.505261	26729.671218	3786.000892	10707.988038
72.535500	0.318901	0.187881	0.326731	0.409569	6170.803446	26765.163722	3777.675676	10695.155190
73.036000	0.319870	0.187805	0.326992	0.410092	6174.120087	26732.429026	3777.158006	10685.837928
73.536000	0.318275	0.187588	0.329520	0.409324	6167.987164	26762.569611	3783.701235	10699.538389
74.036500	0.322429	0.190688	0.330146	0.411048	6186.041358	26837.993054	3781.516533	10668.823934
74.537000	0.321483	0.190329	0.331566	0.409999	6186.811339	26875.896671	3786.435608	10687.500030
75.037000	0.326532	0.193279	0.337678	0.410302	6222.370800	27021.923892	3798.121503	10682.091112
75.537000	0.326751	0.192273	0.335842	0.408677	6236.293706	27056.232847	3797.696477	10711.101504
76.034500	0.330524	0.193758	0.340046	0.408862	6263.554326	27128.331382	3805.869248	10707.793233
76.535000	0.328197	0.193069	0.339501	0.409149	6243.673847	27074.155944	3804.172452	10702.670383
77.035500	0.330152	0.194779	0.340623	0.409559	6255.408799	27146.373040	3805.624537	10695.342442
77.535500	0.332605	0.195631	0.342091	0.410112	6269.893381	27162.945174	3807.493161	10685.475935
78.036000	0.328836	0.193869	0.333440	0.407960	6257.560883	27184.736401	3794.290940	10723.928876
78.536500	0.328695	0.193756	0.336299	0.413825	6212.141867	26853.969871	3788.249905	10619.595783
79.036500	0.330078	0.195549	0.341232	0.410243	6249.644463	27151.162180	3805.470818	10683.149291
79.534000	0.329145	0.195648	0.338480	0.410349	6241.760653	27150.739313	3799.651720	10681.255112
80.039500	0.333381	0.196667	0.344697	0.412153	6260.236499	27107.108903	3808.650357	10649.186757
80.534500	0.327991	0.195733	0.336094	0.416739	6185.078733	26802.536073	3782.025630	10568.273478
81.035000	0.329269	0.197457	0.342954	0.413917	6215.762568	27053.107196	3801.492475	10617.970465
81.535500	0.336846	0.197958	0.341583	0.416301	6255.044857	26948.980173	3793.892062	10575.971111
82.035500	0.333941	0.197643	0.344657	0.416809	6229.175530	26903.621436	3799.079139	10567.054191
82.536000	0.334330	0.198524	0.342833	0.423236	6183.899601	26600.177716	3782.508269	10455.102033
83.035500	0.334546	0.197793	0.342227	0.419891	6210.527347	26742.757750	3787.974554	10513.166580
83.536000	0.338901	0.199146	0.341633	0.422593	6222.960490	26669.096198	3781.401200	10466.236288
84.036500	0.338193	0.200505	0.345149	0.425238	6197.788020	26599.063181	3783.131580	10420.565593
84.536500	0.335946	0.199475	0.343473	0.431767	6132.821538	26191.732051	3766.951704	10309.037965
85.037000	0.339374	0.201665	0.342601	0.430823	6165.023744	26359.721759	3767.091669	10325.058907
85.537500	0.340862	0.201032	0.344309	0.432283	6165.228097	26247.380363	3767.575599	10300.297467
86.035500	0.340370	0.201148	0.347561	0.434411	6145.889530	26139.868867	3769.776156	10264.342214
86.538000	0.337314	0.200697	0.349141	0.442507	6064.882100	25688.771425	3757.101072	10129.193292
87.035500	0.339407	0.201833	0.350764	0.440551	6094.055914	25850.956996	3764.039341	10161.606341
87.536000	0.341431	0.201780	0.345814	0.443001	6090.972826	25719.595896	3749.754838	10121.021408
88.036000	0.344405	0.202967	0.348592	0.446358	6088.202890	25606.296559	3748.645807	10065.771236
88.536000	0.340692	0.202744	0.352260	0.447983	6049.871467	25510.282612	3752.560958	10039.189436
89.037000	0.343848	0.203237	0.349423	0.450938	6051.307375	25382.952864	3741.512713	9991.087263
89.537000	0.339828	0.202605	0.352308	0.452880	6009.028513	25250.632523	3743.300570	9959.653038
90.037000	0.342609	0.202528	0.347432	0.455152	6012.621743	25130.597108	3729.837783	9923.068077
90.534500	0.339262	0.201822	0.348329	0.463875	5928.682267	24655.093491	3715.349298	9784.322954
91.459000	0.343687	0.203628	0.354566	0.465044	5951.095226	24686.893262	3724.701728	9765.947812
91.973000	0.347068	0.203160	0.353052	0.465738	5969.720186	24628.953002	3720.613682	9755.056037
92.067500	0.346511	0.203823	0.352115	0.466667	5959.403060	24615.680250	3717.174938	9740.508204
92.536000	0.341514	0.203121	0.348087	0.473626	5877.695512	24237.550806	3697.221907	9632.494597
93.036000	0.342941	0.204620	0.355625	0.471291	5903.162604	24425.938519	3715.129237	9668.546710
93.536500	0.344741	0.204623	0.359066	0.472907	5904.418419	24346.517580	3718.483151	9643.581773
94.039500	0.346588	0.203965	0.357216	0.474885	5903.520420	24217.272170	3711.462308	9613.142013
94.537500	0.342874	0.203511	0.350927	0.482762	5825.747564	23813.977060	3686.016260	9493.309515
95.040500	0.344158	0.202982	0.355000	0.477850	5867.064345	24025.195075	3702.060147	9567.780246
95.538000	0.346347	0.204580	0.354312	0.480831	5861.754171	23958.337094	3695.468461	9522.491364
96.035500	0.346856	0.204891	0.362822	0.482896	5851.337190	23873.792260	3707.084640	9491.291286
96.535500	0.343684	0.204649	0.348092	0.490455	5780.536163	23502.074795	3667.635895	9378.361901
97.036000	0.344899	0.204546	0.349537	0.485885	5818.490599	23714.102032	3678.081882	9446.399859
97.536000	0.347884	0.205005	0.360344	0.487893	5824.947839	23640.312196	3693.627482	9416.418166
98.036500	0.345302	0.205739	0.355871	0.489311	5798.589319	23607.803893	3683.184887	9395.321660
98.539500	0.342396	0.204807	0.351450	0.497661	5725.716151	23171.825670	3661.025963	9272.503419
99.037000	0.347991	0.205162	0.359951	0.493029	5791.853761	23404.912238	3683.822382	9340.345160
99.537500	0.347620	0.205667	0.358855	0.494934	5777.002025	23339.225792	3678.552817	9312.359829
100.034500	0.349090	0.206404	0.359552	0.495829	5780.743530	23331.815076	3678.206303	9299.248467
100.535000	0.346601	0.203922	0.356047	0.502417	5722.195799	22911.393989	3660.754209	9203.599018
101.035500	0.348284	0.203928	0.359240	0.497581	5764.121489	23134.782197	3674.604976	9273.680654
101.535500	0.347638	0.205521	0.357822	0.499319	5748.717959	23128.070198	3669.130739	9248.406851
102.035500	0.346527	0.205051	0.359780	0.500621	5733.214229	23046.074284	3670.264937	9229.541274
102.536000	0.343059	0.205417	0.355500	0.508164	5663.542531	22717.322276	3650.074184	9121.339270
103.037000	0.346878	0.204392	0.351890	0.502190	5725.417427	22943.422991	3654.069207	9206.879671
103.537000	0.347398	0.204793	0.354619	0.503737	5718.864632	22890.820239	3656.073303	9184.613629
104.037000	0.345762	0.204295	0.355482	0.504596	5703.001010	22828.775201	3656.078932	9172.286017
104.535000	0.347910	0.205807	0.360873	0.506609	5703.859186	22805.872827	3661.837919	9143.493351
105.035000	0.347681	0.205600	0.360767	0.508463	5690.690302	22712.085770	3658.492871	9117.101842
105.535000	0.348213	0.205649	0.365429	0.508965	5690.872273	22691.499532	3665.614087	9109.963528
106.035500	0.349420	0.205894	0.363252	0.510895	5686.318988	22615.244804	3658.582571	9082.637654
106.535500	0.343656	0.205141	0.353855	0.516559	5615.261037	22327.410277	3633.356808	9003.124146
107.036000	0.348366	0.205764	0.354964	0.512776	5667.888696	22524.552325	3641.455198	9056.113396
107.536500	0.348262	0.205368	0.362283	0.513767	5661.042315	22462.247605	3652.064302	9042.182278
108.037000	0.346106	0.204341	0.357202	0.513427	5649.736179	22431.489327	3644.100765	9046.961878
108.537500	0.344874	0.203817	0.360917	0.520114	5600.960205	22111.409476	3639.153441	8953.748360
109.036500	0.348643	0.205652	0.361966	0.516712	5645.086300	22343.357889	3646.576467	9000.987038
109.534500	0.347311	0.204467	0.357646	0.516926	5635.513660	22281.139834	3639.016471	8998.012997
110.035000	0.348165	0.205946	0.359824	0.518968	5628.179222	22256.127081	3639.241645	8969.615831
110.535500	0.344699	0.205359	0.358031	0.525512	5567.164280	21942.373057	3625.537092	8879.535781
111.035500	0.350898	0.205953	0.355078	0.520831	5633.547105	22173.973018	3628.356586	8943.833545
111.536000	0.345893	0.206297	0.365644	0.522006	5595.642077	22137.331940	3643.872820	8927.635999
112.039000	0.347551	0.205106	0.357103	0.521621	5608.109855	22101.801552	3630.378481	8932.937019
112.536500	0.342537	0.203795	0.360670	0.526989	5545.332266	21810.140296	3627.432603	8859.396621
113.036500	0.347031	0.205956	0.361928	0.524134	5589.612862	22028.763057	3634.178765	8898.395401
113.537000	0.346952	0.203873	0.365163	0.523736	5591.549229	21955.016580	3640.188919	8903.842553
114.034500	0.345060	0.205008	0.363192	0.525884	5567.099654	21910.851444	3633.377619	8874.458772
114.535000	0.342837	0.206392	0.364474	0.533141	5510.601682	21656.746396	3623.610836	8776.222541
115.035500	0.346209	0.205723	0.359683	0.527305	5565.455242	21880.106533	3625.308458	8855.084261
115.535500	0.345209	0.203479	0.363262	0.526010	5567.231772	21838.876195	3633.283942	8872.730552
116.036000	0.346917	0.204812	0.359619	0.527439	5568.920751	21834.744592	3624.987353	8853.272355
116.536000	0.348589	0.206176	0.365945	0.529951	5563.856631	21784.998507	3631.217412	8819.198404
117.039000	0.347094	0.204967	0.359836	0.529206	5559.347023	21764.880162	3622.468599	8829.275595
117.536500	0.345303	0.204068	0.361928	0.529246	5548.368020	21724.355445	3625.803509	8828.736882
118.037000	0.347599	0.204895	0.362090	0.530600	5554.011009	21701.629347	3623.865686	8810.429601
118.537500	0.340794	0.203083	0.362437	0.535101	5487.104208	21431.640592	3617.149355	8749.961192
119.035000	0.344640	0.204006	0.358634	0.531153	5533.046212	21639.631349	3617.384909	8802.969605
119.538000	0.345277	0.205557	0.362452	0.532627	5528.068163	21642.918794	3621.165500	8783.119460
120.035500	0.347166	0.205172	0.361173	0.532600	5539.465062	21627.551630	3619.143226	8783.479132
120.538000	0.345532	0.205384	0.362307	0.533580	5523.930847	21594.658785	3619.392739	8770.330498
121.035500	0.346876	0.204188	0.360583	0.532566	5537.941602	21586.857539	3618.246750	8783.940750
121.544500	0.347622	0.205751	0.364174	0.535115	5527.220659	21544.678562	3619.928139	8749.781701
122.036000	0.346465	0.204636	0.357249	0.534130	5526.200622	21539.124951	3610.399681	8762.954096
122.536000	0.342293	0.203091	0.360414	0.538484	5476.119721	21288.878549	3608.507389	8704.923031
123.037000	0.345241	0.204715	0.362552	0.534686	5515.670347	21518.769629	3618.003399	8755.518257
123.537500	0.346416	0.205568	0.366128	0.536600	5511.302096	21473.530938	3620.685253	8729.959678
124.035000	0.346080	0.206224	0.353571	0.536768	5508.336008	21494.332527	3600.410427	8727.734584
124.534500	0.345218	0.205925	0.359813	0.540868	5479.274648	21307.871117	3603.782829	8673.407076
125.035500	0.344207	0.203921	0.361833	0.536038	5501.610974	21427.422159	3614.676373	8737.454960
125.535500	0.348597	0.205866	0.363028	0.537821	5516.971321	21434.309043	3613.734212	8713.727510
126.036000	0.344680	0.204015	0.362279	0.536709	5500.448294	21402.946989	3614.315659	8728.515478
126.539000	0.348850	0.206283	0.364227	0.543084	5487.529911	21229.655223	3607.258908	8644.250225
127.037000	0.347504	0.205091	0.365748	0.537585	5511.910907	21411.447374	3618.481391	8716.862965
127.536500	0.344595	0.204206	0.366928	0.536958	5498.485840	21400.497826	3621.401191	8725.201135
128.037000	0.344728	0.203803	0.357696	0.537561	5495.733345	21357.903013	3605.662193	8717.186212
128.542500	0.344670	0.203413	0.362608	0.541223	5474.021146	21187.324780	3607.641639	8668.720694
129.035000	0.347238	0.206258	0.358616	0.539771	5497.486258	21368.254040	3603.623550	8687.887889
129.535000	0.350202	0.205866	0.365856	0.540027	5513.419100	21340.845866	3614.729719	8684.500691
130.036000	0.349169	0.205677	0.362121	0.539795	5508.698320	21342.671422	3609.137223	8687.573547
