sample name	sample
index	1251
start time	 04-29-2021  12:47:45 PM
880	0.302078
Peak Time (s)	100.535
Peak Height 	0.3021
calc peak height	100,103
Baseline Time (s)	11.537
Baseline Value 	-0.005678
subtract baseline	10,4
Abs	0.170816
Peak Time (s)	102.535
Peak Height 	0.1708
calc peak height	100,103
Baseline Time (s)	8.535
Baseline Value 	7.0887E-4
subtract baseline	10,3
PK_550	0.103303
Peak Time (s)	101.537
Peak Height 	0.1033
calc peak height	100,103
Baseline Time (s)	8.535
Baseline Value 	0.001071
subtract baseline	10,2
PK_880	0.160677
Peak Time (s)	102.04
Peak Height 	0.1607
calc peak height	100,103
Baseline Time (s)	10.537
Baseline Value 	0.003622
subtract baseline	10,1


Time (s)	A880-A510	A880-A775	A880-A975	A880	I510	I775	I975	I880	
0.036000	-0.000714	-0.000443	0.002030	0.001638	6212.460404	44051.182783	3916.422704	22782.020017
0.536500	-0.002693	-0.001195	-0.000843	0.003406	6184.376145	43813.562637	3905.797453	22701.379417
1.036500	-0.002923	-0.001052	-0.003597	0.006721	6158.037537	43516.333616	3892.074860	22551.089531
1.537000	-0.001395	0.000166	-0.000427	0.001306	6209.833257	44140.264893	3911.542618	22797.172018
2.037000	0.000236	-0.000531	-0.002821	0.000680	6226.847898	44133.620186	3907.503338	22825.837953
2.534500	-0.000282	0.000351	0.002895	0.001086	6219.873549	44178.732789	3919.687967	22807.240395
3.037000	-0.003999	-0.000389	-0.001277	0.005436	6159.579723	43698.626472	3900.204889	22609.214209
3.535000	-0.002922	-0.000739	-0.003088	-0.000253	6210.079114	44202.397950	3909.024175	22868.634446
4.035500	-0.002939	-0.000521	-0.001754	0.000083	6207.425139	44191.155633	3911.306324	22853.209760
4.536000	0.001216	-0.000768	-0.001541	0.000134	6238.405819	44162.836338	3911.677109	22850.847531
5.036000	-0.000588	-0.000045	0.000736	0.000729	6220.257156	44175.065491	3915.538312	22823.594001
5.536000	-0.001576	-0.001218	-0.002652	0.000091	6217.622697	44124.366921	3909.234854	22852.844344
6.037000	-0.001510	-0.000816	0.000643	0.000231	6217.064332	44149.108493	3916.469595	22846.414550
6.536500	-0.000670	0.000035	-0.003882	0.000367	6222.372184	44216.984859	3905.797316	22840.162981
7.037500	-0.000920	-0.000326	0.004424	0.000105	6222.463540	44207.669503	3925.503313	22852.205701
7.537500	-0.002127	-0.000892	-0.002384	0.000705	6208.852895	44097.030341	3908.445275	22824.708698
8.035000	-0.000884	-0.000194	-0.004894	-0.000096	6224.251187	44239.169363	3904.548749	22861.394338
8.535000	-0.000984	0.000000	0.000000	-0.000282	6224.901353	44275.387903	3916.171004	22869.965151
9.035000	-0.003504	-0.001096	-0.001403	-0.001140	6212.371913	44252.722195	3914.916517	22909.376882
9.536000	-0.002447	-0.000121	-0.000023	0.000662	6206.767216	44174.203149	3913.947536	22826.656898
10.039000	0.003482	0.000336	0.000655	-0.000090	6257.346352	44289.036573	3917.235487	22861.114770
10.536500	0.000000	0.000422	0.002948	0.000134	6229.192032	44275.849589	3922.012119	22850.838596
11.036500	0.000638	0.000047	-0.003328	0.000431	6231.776490	44212.025265	3906.914592	22837.251355
11.537000	0.001020	-0.000280	0.002981	0.000000	6237.938563	44221.930244	3922.398224	22857.005182
12.037500	-0.000699	-0.000622	0.004774	-0.000444	6228.280842	44231.660099	3927.592737	22877.397987
12.534500	0.001044	-0.000069	0.003261	-0.000175	6239.447102	44258.634255	3923.453910	22865.050610
13.035000	-0.000059	-0.000001	0.002416	-0.001040	6237.639840	44347.410155	3923.498235	22904.750662
13.535500	-0.001019	0.000386	0.009096	0.001130	6213.990929	44177.902785	3934.008911	22805.257781
14.035500	-0.000495	0.000508	-0.002961	0.002133	6210.385841	44094.364929	3903.876087	22759.406029
14.538500	-0.003319	-0.000609	-0.003915	0.001168	6196.431165	44079.993701	3903.902458	22803.499750
15.041000	0.000754	-0.000784	-0.003890	-0.000954	6243.156788	44264.718216	3908.792683	22900.802311
15.536000	-0.001404	-0.000622	-0.000727	0.001499	6208.317604	44047.485747	3910.416459	22788.380050
16.037000	0.000256	-0.000281	0.004403	-0.000654	6237.103511	44284.010658	3927.215944	22887.015332
16.537000	0.000849	-0.000845	0.004491	-0.000931	6243.703887	44256.678400	3928.065392	22899.731707
17.034000	-0.000052	-0.000193	0.004217	-0.000344	6232.424629	44262.947317	3926.064309	22872.807022
17.548000	-0.001464	-0.000874	-0.000197	-0.000114	6220.006705	44176.345572	3915.328993	22862.227573
18.035000	-0.001183	0.000078	0.000406	0.000585	6216.853754	44200.322215	3915.108932	22830.181146
18.535500	-0.000538	-0.000547	0.004297	0.000222	6224.466707	44175.568668	3924.936428	22846.847589
19.036000	0.000572	0.000240	0.003668	0.001097	6226.234195	44167.095273	3921.450279	22806.730889
19.536000	-0.000141	-0.000650	-0.006895	0.001041	6221.284308	44088.207286	3897.440685	22809.334787
20.036500	-0.001457	-0.000259	0.004405	0.000626	6214.486595	44164.518320	3924.248962	22828.315937
20.537000	-0.002638	-0.000619	0.001303	0.000493	6206.601253	44142.976265	3917.386882	22834.409217
21.037000	-0.001678	0.000051	0.005405	0.000984	6210.128275	44159.919099	3925.739296	22811.928641
21.537000	-0.002648	-0.001413	0.001403	0.000289	6208.058506	44087.050033	3918.085158	22843.740562
22.037500	-0.002103	-0.000669	0.004037	0.000506	6210.522851	44137.008357	3923.672697	22833.793531
22.535000	-0.003442	-0.000819	0.000010	0.000271	6202.232162	44145.064048	3914.919374	22844.561462
23.035500	-0.000800	-0.000456	-0.001441	0.000338	6221.610108	44173.139372	3911.438716	22841.492181
23.536000	-0.000709	0.000516	0.001019	0.001167	6216.045975	44186.731352	3915.182039	22803.547608
24.036000	-0.000776	-0.000886	-0.000859	0.000375	6221.517467	44128.914524	3912.688315	22839.834020
24.536000	0.000289	-0.000147	-0.000600	0.000757	6226.675462	44162.726254	3912.405957	22822.324718
25.036500	-0.000943	-0.000828	0.004951	0.000838	6216.764522	44090.510293	3925.023134	22818.618481
25.539500	-0.001809	-0.000387	0.003145	0.000616	6211.912711	44153.307497	3921.354553	22828.783688
26.037000	-0.002320	-0.000473	-0.005571	0.000643	6207.858253	44142.602654	3901.334508	22827.512633
26.537000	0.000327	-0.000263	0.002689	0.001133	6224.111855	44115.984988	3919.104937	22805.085629
27.037500	-0.000004	0.000740	0.005629	0.000950	6223.002092	44228.607434	3926.339901	22813.500175
27.535000	0.000015	0.000428	0.003407	-0.000838	6236.670545	44368.986909	3925.329453	22895.458001
28.035500	-0.000097	-0.000516	0.001459	-0.000759	6235.224458	44271.628831	3920.634552	22891.864870
28.538000	-0.000200	0.000305	0.001836	-0.000171	6229.991510	44293.796251	3920.147782	22864.853070
29.036000	-0.001264	-0.000543	0.000267	0.000005	6220.628065	44196.503761	3916.125405	22856.798171
29.535500	0.001591	0.000151	-0.000563	0.000123	6241.342163	44251.217881	3913.945437	22851.378423
30.039500	-0.000574	0.000084	0.001337	-0.000195	6227.347664	44275.066789	3919.050541	22865.962772
30.539000	-0.001922	-0.000712	-0.000303	0.001926	6201.219734	43998.598140	3910.409246	22768.871743
31.037000	-0.001814	0.000449	0.005723	0.001851	6202.587112	44115.462255	3924.462791	22772.267243
31.534500	-0.001584	-0.000010	-0.002477	0.000980	6210.865548	44154.539092	3907.604090	22812.090475
32.035000	0.000205	0.000665	-0.001752	-0.000344	6234.366283	44344.504415	3912.287630	22872.780428
32.535500	-0.000353	0.000089	-0.001727	-0.000663	6232.553981	44320.043528	3913.078327	22887.445667
33.041000	-0.001511	-0.000291	-0.000651	0.003093	6195.550904	43928.161190	3906.948710	22715.622264
33.794500	-0.002387	-0.000457	-0.000069	0.001459	6201.227688	44066.820743	3912.013845	22790.174329
34.143500	-0.001666	0.000108	-0.000995	0.002041	6202.278507	44065.232347	3908.565186	22763.596171
34.536500	-0.003426	-0.000580	0.002235	0.001261	6194.935423	44073.979413	3917.765327	22799.268548
35.036500	-0.002672	-0.000319	-0.002232	0.001412	6199.449033	44084.260510	3907.176225	22792.328133
35.537500	-0.003232	0.000031	-0.001963	0.001746	6192.757993	44085.895087	3907.028496	22777.082403
36.037500	-0.001433	-0.000297	-0.001177	0.001263	6209.875699	44100.547328	3909.927192	22799.169732
36.535000	0.000350	-0.000002	0.005311	0.001669	6220.244359	44090.025005	3923.930851	22780.582493
37.035000	-0.001985	0.000278	0.003636	0.001778	6201.859375	44106.218951	3919.804194	22775.638501
37.538000	-0.002023	-0.001100	-0.000752	0.000862	6208.449030	44062.483951	3911.815800	22817.499874
38.035500	-0.003776	0.000407	0.001772	0.001747	6188.685056	44121.349778	3915.579867	22777.042061
38.536000	-0.000487	-0.000370	0.000718	0.001423	6215.787915	44078.475710	3913.903435	22791.857098
39.036500	0.000140	-0.000350	0.001456	0.001064	6223.226308	44114.372055	3916.423152	22808.262715
39.537000	0.000370	0.000452	0.002744	0.002118	6217.012009	44090.564090	3916.962304	22760.109584
40.036500	-0.001119	-0.000138	0.003087	0.001570	6209.919870	44086.503367	3919.015752	22785.113144
40.536500	0.000359	-0.000358	0.000515	0.001502	6221.576707	44072.213000	3913.255646	22788.251394
41.037000	-0.000895	0.000171	-0.004526	0.001485	6212.249825	44123.780594	3901.794839	22788.998721
41.536000	-0.001979	-0.000086	0.002702	0.001416	6204.617157	44105.994187	3918.481557	22792.160433
42.035000	-0.000107	0.000567	-0.002284	0.001984	6214.418164	44114.068702	3905.754936	22766.193271
42.535500	-0.000025	0.001259	-0.001218	0.002685	6209.767050	44113.154102	3906.586343	22734.219188
43.036000	-0.000013	0.000099	0.005528	0.001768	6216.761755	44090.181397	3924.203879	22776.068592
43.535500	-0.001385	0.000386	0.007585	0.001301	6209.947934	44161.679066	3930.075341	22797.409625
44.036000	0.001615	0.000443	0.001407	-0.003141	6266.393286	44590.517700	3926.032842	23001.582638
44.536500	0.002042	0.000939	-0.004359	0.000076	6245.125517	44330.618494	3905.376715	22853.532495
45.037000	0.001336	0.000385	0.004752	-0.000434	6243.631998	44326.451936	3927.517753	22876.922323
45.537000	-0.000891	0.000044	0.001666	0.004040	6193.103061	43870.476144	3910.076556	22672.553932
46.037500	-0.000769	-0.000258	0.004741	-0.000530	6228.401102	44274.469458	3927.715505	22881.351241
46.535000	-0.000971	-0.000485	0.001497	-0.000990	6230.348486	44296.511084	3921.254558	22902.445281
47.035500	0.000301	0.000102	0.003670	0.000012	6232.397554	44257.103848	3923.966846	22856.440058
47.535500	-0.002838	-0.000353	0.002519	0.003601	6181.846877	43874.399189	3913.036170	22692.511560
48.036000	-0.003561	-0.000240	0.001396	0.002082	6187.782067	44028.450790	3913.944076	22761.726418
48.536000	0.001858	-0.000038	0.005213	-0.000235	6246.084930	44267.261899	3928.127379	22867.801479
49.036000	-0.001262	-0.000079	-0.001120	0.000299	6218.418470	44212.683058	3912.264563	22843.307340
49.536500	-0.002600	-0.000316	-0.000490	0.004972	6173.404455	43748.954305	3903.039790	22630.232056
50.037000	0.002737	-0.000228	0.001360	-0.003068	6274.433771	44519.354237	3925.755976	22998.240441
50.534500	0.001679	0.000404	0.000638	0.001371	6232.545631	44156.737563	3913.838969	22794.233233
51.035000	-0.002487	-0.000819	-0.002272	0.002942	6189.382012	43892.615677	3903.604109	22722.515388
51.537500	0.025574	-0.022622	-0.006844	0.484069	4087.306486	15824.601061	3239.381870	9471.438041
52.035500	-0.015562	-0.024094	-0.038171	-0.034276	6374.914652	45227.775031	3906.606328	24492.896720
52.535500	0.002416	-0.042238	-0.010551	-0.188012	8038.839435	60712.400114	4419.555595	33648.693258
53.036000	0.002503	-0.017316	-0.007146	-0.134855	7452.777129	57077.929742	4256.909416	30110.542197
53.536000	0.011798	-0.010077	0.006693	-0.119905	7394.444967	56125.679981	4253.485253	29191.018038
54.036500	0.020700	-0.002139	0.022691	-0.021951	6569.335725	46175.167152	4023.632231	23889.753905
54.536500	0.013579	-0.001663	0.016352	0.000819	6328.197133	44013.320347	3951.884086	22819.477646
55.037000	0.022145	0.004357	0.027015	-0.015404	6526.995400	46170.148469	4017.981363	23576.248366
55.535000	0.037539	0.011563	0.038661	-0.010984	6618.686419	46448.103780	4036.453236	23367.222959
56.038000	0.050041	0.022404	0.048352	-0.008526	6704.664537	47295.494237	4055.255526	23251.930589
56.537500	0.063785	0.031448	0.062857	0.011553	6650.208320	46183.453778	4040.736762	22334.069051
57.035500	0.074587	0.037641	0.071786	0.029489	6589.819778	45030.678449	4017.672497	21549.306563
57.536000	0.080674	0.040547	0.080170	0.064655	6353.686311	42019.614496	3951.839295	20101.579607
58.036000	0.085048	0.043329	0.086618	0.093793	6164.701156	39720.391661	3899.159566	18987.755235
58.536500	0.091787	0.045198	0.092806	0.119845	6024.600131	37729.966131	3855.245260	18053.191127
59.036500	0.100796	0.053079	0.102292	0.171766	5734.758145	34378.020500	3767.896791	16349.836774
59.537000	0.103861	0.055000	0.103304	0.178369	5712.111830	34041.306954	3757.012714	16147.455871
60.037500	0.111984	0.061955	0.119716	0.185260	5719.975630	34045.842124	3775.633795	15939.491919
60.535000	0.118663	0.065552	0.116992	0.211288	5599.006595	32481.606754	3720.623975	15183.106923
61.035000	0.118603	0.068832	0.125455	0.227922	5498.880713	31588.016991	3705.645018	14722.923433
61.535500	0.125481	0.072723	0.132665	0.235772	5493.167218	31328.318561	3704.481591	14511.789009
62.036000	0.127404	0.074124	0.131858	0.241209	5472.624024	31065.984017	3693.239657	14367.783115
62.536000	0.126330	0.071271	0.133176	0.246069	5438.305654	30571.439748	3686.933633	14240.569555
63.036000	0.138676	0.071834	0.144981	0.262640	5414.158212	29572.618497	3678.530732	13817.385084
63.536500	0.136834	0.079943	0.143865	0.378669	4826.977545	23719.605490	3498.471447	11266.374429
64.037500	0.138478	0.068761	0.152121	0.329854	5058.987086	25597.734137	3580.142212	12257.276093
64.537500	0.139771	0.085978	0.144540	0.313201	5148.221172	27432.964692	3594.141293	12621.599992
65.034500	0.138233	0.094953	0.139185	0.299905	5208.717226	28720.165157	3606.638541	12922.708463
65.538000	0.137201	0.095796	0.139483	0.295267	5227.603607	29047.148499	3614.522878	13029.916873
66.041500	0.138919	0.098565	0.140928	0.293513	5245.931771	29320.157327	3619.679676	13070.761340
66.535500	0.139082	0.100090	0.146194	0.293141	5248.767964	29435.491566	3628.862912	13079.439631
67.036000	0.138201	0.098065	0.141609	0.287171	5275.936684	29676.982644	3631.136266	13219.829472
67.536500	0.140920	0.100580	0.142476	0.283638	5309.756917	30051.490492	3638.410840	13303.840996
68.036500	0.137492	0.100973	0.146193	0.279036	5316.158474	30364.760180	3652.363546	13414.268064
68.537000	0.139689	0.100864	0.141724	0.276739	5340.833104	30503.069853	3648.692727	13469.821449
69.036000	0.139562	0.099695	0.142217	0.270486	5374.886793	30827.293923	3660.150815	13622.591572
69.537000	0.140559	0.100751	0.142972	0.268121	5393.774458	31047.553879	3665.507241	13680.930303
70.038000	0.143448	0.101875	0.144233	0.265737	5423.702344	31275.246854	3671.816656	13740.063011
70.535000	0.139568	0.100256	0.150188	0.263337	5415.269408	31326.241069	3686.482150	13799.948126
71.035500	0.142644	0.100766	0.148112	0.260304	5450.275197	31558.488696	3688.178275	13876.070647
71.535500	0.142912	0.102053	0.147605	0.260286	5451.929442	31644.541066	3687.311768	13876.533014
72.036000	0.145160	0.102644	0.148114	0.258908	5472.957382	31774.834873	3690.664563	13911.294039
72.536000	0.142146	0.101324	0.148879	0.260867	5444.158777	31558.170475	3688.540934	13861.888954
73.036500	0.145367	0.103870	0.148159	0.260753	5463.433607	31733.793062	3687.465350	13864.761140
73.537000	0.144023	0.103330	0.152111	0.263137	5441.901107	31540.799958	3690.251484	13804.944489
74.037000	0.147362	0.103448	0.159372	0.263868	5456.947018	31500.546440	3701.969155	13786.680253
74.537000	0.144646	0.104160	0.149749	0.269232	5410.617750	31196.487866	3675.338489	13653.475864
75.035000	0.144592	0.104022	0.154460	0.268051	5417.029732	31264.392193	3685.697994	13682.668482
75.535000	0.146229	0.103424	0.149363	0.271625	5406.026519	30993.875265	3670.501610	13594.590990
76.035500	0.147507	0.104240	0.152426	0.271762	5412.499274	31037.722931	3675.594768	13591.222442
76.535500	0.146984	0.106793	0.151308	0.274842	5392.103316	31003.716357	3668.297214	13515.939022
77.036000	0.149587	0.106312	0.154442	0.276353	5398.271369	30875.463166	3671.110633	13479.197460
77.536500	0.149083	0.106463	0.157211	0.279712	5376.534318	30670.040444	3670.086723	13397.967371
78.036500	0.147119	0.104958	0.156157	0.278961	5369.753897	30622.039842	3669.562151	13416.084063
78.537000	0.149945	0.104721	0.153084	0.280506	5376.913478	30508.785660	3661.600197	13378.864370
79.039500	0.151179	0.105059	0.160544	0.282059	5375.129685	30431.845324	3671.797944	13341.588365
79.534500	0.148752	0.105768	0.162752	0.285164	5344.358002	30280.792060	3670.241200	13267.471531
80.036500	0.151830	0.104539	0.161489	0.282845	5374.378331	30349.451758	3672.075413	13322.785355
80.535500	0.152176	0.106023	0.162707	0.284119	5369.180907	30362.656265	3671.977432	13292.344060
81.035500	0.153155	0.106554	0.155664	0.284133	5374.579423	30395.269634	3659.807314	13292.011006
81.536000	0.152068	0.104590	0.158498	0.281714	5382.044595	30424.030125	3668.846437	13349.847632
82.036000	0.155712	0.105517	0.159304	0.281627	5403.082615	30488.192994	3670.395366	13351.948553
82.536500	0.152844	0.103517	0.157072	0.280033	5395.877826	30462.480096	3669.288521	13390.237675
83.037000	0.154074	0.105094	0.158694	0.280161	5402.112431	30554.362897	3671.881413	13387.158800
83.537000	0.153841	0.104017	0.160554	0.279140	5406.576781	30550.851990	3676.907180	13411.768335
84.036500	0.156130	0.104911	0.162793	0.279786	5415.906283	30566.588260	3679.700098	13396.187711
84.535000	0.152804	0.104156	0.163786	0.284545	5370.311274	30218.422557	3673.113437	13282.199520
85.035000	0.152849	0.104061	0.168061	0.280195	5394.993661	30486.692965	3688.282108	13386.352969
85.535000	0.154567	0.104908	0.164986	0.280830	5401.113293	30500.116890	3681.719272	13371.071832
86.036000	0.153569	0.103873	0.161887	0.280055	5399.855749	30483.643176	3677.639127	13389.716376
86.536000	0.154853	0.103981	0.165544	0.281275	5400.218407	30413.323579	3681.919434	13360.394353
87.036500	0.158321	0.105357	0.166356	0.282958	5410.330737	30393.861946	3680.386720	13320.073706
87.536500	0.153828	0.102810	0.162374	0.281641	5392.357671	30316.323748	3675.716332	13351.607861
88.036500	0.153635	0.104771	0.154638	0.283300	5381.944543	30335.369454	3659.477326	13311.910154
88.537500	0.155357	0.103170	0.161798	0.282816	5394.356539	30265.059562	3672.662196	13323.463133
89.035000	0.155095	0.104501	0.166587	0.284422	5383.841927	30247.797499	3678.222381	13285.138818
89.535500	0.153887	0.104360	0.165615	0.286496	5365.473396	30109.056152	3672.902018	13235.841119
90.035000	0.153753	0.103304	0.162704	0.284756	5374.443649	30151.847219	3670.866903	13277.187455
90.535500	0.152949	0.103906	0.154271	0.292622	5326.400253	29701.002464	3643.095567	13091.577676
91.036000	0.157459	0.103717	0.159466	0.286892	5383.238501	30044.167026	3661.593140	13226.432381
91.536000	0.156242	0.103231	0.162812	0.286833	5376.748355	30017.609438	3667.454755	13227.846534
92.036500	0.155872	0.103670	0.165933	0.288393	5365.959624	29947.841560	3670.157283	13190.931193
92.536500	0.156387	0.103854	0.163115	0.289461	5362.876982	29892.992106	3663.446512	13165.744895
93.040000	0.153245	0.101960	0.159367	0.288273	5352.018585	29849.282759	3659.061545	13193.783077
93.537500	0.157125	0.104125	0.166228	0.291015	5358.338272	29813.564961	3666.133323	13129.217806
94.037500	0.158183	0.103554	0.167627	0.291392	5362.125924	29755.054067	3667.899008	13120.381623
94.535500	0.158965	0.103113	0.163766	0.291601	5365.320427	29715.018977	3660.892832	13115.486030
95.035500	0.159184	0.103057	0.158668	0.292374	5362.228051	29663.988911	3650.901770	13097.363327
95.536500	0.160372	0.104920	0.162301	0.296125	5348.002518	29548.229223	3650.703571	13009.995615
96.036000	0.157277	0.102217	0.166949	0.293664	5344.492887	29533.362124	3662.813820	13067.227469
96.536500	0.153882	0.101752	0.162286	0.299623	5293.341849	29143.412185	3644.791691	12929.191408
97.036500	0.161028	0.102522	0.167605	0.294474	5360.805236	29502.547193	3662.549571	13048.363878
97.539500	0.157836	0.101203	0.170064	0.293866	5346.468929	29459.136731	3667.833734	13062.532365
98.037500	0.159997	0.102388	0.169947	0.295324	5350.357868	29442.468099	3665.114526	13028.582495
98.540000	0.157042	0.102994	0.167285	0.301562	5299.957146	29101.427960	3649.939245	12884.672231
99.035000	0.159386	0.102238	0.166394	0.295868	5343.973950	29400.259056	3658.091738	13015.964966
99.535000	0.160793	0.103897	0.170380	0.297393	5343.316620	29408.391908	3662.302089	12980.631898
100.035500	0.156231	0.101959	0.161611	0.296216	5324.687163	29362.078270	3649.385444	13007.878661
100.535500	0.153470	0.101349	0.158849	0.302078	5277.878634	28971.712898	3634.982906	12872.853462
101.036000	0.158033	0.101623	0.162305	0.295974	5335.920669	29356.376947	3650.965410	13013.503258
101.536500	0.158845	0.103303	0.165611	0.297266	5333.274649	29379.961797	3654.376731	12983.557271
102.040000	0.160677	0.102715	0.170152	0.297035	5344.658653	29358.253353	3662.525678	12988.917125
102.534500	0.159313	0.103153	0.170816	0.297430	5334.955821	29360.905435	3662.988126	12979.782242
103.037500	0.158904	0.102368	0.169027	0.296132	5339.847801	29392.027033	3662.144462	13009.823584
103.534500	0.157927	0.102774	0.169935	0.296343	5333.303108	29403.908685	3663.340268	13004.933407
104.038000	0.160944	0.103693	0.168335	0.297256	5344.910339	29404.293704	3659.034347	12983.800080
104.535500	0.156143	0.102834	0.165219	0.301148	5297.324713	29116.702398	3647.154832	12894.154275
105.037500	0.161215	0.104304	0.171036	0.296964	5348.024257	29459.332271	3664.167855	12990.564371
105.535500	0.158493	0.103226	0.172472	0.295940	5338.645891	29456.029427	3668.412994	13014.297236
106.039000	0.160312	0.104726	0.171920	0.296745	5344.239867	29498.425624	3666.067205	12995.629168
106.537000	0.161643	0.104207	0.163986	0.295768	5357.029442	29526.408992	3654.162678	13018.280903
107.037000	0.159400	0.104113	0.164563	0.295317	5347.098244	29548.289044	3655.909359	13028.763430
107.537000	0.159608	0.104258	0.160336	0.296171	5343.520134	29504.920422	3647.313887	13008.921496
108.037500	0.161900	0.104453	0.166926	0.294585	5365.046062	29613.936360	3661.194865	13045.775560
108.535000	0.162633	0.103854	0.164015	0.293173	5377.029242	29663.831256	3658.628636	13078.686682
