sample name	sample
index	1410
start time	 05-10-2021  11:37:51 AM


Wavelength (nm)	Absorbance
494.344910	0.044403
494.563924	0.044403
494.782919	0.044403
495.001897	-0.006436
495.220856	-0.011456
495.439797	-0.014902
495.658719	-0.026493
495.877624	-0.032552
496.096510	-0.021366
496.315378	-0.018240
496.534227	-0.018564
496.753059	-0.005138
496.971872	-0.006475
497.190667	0.045761
497.409444	0.064249
497.628203	0.068599
497.846943	0.073691
498.065665	0.075237
498.284369	0.077023
498.503055	0.079584
498.721723	0.079928
498.940372	0.079945
499.159003	0.079646
499.377616	0.079871
499.596210	0.082084
499.814787	0.081080
500.033345	0.081672
500.251885	0.082105
500.470406	0.081568
500.688910	0.080721
500.907395	0.081357
501.125862	0.082449
501.344311	0.081780
501.562742	0.080675
501.781154	0.081119
501.999548	0.080840
502.217924	0.080103
502.436282	0.080356
502.654621	0.081176
502.872942	0.081748
503.091245	0.080849
503.309530	0.082690
503.527797	0.082342
503.746045	0.083097
503.964275	0.082915
504.182487	0.083540
504.400681	0.083613
504.618856	0.083495
504.837013	0.082784
505.055152	0.083084
505.273273	0.081366
505.491376	0.081829
505.709460	0.082000
505.927526	0.082779
506.145574	0.082922
506.363604	0.082910
506.581615	0.082672
506.799608	0.083618
507.017583	0.084146
507.235540	0.084949
507.453478	0.084256
507.671399	0.083696
507.889301	0.083106
508.107185	0.082762
508.325050	0.082411
508.542898	0.082763
508.760727	0.082708
508.978538	0.082180
509.196330	0.081764
509.414105	0.083033
509.631861	0.083372
509.849599	0.083568
510.067319	0.083968
510.285021	0.083972
510.502704	0.084152
510.720369	0.084280
510.938016	0.084680
511.155645	0.084814
511.373255	0.084514
511.590848	0.084149
511.808422	0.083847
512.025977	0.083642
512.243515	0.084351
512.461034	0.084786
512.678536	0.084775
512.896018	0.085039
513.113483	0.085841
513.330930	0.085657
513.548358	0.085571
513.765768	0.086330
513.983160	0.086578
514.200533	0.085457
514.417889	0.085123
514.635226	0.085234
514.852545	0.085879
515.069845	0.085809
515.287128	0.085579
515.504392	0.086358
515.721638	0.086305
515.938866	0.086642
516.156075	0.087730
516.373267	0.087474
516.590440	0.087136
516.807594	0.087043
517.024731	0.086669
517.241850	0.087428
517.458950	0.086927
517.676032	0.086295
517.893095	0.085686
518.110141	0.085581
518.327168	0.085734
518.544177	0.085881
518.761168	0.085718
518.978141	0.086165
519.195095	0.086365
519.412031	0.086536
519.628949	0.086363
519.845849	0.087268
520.062731	0.088156
520.279594	0.089100
520.496439	0.089588
520.713266	0.089287
520.930074	0.089238
521.146865	0.089639
521.363637	0.090085
521.580391	0.091585
521.797127	0.091086
522.013844	0.090066
522.230543	0.089456
522.447224	0.089274
522.663887	0.089995
522.880532	0.089952
523.097158	0.089999
523.313766	0.090217
523.530356	0.089247
523.746928	0.089901
523.963481	0.091116
524.180017	0.091579
524.396534	0.092128
524.613032	0.091673
524.829513	0.092138
525.045975	0.092416
525.262420	0.093043
525.478845	0.094146
525.695253	0.094104
525.911643	0.093593
526.128014	0.093623
526.344367	0.093694
526.560702	0.094255
526.777018	0.094244
526.993316	0.093844
527.209597	0.093409
527.425858	0.093531
527.642102	0.093590
527.858328	0.093884
528.074535	0.094000
528.290724	0.094724
528.506894	0.095206
528.723047	0.095585
528.939181	0.096007
529.155297	0.096154
529.371395	0.095724
529.587475	0.096473
529.803536	0.096555
530.019579	0.096723
530.235604	0.096369
530.451611	0.096225
530.667600	0.096126
530.883570	0.096226
531.099522	0.096374
531.315456	0.096948
531.531372	0.096512
531.747269	0.096954
531.963148	0.096904
532.179009	0.096709
532.394852	0.096618
532.610676	0.097064
532.826482	0.097915
533.042271	0.098422
533.258040	0.098365
533.473792	0.098375
533.689525	0.098563
533.905240	0.098811
534.120937	0.099147
534.336616	0.099632
534.552277	0.099532
534.767919	0.099454
534.983543	0.099052
535.199149	0.099698
535.414736	0.100813
535.630306	0.100795
535.845857	0.101242
536.061390	0.101610
536.276904	0.101698
536.492401	0.101679
536.707879	0.101602
536.923339	0.102254
537.138781	0.101418
537.354204	0.101024
537.569610	0.101199
537.784997	0.101310
538.000366	0.101517
538.215716	0.101676
538.431049	0.102365
538.646363	0.102540
538.861659	0.102769
539.076937	0.103262
539.292196	0.103301
539.507438	0.103479
539.722661	0.103726
539.937866	0.103930
540.153052	0.103949
540.368221	0.103923
540.583371	0.103900
540.798503	0.103813
541.013617	0.103742
541.228712	0.104062
541.443789	0.104352
541.658848	0.104342
541.873889	0.104000
542.088912	0.104257
542.303916	0.104237
542.518902	0.103601
542.733870	0.103510
542.948820	0.104149
543.163752	0.104298
543.378665	0.104036
543.593560	0.103978
543.808437	0.104241
544.023295	0.104296
544.238136	0.104792
544.452958	0.105788
544.667762	0.106217
544.882548	0.106210
545.097315	0.106290
545.312064	0.106549
545.526795	0.106816
545.741508	0.106961
545.956203	0.107095
546.170879	0.106518
546.385537	0.106463
546.600177	0.106635
546.814799	0.106699
547.029402	0.106563
547.243988	0.107185
547.458555	0.107413
547.673103	0.107377
547.887634	0.107747
548.102146	0.108072
548.316640	0.107986
548.531116	0.107522
548.745574	0.108050
548.960013	0.108202
549.174435	0.107453
549.388838	0.107514
549.603222	0.108360
549.817589	0.108198
550.031937	0.108699
550.246267	0.108947
550.460579	0.109342
550.674873	0.108938
550.889148	0.109270
551.103405	0.110155
551.317644	0.110145
551.531865	0.109893
551.746068	0.109885
551.960252	0.110149
552.174418	0.110402
552.388566	0.110712
552.602696	0.111026
552.816807	0.110887
553.030900	0.110775
553.244975	0.111612
553.459032	0.111577
553.673070	0.112100
553.887091	0.111868
554.101093	0.112212
554.315077	0.112578
554.529042	0.112476
554.742990	0.112555
554.956919	0.112858
555.170830	0.112268
555.384722	0.112569
555.598597	0.112614
555.812453	0.112918
556.026291	0.112504
556.240111	0.112319
556.453913	0.112778
556.667696	0.112984
556.881461	0.112915
557.095208	0.113232
557.308937	0.113374
557.522647	0.113458
557.736339	0.113446
557.950013	0.114245
558.163669	0.114442
558.377307	0.114724
558.590926	0.114891
558.804527	0.114743
559.018110	0.115067
559.231675	0.115229
559.445221	0.115355
559.658749	0.115538
559.872259	0.115233
560.085751	0.115246
560.299225	0.115258
560.512680	0.115277
560.726117	0.115523
560.939536	0.115324
561.152937	0.115251
561.366319	0.115606
561.579683	0.115657
561.793029	0.115768
562.006357	0.116021
562.219667	0.115811
562.432958	0.115971
562.646231	0.116080
562.859486	0.116336
563.072723	0.116362
563.285941	0.116164
563.499141	0.116329
563.712323	0.116637
563.925487	0.116833
564.138632	0.117205
564.351760	0.117517
564.564869	0.117160
564.777960	0.117477
564.991032	0.117745
565.204087	0.118075
565.417123	0.118012
565.630141	0.118001
565.843140	0.117887
566.056122	0.117929
566.269085	0.118044
566.482030	0.118580
566.694957	0.118132
566.907866	0.118228
567.120756	0.117936
567.333628	0.118187
567.546482	0.118442
567.759318	0.118705
567.972135	0.118785
568.184935	0.118532
568.397716	0.118538
568.610478	0.119115
568.823223	0.119303
569.035949	0.119426
569.248657	0.119505
569.461347	0.119365
569.674019	0.119241
569.886672	0.119426
570.099308	0.119887
570.311925	0.120224
570.524523	0.120109
570.737104	0.120225
570.949666	0.121024
571.162210	0.120880
571.374736	0.120959
571.587244	0.121152
571.799733	0.121221
572.012205	0.121307
572.224658	0.121674
572.437092	0.122172
572.649509	0.122086
572.861907	0.121681
573.074287	0.122285
573.286649	0.122699
573.498993	0.122629
573.711318	0.122698
573.923625	0.122871
574.135914	0.122799
574.348185	0.122686
574.560438	0.123134
574.772672	0.123111
574.984888	0.123233
575.197086	0.123235
575.409266	0.123648
575.621427	0.123863
575.833570	0.124232
576.045695	0.124096
576.257802	0.124119
576.469890	0.124303
576.681961	0.124487
576.894013	0.124402
577.106046	0.124407
577.318062	0.124435
577.530059	0.124294
577.742039	0.124022
577.954000	0.124421
578.165942	0.124539
578.377867	0.124396
578.589773	0.124851
578.801661	0.125024
579.013531	0.125146
579.225382	0.125411
579.437216	0.125637
579.649031	0.125720
579.860828	0.125713
580.072606	0.125774
580.284367	0.125695
580.496109	0.125384
580.707833	0.125600
580.919539	0.125690
581.131227	0.125533
581.342896	0.125766
581.554547	0.126276
581.766180	0.126543
581.977795	0.126771
582.189391	0.127410
582.400969	0.127555
582.612529	0.127575
582.824071	0.127560
583.035595	0.127923
583.247100	0.128020
583.458587	0.127889
583.670056	0.128120
583.881506	0.128133
584.092939	0.127975
584.304353	0.128341
584.515749	0.128620
584.727127	0.128912
584.938486	0.128830
585.149828	0.128716
585.361151	0.128720
585.572456	0.128763
585.783742	0.128945
585.995011	0.129201
586.206261	0.129212
586.417493	0.129231
586.628706	0.129199
586.839902	0.129417
587.051079	0.129414
587.262238	0.129651
587.473379	0.129784
587.684502	0.129594
587.895606	0.129508
588.106692	0.129561
588.317760	0.129684
588.528810	0.130175
588.739841	0.130443
588.950855	0.130834
589.161850	0.130983
589.372827	0.130717
589.583785	0.131202
589.794726	0.131409
590.005648	0.131707
590.216552	0.131592
590.427437	0.131421
590.638305	0.131276
590.849154	0.131427
591.059985	0.131409
591.270798	0.131722
591.481592	0.131888
591.692369	0.132024
591.903127	0.132301
592.113867	0.132577
592.324588	0.132973
592.535292	0.133344
592.745977	0.133368
592.956644	0.133441
593.167293	0.133393
593.377923	0.133269
593.588536	0.133267
593.799130	0.133288
594.009706	0.133283
594.220263	0.133128
594.430803	0.133048
594.641324	0.133387
594.851827	0.133249
595.062312	0.133214
595.272778	0.133489
595.483227	0.133523
595.693657	0.133416
595.904069	0.133230
596.114462	0.133465
596.324838	0.133490
596.535195	0.133451
596.745534	0.133836
596.955855	0.134297
597.166157	0.134164
597.376441	0.134169
597.586707	0.134222
597.796955	0.134389
598.007185	0.134689
598.217396	0.134897
598.427589	0.134758
598.637764	0.134636
598.847921	0.134734
599.058060	0.134850
599.268180	0.135396
599.478282	0.135443
599.688366	0.135830
599.898431	0.136023
600.108479	0.136192
600.318508	0.136490
600.528519	0.136736
600.738511	0.136701
600.948486	0.136652
601.158442	0.136396
601.368380	0.136531
601.578300	0.136617
601.788202	0.136280
601.998085	0.136218
602.207950	0.136397
602.417797	0.136465
602.627626	0.136680
602.837436	0.137081
603.047228	0.137108
603.257002	0.137299
603.466758	0.137244
603.676496	0.137621
603.886215	0.137767
604.095916	0.137790
604.305599	0.137836
604.515264	0.138044
604.724910	0.138006
604.934538	0.138127
605.144148	0.138015
605.353740	0.138419
605.563314	0.138301
605.772869	0.138393
605.982406	0.138436
606.191925	0.138814
606.401425	0.138589
606.610908	0.138639
606.820372	0.138365
607.029818	0.138697
607.239246	0.138648
607.448655	0.138707
607.658047	0.138710
607.867420	0.138717
608.076775	0.138582
608.286111	0.138621
608.495430	0.138782
608.704730	0.139128
608.914012	0.139281
609.123275	0.139290
609.332521	0.139314
609.541748	0.139486
609.750957	0.139755
609.960148	0.139727
610.169321	0.139918
610.378475	0.140131
610.587611	0.140588
610.796729	0.140861
611.005829	0.140935
611.214910	0.141053
611.423974	0.141309
611.633019	0.141328
611.842045	0.141704
612.051054	0.141619
612.260044	0.141689
612.469017	0.141503
612.677970	0.141386
612.886906	0.141279
613.095824	0.141437
613.304723	0.141451
613.513604	0.141387
613.722467	0.141350
613.931311	0.141722
614.140138	0.141650
614.348946	0.141723
614.557736	0.141723
614.766507	0.142008
614.975261	0.142056
615.183996	0.141987
615.392713	0.141876
615.601412	0.142059
615.810092	0.142154
616.018754	0.142445
616.227399	0.142758
616.436024	0.142647
616.644632	0.143092
616.853222	0.143269
617.061793	0.143318
617.270346	0.143815
617.478880	0.143613
617.687397	0.143684
617.895895	0.143777
618.104375	0.143567
618.312837	0.143785
618.521281	0.143492
618.729706	0.143500
618.938113	0.143720
619.146502	0.143317
619.354873	0.143566
619.563226	0.143278
619.771560	0.143044
619.979876	0.143359
620.188174	0.143495
620.396453	0.143684
620.604715	0.143754
620.812958	0.143903
621.021183	0.144243
621.229390	0.144330
621.437578	0.144503
621.645748	0.144722
621.853900	0.144729
622.062034	0.144750
622.270150	0.144771
622.478247	0.145029
622.686326	0.144997
622.894387	0.145356
623.102430	0.145675
623.310454	0.145846
623.518461	0.146147
623.726449	0.146340
623.934418	0.146600
624.142370	0.146853
624.350303	0.146847
624.558218	0.147080
624.766115	0.147127
624.973994	0.147083
625.181855	0.147039
625.389697	0.147108
625.597521	0.147116
625.805327	0.147053
626.013114	0.147093
626.220883	0.147036
626.428634	0.147165
626.636367	0.147098
626.844082	0.147190
627.051778	0.147401
627.259457	0.147150
627.467117	0.147369
627.674758	0.147557
627.882382	0.147492
628.089987	0.147715
628.297574	0.147632
628.505143	0.147823
628.712694	0.147756
628.920226	0.147902
629.127740	0.148098
629.335236	0.148004
629.542714	0.147895
629.750174	0.148010
629.957615	0.147985
630.165038	0.148100
630.372443	0.148015
630.579829	0.147958
630.787198	0.148058
630.994548	0.148421
631.201880	0.148571
631.409194	0.148672
631.616489	0.148700
631.823766	0.148902
632.031025	0.149097
632.238266	0.149394
632.445489	0.150009
632.652693	0.150213
632.859879	0.150156
633.067047	0.150299
633.274197	0.150539
633.481329	0.150865
633.688442	0.151197
633.895537	0.151362
634.102614	0.151509
634.309672	0.151257
634.516713	0.151351
634.723735	0.151470
634.930739	0.151543
635.137724	0.151473
635.344692	0.151249
635.551641	0.151102
635.758572	0.151052
635.965485	0.151082
636.172379	0.151272
636.379256	0.151322
636.586114	0.151548
636.792954	0.151634
636.999775	0.151935
637.206579	0.152193
637.413364	0.152336
637.620131	0.152271
637.826880	0.152270
638.033610	0.152173
638.240323	0.152250
638.447017	0.152070
638.653692	0.152241
638.860350	0.152320
639.066990	0.152405
639.273611	0.152305
639.480214	0.152556
639.686798	0.152736
639.893365	0.153051
640.099913	0.153252
640.306443	0.153493
640.512955	0.153474
640.719449	0.153724
640.925924	0.153990
641.132381	0.154279
641.338820	0.154480
641.545241	0.154537
641.751644	0.154555
641.958028	0.154481
642.164394	0.154632
642.370742	0.154969
642.577071	0.154864
642.783383	0.154916
642.989676	0.155241
643.195951	0.155152
643.402207	0.155501
643.608446	0.155634
643.814666	0.156007
644.020868	0.156180
644.227052	0.156177
644.433218	0.156239
644.639365	0.156244
644.845494	0.156297
645.051605	0.156420
645.257698	0.156282
645.463772	0.156471
645.669828	0.156665
645.875866	0.156603
646.081886	0.156824
646.287888	0.156929
646.493871	0.157133
646.699836	0.156939
646.905783	0.157019
647.111712	0.157157
647.317622	0.157199
647.523514	0.156969
647.729388	0.157028
647.935244	0.157033
648.141082	0.157112
648.346901	0.157024
648.552702	0.157351
648.758485	0.157736
648.964250	0.157905
649.169996	0.158094
649.375724	0.158150
649.581434	0.158340
649.787126	0.158385
649.992800	0.158541
650.198455	0.158725
650.404092	0.158678
650.609711	0.158453
650.815311	0.158331
651.020894	0.158539
651.226458	0.158832
651.432004	0.158887
651.637532	0.158923
651.843041	0.159225
652.048532	0.159294
652.254006	0.159594
652.459460	0.159976
652.664897	0.160426
652.870315	0.160329
653.075716	0.160558
653.281097	0.160796
653.486461	0.161023
653.691807	0.160797
653.897134	0.161112
654.102443	0.161056
654.307734	0.161044
654.513006	0.160989
654.718261	0.160982
654.923497	0.160794
655.128715	0.160832
655.333915	0.160694
655.539096	0.161067
655.744259	0.161224
655.949404	0.161279
656.154531	0.161191
656.359640	0.161315
656.564730	0.161388
656.769802	0.161473
656.974856	0.161293
657.179892	0.161550
657.384909	0.161378
657.589908	0.161136
657.794889	0.161208
657.999852	0.161487
658.204797	0.161543
658.409723	0.161784
658.614631	0.162021
658.819521	0.162244
659.024393	0.162276
659.229246	0.162420
659.434081	0.162746
659.638898	0.162829
659.843697	0.163019
660.048478	0.162904
660.253240	0.163069
660.457984	0.163250
660.662710	0.163463
660.867417	0.163669
661.072107	0.164005
661.276778	0.164306
661.481431	0.164535
661.686066	0.164831
661.890682	0.165427
662.095281	0.165386
662.299861	0.165464
662.504422	0.165645
662.708966	0.165936
662.913491	0.166175
663.117999	0.166286
663.322488	0.166546
663.526958	0.166426
663.731411	0.166547
663.935845	0.166886
664.140261	0.167088
664.344659	0.167257
664.549038	0.167252
664.753400	0.167094
664.957743	0.167007
665.162068	0.167271
665.366375	0.167533
665.570663	0.167369
665.774933	0.167844
665.979185	0.168006
666.183419	0.168016
666.387635	0.168159
666.591832	0.168402
666.796011	0.168779
667.000172	0.168713
667.204315	0.168655
667.408439	0.169027
667.612545	0.168684
667.816634	0.168669
668.020703	0.168818
668.224755	0.168982
668.428788	0.169262
668.632803	0.169188
668.836800	0.169202
669.040779	0.169476
669.244739	0.169543
669.448681	0.169784
669.652605	0.169846
669.856511	0.170101
670.060399	0.170105
670.264268	0.170351
670.468119	0.170435
670.671952	0.170618
670.875767	0.170712
671.079563	0.170676
671.283341	0.170571
671.487101	0.170789
671.690843	0.170867
671.894567	0.171189
672.098272	0.171058
672.301959	0.171210
672.505628	0.171367
672.709278	0.171498
672.912911	0.171751
673.116525	0.171966
673.320121	0.172288
673.523699	0.172334
673.727258	0.172439
673.930799	0.172587
674.134322	0.172766
674.337827	0.172895
674.541314	0.172854
674.744782	0.172828
674.948232	0.173002
675.151664	0.173002
675.355078	0.173388
675.558474	0.173434
675.761851	0.173615
675.965210	0.173924
676.168551	0.173996
676.371873	0.174275
676.575178	0.174752
676.778464	0.174842
676.981732	0.174754
677.184981	0.174677
677.388213	0.174842
677.591426	0.174952
677.794621	0.174971
677.997798	0.175022
678.200956	0.175088
678.404097	0.174956
678.607219	0.175191
678.810323	0.175476
679.013408	0.175465
679.216476	0.175511
679.419525	0.175457
679.622556	0.175459
679.825569	0.175455
680.028563	0.175435
680.231540	0.175459
680.434498	0.175315
680.637438	0.175312
680.840359	0.175490
681.043263	0.175802
681.246148	0.175989
681.449015	0.176144
681.651864	0.176386
681.854694	0.176687
682.057506	0.176844
682.260301	0.177243
682.463076	0.177521
682.665834	0.177688
682.868573	0.177645
683.071295	0.177812
683.273998	0.178010
683.476682	0.178034
683.679349	0.178286
683.881997	0.178498
684.084627	0.178594
684.287239	0.178590
684.489833	0.178490
684.692408	0.178559
684.894965	0.178503
685.097504	0.178592
685.300025	0.179130
685.502527	0.178973
685.705012	0.178857
685.907478	0.178930
686.109925	0.179072
686.312355	0.179529
686.514766	0.179547
686.717159	0.179759
686.919534	0.179770
687.121891	0.179523
687.324230	0.179707
687.526550	0.180023
687.728852	0.180030
687.931136	0.180213
688.133401	0.180343
688.335649	0.180558
688.537878	0.180825
688.740089	0.181018
688.942281	0.181410
689.144456	0.181615
689.346612	0.181659
689.548750	0.181797
689.750870	0.182069
689.952971	0.182067
690.155055	0.182293
690.357120	0.182383
690.559167	0.182399
690.761195	0.182429
690.963206	0.182584
691.165198	0.182688
691.367172	0.182902
691.569128	0.182658
691.771065	0.182828
691.972984	0.182821
692.174885	0.183146
692.376768	0.183349
692.578633	0.183327
692.780479	0.183345
692.982308	0.183576
693.184118	0.183732
693.385909	0.183939
693.587683	0.183817
693.789438	0.183954
693.991175	0.183662
694.192894	0.183705
694.394595	0.183770
694.596277	0.183768
694.797941	0.183813
694.999587	0.183878
695.201215	0.183909
695.402824	0.184238
695.604416	0.184163
695.805989	0.184296
696.007543	0.184185
696.209080	0.184254
696.410598	0.184499
696.612099	0.184509
696.813580	0.184234
697.015044	0.184163
697.216490	0.184075
697.417917	0.184235
697.619326	0.184055
697.820717	0.184265
698.022089	0.184245
698.223444	0.184110
698.424780	0.184267
698.626098	0.184660
698.827397	0.185001
699.028679	0.185138
699.229942	0.185238
699.431187	0.185462
699.632414	0.185866
699.833622	0.186065
700.034813	0.186351
700.235985	0.186422
700.437139	0.186545
700.638274	0.186767
700.839392	0.186913
701.040491	0.187348
701.241572	0.187699
701.442635	0.187566
701.643679	0.187878
701.844706	0.187884
702.045714	0.188040
702.246704	0.187997
702.447675	0.188121
702.648629	0.188030
702.849564	0.187833
703.050481	0.187868
703.251380	0.188069
703.452260	0.188013
703.653122	0.188033
703.853966	0.188140
704.054792	0.188277
704.255600	0.188320
704.456389	0.188509
704.657160	0.188610
704.857913	0.188513
705.058648	0.188334
705.259365	0.188313
705.460063	0.188309
705.660743	0.188255
705.861405	0.188207
706.062048	0.187948
706.262674	0.187959
706.463281	0.187699
706.663870	0.187624
706.864441	0.187371
707.064993	0.187405
707.265527	0.187380
707.466043	0.187310
707.666541	0.187087
707.867021	0.187103
708.067482	0.187031
708.267925	0.186984
708.468350	0.187094
708.668757	0.187151
708.869145	0.187191
709.069516	0.187159
709.269868	0.187180
709.470201	0.187446
709.670517	0.187409
709.870814	0.187580
710.071093	0.187741
710.271354	0.188107
710.471597	0.188373
710.671821	0.188393
710.872028	0.188316
711.072216	0.188278
711.272385	0.188349
711.472537	0.188529
711.672670	0.188270
711.872785	0.188173
712.072882	0.187835
712.272961	0.187672
712.473021	0.187627
712.673063	0.187802
712.873087	0.187776
713.073093	0.187847
713.273081	0.187849
713.473050	0.188047
713.673001	0.188241
713.872934	0.188510
714.072849	0.188811
714.272745	0.188948
714.472623	0.189179
714.672483	0.189432
714.872325	0.189465
715.072148	0.189588
715.271954	0.189751
715.471741	0.190006
715.671509	0.189770
715.871260	0.189667
716.070992	0.189734
716.270707	0.189660
716.470403	0.189466
716.670080	0.189482
716.869740	0.189349
717.069381	0.189297
717.269004	0.189024
717.468609	0.188703
717.668195	0.188532
717.867764	0.188280
718.067314	0.188085
718.266846	0.188017
718.466360	0.187732
718.665855	0.187503
718.865332	0.187099
719.064791	0.186806
719.264232	0.186798
719.463655	0.186874
719.663059	0.186726
719.862445	0.186500
720.061813	0.186495
720.261163	0.186459
720.460494	0.186347
720.659807	0.186340
720.859102	0.186299
721.058379	0.186328
721.257638	0.185947
721.456878	0.186040
721.656100	0.186096
721.855304	0.185905
722.054490	0.185844
722.253657	0.186002
722.452806	0.186226
722.651937	0.186437
722.851050	0.186299
723.050145	0.186528
723.249221	0.186470
723.448279	0.186462
723.647319	0.186508
723.846340	0.186528
724.045344	0.186551
724.244329	0.186462
724.443296	0.186356
724.642245	0.186360
724.841175	0.186318
725.040088	0.186153
725.238982	0.185966
725.437857	0.185830
725.636715	0.185722
725.835554	0.185533
726.034376	0.185445
726.233179	0.185401
726.431963	0.185488
726.630730	0.185243
726.829478	0.185241
727.028208	0.185253
727.226920	0.185334
727.425614	0.185308
727.624289	0.185325
727.822946	0.185222
728.021585	0.185054
728.220206	0.185103
728.418808	0.185107
728.617392	0.185038
728.815958	0.185140
729.014506	0.185066
729.213036	0.184807
729.411547	0.184676
729.610040	0.184695
729.808515	0.184702
730.006972	0.184706
730.205410	0.184729
730.403831	0.184498
730.602233	0.184268
730.800616	0.183946
730.998982	0.183851
731.197329	0.183650
731.395658	0.183547
731.593969	0.183487
731.792262	0.183180
731.990536	0.183259
732.188793	0.183388
732.387031	0.183353
732.585250	0.183464
732.783452	0.183496
732.981635	0.183659
733.179800	0.183530
733.377947	0.183728
733.576076	0.183746
733.774186	0.183332
733.972278	0.183173
734.170352	0.183030
734.368408	0.182825
734.566446	0.182741
734.764465	0.182601
734.962466	0.182446
735.160449	0.182188
735.358413	0.182188
735.556360	0.182184
735.754288	0.182259
735.952198	0.182403
736.150090	0.182357
736.347963	0.182515
736.545818	0.182331
736.743655	0.182192
736.941474	0.181915
737.139275	0.181847
737.337057	0.181481
737.534821	0.181335
737.732567	0.180967
737.930295	0.180829
738.128005	0.180783
738.325696	0.180772
738.523369	0.180662
738.721024	0.180503
738.918660	0.180269
739.116279	0.180755
739.313879	0.180590
739.511461	0.180711
739.709024	0.180588
739.906570	0.180338
740.104097	0.180186
740.301606	0.180026
740.499097	0.179957
740.696569	0.179769
740.894024	0.179495
741.091460	0.179189
741.288878	0.178778
741.486277	0.178825
741.683659	0.178633
741.881022	0.178300
742.078367	0.178051
742.275694	0.177759
742.473002	0.177580
742.670293	0.177319
742.867565	0.177459
743.064819	0.177563
743.262054	0.177094
743.459272	0.176795
743.656471	0.176797
743.853652	0.176686
744.050815	0.176749
744.247959	0.176615
744.445085	0.176206
744.642194	0.175885
744.839283	0.175457
745.036355	0.175646
745.233408	0.175634
745.430444	0.175490
745.627461	0.175592
745.824459	0.175426
746.021440	0.175491
746.218402	0.175483
746.415346	0.175570
746.612272	0.175820
746.809180	0.175722
747.006069	0.175326
747.202940	0.175235
747.399793	0.175206
747.596628	0.175308
747.793444	0.175156
747.990243	0.175373
748.187023	0.175099
748.383784	0.175010
748.580528	0.175038
748.777253	0.175381
748.973960	0.175489
749.170649	0.175321
749.367320	0.175186
749.563973	0.174966
749.760607	0.174680
749.957223	0.174663
750.153821	0.174483
750.350400	0.174329
750.546962	0.174369
750.743505	0.174078
750.940030	0.173837
751.136536	0.173669
751.333025	0.173688
751.529495	0.173560
751.725947	0.173767
751.922381	0.173668
752.118796	0.173483
752.315194	0.173259
752.511573	0.173137
752.707934	0.173182
752.904276	0.172993
753.100601	0.172917
753.296907	0.172673
753.493195	0.172051
753.689465	0.171687
753.885716	0.171667
754.081949	0.171413
754.278164	0.171106
754.474361	0.170881
754.670540	0.170821
754.866700	0.170650
755.062843	0.170758
755.258967	0.170743
755.455072	0.170990
755.651160	0.170757
755.847229	0.170552
756.043280	0.170873
756.239313	0.170747
756.435328	0.170584
756.631324	0.170398
756.827302	0.170261
757.023262	0.170206
757.219204	0.169950
757.415127	0.169753
757.611033	0.169673
757.806920	0.169452
758.002788	0.169424
758.198639	0.169360
758.394471	0.169447
758.590286	0.169353
758.786081	0.169352
758.981859	0.169523
759.177619	0.169656
759.373360	0.169690
759.569083	0.169586
759.764788	0.169692
759.960474	0.169819
760.156143	0.169716
760.351793	0.169577
760.547425	0.169367
760.743038	0.169067
760.938634	0.168839
761.134211	0.168856
761.329770	0.168613
761.525311	0.168227
761.720833	0.168014
761.916338	0.167750
762.111824	0.167812
762.307292	0.167840
762.502741	0.167659
762.698173	0.167590
762.893586	0.167191
763.088981	0.166970
763.284358	0.166900
763.479716	0.166514
763.675057	0.166399
763.870379	0.166050
764.065683	0.165755
764.260968	0.165565
764.456236	0.165426
764.651485	0.165508
764.846716	0.165868
765.041929	0.165839
765.237123	0.165763
765.432299	0.165714
765.627457	0.165674
765.822597	0.165661
766.017719	0.165636
766.212822	0.165593
766.407907	0.165433
766.602974	0.165060
766.798023	0.165033
766.993054	0.165193
767.188066	0.165016
767.383060	0.165250
767.578036	0.165132
767.772993	0.165286
767.967933	0.165339
768.162854	0.165342
768.357757	0.165243
768.552642	0.165117
768.747508	0.164914
768.942356	0.165108
769.137186	0.164940
769.331998	0.165033
769.526792	0.164807
769.721567	0.164872
769.916324	0.164884
770.111063	0.164922
770.305784	0.164924
770.500486	0.164768
770.695171	0.164558
770.889837	0.164370
771.084484	0.164378
771.279114	0.164497
771.473725	0.164288
771.668318	0.164258
771.862893	0.164370
772.057450	0.164355
772.251988	0.164598
772.446509	0.164740
772.641011	0.164915
772.835494	0.164818
773.029960	0.164685
773.224407	0.164495
773.418836	0.164619
773.613247	0.164668
773.807640	0.164766
774.002014	0.164669
774.196370	0.164502
774.390708	0.164172
774.585028	0.164133
774.779330	0.164247
774.973613	0.164301
775.167878	0.164090
775.362125	0.163970
775.556354	0.163672
775.750564	0.163589
775.944756	0.163766
776.138930	0.163873
776.333086	0.163781
776.527223	0.163747
776.721343	0.163849
776.915444	0.163749
777.109526	0.163516
777.303591	0.163625
777.497637	0.163446
777.691666	0.163237
777.885676	0.163268
778.079667	0.163361
778.273641	0.163247
778.467596	0.163101
778.661533	0.163174
778.855452	0.163293
779.049352	0.163290
779.243235	0.163475
779.437099	0.163398
779.630945	0.163430
779.824773	0.163655
780.018582	0.163497
780.212373	0.163500
780.406146	0.163580
780.599901	0.163564
780.793638	0.163625
780.987356	0.163755
781.181056	0.164011
781.374738	0.164112
781.568402	0.164045
781.762047	0.164100
781.955674	0.164287
782.149283	0.164019
782.342874	0.164168
782.536447	0.164208
782.730001	0.164142
782.923537	0.164084
783.117055	0.164118
783.310555	0.163994
783.504036	0.164134
783.697499	0.164064
783.890944	0.164367
784.084371	0.164362
784.277780	0.164268
784.471170	0.164470
784.664542	0.164397
784.857896	0.164219
785.051231	0.164401
785.244549	0.164545
785.437848	0.164638
785.631129	0.164579
785.824392	0.164530
786.017636	0.164729
786.210863	0.164881
786.404071	0.165098
786.597260	0.165422
786.790432	0.165314
786.983585	0.165551
787.176721	0.165883
787.369838	0.166028
787.562936	0.166104
787.756017	0.166261
787.949079	0.166229
788.142123	0.166320
788.335149	0.166202
788.528156	0.166273
788.721146	0.166093
788.914117	0.165797
789.107070	0.165992
789.300005	0.166187
789.492921	0.166430
789.685819	0.166394
789.878699	0.166484
790.071561	0.166667
790.264405	0.166785
790.457230	0.167064
790.650037	0.167394
790.842826	0.167327
791.035597	0.167513
791.228349	0.167350
791.421084	0.167479
791.613800	0.167548
791.806497	0.167536
791.999177	0.167604
792.191838	0.167322
792.384481	0.167372
792.577106	0.167550
792.769713	0.167608
792.962301	0.167425
793.154871	0.167442
793.347423	0.167479
793.539957	0.167627
793.732473	0.168039
793.924970	0.168279
794.117449	0.168416
794.309910	0.168609
794.502353	0.168685
794.694777	0.169025
794.887183	0.169117
795.079571	0.169151
795.271941	0.169183
795.464293	0.169027
795.656626	0.169322
795.848941	0.169224
796.041238	0.169010
796.233516	0.169232
796.425777	0.169380
796.618019	0.169665
796.810243	0.169919
797.002449	0.170119
797.194636	0.170227
797.386805	0.170212
797.578956	0.170502
797.771089	0.170860
797.963204	0.171044
798.155300	0.171028
798.347378	0.171071
798.539438	0.171233
798.731480	0.171375
798.923503	0.171520
799.115509	0.171636
799.307496	0.171782
799.499465	0.171766
799.691415	0.171745
799.883348	0.172114
800.075262	0.172524
800.267158	0.172729
800.459035	0.172965
800.650895	0.173405
800.842736	0.173601
801.034559	0.173786
801.226364	0.174186
801.418150	0.174234
801.609919	0.174613
801.801669	0.174639
801.993401	0.174721
802.185114	0.174992
802.376810	0.174952
802.568487	0.175323
802.760146	0.175430
802.951787	0.175627
803.143409	0.176175
803.335014	0.176425
803.526600	0.176492
803.718168	0.176681
803.909717	0.176867
804.101249	0.177009
804.292762	0.177133
804.484257	0.177486
804.675734	0.177677
804.867192	0.177577
805.058632	0.177566
805.250054	0.177772
805.441458	0.178087
805.632844	0.178487
805.824211	0.178815
806.015561	0.179219
806.206891	0.179582
806.398204	0.179752
806.589499	0.180103
806.780775	0.180184
806.972033	0.180666
807.163273	0.180978
807.354495	0.181004
807.545698	0.181234
807.736883	0.181334
807.928050	0.181337
808.119199	0.181549
808.310329	0.181655
808.501441	0.182187
808.692535	0.182156
808.883611	0.182221
809.074669	0.182593
809.265708	0.182807
809.456729	0.183122
809.647732	0.183333
809.838717	0.183783
810.029683	0.184065
810.220632	0.184361
810.411562	0.184846
810.602474	0.185231
810.793367	0.185046
810.984242	0.185301
811.175100	0.185283
811.365938	0.185561
811.556759	0.185587
811.747562	0.185872
811.938346	0.185691
812.129112	0.185901
812.319860	0.185748
812.510589	0.186154
812.701300	0.186300
812.891994	0.186458
813.082668	0.186587
813.273325	0.187007
813.463964	0.187260
813.654584	0.187570
813.845186	0.187666
814.035769	0.188106
814.226335	0.188518
814.416882	0.188868
814.607411	0.189306
814.797922	0.189429
814.988415	0.189340
815.178889	0.189633
815.369345	0.189863
815.559783	0.189957
815.750203	0.190051
815.940605	0.190075
816.130988	0.190231
816.321353	0.190369
816.511700	0.190925
816.702028	0.191281
816.892339	0.191592
817.082631	0.191923
817.272905	0.192412
817.463161	0.193065
817.653398	0.193471
817.843617	0.193642
818.033819	0.193808
818.224001	0.193757
818.414166	0.194216
818.604312	0.194234
818.794440	0.194453
818.984550	0.194421
819.174642	0.194441
819.364716	0.194873
819.554771	0.195283
819.744808	0.195679
819.934827	0.196226
820.124827	0.196345
820.314810	0.196670
820.504774	0.197168
820.694720	0.197540
820.884647	0.197854
821.074557	0.197969
821.264448	0.198008
821.454321	0.198278
821.644176	0.198212
821.834012	0.198355
822.023831	0.198731
822.213631	0.198930
822.403413	0.199186
822.593176	0.199438
822.782922	0.199605
822.972649	0.199976
823.162358	0.200417
823.352049	0.200861
823.541721	0.201193
823.731376	0.201235
823.921012	0.201346
824.110629	0.201760
824.300229	0.201969
824.489811	0.202185
824.679374	0.202414
824.868919	0.202517
825.058445	0.202679
825.247954	0.202954
825.437444	0.203368
825.626916	0.203474
825.816370	0.203370
826.005806	0.203548
826.195223	0.203765
826.384622	0.204039
826.574003	0.204354
826.763366	0.204564
826.952711	0.204456
827.142037	0.204643
827.331345	0.204981
827.520635	0.205439
827.709906	0.205768
827.899160	0.206162
828.088395	0.206588
828.277612	0.206798
828.466810	0.207104
828.655991	0.207809
828.845153	0.208069
829.034297	0.208609
829.223423	0.208907
829.412531	0.209298
829.601620	0.209435
829.790691	0.209607
829.979744	0.210029
830.168779	0.210553
830.357795	0.210824
830.546793	0.211215
830.735773	0.211239
830.924735	0.211657
831.113679	0.211901
831.302604	0.212255
831.491511	0.212628
831.680400	0.212867
831.869271	0.213067
832.058123	0.213348
832.246957	0.213768
832.435773	0.214116
832.624571	0.214307
832.813351	0.214590
833.002112	0.214783
833.190855	0.215255
833.379580	0.215521
833.568287	0.216027
833.756975	0.216094
833.945645	0.216308
834.134297	0.216394
834.322931	0.216784
834.511547	0.216936
834.700144	0.217285
834.888723	0.217270
835.077284	0.217361
835.265826	0.217224
835.454351	0.217686
835.642857	0.217976
835.831345	0.218319
836.019815	0.218681
836.208266	0.219210
836.396699	0.219655
836.585114	0.220147
836.773511	0.220632
836.961890	0.221251
837.150250	0.221844
837.338592	0.221955
837.526916	0.222600
837.715222	0.222778
837.903510	0.223136
838.091779	0.223740
838.280030	0.224026
838.468263	0.224604
838.656477	0.224958
838.844674	0.225229
839.032852	0.225923
839.221012	0.226022
839.409153	0.226493
839.597277	0.226737
839.785382	0.226920
839.973469	0.227291
840.161538	0.227418
840.349589	0.227351
840.537621	0.227554
840.725635	0.227755
840.913631	0.227914
841.101609	0.228306
841.289568	0.228753
841.477509	0.228923
841.665432	0.228930
841.853337	0.229151
842.041224	0.229969
842.229092	0.230337
842.416942	0.230711
842.604774	0.231416
842.792588	0.231701
842.980383	0.232142
843.168160	0.232553
843.355919	0.232943
843.543660	0.233521
843.731382	0.233714
843.919087	0.233653
844.106773	0.234094
844.294441	0.234466
844.482090	0.235008
844.669722	0.235280
844.857335	0.235701
845.044930	0.236110
845.232507	0.236204
845.420065	0.236709
845.607605	0.237211
845.795127	0.237536
845.982631	0.237811
846.170117	0.238027
846.357584	0.238186
846.545033	0.238621
846.732464	0.239048
846.919877	0.239738
847.107272	0.239585
847.294648	0.240357
847.482006	0.240193
847.669346	0.240426
847.856667	0.240574
848.043971	0.240980
848.231256	0.241311
848.418523	0.241510
848.605771	0.241383
848.793002	0.242076
848.980214	0.242442
849.167408	0.243105
849.354584	0.243672
849.541742	0.244046
849.728881	0.244861
849.916002	0.245044
850.103105	0.245701
850.290190	0.246171
850.477256	0.246517
850.664304	0.246593
850.851334	0.247062
851.038346	0.247530
851.225340	0.248073
851.412315	0.247917
851.599272	0.248518
851.786211	0.248732
851.973132	0.249374
852.160034	0.249661
852.346918	0.250043
852.533784	0.250433
852.720632	0.250511
852.907462	0.250656
853.094273	0.251152
853.281066	0.251096
853.467841	0.251409
853.654598	0.251710
853.841336	0.252164
854.028056	0.252686
854.214758	0.253101
854.401442	0.253554
854.588107	0.254115
854.774755	0.254252
854.961384	0.254824
855.147995	0.255176
855.334587	0.255270
855.521162	0.255996
855.707718	0.256055
855.894256	0.256094
856.080775	0.256520
856.267277	0.256865
856.453760	0.257383
856.640225	0.257739
856.826672	0.258304
857.013101	0.258860
857.199511	0.258728
857.385903	0.259050
857.572277	0.259218
857.758633	0.259446
857.944970	0.259568
858.131290	0.259769
858.317591	0.260028
858.503873	0.260178
858.690138	0.260452
858.876384	0.260468
859.062612	0.260962
859.248822	0.261655
859.435014	0.262018
859.621188	0.262309
859.807343	0.262686
859.993480	0.262741
860.179599	0.262974
860.365699	0.263274
860.551781	0.263794
860.737846	0.264112
860.923891	0.264304
861.109919	0.264362
861.295929	0.264642
861.481920	0.265065
861.667893	0.265494
861.853848	0.266169
862.039784	0.266423
862.225702	0.266722
862.411603	0.267199
862.597484	0.267479
862.783348	0.267981
862.969193	0.268359
863.155021	0.268789
863.340830	0.269313
863.526620	0.269348
863.712393	0.269729
863.898147	0.270178
864.083883	0.270552
864.269601	0.270524
864.455301	0.270942
864.640982	0.271348
864.826645	0.271405
865.012290	0.271825
865.197917	0.271469
865.383526	0.271228
865.569116	0.271076
865.754688	0.270636
865.940242	0.271110
866.125777	0.270924
866.311295	0.271072
866.496794	0.271085
866.682275	0.270772
866.867737	0.271696
867.053182	0.272469
867.238608	0.272827
867.424016	0.273426
867.609406	0.273427
867.794778	0.273585
867.980131	0.273800
868.165466	0.274289
868.350783	0.274961
868.536082	0.274966
868.721362	0.275228
868.906625	0.275750
869.091869	0.275891
869.277094	0.276439
869.462302	0.276929
869.647491	0.277068
869.832662	0.277060
870.017815	0.277238
870.202950	0.277133
870.388066	0.277509
870.573165	0.277747
870.758245	0.278198
870.943306	0.278460
871.128350	0.278422
871.313375	0.278733
871.498382	0.278960
871.683371	0.279071
871.868342	0.279920
872.053294	0.279818
872.238229	0.279543
872.423144	0.279529
872.608042	0.279762
872.792922	0.280258
872.977783	0.280341
873.162626	0.280870
873.347451	0.281008
873.532258	0.280976
873.717046	0.281264
873.901816	0.281497
874.086568	0.281831
874.271302	0.281887
874.456017	0.282328
874.640715	0.282865
874.825394	0.282736
875.010055	0.282661
875.194697	0.283126
875.379322	0.283433
875.563928	0.283794
875.748516	0.283945
875.933085	0.284140
876.117637	0.284154
876.302170	0.284231
876.486685	0.284757
876.671182	0.285415
876.855661	0.285286
877.040121	0.285309
877.224563	0.285514
877.408987	0.285783
877.593393	0.285666
877.777780	0.285654
877.962150	0.285656
878.146501	0.285600
878.330833	0.285513
878.515148	0.285733
878.699444	0.285848
878.883722	0.285881
879.067982	0.285824
879.252224	0.286286
879.436447	0.286600
879.620653	0.286504
879.804840	0.286539
879.989008	0.286410
880.173159	0.286259
880.357291	0.286076
880.541405	0.286335
880.725501	0.286887
880.909579	0.286600
881.093638	0.286624
881.277680	0.286694
881.461703	0.286950
881.645707	0.287161
881.829694	0.287247
882.013662	0.287608
882.197612	0.287581
882.381544	0.287005
882.565458	0.287511
882.749353	0.287339
882.933230	0.287452
883.117089	0.287176
883.300930	0.287239
883.484753	0.287625
883.668557	0.287266
883.852343	0.287119
884.036111	0.287365
884.219861	0.287206
884.403592	0.287455
884.587305	0.287636
884.771000	0.287901
884.954677	0.288072
885.138335	0.287909
885.321976	0.288251
885.505598	0.288600
885.689201	0.288665
885.872787	0.288399
886.056354	0.288535
886.239904	0.288976
886.423434	0.289122
886.606947	0.288915
886.790442	0.289024
886.973918	0.289169
887.157376	0.289521
887.340816	0.289266
887.524237	0.289943
887.707641	0.289794
887.891026	0.289074
888.074393	0.288855
888.257741	0.288963
888.441072	0.289045
888.624384	0.288880
888.807678	0.288954
888.990954	0.289069
889.174211	0.289136
889.357451	0.289157
889.540672	0.289572
889.723875	0.289109
889.907059	0.289133
890.090226	0.289539
890.273374	0.289709
890.456504	0.289067
890.639616	0.288685
890.822709	0.288406
891.005785	0.288277
891.188842	0.288226
891.371881	0.288668
891.554901	0.288523
891.737904	0.287810
891.920888	0.287352
892.103854	0.287367
892.286802	0.287904
892.469731	0.287594
892.652643	0.287638
892.835536	0.287686
893.018410	0.287601
893.201267	0.287511
893.384106	0.287320
893.566926	0.287463
893.749728	0.287265
893.932511	0.287097
894.115277	0.287443
894.298024	0.287364
894.480753	0.287168
894.663464	0.287400
894.846157	0.287679
895.028831	0.288064
895.211487	0.288237
895.394125	0.288483
895.576745	0.288679
895.759346	0.288264
895.941930	0.288624
896.124495	0.288607
896.307041	0.288321
896.489570	0.288050
896.672080	0.287647
896.854573	0.287618
897.037046	0.288007
897.219502	0.287893
897.401940	0.287360
897.584359	0.286556
897.766760	0.286311
897.949143	0.286154
898.131507	0.286140
898.313854	0.286212
898.496182	0.285671
898.678492	0.285160
898.860783	0.284540
899.043057	0.285140
899.225312	0.284823
899.407549	0.284848
899.589768	0.285129
899.771968	0.285161
899.954151	0.285125
900.136315	0.285150
900.318461	0.284498
900.500588	0.284565
900.682698	0.284168
900.864789	0.284373
901.046862	0.283704
901.228917	0.283285
901.410953	0.282374
901.592971	0.281931
901.774972	0.281593
901.956953	0.281342
902.138917	0.280990
902.320862	0.280417
902.502790	0.280217
902.684699	0.280146
902.866589	0.279754
903.048462	0.279737
903.230316	0.280053
903.412152	0.280209
903.593970	0.280038
903.775770	0.279898
903.957551	0.279631
904.139314	0.279142
904.321059	0.279162
904.502786	0.278407
904.684494	0.278191
904.866185	0.276843
905.047857	0.276157
905.229510	0.276413
905.411146	0.276285
905.592763	0.275951
905.774363	0.275862
905.955943	0.275256
906.137506	0.275298
906.319051	0.274777
906.500577	0.274819
906.682085	0.274353
906.863575	0.273923
907.045046	0.273148
907.226500	0.272776
907.407935	0.272309
907.589352	0.271957
907.770750	0.271471
907.952131	0.270821
908.133493	0.270455
908.314837	0.270426
908.496163	0.269957
908.677470	0.269493
908.858760	0.268987
909.040031	0.269037
909.221284	0.268662
909.402518	0.268074
909.583735	0.268234
909.764933	0.267794
909.946113	0.267247
910.127275	0.266632
910.308418	0.266496
910.489544	0.266780
910.670651	0.265805
910.851740	0.265946
911.032810	0.266641
911.213863	0.266231
911.394897	0.266136
911.575913	0.265545
911.756911	0.265197
911.937890	0.265173
912.118851	0.264597
912.299794	0.264264
912.480719	0.263304
912.661626	0.262293
912.842514	0.262222
913.023384	0.261583
913.204236	0.261689
913.385070	0.261417
913.565886	0.260774
913.746683	0.260151
913.927462	0.259654
914.108223	0.258949
914.288965	0.258693
914.469690	0.257715
914.650396	0.257975
914.831084	0.257223
915.011754	0.256795
915.192405	0.256104
915.373038	0.255516
915.553653	0.255763
915.734250	0.255714
915.914829	0.254707
916.095389	0.254706
916.275931	0.253598
916.456455	0.252801
916.636961	0.252161
916.817448	0.251871
916.997917	0.251814
917.178368	0.251435
917.358801	0.250759
917.539216	0.250273
917.719612	0.249318
917.899990	0.248775
918.080350	0.248992
918.260692	0.248639
918.441015	0.248190
918.621320	0.247809
918.801607	0.246818
918.981876	0.247096
919.162127	0.246458
919.342359	0.246389
919.522573	0.246344
919.702769	0.245278
919.882947	0.244977
920.063106	0.244828
920.243247	0.244434
920.423370	0.243931
920.603475	0.242685
920.783562	0.242876
920.963630	0.242386
921.143680	0.241429
921.323712	0.241402
921.503725	0.240818
921.683721	0.240294
921.863698	0.239497
922.043657	0.238963
922.223598	0.238318
922.403520	0.237934
922.583424	0.236848
922.763311	0.236484
922.943178	0.235205
923.123028	0.234116
923.302859	0.232995
923.482673	0.232548
923.662467	0.232358
923.842244	0.232067
924.022003	0.230682
924.201743	0.229997
924.381465	0.229064
924.561169	0.228687
924.740854	0.227676
924.920522	0.226672
925.100171	0.225553
925.279802	0.224127
925.459414	0.223557
925.639009	0.222994
925.818585	0.222708
925.998143	0.222159
926.177683	0.221319
926.357205	0.221831
926.536708	0.222001
926.716193	0.222066
926.895660	0.221142
927.075109	0.219684
927.254539	0.219139
927.433951	0.218356
927.613345	0.217599
927.792721	0.216956
927.972079	0.216151
928.151418	0.214843
928.330739	0.213389
928.510042	0.212553
928.689327	0.212634
928.868593	0.211662
929.047841	0.211000
929.227071	0.209927
929.406283	0.209209
929.585476	0.207960
929.764652	0.207083
929.943809	0.206394
930.122948	0.205930
930.302068	0.205001
930.481171	0.205083
930.660255	0.204184
930.839321	0.203973
931.018369	0.203494
931.197398	0.202772
931.376409	0.201727
931.555402	0.201599
931.734377	0.201118
931.913334	0.199591
932.092272	0.198197
932.271192	0.197707
932.450094	0.195986
932.628978	0.195482
932.807844	0.194620
932.986691	0.194969
933.165520	0.193830
933.344331	0.192985
933.523123	0.192428
933.701898	0.191714
933.880654	0.191278
934.059392	0.191455
934.238111	0.190495
934.416813	0.189291
934.595496	0.187809
934.774161	0.186849
934.952808	0.186514
935.131437	0.186328
935.310047	0.185600
935.488639	0.183676
935.667213	0.182731
935.845769	0.182227
936.024306	0.181691
936.202825	0.180355
936.381326	0.179556
936.559809	0.177814
936.738274	0.177023
936.916720	0.176553
937.095148	0.176633
937.273558	0.175466
937.451950	0.173898
937.630323	0.172976
937.808678	0.172561
937.987015	0.171814
938.165334	0.171625
938.343635	0.169652
938.521917	0.167857
938.700181	0.166475
938.878427	0.165678
939.056655	0.164763
939.234864	0.164042
939.413055	0.162662
939.591228	0.161810
939.769383	0.161201
939.947519	0.160940
940.125638	0.160151
940.303738	0.159524
940.481820	0.159145
940.659883	0.157499
940.837929	0.156444
941.015956	0.156340
941.193965	0.155498
941.371955	0.153510
941.549928	0.153484
941.727882	0.152480
941.905818	0.151027
942.083736	0.150030
942.261636	0.150501
942.439517	0.150114
942.617380	0.148834
942.795225	0.148487
942.973052	0.148947
943.150860	0.147225
943.328651	0.147061
943.506423	0.147740
943.684176	0.146580
943.861912	0.144957
944.039629	0.143991
944.217328	0.143532
944.395009	0.142747
944.572672	0.140967
944.750317	0.140962
944.927943	0.139323
945.105551	0.137192
945.283141	0.136914
945.460712	0.137695
945.638265	0.136535
945.815801	0.135913
945.993317	0.134366
946.170816	0.132954
946.348297	0.131215
946.525759	0.130669
946.703203	0.129535
946.880629	0.128549
947.058036	0.125592
947.235425	0.125661
947.412797	0.124456
947.590149	0.123709
947.767484	0.123821
947.944800	0.123642
948.122099	0.122185
948.299379	0.122054
948.476640	0.120448
948.653884	0.119854
948.831109	0.118678
949.008316	0.117760
949.185505	0.116103
949.362676	0.114173
949.539828	0.112924
949.716962	0.113038
949.894078	0.112224
950.071176	0.112847
950.248256	0.112966
950.425317	0.111317
950.602360	0.111471
950.779385	0.111044
950.956391	0.112640
951.133380	0.112274
951.310350	0.110597
951.487302	0.108753
951.664235	0.108392
951.841151	0.108918
952.018048	0.109764
952.194927	0.108489
952.371788	0.107593
952.548631	0.104468
952.725455	0.103777
952.902261	0.104139
953.079049	0.104467
953.255819	0.103422
953.432570	0.101701
953.609303	0.098089
953.786018	0.097305
953.962715	0.096318
954.139394	0.096297
954.316054	0.096487
954.492696	0.096018
954.669320	0.095363
954.845926	0.093246
955.022513	0.090367
955.199083	0.091827
955.375634	0.090406
955.552166	0.090211
955.728681	0.089537
955.905177	0.086636
956.081655	0.085262
956.258115	0.085274
956.434557	0.085255
956.610980	0.088152
956.787385	0.088138
956.963772	0.089612
957.140141	0.087816
957.316492	0.087538
957.492824	0.088868
957.669138	0.089488
957.845434	0.087742
958.021712	0.087377
958.197971	0.085626
958.374212	0.083515
958.550435	0.082885
958.726640	0.083552
958.902826	0.083348
959.078995	0.083324
959.255145	0.082661
959.431277	0.082372
959.607390	0.081004
959.783486	0.079419
959.959563	0.080351
960.135622	0.081031
960.311662	0.080716
960.487685	0.082160
960.663689	0.080963
960.839675	0.081787
961.015643	0.081820
961.191593	0.083049
961.367524	0.083217
961.543437	0.082263
961.719332	0.078959
961.895209	0.078481
962.071067	0.074872
962.246907	0.074020
962.422730	0.074116
962.598533	0.074809
962.774319	0.075273
962.950086	0.075910
963.125835	0.075541
963.301566	0.077996
963.477279	0.077177
963.652973	0.076743
963.828650	0.078915
964.004308	0.077457
964.179947	0.077661
964.355569	0.075404
964.531172	0.076573
964.706757	0.077353
964.882324	0.076515
965.057873	0.077532
965.233403	0.079979
965.408916	0.077138
965.584410	0.077603
965.759885	0.076101
965.935343	0.076998
966.110782	0.076191
966.286203	0.075528
966.461606	0.075367
966.636991	0.076774
966.812357	0.076660
966.987705	0.077491
967.163035	0.075497
967.338347	0.075471
967.513641	0.075325
967.688916	0.075723
967.864173	0.074769
968.039412	0.073382
968.214632	0.071494
968.389835	0.069509
968.565019	0.071216
968.740185	0.070992
968.915333	0.071553
969.090462	0.071854
969.265573	0.070752
969.440667	0.073025
969.615741	0.074186
969.790798	0.074688
969.965836	0.076549
970.140856	0.074939
970.315858	0.075527
970.490842	0.074494
970.665808	0.074051
970.840755	0.073463
971.015684	0.073390
971.190595	0.074117
971.365487	0.075190
971.540362	0.075398
971.715218	0.076474
971.890056	0.076235
972.064875	0.075518
972.239677	0.076676
972.414460	0.078297
972.589225	0.076237
972.763972	0.076040
972.938700	0.075771
973.113411	0.075400
973.288103	0.073575
973.462777	0.073562
973.637432	0.074886
973.812070	0.073629
973.986689	0.074339
974.161290	0.076343
974.335873	0.075386
974.510437	0.073691
974.684984	0.072314
974.859512	0.072616
975.034022	0.073353
975.208513	0.073920
975.382987	0.075781
975.557442	0.074139
975.731879	0.072704
975.906298	0.074529
976.080698	0.076847
976.255080	0.079485
976.429445	0.080399
976.603790	0.080869
976.778118	0.081584
976.952427	0.080541
977.126719	0.080371
977.300992	0.080685
977.475246	0.078997
977.649483	0.078372
977.823701	0.076997
977.997901	0.076833
978.172083	0.078670
978.346247	0.079805
978.520392	0.079495
978.694519	0.079898
978.868628	0.080685
979.042719	0.080252
979.216791	0.078862
979.390845	0.078392
979.564882	0.079687
979.738899	0.077357
979.912899	0.075611
980.086880	0.075239
980.260843	0.074551
980.434788	0.074298
980.608715	0.074397
980.782623	0.076351
980.956514	0.076607
981.130386	0.075470
981.304240	0.077264
981.478075	0.077816
981.651892	0.078061
981.825692	0.080392
981.999472	0.078997
982.173235	0.078357
982.346980	0.075478
982.520706	0.075718
982.694414	0.075091
982.868104	0.074574
983.041775	0.073947
983.215428	0.074151
983.389064	0.072976
983.562680	0.073992
983.736279	0.076146
983.909860	0.076611
984.083422	0.076201
984.256966	0.076257
984.430491	0.075062
984.603999	0.075573
984.777488	0.074870
984.950959	0.073748
985.124412	0.074070
985.297847	0.070234
985.471263	0.071308
985.644661	0.070722
985.818041	0.070646
985.991403	0.070749
986.164747	0.069907
986.338072	0.068879
986.511379	0.070973
986.684668	0.069928
986.857938	0.072015
987.031191	0.072121
987.204425	0.074242
987.377641	0.074656
987.550839	0.074790
987.724018	0.075234
987.897179	0.077154
988.070322	0.075732
988.243447	0.077172
988.416554	0.077765
988.589642	0.076262
988.762712	0.075677
988.935764	0.076340
989.108798	0.076620
989.281813	0.077849
989.454811	0.077374
989.627790	0.077648
989.800751	0.077854
989.973693	0.077826
990.146617	0.078256
990.319524	0.076507
990.492412	0.076319
990.665281	0.076124
990.838133	0.074712
991.010966	0.075339
991.183781	0.076543
991.356578	0.074249
991.529356	0.073485
991.702117	0.074640
991.874859	0.075253
992.047583	0.075226
992.220288	0.074571
992.392976	0.074764
992.565645	0.074847
992.738296	0.072612
992.910929	0.072731
993.083543	0.074411
993.256139	0.073045
993.428718	0.073170
993.601277	0.073635
993.773819	0.074671
993.946342	0.073820
994.118848	0.072170
994.291335	0.073298
994.463803	0.075841
994.636254	0.075098
994.808686	0.075600
994.981100	0.075280
995.153496	0.073422
995.325874	0.071990
995.498233	0.071681
995.670574	0.069297
995.842897	0.068069
996.015202	0.066509
996.187488	0.066270
996.359757	0.068167
996.532007	0.069961
996.704239	0.070781
996.876452	0.072125
997.048648	0.072353
997.220825	0.074565
997.392984	0.075785
997.565124	0.075296
997.737247	0.074821
997.909351	0.072415
998.081437	0.071410
998.253505	0.071500
998.425554	0.069390
998.597586	0.069224
998.769599	0.070706
998.941594	0.070546
999.113571	0.072147
999.285529	0.073704
999.457469	0.074137
999.629391	0.073894
999.801295	0.074570
999.973181	0.076649
1000.145048	0.076630
1000.316897	0.075306
1000.488728	0.075861
1000.660541	0.074381
1000.832335	0.073210
1001.004111	0.073799
1001.175869	0.073849
1001.347609	0.072879
1001.519331	0.072018
1001.691034	0.073306
1001.862719	0.073915
1002.034386	0.072866
1002.206035	0.072855
1002.377665	0.072387
1002.549277	0.072560
1002.720871	0.070701
1002.892447	0.071926
1003.064004	0.070777
1003.235544	0.068978
1003.407065	0.068334
1003.578568	0.068191
1003.750052	0.069490
1003.921519	0.068736
1004.092967	0.068321
1004.264397	0.071058
1004.435809	0.068647
1004.607202	0.071112
1004.778577	0.073522
1004.949934	0.074622
1005.121273	0.074371
1005.292594	0.072767
1005.463896	0.073454
1005.635180	0.073307
1005.806446	0.072474
1005.977694	0.073133
1006.148923	0.071835
1006.320135	0.070808
1006.491328	0.070859
1006.662503	0.070442
1006.833659	0.071643
1007.004798	0.071225
1007.175918	0.071291
1007.347020	0.069908
1007.518103	0.070422
1007.689169	0.072133
1007.860216	0.072210
1008.031245	0.070181
1008.202256	0.071166
1008.373248	0.071819
1008.544223	0.072709
1008.715179	0.073393
1008.886117	0.075207
1009.057036	0.076148
1009.227938	0.075193
1009.398821	0.074208
1009.569686	0.076795
1009.740533	0.077248
1009.911361	0.075690
1010.082172	0.075154
1010.252964	0.074507
1010.423738	0.074544
1010.594493	0.074727
1010.765231	0.073239
1010.935950	0.073378
1011.106651	0.071584
1011.277334	0.070483
1011.447998	0.071895
1011.618645	0.071927
1011.789273	0.071117
1011.959882	0.070571
1012.130474	0.070552
1012.301048	0.070645
1012.471603	0.072010
1012.642140	0.073379
1012.812658	0.072054
1012.983159	0.071314
1013.153641	0.070335
1013.324105	0.071979
1013.494551	0.071458
1013.664979	0.070763
1013.835388	0.072006
1014.005779	0.070918
1014.176152	0.070067
1014.346507	0.072991
1014.516843	0.073236
1014.687162	0.074584
1014.857462	0.073867
1015.027744	0.075185
1015.198007	0.074095
1015.368252	0.072952
1015.538480	0.074464
1015.708689	0.074456
1015.878879	0.072495
1016.049052	0.071015
1016.219206	0.072642
1016.389342	0.073217
1016.559460	0.069907
1016.729559	0.068893
1016.899641	0.069085
1017.069704	0.068666
1017.239749	0.068828
1017.409775	0.070868
1017.579784	0.072730
1017.749774	0.069041
1017.919746	0.068197
1018.089700	0.071144
1018.259635	0.071058
1018.429553	0.071038
1018.599452	0.069948
1018.769333	0.070451
1018.939195	0.068677
1019.109040	0.066937
1019.278866	0.068181
1019.448674	0.067658
1019.618464	0.065959
1019.788235	0.067942
1019.957989	0.068927
1020.127724	0.069581
1020.297441	0.069129
1020.467139	0.068080
1020.636820	0.068319
1020.806482	0.068054
1020.976126	0.068870
1021.145752	0.069382
1021.315359	0.071271
1021.484948	0.070324
1021.654519	0.068244
1021.824072	0.067972
1021.993607	0.068476
1022.163123	0.067106
1022.332621	0.067702
1022.502101	0.067470
1022.671563	0.067585
1022.841007	0.065517
1023.010432	0.067006
1023.179839	0.068215
1023.349228	0.066740
1023.518598	0.067303
1023.687951	0.068983
1023.857285	0.068555
1024.026601	0.068179
1024.195899	0.069729
1024.365178	0.067132
1024.534439	0.064875
1024.703682	0.065292
1024.872907	0.067456
1025.042114	0.066809
1025.211302	0.068393
1025.380472	0.070089
1025.549624	0.070308
1025.718758	0.067878
1025.887873	0.068793
1026.056970	0.068766
1026.226049	0.069531
1026.395110	0.069195
1026.564153	0.069210
1026.733177	0.068079
1026.902183	0.065739
1027.071171	0.066100
1027.240141	0.067368
1027.409092	0.068759
1027.578026	0.069547
1027.746940	0.068452
1027.915837	0.068196
1028.084716	0.067978
1028.253576	0.067321
1028.422418	0.068030
1028.591242	0.067287
1028.760048	0.065716
1028.928835	0.064948
1029.097604	0.063318
1029.266355	0.063396
1029.435088	0.063942
1029.603803	0.066719
1029.772499	0.065091
1029.941177	0.064303
1030.109837	0.065615
1030.278478	0.067777
1030.447102	0.066877
1030.615707	0.068017
1030.784294	0.068495
1030.952863	0.068365
1031.121413	0.067027
1031.289945	0.069027
1031.458460	0.070693
1031.626955	0.068970
1031.795433	0.067419
1031.963892	0.067686
1032.132334	0.067065
1032.300756	0.065504
1032.469161	0.065759
1032.637548	0.065511
1032.805916	0.065139
1032.974266	0.065586
1033.142598	0.066776
1033.310911	0.067079
1033.479207	0.069723
1033.647484	0.071336
1033.815743	0.071753
1033.983983	0.071284
1034.152206	0.070978
1034.320410	0.070140
1034.488596	0.069175
1034.656764	0.069232
1034.824914	0.069774
1034.993045	0.067769
1035.161158	0.067517
1035.329253	0.068091
1035.497330	0.067716
1035.665388	0.067153
1035.833428	0.067368
1036.001450	0.067393
1036.169454	0.066483
1036.337440	0.065406
1036.505407	0.066599
1036.673356	0.064570
1036.841287	0.063840
1037.009200	0.063746
1037.177094	0.063305
1037.344970	0.063390
1037.512828	0.062169
1037.680668	0.061345
1037.848489	0.063823
1038.016293	0.063077
1038.184078	0.064385
1038.351845	0.066251
1038.519593	0.065882
1038.687324	0.067628
1038.855036	0.069260
1039.022730	0.069891
1039.190406	0.072080
1039.358063	0.072610
1039.525702	0.073452
1039.693323	0.074130
1039.860926	0.072577
1040.028511	0.074013
1040.196077	0.071638
1040.363625	0.071756
1040.531155	0.074339
1040.698667	0.073192
1040.866161	0.071616
1041.033636	0.068044
1041.201093	0.068064
1041.368532	0.068627
1041.535952	0.067317
1041.703355	0.069567
1041.870739	0.068904
1042.038105	0.066768
1042.205452	0.067024
1042.372782	0.067226
1042.540093	0.070483
1042.707386	0.070001
1042.874661	0.070124
1043.041918	0.069550
1043.209156	0.068160
1043.376376	0.067020
1043.543578	0.066654
1043.710762	0.066490
1043.877927	0.065896
1044.045074	0.065607
1044.212203	0.064998
1044.379314	0.063435
1044.546407	0.065270
1044.713481	0.066642
1044.880537	0.066625
1045.047575	0.067990
1045.214595	0.066327
1045.381596	0.066299
1045.548579	0.066199
1045.715544	0.064785
1045.882491	0.066298
1046.049420	0.065733
1046.216330	0.065381
1046.383222	0.065018
1046.550096	0.062418
1046.716951	0.062653
1046.883789	0.060790
1047.050608	0.061144
1047.217409	0.061935
1047.384192	0.061836
1047.550956	0.061342
1047.717703	0.061735
1047.884431	0.063998
1048.051140	0.064673
1048.217832	0.066069
1048.384505	0.068718
1048.551161	0.069154
1048.717798	0.071699
1048.884416	0.072197
1049.051017	0.071487
1049.217599	0.071943
1049.384163	0.070326
1049.550709	0.072479
1049.717237	0.072983
1049.883746	0.072464
1050.050237	0.072374
1050.216710	0.072150
1050.383165	0.071294
1050.549601	0.072524
1050.716019	0.071378
1050.882420	0.070354
1051.048801	0.069315
1051.215165	0.070096
1051.381510	0.069023
1051.547837	0.069123
1051.714146	0.069113
1051.880437	0.068962
1052.046709	0.070787
1052.212964	0.071982
1052.379200	0.072639
1052.545417	0.073249
1052.711617	0.071830
1052.877798	0.071804
1053.043961	0.071811
1053.210106	0.070725
1053.376233	0.072335
1053.542341	0.069979
1053.708432	0.068857
1053.874504	0.070695
1054.040557	0.069128
1054.206593	0.068639
1054.372610	0.068893
1054.538609	0.068365
1054.704590	0.067606
1054.870553	0.066048
1055.036497	0.066120
1055.202424	0.063726
1055.368331	0.060952
1055.534221	0.060019
1055.700093	0.060332
1055.865946	0.062112
1056.031781	0.059680
1056.197598	0.063708
1056.363397	0.065226
1056.529177	0.063202
1056.694939	0.065704
1056.860683	0.067776
1057.026409	0.069981
1057.192116	0.070595
1057.357806	0.069577
1057.523477	0.071836
1057.689130	0.069427
1057.854764	0.068459
1058.020381	0.067657
1058.185979	0.068350
1058.351559	0.068941
1058.517120	0.070577
1058.682664	0.070932
1058.848189	0.071729
1059.013696	0.071660
1059.179185	0.070041
1059.344656	0.070995
1059.510108	0.074703
1059.675542	0.074271
1059.840958	0.074081
1060.006356	0.073407
1060.171735	0.071835
1060.337096	0.069101
1060.502439	0.069233
1060.667764	0.072699
1060.833071	0.071080
1060.998359	0.069412
1061.163629	0.070384
1061.328881	0.071814
1061.494115	0.072755
1061.659330	0.073108
1061.824527	0.074346
1061.989706	0.075769
1062.154867	0.073397
1062.320010	0.075442
1062.485134	0.075288
1062.650240	0.072921
1062.815328	0.070863
1062.980398	0.069675
1063.145449	0.070578
1063.310482	0.071907
1063.475497	0.069965
1063.640494	0.067977
1063.805473	0.066009
1063.970433	0.068519
1064.135375	0.069430
1064.300299	0.068776
1064.465204	0.066176
1064.630092	0.064134
1064.794961	0.061920
1064.959812	0.062647
1065.124645	0.063405
1065.289459	0.065448
1065.454256	0.064401
1065.619034	0.064089
1065.783793	0.065571
1065.948535	0.067965
1066.113258	0.069002
1066.277964	0.070220
1066.442651	0.069285
1066.607319	0.071284
1066.771970	0.070678
1066.936602	0.070585
1067.101216	0.072105
1067.265812	0.071726
1067.430389	0.069436
1067.594949	0.070372
1067.759490	0.070343
1067.924013	0.070664
1068.088518	0.068517
1068.253004	0.067940
1068.417472	0.068634
1068.581922	0.065952
1068.746354	0.064717
1068.910768	0.066542
1069.075163	0.065900
1069.239540	0.065135
1069.403899	0.064780
1069.568240	0.064642
1069.732562	0.064161
1069.896866	0.064937
1070.061152	0.065214
1070.225420	0.064794
1070.389670	0.064267
1070.553901	0.066781
1070.718114	0.069534
1070.882309	0.069248
1071.046486	0.071380
1071.210644	0.071477
1071.374784	0.070788
1071.538906	0.072865
1071.703010	0.073822
1071.867096	0.074262
1072.031163	0.073001
1072.195212	0.069406
1072.359243	0.070883
1072.523256	0.072013
1072.687250	0.073825
1072.851226	0.073664
1073.015184	0.074402
1073.179124	0.076906
1073.343045	0.076186
1073.506949	0.074358
1073.670834	0.075332
1073.834701	0.074785
1073.998549	0.073623
1074.162380	0.072200
1074.326192	0.070448
1074.489986	0.070636
1074.653761	0.067167
1074.817519	0.065938
1074.981258	0.067444
1075.144979	0.069742
1075.308682	0.071098
1075.472367	0.070863
1075.636033	0.070309
1075.799681	0.073289
1075.963311	0.072745
1076.126923	0.073279
1076.290516	0.076213
1076.454092	0.074427
1076.617649	0.073539
1076.781187	0.072695
1076.944708	0.072615
1077.108210	0.072042
1077.271695	0.069664
1077.435160	0.069366
1077.598608	0.071530
1077.762038	0.074038
1077.925449	0.076300
1078.088842	0.074986
1078.252217	0.074610
1078.415573	0.073938
1078.578912	0.073737
1078.742232	0.072641
1078.905534	0.072698
1079.068817	0.071095
1079.232083	0.068390
1079.395330	0.068399
1079.558559	0.068834
1079.721770	0.065687
1079.884962	0.066066
1080.048136	0.066825
1080.211293	0.069257
1080.374430	0.069392
1080.537550	0.070035
1080.700651	0.070085
1080.863735	0.069576
1081.026800	0.069604
1081.189846	0.072647
1081.352875	0.071650
1081.515885	0.071646
1081.678877	0.070045
1081.841851	0.069460
1082.004807	0.068159
1082.167744	0.066696
1082.330663	0.066743
1082.493564	0.067904
1082.656447	0.067940
1082.819312	0.066863
1082.982158	0.067603
1083.144986	0.068278
1083.307796	0.069129
1083.470587	0.067208
1083.633361	0.071423
1083.796116	0.071313
1083.958853	0.071201
1084.121571	0.071039
1084.284272	0.074492
1084.446954	0.071214
1084.609618	0.070915
1084.772264	0.071184
1084.934892	0.073798
1085.097501	0.069998
1085.260092	0.069886
1085.422665	0.067482
1085.585220	0.068679
1085.747756	0.065801
1085.910274	0.069672
1086.072774	0.071276
1086.235256	0.066480
1086.397720	0.065046
1086.560165	0.066031
1086.722592	0.064470
1086.885001	0.066549
1087.047392	0.065706
1087.209764	0.067679
1087.372119	0.065321
1087.534455	0.063228
1087.696772	0.066517
1087.859072	0.066907
1088.021353	0.067966
1088.183616	0.070713
1088.345861	0.071688
1088.508088	0.071341
1088.670296	0.073336
1088.832486	0.076446
1088.994658	0.076729
1089.156812	0.075662
1089.318948	0.077261
1089.481065	0.077004
1089.643164	0.073043
1089.805245	0.074270
1089.967308	0.075736
1090.129352	0.073215
1090.291378	0.070421
1090.453386	0.072965
1090.615376	0.074140
1090.777347	0.073894
1090.939301	0.070906
1091.101236	0.075435
1091.263153	0.072489
1091.425051	0.070327
1091.586932	0.069989
1091.748794	0.071428
1091.910638	0.070794
1092.072463	0.071538
1092.234271	0.073135
1092.396060	0.073923
1092.557831	0.075957
1092.719584	0.076814
1092.881319	0.078579
1093.043035	0.081922
1093.204733	0.081891
1093.366413	0.080738
1093.528075	0.079611
1093.689718	0.079468
1093.851343	0.080376
1094.012950	0.075385
1094.174539	0.075188
1094.336110	0.075227
1094.497662	0.073106
1094.659196	0.072918
1094.820712	0.074593
1094.982210	0.076579
1095.143689	0.075898
1095.305151	0.076439
1095.466594	0.077370
1095.628018	0.076748
1095.789425	0.075409
1095.950813	0.075452
1096.112183	0.076049
1096.273535	0.074778
1096.434869	0.074606
1096.596184	0.075959
1096.757482	0.075707
1096.918761	0.078066
1097.080021	0.075571
1097.241264	0.077387
1097.402488	0.076218
1097.563694	0.076457
1097.724882	0.077941
1097.886052	0.074693
1098.047203	0.072258
1098.208336	0.070486
1098.369451	0.069691
1098.530548	0.071576
1098.691627	0.069678
1098.852687	0.071326
1099.013729	0.071026
1099.174753	0.066299
1099.335758	0.067717
1099.496746	0.066167
1099.657715	0.068194
1099.818666	0.068846
1099.979599	0.069251
1100.140513	0.072625
1100.301409	0.070892
1100.462287	0.070865
1100.623147	0.074564
1100.783989	0.073343
1100.944812	0.074864
1101.105617	0.074323
1101.266404	0.072702
1101.427173	0.074428
1101.587923	0.072430
1101.748656	0.073294
1101.909370	0.072722
1102.070066	0.071140
1102.230743	0.073871
1102.391403	0.077902
1102.552044	0.080167
1102.712667	0.078892
1102.873271	0.074537
1103.033858	0.072687
1103.194426	0.072495
1103.354976	0.073409
1103.515508	0.075591
1103.676021	0.075418
1103.836517	0.073843
1103.996994	0.069828
1104.157453	0.070334
1104.317893	0.073139
1104.478316	0.073696
1104.638720	0.073082
1104.799106	0.073319
1104.959474	0.073956
1105.119823	0.073518
1105.280155	0.069908
1105.440468	0.068405
1105.600763	0.068207
1105.761039	0.070711
1105.921298	0.073184
1106.081538	0.073536
1106.241760	0.071727
1106.401964	0.069832
1106.562149	0.069077
1106.722316	0.073763
1106.882465	0.078093
1107.042596	0.075187
1107.202709	0.073291
1107.362803	0.075053
1107.522879	0.075253
1107.682937	0.076433
1107.842977	0.075504
1108.002999	0.075998
1108.163002	0.074312
1108.322987	0.074607
1108.482954	0.079452
1108.642902	0.078738
1108.802833	0.074568
1108.962745	0.073498
1109.122639	0.072781
1109.282515	0.076367
1109.442372	0.077665
1109.602211	0.076518
1109.762032	0.075460
1109.921835	0.074452
1110.081620	0.075180
1110.241386	0.077189
1110.401134	0.076314
1110.560864	0.074680
1110.720576	0.070830
1110.880269	0.068231
1111.039945	0.069427
1111.199602	0.066087
1111.359240	0.065829
1111.518861	0.066428
1111.678463	0.064991
1111.838047	0.066687
1111.997613	0.075127
1112.157161	0.078978
1112.316690	0.081567
1112.476202	0.077881
1112.635695	0.081574
1112.795169	0.082215
1112.954626	0.080647
1113.114064	0.080696
1113.273484	0.079552
1113.432886	0.076309
1113.592270	0.074374
1113.751635	0.077033
1113.910983	0.079901
1114.070312	0.078248
1114.229622	0.077383
1114.388915	0.076162
1114.548189	0.075769
1114.707445	0.075137
1114.866683	0.071939
1115.025903	0.070205
1115.185104	0.063811
1115.344287	0.060586
1115.503452	0.063423
1115.662599	0.066033
1115.821727	0.066406
1115.980838	0.067899
1116.139930	0.071158
1116.299004	0.072226
1116.458059	0.074597
1116.617097	0.077877
1116.776116	0.079194
1116.935117	0.075859
1117.094099	0.072475
1117.253064	0.071393
1117.412010	0.075479
1117.570938	0.079043
1117.729848	0.076021
1117.888740	0.077204
1118.047613	0.075494
1118.206468	0.079317
1118.365305	0.082805
1118.524124	0.082738
1118.682924	0.084530
1118.841707	0.079532
1119.000471	0.077790
1119.159216	0.078287
1119.317944	0.075621
1119.476653	0.075906
1119.635344	0.075873
1119.794017	0.069816
1119.952672	0.073118
1120.111308	0.075992
1120.269927	0.075987
1120.428527	0.071982
1120.587108	0.072300
1120.745672	0.071495
1120.904217	0.072059
1121.062744	0.071011
1121.221253	0.076251
1121.379744	0.073077
1121.538216	0.070116
1121.696671	0.071105
1121.855107	0.072411
1122.013524	0.077970
1122.171924	0.080507
1122.330305	0.081558
1122.488668	0.080199
1122.647013	0.078147
1122.805340	0.081357
1122.963648	0.084791
1123.121938	0.084432
1123.280210	0.087295
1123.438464	0.084194
1123.596700	0.082267
1123.754917	0.077724
1123.913116	0.076483
1124.071297	0.080065
1124.229459	0.075638
1124.387604	0.074056
1124.545730	0.075429
1124.703838	0.074861
1124.861928	0.074586
1125.019999	0.075752
1125.178052	0.077716
1125.336088	0.078754
1125.494104	0.076921
1125.652103	0.079685
1125.810083	0.076590
1125.968045	0.078397
1126.125989	0.073889
1126.283915	0.075134
1126.441823	0.075011
1126.599712	0.072979
1126.757583	0.074760
1126.915436	0.067938
1127.073270	0.065930
1127.231087	0.064885
1127.388885	0.058213
1127.546665	0.059945
1127.704426	0.050380
1127.862170	0.051077
1128.019895	0.053176
1128.177602	0.046368
1128.335291	0.049926
1128.492961	0.050988
1128.650614	0.050427
1128.808248	0.058436
1128.965864	0.061283
1129.123461	0.070410
1129.281041	0.067658
1129.438602	0.066588
1129.596145	0.070375
1129.753670	0.071866
1129.911176	0.071458
1130.068665	0.076125
1130.226135	0.073229
1130.383587	0.071871
1130.541020	0.069472
1130.698436	0.074925
1130.855833	0.080570
1131.013212	0.084779
1131.170573	0.084747
1131.327915	0.085871
1131.485239	0.084890
1131.642545	0.086290
1131.799833	0.081627
1131.957103	0.081205
1132.114354	0.080582
1132.271588	0.078016
1132.428803	0.073377
1132.585999	0.075289
1132.743178	0.071756
1132.900338	0.072680
1133.057480	0.069236
1133.214604	0.070592
1133.371710	0.071646
1133.528797	0.068771
1133.685866	0.070196
1133.842917	0.079024
1133.999950	0.078246
1134.156964	0.078423
1134.313960	0.073776
1134.470938	0.070913
1134.627898	0.071844
1134.784840	0.073387
1134.941763	0.070300
1135.098668	0.067174
1135.255555	0.065229
1135.412424	0.066072
1135.569274	0.064854
1135.726107	0.067295
1135.882921	0.074391
1136.039716	0.076061
1136.196494	0.072514
1136.353253	0.072944
1136.509995	0.072532
1136.666717	0.066354
1136.823422	0.065538
1136.980109	0.067575
1137.136777	0.066640
1137.293427	0.062491
1137.450059	0.059266
1137.606672	0.067777
1137.763267	0.063792
1137.919844	0.063713
1138.076403	0.067609
1138.232944	0.068634
1138.389466	0.072775
1138.545971	0.077341
1138.702457	0.079333
1138.858924	0.083897
1139.015374	0.079478
1139.171805	0.084316
1139.328218	0.084155
1139.484613	0.084322
1139.640990	0.081502
1139.797348	0.075884
1139.953688	0.073733
1140.110010	0.075147
1140.266314	0.076510
1140.422600	0.072859
1140.578867	0.077648
1140.735116	0.082178
1140.891347	0.081424
1141.047559	0.081692
1141.203754	0.083183
1141.359930	0.078175
1141.516088	0.069368
1141.672228	0.062669
1141.828349	0.060940
1141.984452	0.057484
1142.140537	0.055324
1142.296604	0.052820
1142.452653	0.051804
1142.608683	0.053140
1142.764695	0.057207
1142.920689	0.064582
1143.076665	0.065732
1143.232622	0.068044
1143.388562	0.064474
1143.544483	0.064475
1143.700385	0.070461
1143.856270	0.070683
1144.012136	0.071241
1144.167985	0.073495
1144.323814	0.068995
1144.479626	0.072000
1144.635420	0.068692
1144.791195	0.067293
1144.946952	0.065684
1145.102691	0.059777
1145.258411	0.063903
1145.414113	0.063454
1145.569798	0.065571
1145.725463	0.067328
1145.881111	0.062751
1146.036741	0.070325
1146.192352	0.073198
1146.347945	0.072583
1146.503519	0.080107
1146.659076	0.079178
1146.814614	0.084640
1146.970134	0.081271
1147.125636	0.086837
1147.281120	0.086345
1147.436585	0.082654
1147.592032	0.080991
1147.747461	0.088250
1147.902872	0.082838
1148.058265	0.083552
1148.213639	0.082275
1148.368995	0.079811
1148.524333	0.069887
1148.679653	0.069689
1148.834954	0.077325
1148.990237	0.073297
1149.145502	0.066901
1149.300749	0.063640
1149.455977	0.052914
1149.611188	0.047793
1149.766380	0.051432
1149.921553	0.053812
1150.076709	0.054155
1150.231846	0.048323
1150.386966	0.050021
1150.542066	0.049995
1150.697149	0.056343
1150.852214	0.064614
1151.007260	0.059593
1151.162288	0.052954
1151.317298	0.049951
1151.472289	0.049925
1151.627263	0.045857
1151.782218	0.047867
1151.937155	0.050571
1152.092073	0.042172
1152.246974	0.039598
1152.401856	0.050370
1152.556720	0.050999
1152.711566	0.049418
1152.866393	0.057296
1153.021203	0.052579
1153.175994	0.055219
1153.330767	0.051659
1153.485521	0.060483
1153.640258	0.063550
1153.794976	0.053513
1153.949676	0.058365
1154.104358	0.070230
1154.259021	0.064901
1154.413667	0.079792
1154.568294	0.080385
1154.722903	0.081821
1154.877493	0.077170
1155.032066	0.082888
1155.186620	0.081706
1155.341156	0.088627
1155.495674	0.082818
1155.650173	0.079047
1155.804654	0.069936
1155.959118	0.072748
1156.113562	0.066813
1156.267989	0.062575
1156.422397	0.053636
1156.576788	0.054876
1156.731160	0.044134
1156.885513	0.034268
1157.039849	0.040532
1157.194166	0.038530
1157.348465	0.035136
1157.502746	0.045585
1157.657009	0.047615
1157.811253	0.045660
1157.965479	0.053292
1158.119687	0.054520
1158.273877	0.064624
1158.428048	0.063110
1158.582201	0.064944
1158.736337	0.073241
1158.890453	0.065158
1159.044552	0.067417
1159.198632	0.071555
1159.352694	0.062800
1159.506738	0.060853
1159.660764	0.059375
1159.814771	0.054664
1159.968761	0.054362
1160.122732	0.046832
1160.276685	0.050737
1160.430619	0.049780
1160.584535	0.050663
1160.738434	0.054708
1160.892313	0.053673
1161.046175	0.053449
1161.200019	0.058078
1161.353844	0.057120
1161.507651	0.056265
1161.661440	0.051125
1161.815210	0.050310
1161.968962	0.051152
1162.122697	0.048147
1162.276412	0.049544
1162.430110	0.050412
1162.583789	0.045537
1162.737451	0.040888
1162.891094	0.043198
1163.044718	0.047248
1163.198325	0.043028
1163.351913	0.045963
1163.505483	0.051254
1163.659035	0.049861
1163.812569	0.046515
1163.966084	0.055657
1164.119581	0.058417
1164.273060	0.051797
1164.426521	0.053181
1164.579964	0.059259
1164.733388	0.046805
1164.886794	0.040173
1165.040182	0.045295
1165.193551	0.051233
1165.346903	0.042471
1165.500236	0.050247
1165.653551	0.057625
1165.806848	0.056104
1165.960126	0.041609
1166.113386	0.045251
1166.266628	0.052556
1166.419852	0.045695
1166.573058	0.036086
1166.726245	0.042010
1166.879414	0.039393
1167.032565	0.030325
1167.185698	0.029798
1167.338812	0.042479
1167.491909	0.050245
1167.644987	0.058435
1167.798046	0.065877
1167.951088	0.071663
1168.104111	0.061662
1168.257117	0.060135
1168.410103	0.066063
1168.563072	0.056761
1168.716023	0.061421
1168.868955	0.058735
1169.021869	0.038506
1169.174765	0.040716
1169.327642	0.038872
1169.480501	0.035671
1169.633343	0.031855
1169.786165	0.024237
1169.938970	0.034468
1170.091757	0.031777
1170.244525	0.030863
1170.397275	0.041821
1170.550007	0.031584
1170.702720	0.026611
1170.855415	0.031163
1171.008092	0.028312
1171.160751	0.029462
1171.313392	0.021201
1171.466014	0.007985
1171.618619	0.000270
1171.771205	0.000270
1171.923772	0.000270
