sample name	sample
index	1166
start time	 04-26-2021  10:35:13 AM
880	0.492792
Peak Time (s)	92.035
Peak Height 	0.4928
calc peak height	90,93
Baseline Time (s)	10.536
Baseline Value 	-0.002471
subtract baseline	10,4
Abs	0.349948
Peak Time (s)	90.537
Peak Height 	0.3499
calc peak height	90,93
Baseline Time (s)	8.537
Baseline Value 	-0.001225
subtract baseline	10,3
PK_550	0.165986
Peak Time (s)	91.535
Peak Height 	0.166
calc peak height	90,93
Baseline Time (s)	9.037
Baseline Value 	4.4241E-4
subtract baseline	10,2
PK_880	0.327171
Peak Time (s)	91.535
Peak Height 	0.3272
calc peak height	90,93
Baseline Time (s)	10.536
Baseline Value 	4.2923E-4
subtract baseline	10,1


Time (s)	A880-A510	A880-A775	A880-A975	A880	I510	I775	I975	I880	
0.034500	-0.000639	-0.000241	0.001129	0.001267	6147.886373	44037.726155	3807.788583	22762.282131
0.554000	-0.002625	0.000164	0.000543	0.007856	6082.259547	43454.719849	3790.656028	22461.385788
1.036000	-0.002699	-0.000558	0.000314	0.003571	6114.332006	43789.626607	3800.308082	22656.567192
1.535500	0.001258	-0.000491	0.000835	0.000326	6169.890279	44103.269009	3809.347669	22805.610807
2.035500	0.000111	0.000051	-0.000084	0.000268	6161.439655	44160.422294	3807.274752	22808.318065
2.539000	-0.003652	-0.000667	0.000627	0.002587	6114.565757	43872.220694	3803.410158	22701.642411
3.036000	0.001194	-0.000072	-0.002540	-0.001218	6181.429277	44290.415770	3804.940239	22876.943258
3.536500	0.000459	-0.000252	-0.003322	0.000922	6159.063849	44069.488243	3797.949227	22778.181214
4.037000	-0.001129	0.000063	0.002686	0.001024	6145.983407	44089.705282	3812.132220	22773.480244
4.537500	-0.000865	0.000437	-0.000512	0.001693	6142.855012	44061.621243	3802.825028	22742.712815
5.037500	-0.000608	0.000198	0.003689	0.001208	6148.580908	44084.977832	3814.112871	22764.979521
5.535000	-0.001300	-0.000781	0.002680	0.000218	6150.883885	44085.978071	3814.066669	22810.602389
6.044000	0.000221	-0.000414	0.004483	0.000013	6164.265670	44140.446626	3818.941712	22820.065660
6.536000	-0.000261	0.000276	0.001007	0.000541	6156.431515	44155.822103	3809.242923	22795.697826
7.039500	-0.000378	-0.000514	0.002936	-0.000512	6163.689963	44180.904766	3816.457455	22844.302226
7.536500	-0.000185	0.000215	0.003744	0.000429	6157.894203	44160.767633	3816.135437	22800.894768
8.037000	-0.000983	0.000564	0.001866	0.000446	6151.580593	44192.333394	3811.547624	22800.109482
8.537000	0.000666	0.000338	0.000000	0.000215	6166.157816	44192.813555	3807.603380	22810.749001
9.037000	-0.001427	0.000000	-0.001788	0.000221	6149.885439	44160.100795	3803.294378	22810.492079
9.537500	-0.001930	-0.000586	-0.000181	-0.000754	6153.530300	44197.058812	3809.500183	22855.477090
10.034500	0.000632	0.000598	0.002076	-0.000040	6167.871598	44241.963536	3813.230665	22822.525925
10.535500	0.000000	-0.000265	0.000084	0.000000	6162.652089	44155.870351	3808.324431	22820.667215
11.035500	-0.000422	-0.000194	-0.000028	-0.000254	6161.349238	44186.844969	3808.665987	22832.391682
11.536000	0.000767	0.000325	0.005238	0.000110	6167.758996	44201.555805	3820.544521	22815.587648
12.039000	-0.000479	-0.000391	-0.003212	-0.000734	6164.627291	44213.762601	3802.167703	22854.547360
12.535500	-0.001181	-0.000108	0.004555	-0.000072	6154.052548	44177.719330	3819.326319	22824.001744
13.036500	0.001515	0.000031	0.004918	-0.001376	6185.169250	44315.360810	3823.390095	22884.257695
13.537000	-0.000258	0.000479	0.008092	-0.000451	6164.147534	44269.818106	3828.900016	22841.473987
14.034000	-0.002409	0.000458	0.001612	0.002479	6124.923943	43989.004791	3806.034535	22706.600120
14.538000	-0.001706	0.000791	0.001877	0.003109	6125.478257	43960.879113	3805.157442	22677.714626
15.040000	0.002313	0.000250	0.004697	-0.001018	6188.610944	44302.098880	3821.976017	22867.688350
15.535000	0.000720	0.000782	0.002296	-0.000399	6171.352324	44293.788066	3814.632107	22839.108537
16.035500	0.000391	0.000436	0.000530	-0.000984	6173.339187	44316.582297	3811.773537	22866.106290
16.536000	-0.004034	0.000419	-0.000653	0.004372	6098.020053	43806.197515	3796.087145	22619.905978
17.036000	0.001789	0.000279	0.004049	-0.003384	6203.048983	44531.520639	3826.176384	22977.425579
17.536000	-0.001457	-0.000164	-0.003706	0.000301	6149.032254	44136.754662	3798.513615	22806.767557
18.037000	-0.004121	0.000401	-0.000967	0.000743	6125.100875	44148.492155	3804.009042	22786.388055
18.537000	0.000974	0.000256	0.002398	0.001510	6158.489081	44061.740372	3810.260068	22751.091083
19.037500	0.001309	0.000419	0.000049	0.001376	6162.130731	44090.045440	3804.929187	22757.260740
19.535000	0.000265	0.000507	0.000699	0.001122	6156.007838	44122.506171	3807.102254	22768.951189
20.035500	-0.001759	0.000446	0.004353	0.001266	6139.251456	44103.133510	3815.583822	22762.351313
20.535500	-0.000964	0.000137	-0.002091	0.001650	6142.415326	44037.197343	3799.149388	22744.644685
21.038500	0.000417	0.000929	0.007996	0.001580	6153.635293	44119.120618	3823.687549	22747.880636
21.539000	-0.001414	0.000729	0.004739	0.001474	6140.303312	44110.132565	3816.014321	22752.740766
22.036000	-0.002439	-0.000408	0.000932	0.000434	6140.423918	44100.945860	3809.321435	22800.635379
22.537000	-0.002216	-0.000037	0.002337	0.000833	6139.059998	44098.247159	3811.749128	22782.241227
23.036500	-0.001333	0.000053	0.001804	0.000914	6145.251025	44099.157511	3810.265180	22778.518270
23.537500	0.000102	-0.000349	0.000806	0.000614	6158.679995	44089.471052	3808.582741	22792.348258
24.035000	-0.001622	0.000278	0.001020	0.001434	6139.014542	44071.141880	3807.125165	22754.603356
24.535000	0.000466	-0.000040	0.000246	0.001309	6156.111398	44052.732287	3805.562258	22760.328723
25.035500	0.000005	0.000459	0.003607	0.001325	6152.415250	44098.616980	3813.629990	22759.597794
25.535500	0.002125	0.000887	0.003803	0.001786	6165.280520	44095.462819	3812.990085	22738.394291
26.036500	-0.002168	0.000278	-0.004084	0.001270	6136.071676	44086.770575	3795.305984	22762.167131
26.536000	-0.000753	-0.000312	-0.002150	0.001066	6148.563318	44050.079052	3800.404031	22771.541759
27.036500	-0.000455	-0.000042	0.000833	-0.000909	6166.178568	44263.796438	3812.324120	22862.645092
27.536500	-0.000223	0.000913	0.005074	-0.001002	6168.702154	44363.998934	3822.857999	22866.961423
28.034000	-0.000256	0.000214	0.004186	0.000378	6157.726857	44165.443522	3817.330951	22803.211277
28.537500	-0.000911	0.000763	-0.002283	0.002186	6138.692992	44045.726805	3797.413001	22720.044324
29.035000	0.001669	0.000509	0.002098	-0.000764	6181.588718	44302.502411	3815.035047	22855.935607
29.537000	0.001184	-0.000041	0.001581	-0.001015	6179.772760	44274.048074	3814.392595	22867.577200
30.035000	-0.000416	-0.000237	0.004095	0.000208	6157.808479	44138.717768	3817.525087	22811.067613
30.536000	-0.002716	-0.001003	-0.001549	0.002941	6119.019732	43807.037334	3797.362513	22685.393127
31.038000	0.000623	0.000361	0.002087	0.001524	6155.666524	44070.452666	3809.478235	22750.470732
31.536000	-0.000712	0.000244	0.001708	-0.000644	6162.123073	44265.771684	3813.799271	22850.395811
32.036500	-0.001904	-0.001152	0.002564	0.000154	6146.718011	44056.939477	3813.941714	22813.581333
32.537000	0.000775	0.000648	0.001834	-0.000701	6174.131056	44309.830197	3814.245486	22853.042694
33.037500	0.000228	-0.000757	0.000914	-0.001728	6177.864605	44273.653900	3814.503554	22900.555257
33.537500	-0.001545	-0.000081	0.003353	0.000965	6143.224735	44081.527679	3813.887921	22776.172822
34.035000	0.000384	0.000310	0.002415	0.002567	6145.750841	43966.619254	3807.755378	22702.555512
34.535000	-0.000420	0.000431	0.003324	0.001717	6146.107965	44058.798560	3811.998107	22741.597216
35.035500	-0.003751	-0.000080	0.006536	0.001547	6121.770547	44026.339917	3820.205667	22749.402625
35.538500	0.000452	0.001069	0.001802	0.002923	6143.526472	44004.874454	3805.424462	22686.225997
36.036500	-0.002985	-0.000017	-0.000004	0.002084	6123.526277	43981.394983	3803.104665	22724.723037
36.536500	-0.000807	0.000336	0.004440	0.002017	6140.802337	44021.209521	3813.973646	22727.798238
37.036000	0.000345	0.000413	-0.003025	0.002306	6147.462794	44001.183443	3795.359330	22714.527088
37.537000	0.000025	0.000285	0.005285	0.001747	6149.310423	44041.992653	3816.675795	22740.186042
38.034500	-0.001232	0.000665	-0.000834	0.002761	6131.796214	43981.903159	3799.498157	22693.663705
38.535000	-0.001597	0.000391	0.002805	0.002506	6130.949403	43980.151578	3808.841120	22705.363656
39.035000	-0.001648	0.000151	0.003821	0.001672	6136.977777	44036.428258	3813.309332	22743.665350
39.535500	-0.003003	0.001343	0.003271	0.002480	6120.350153	44072.837156	3810.026563	22706.524134
40.035500	-0.002181	0.000017	0.003469	0.001923	6130.940608	43999.882597	3811.850999	22732.123474
40.536000	-0.001886	0.000343	-0.000915	0.002135	6131.581831	44010.706552	3800.801101	22722.374641
41.036000	0.000087	0.000739	0.003379	0.002296	6145.546784	44032.991398	3810.731449	22714.969483
41.536500	0.000493	0.000324	-0.002424	0.001696	6153.323032	44050.638059	3798.243893	22742.550713
42.036500	-0.002120	0.000263	0.002091	0.001440	6135.125998	44069.177767	3809.691170	22754.331188
42.537000	-0.000611	0.000639	-0.002487	0.001859	6143.531463	44064.975466	3797.705050	22735.045899
43.034500	-0.000519	0.000418	0.000465	0.001917	6143.790906	44038.539351	3804.629185	22732.378374
43.535000	0.000470	0.001071	-0.000326	-0.002010	6181.961505	44475.714708	3812.185118	22913.638284
44.040500	-0.001223	0.000033	0.003784	-0.001592	6165.517087	44336.271879	3821.151133	22894.283112
44.535500	-0.005637	-0.000573	-0.003415	0.004449	6085.258739	43705.389265	3789.352258	22616.403749
45.038500	0.001698	0.000530	0.004468	-0.000791	6182.033740	44307.216623	3820.864886	22857.220593
45.536000	0.002987	0.001223	0.006251	-0.000258	6187.936024	44322.433968	3823.916767	22832.580164
46.036000	-0.001327	0.000241	0.003091	0.004409	6118.415516	43785.820641	3804.951582	22618.209607
46.536500	-0.002744	0.000123	-0.002040	0.005602	6098.474215	43662.393924	3789.876383	22563.792792
47.037000	-0.001659	0.000723	0.001943	0.002458	6130.837196	44016.071160	3806.880677	22707.540320
47.537000	-0.002336	0.000168	0.002478	0.001928	6129.714932	44013.763025	3809.447440	22731.908216
48.037500	-0.001996	-0.000038	-0.000763	0.004205	6114.858404	43778.828031	3796.224253	22627.555089
48.535000	-0.005212	-0.000317	0.004145	0.005156	6083.115647	43662.884119	3805.687058	22584.112345
49.035500	0.000558	0.000548	0.007297	-0.000642	6171.976897	44294.611076	3827.417118	22850.310591
49.535500	0.002767	0.000634	0.002409	-0.002320	6202.372729	44463.478396	3819.573888	22928.018387
50.036000	-0.001378	0.000402	0.002785	0.003288	6126.624285	43907.064798	3806.908857	22669.500903
50.536500	-0.001675	-0.003832	0.005319	0.011898	6058.913708	42709.257670	3792.396100	22279.064070
51.036500	0.033177	-0.017627	0.039147	0.459593	4054.190125	16593.549066	3159.400981	9734.595493
51.537000	0.013150	-0.021034	0.001441	-0.041455	6614.360462	46173.175518	3916.708504	24828.028939
52.036500	-0.000466	-0.030186	-0.002352	-0.119589	7226.670218	53638.865784	4132.266731	29174.107763
52.534000	0.014694	-0.017153	0.020196	-0.078707	6971.599974	50481.523680	4075.630433	26802.793519
53.035000	0.033190	-0.005967	0.040488	-0.012422	6536.006167	44800.712258	3943.641805	23402.194935
53.535000	0.042366	-0.003833	0.051978	0.042798	6159.303085	39968.613854	3830.466899	20939.834779
54.035000	0.052587	0.002196	0.060296	0.085116	5919.351629	36989.405630	3750.017795	19253.668826
54.538000	0.079138	0.018310	0.085297	0.097433	6023.572633	37289.610081	3779.295388	18792.997367
55.036000	0.102781	0.036690	0.111207	0.123790	6003.443185	36661.977465	3778.251115	17850.030268
55.536500	0.122812	0.051081	0.133029	0.107967	6279.886685	39101.338404	3870.256734	18409.241805
56.036500	0.142117	0.062298	0.143228	0.149406	6106.538663	36661.321998	3793.347057	16986.780167
56.536500	0.163870	0.075002	0.168285	0.185287	6000.418943	34901.852992	3767.961859	15860.108029
57.037000	0.184835	0.085655	0.184740	0.219175	5906.333935	33229.784791	3728.388401	14878.186066
57.535000	0.196813	0.094802	0.206329	0.261370	5696.964533	31000.424482	3683.613596	13757.957555
58.035000	0.214608	0.102675	0.223922	0.300657	5556.665626	29032.961514	3638.713544	12808.358280
58.535000	0.237882	0.113310	0.241928	0.330089	5517.726084	27921.960368	3615.953480	12151.187796
59.036000	0.244983	0.117143	0.256483	0.365035	5348.403418	26185.467052	3576.792206	11426.576846
59.536000	0.256419	0.125138	0.270655	0.399929	5213.939749	24781.288233	3538.833571	10758.943509
60.036000	0.261662	0.129624	0.282583	0.430829	5074.960196	23484.436155	3505.634131	10210.885328
60.536500	0.276211	0.133719	0.288601	0.443347	5085.661029	23087.241194	3494.589501	9999.721185
61.036000	0.278901	0.134788	0.294855	0.457593	5025.415673	22481.089421	3481.233338	9766.703769
61.537000	0.283690	0.133927	0.308216	0.473074	4971.078975	21754.371499	3477.730421	9521.986097
62.036500	0.286010	0.138920	0.308676	0.467721	5009.937636	22211.283790	3487.375485	9605.629013
62.534500	0.284884	0.142434	0.308832	0.467317	5006.251765	22387.145094	3488.309763	9611.979276
63.053500	0.287146	0.144655	0.301255	0.459002	5060.860309	22868.010151	3489.545023	9744.060756
63.535000	0.287887	0.149851	0.309572	0.457283	5073.750381	23190.031428	3506.550076	9771.688729
64.041500	0.289495	0.150311	0.308879	0.460556	5065.016498	23058.409877	3499.783120	9719.179231
64.536000	0.293051	0.153245	0.316975	0.454752	5114.556871	23470.042351	3523.774897	9812.560272
65.036000	0.295609	0.155152	0.314243	0.454691	5128.612983	23563.915120	3519.104732	9813.552149
65.536500	0.299201	0.155462	0.310903	0.454886	5146.963133	23569.431450	3512.968661	9810.392300
66.036500	0.294466	0.156475	0.319986	0.454572	5123.104632	23632.950772	3529.390304	9815.470271
66.537000	0.297246	0.156243	0.319175	0.454604	5137.904538	23620.328873	3527.903138	9814.957969
67.035000	0.296632	0.158178	0.311542	0.456481	5124.488661	23623.111144	3511.318135	9784.620150
67.535000	0.299851	0.159488	0.320320	0.458621	5130.290498	23583.359742	3522.856852	9750.180631
68.034500	0.291175	0.159192	0.317173	0.466648	5042.032526	23188.902391	3503.533053	9622.506774
68.538000	0.295475	0.159448	0.316981	0.467528	5059.827870	23159.644527	3501.705002	9608.650704
69.036000	0.298355	0.161801	0.322115	0.466014	5082.900283	23341.706193	3513.113583	9632.505305
69.536500	0.299553	0.159713	0.320076	0.466570	5086.286936	23217.043176	3508.638536	9623.735447
70.036500	0.300161	0.160763	0.319241	0.475295	5043.792653	22859.477155	3492.386019	9487.599400
70.537000	0.299786	0.161255	0.322336	0.477860	5028.595404	22763.960636	3493.277158	9448.085064
71.046000	0.302581	0.162417	0.324714	0.474895	5058.464246	22954.526458	3502.328450	9493.775373
71.537000	0.304666	0.161802	0.321261	0.476200	5062.543655	22865.694656	3494.265073	9473.638228
72.034500	0.304443	0.162377	0.326415	0.485264	5014.488401	22477.328627	3487.701945	9335.351684
72.535000	0.303684	0.162634	0.321496	0.484482	5014.604363	22524.470036	3480.822806	9347.172561
73.035000	0.309005	0.163668	0.334955	0.481899	5055.436298	22689.370348	3507.865122	9386.345449
73.535500	0.304610	0.162566	0.325257	0.481803	5033.136732	22643.370720	3491.558277	9387.808330
74.036000	0.304771	0.162256	0.322298	0.487854	5002.936112	22354.890834	3476.581196	9296.363191
74.536000	0.309028	0.162913	0.331126	0.486744	5030.441254	22434.615674	3493.119910	9313.050691
75.036500	0.314181	0.165279	0.337482	0.484948	5066.559327	22623.652225	3506.970212	9340.126204
75.536500	0.310225	0.164289	0.333544	0.484500	5048.254632	22598.913564	3501.008602	9346.897293
76.037000	0.307609	0.163839	0.333525	0.491468	4998.989365	22263.675328	3489.216240	9242.353485
76.534500	0.309599	0.163379	0.330850	0.488183	5025.973248	22390.700826	3490.239323	9291.440348
77.037500	0.313334	0.163383	0.335943	0.484767	5063.071238	22545.529239	3504.645166	9342.860232
77.535000	0.314541	0.163461	0.333628	0.484885	5068.776728	22543.718203	3500.496647	9341.079938
78.038000	0.311674	0.164137	0.335405	0.490446	5025.003903	22322.946335	3494.091301	9257.586193
78.535500	0.310607	0.163268	0.330039	0.489308	5025.369970	22335.025597	3486.999606	9274.586232
79.036000	0.314882	0.163362	0.330749	0.484353	5073.359560	22563.413846	3496.516428	9349.119409
79.536500	0.315777	0.165475	0.335928	0.486097	5068.903609	22580.223379	3502.350243	9322.797776
80.036000	0.315162	0.164143	0.337806	0.490379	5043.362108	22326.205160	3498.263333	9258.585111
80.536500	0.319804	0.165205	0.333951	0.485750	5091.953295	22583.704129	3499.575900	9328.013997
81.037500	0.317692	0.163693	0.339710	0.484134	5089.328965	22588.434363	3512.205677	9352.433721
81.537500	0.322144	0.163128	0.340347	0.483212	5117.946587	22604.759724	3514.904297	9366.411588
82.034500	0.319209	0.163969	0.339751	0.483634	5100.024215	22623.839690	3513.140178	9360.002821
82.538000	0.319743	0.163868	0.341892	0.485418	5093.394934	22538.021385	3513.758824	9333.032799
83.038500	0.322616	0.165695	0.339628	0.484169	5115.348246	22678.258788	3512.004328	9351.907190
83.536000	0.324555	0.163958	0.344364	0.482811	5133.059644	22660.943496	3522.600194	9372.495634
84.036500	0.320001	0.165047	0.344104	0.488712	5077.356210	22442.157201	3511.887498	9283.507002
84.536000	0.320163	0.164547	0.344007	0.482402	5111.682534	22706.619538	3522.690963	9378.708519
85.036500	0.322266	0.164219	0.341040	0.482331	5123.322128	22694.820888	3517.635433	9379.781225
85.537000	0.323208	0.164493	0.347084	0.482585	5127.022870	22695.790969	3527.777511	9375.930392
86.037000	0.326231	0.164437	0.349263	0.482804	5142.155148	22683.202836	3531.239700	9372.604287
86.535000	0.322690	0.165341	0.347064	0.486567	5102.943760	22552.709863	3520.752693	9315.712765
87.035500	0.326298	0.165668	0.342197	0.482808	5142.494682	22739.414860	3518.819448	9372.536786
87.537500	0.322575	0.165302	0.347013	0.482976	5121.522227	22714.906549	3526.961424	9369.985618
88.035500	0.323348	0.165216	0.336154	0.487597	5100.967076	22500.278041	3500.181394	9300.232973
88.536000	0.323878	0.166048	0.344826	0.483804	5124.072543	22711.163040	3521.669980	9357.433483
89.036000	0.326073	0.168044	0.343363	0.485169	5128.533484	22740.082156	3516.741281	9336.786321
89.536500	0.323055	0.166120	0.348052	0.484022	5118.481483	22704.450602	3526.948944	9354.126480
90.037000	0.322511	0.165353	0.346022	0.484119	5115.050362	22664.871356	3523.212454	9352.656259
90.537000	0.323239	0.165337	0.349948	0.485085	5113.782937	22620.061061	3528.419137	9338.060477
91.037000	0.325091	0.165250	0.348853	0.486160	5117.940559	22567.105426	3524.598576	9321.841965
91.535000	0.327171	0.165986	0.339465	0.487164	5123.709391	22554.894290	3506.570216	9306.729909
92.035500	0.322453	0.165541	0.343726	0.492792	5068.803063	22280.666723	3504.230882	9222.684185
92.535500	0.326718	0.164943	0.343177	0.492049	5095.216970	22287.155020	3504.562901	9233.712613
93.036000	0.325310	0.165718	0.344711	0.489858	5099.376173	22420.670993	3510.958780	9266.368354
93.536000	0.325208	0.165455	0.345937	0.491084	5092.326526	22353.543552	3510.959159	9248.077799
94.159500	0.325381	0.166097	0.351064	0.492528	5085.603221	22317.469245	3517.336929	9226.608171
94.536500	0.324539	0.164086	0.338825	0.495113	5067.570718	22112.033999	3491.993217	9188.339595
95.034500	0.327197	0.166039	0.344355	0.493606	5089.503624	22266.455457	3503.914579	9210.614901
95.537000	0.321451	0.163239	0.344310	0.491578	5069.911986	22231.918679	3507.309065	9240.718123
96.034500	0.325365	0.164698	0.343204	0.495543	5069.646317	22120.120140	3498.658682	9181.991592
96.535000	0.324381	0.164563	0.346114	0.497704	5053.206198	22018.294751	3499.930968	9150.217454
