sample name	sample
index	930
start time	 04-12-2021  12:20:56 PM


Wavelength (nm)	Absorbance
494.344910	0.517678
494.563924	0.517678
494.782919	0.517678
495.001897	-0.183765
495.220856	-0.053404
495.439797	-0.115740
495.658719	-0.052168
495.877624	-0.096761
496.096510	-0.129730
496.315378	-0.122879
496.534227	-0.076689
496.753059	-0.032321
496.971872	-0.037012
497.190667	0.088325
497.409444	0.098302
497.628203	0.098415
497.846943	0.101355
498.065665	0.103005
498.284369	0.103440
498.503055	0.102417
498.721723	0.101301
498.940372	0.101660
499.159003	0.102813
499.377616	0.103047
499.596210	0.103052
499.814787	0.103079
500.033345	0.102739
500.251885	0.103109
500.470406	0.103766
500.688910	0.105302
500.907395	0.105937
501.125862	0.106283
501.344311	0.106291
501.562742	0.106229
501.781154	0.107707
501.999548	0.107962
502.217924	0.107927
502.436282	0.108437
502.654621	0.108598
502.872942	0.109322
503.091245	0.108338
503.309530	0.108993
503.527797	0.109682
503.746045	0.108579
503.964275	0.108592
504.182487	0.109122
504.400681	0.109026
504.618856	0.108475
504.837013	0.108684
505.055152	0.109921
505.273273	0.110711
505.491376	0.111297
505.709460	0.110842
505.927526	0.110979
506.145574	0.111310
506.363604	0.112297
506.581615	0.112880
506.799608	0.112573
507.017583	0.112939
507.235540	0.112187
507.453478	0.111996
507.671399	0.112503
507.889301	0.112352
508.107185	0.112181
508.325050	0.110812
508.542898	0.111638
508.760727	0.111231
508.978538	0.110608
509.196330	0.110949
509.414105	0.110640
509.631861	0.110452
509.849599	0.110555
510.067319	0.110080
510.285021	0.110945
510.502704	0.110443
510.720369	0.111353
510.938016	0.111083
511.155645	0.111225
511.373255	0.112356
511.590848	0.112703
511.808422	0.114146
512.025977	0.114838
512.243515	0.115654
512.461034	0.116686
512.678536	0.116763
512.896018	0.118082
513.113483	0.117835
513.330930	0.116971
513.548358	0.118239
513.765768	0.117923
513.983160	0.117821
514.200533	0.117867
514.417889	0.116952
514.635226	0.117051
514.852545	0.117058
515.069845	0.117295
515.287128	0.118225
515.504392	0.117796
515.721638	0.118110
515.938866	0.118320
516.156075	0.118080
516.373267	0.119017
516.590440	0.119076
516.807594	0.119050
517.024731	0.119722
517.241850	0.119276
517.458950	0.118842
517.676032	0.119197
517.893095	0.119628
518.110141	0.119681
518.327168	0.119184
518.544177	0.119238
518.761168	0.119199
518.978141	0.119377
519.195095	0.120026
519.412031	0.120549
519.628949	0.121011
519.845849	0.121146
520.062731	0.122263
520.279594	0.122848
520.496439	0.124117
520.713266	0.124071
520.930074	0.124007
521.146865	0.124213
521.363637	0.125007
521.580391	0.124548
521.797127	0.124881
522.013844	0.124319
522.230543	0.124749
522.447224	0.124635
522.663887	0.125241
522.880532	0.126130
523.097158	0.126907
523.313766	0.126665
523.530356	0.127133
523.746928	0.127943
523.963481	0.128892
524.180017	0.128966
524.396534	0.128826
524.613032	0.129883
524.829513	0.130009
525.045975	0.129882
525.262420	0.130325
525.478845	0.130359
525.695253	0.129681
525.911643	0.129273
526.128014	0.130217
526.344367	0.130289
526.560702	0.129980
526.777018	0.130074
526.993316	0.130622
527.209597	0.131193
527.425858	0.132161
527.642102	0.133430
527.858328	0.134013
528.074535	0.134016
528.290724	0.134309
528.506894	0.135094
528.723047	0.135659
528.939181	0.136046
529.155297	0.136838
529.371395	0.136785
529.587475	0.136603
529.803536	0.136803
530.019579	0.137171
530.235604	0.137811
530.451611	0.137692
530.667600	0.137745
530.883570	0.137897
531.099522	0.137279
531.315456	0.137696
531.531372	0.138862
531.747269	0.139342
531.963148	0.139784
532.179009	0.140354
532.394852	0.140860
532.610676	0.141207
532.826482	0.141457
533.042271	0.141971
533.258040	0.142367
533.473792	0.142025
533.689525	0.143048
533.905240	0.143219
534.120937	0.143217
534.336616	0.143493
534.552277	0.144306
534.767919	0.144907
534.983543	0.145545
535.199149	0.146114
535.414736	0.147015
535.630306	0.146940
535.845857	0.146965
536.061390	0.147927
536.276904	0.147857
536.492401	0.148287
536.707879	0.148157
536.923339	0.148710
537.138781	0.149137
537.354204	0.148584
537.569610	0.148843
537.784997	0.149544
538.000366	0.149497
538.215716	0.150069
538.431049	0.149925
538.646363	0.150555
538.861659	0.150429
539.076937	0.150211
539.292196	0.151202
539.507438	0.151873
539.722661	0.152013
539.937866	0.152268
540.153052	0.152306
540.368221	0.152211
540.583371	0.152359
540.798503	0.152835
541.013617	0.153245
541.228712	0.153251
541.443789	0.153493
541.658848	0.153965
541.873889	0.153933
542.088912	0.154396
542.303916	0.155162
542.518902	0.155390
542.733870	0.155565
542.948820	0.156111
543.163752	0.156585
543.378665	0.156558
543.593560	0.156869
543.808437	0.157460
544.023295	0.157893
544.238136	0.158420
544.452958	0.158974
544.667762	0.159623
544.882548	0.159717
545.097315	0.159644
545.312064	0.159251
545.526795	0.159706
545.741508	0.160199
545.956203	0.160801
546.170879	0.160679
546.385537	0.160950
546.600177	0.161170
546.814799	0.161401
547.029402	0.162010
547.243988	0.163219
547.458555	0.163582
547.673103	0.163667
547.887634	0.163850
548.102146	0.164490
548.316640	0.164492
548.531116	0.164069
548.745574	0.164672
548.960013	0.164589
549.174435	0.164150
549.388838	0.163991
549.603222	0.163638
549.817589	0.163738
550.031937	0.163583
550.246267	0.163996
550.460579	0.164903
550.674873	0.164562
550.889148	0.165009
551.103405	0.165577
551.317644	0.165529
551.531865	0.166265
551.746068	0.166321
551.960252	0.166690
552.174418	0.166949
552.388566	0.166732
552.602696	0.167178
552.816807	0.167522
553.030900	0.167935
553.244975	0.168599
553.459032	0.168950
553.673070	0.169363
553.887091	0.169553
554.101093	0.169767
554.315077	0.170425
554.529042	0.170776
554.742990	0.170861
554.956919	0.170853
555.170830	0.170613
555.384722	0.170831
555.598597	0.170933
555.812453	0.170988
556.026291	0.171207
556.240111	0.171133
556.453913	0.171543
556.667696	0.171788
556.881461	0.172227
557.095208	0.172733
557.308937	0.172870
557.522647	0.173014
557.736339	0.173110
557.950013	0.173076
558.163669	0.173248
558.377307	0.173608
558.590926	0.173571
558.804527	0.173741
559.018110	0.173879
559.231675	0.174289
559.445221	0.174047
559.658749	0.174229
559.872259	0.174645
560.085751	0.175057
560.299225	0.174640
560.512680	0.174846
560.726117	0.174476
560.939536	0.174544
561.152937	0.174419
561.366319	0.175028
561.579683	0.175226
561.793029	0.175048
562.006357	0.174860
562.219667	0.175189
562.432958	0.175689
562.646231	0.176321
562.859486	0.176463
563.072723	0.176703
563.285941	0.176717
563.499141	0.177320
563.712323	0.177459
563.925487	0.178148
564.138632	0.178625
564.351760	0.178746
564.564869	0.179057
564.777960	0.179310
564.991032	0.179840
565.204087	0.180224
565.417123	0.180379
565.630141	0.181166
565.843140	0.181223
566.056122	0.181378
566.269085	0.181421
566.482030	0.181095
566.694957	0.181522
566.907866	0.181620
567.120756	0.181739
567.333628	0.181603
567.546482	0.181758
567.759318	0.181872
567.972135	0.181917
568.184935	0.182093
568.397716	0.182662
568.610478	0.182638
568.823223	0.182046
569.035949	0.182212
569.248657	0.182298
569.461347	0.182382
569.674019	0.182518
569.886672	0.182329
570.099308	0.182075
570.311925	0.182298
570.524523	0.182296
570.737104	0.182965
570.949666	0.183358
571.162210	0.183711
571.374736	0.183493
571.587244	0.183635
571.799733	0.184165
572.012205	0.184607
572.224658	0.184420
572.437092	0.184900
572.649509	0.184861
572.861907	0.185056
573.074287	0.185419
573.286649	0.185662
573.498993	0.185795
573.711318	0.185893
573.923625	0.186420
574.135914	0.186807
574.348185	0.186825
574.560438	0.187176
574.772672	0.186534
574.984888	0.186611
575.197086	0.187042
575.409266	0.187037
575.621427	0.187036
575.833570	0.187332
576.045695	0.187335
576.257802	0.187655
576.469890	0.187727
576.681961	0.188331
576.894013	0.188506
577.106046	0.188604
577.318062	0.188846
577.530059	0.188934
577.742039	0.188962
577.954000	0.189470
578.165942	0.189592
578.377867	0.189844
578.589773	0.189840
578.801661	0.190239
579.013531	0.190093
579.225382	0.190159
579.437216	0.190308
579.649031	0.190751
579.860828	0.190738
580.072606	0.190742
580.284367	0.190903
580.496109	0.191405
580.707833	0.191148
580.919539	0.191465
581.131227	0.191661
581.342896	0.191965
581.554547	0.191494
581.766180	0.191848
581.977795	0.192132
582.189391	0.192181
582.400969	0.192013
582.612529	0.192014
582.824071	0.191972
583.035595	0.192207
583.247100	0.192640
583.458587	0.193031
583.670056	0.192710
583.881506	0.193013
584.092939	0.192876
584.304353	0.193205
584.515749	0.193908
584.727127	0.194299
584.938486	0.194663
585.149828	0.194621
585.361151	0.195102
585.572456	0.195465
585.783742	0.195321
585.995011	0.195748
586.206261	0.196154
586.417493	0.196519
586.628706	0.196705
586.839902	0.196634
587.051079	0.197083
587.262238	0.197034
587.473379	0.197258
587.684502	0.197727
587.895606	0.198108
588.106692	0.198142
588.317760	0.197572
588.528810	0.197672
588.739841	0.198160
588.950855	0.197994
589.161850	0.198116
589.372827	0.198518
589.583785	0.198677
589.794726	0.198816
590.005648	0.199066
590.216552	0.199432
590.427437	0.199755
590.638305	0.199769
590.849154	0.200009
591.059985	0.199983
591.270798	0.199642
591.481592	0.199761
591.692369	0.199959
591.903127	0.199867
592.113867	0.200391
592.324588	0.200816
592.535292	0.201012
592.745977	0.201411
592.956644	0.201553
593.167293	0.202114
593.377923	0.202586
593.588536	0.202756
593.799130	0.203310
594.009706	0.203453
594.220263	0.203255
594.430803	0.203343
594.641324	0.203235
594.851827	0.203737
595.062312	0.203584
595.272778	0.203360
595.483227	0.203433
595.693657	0.203330
595.904069	0.203045
596.114462	0.203292
596.324838	0.203516
596.535195	0.203589
596.745534	0.203527
596.955855	0.204277
597.166157	0.204610
597.376441	0.204779
597.586707	0.204862
597.796955	0.205350
598.007185	0.205502
598.217396	0.205616
598.427589	0.205928
598.637764	0.206170
598.847921	0.205723
599.058060	0.205562
599.268180	0.205825
599.478282	0.206472
599.688366	0.206693
599.898431	0.206597
600.108479	0.206729
600.318508	0.206912
600.528519	0.206872
600.738511	0.207342
600.948486	0.207980
601.158442	0.208165
601.368380	0.208028
601.578300	0.208047
601.788202	0.208396
601.998085	0.208174
602.207950	0.208391
602.417797	0.208832
602.627626	0.209035
602.837436	0.208902
603.047228	0.209140
603.257002	0.208997
603.466758	0.208998
603.676496	0.209357
603.886215	0.209936
604.095916	0.209754
604.305599	0.209801
604.515264	0.209670
604.724910	0.210082
604.934538	0.210040
605.144148	0.210444
605.353740	0.210784
605.563314	0.210845
605.772869	0.211088
605.982406	0.211358
606.191925	0.211620
606.401425	0.211778
606.610908	0.211612
606.820372	0.212049
607.029818	0.212405
607.239246	0.212451
607.448655	0.212495
607.658047	0.212539
607.867420	0.212960
608.076775	0.213247
608.286111	0.213397
608.495430	0.213597
608.704730	0.213464
608.914012	0.213432
609.123275	0.213614
609.332521	0.213934
609.541748	0.213936
609.750957	0.214168
609.960148	0.214132
610.169321	0.214542
610.378475	0.214756
610.587611	0.214932
610.796729	0.215322
611.005829	0.215174
611.214910	0.215116
611.423974	0.215284
611.633019	0.215126
611.842045	0.215389
612.051054	0.215411
612.260044	0.215392
612.469017	0.215545
612.677970	0.215327
612.886906	0.215658
613.095824	0.215975
613.304723	0.216119
613.513604	0.216388
613.722467	0.216351
613.931311	0.216487
614.140138	0.216817
614.348946	0.216946
614.557736	0.217150
614.766507	0.217353
614.975261	0.217548
615.183996	0.217953
615.392713	0.218104
615.601412	0.218112
615.810092	0.218210
616.018754	0.218425
616.227399	0.218695
616.436024	0.218987
616.644632	0.219229
616.853222	0.219387
617.061793	0.219500
617.270346	0.219428
617.478880	0.219669
617.687397	0.220123
617.895895	0.220027
618.104375	0.220190
618.312837	0.220169
618.521281	0.220356
618.729706	0.220432
618.938113	0.220360
619.146502	0.220589
619.354873	0.220672
619.563226	0.220871
619.771560	0.221158
619.979876	0.221497
620.188174	0.221623
620.396453	0.221566
620.604715	0.221592
620.812958	0.221874
621.021183	0.222033
621.229390	0.222258
621.437578	0.222089
621.645748	0.222182
621.853900	0.222042
622.062034	0.222377
622.270150	0.222418
622.478247	0.222671
622.686326	0.222715
622.894387	0.223007
623.102430	0.223089
623.310454	0.223466
623.518461	0.223976
623.726449	0.224047
623.934418	0.223904
624.142370	0.224338
624.350303	0.224431
624.558218	0.224529
624.766115	0.224458
624.973994	0.224897
625.181855	0.225174
625.389697	0.225246
625.597521	0.225351
625.805327	0.225954
626.013114	0.226077
626.220883	0.226288
626.428634	0.226499
626.636367	0.226768
626.844082	0.226768
627.051778	0.226650
627.259457	0.226589
627.467117	0.226901
627.674758	0.226738
627.882382	0.226911
628.089987	0.226945
628.297574	0.227185
628.505143	0.227263
628.712694	0.227642
628.920226	0.227671
629.127740	0.227872
629.335236	0.227972
629.542714	0.228320
629.750174	0.228715
629.957615	0.228799
630.165038	0.229057
630.372443	0.229400
630.579829	0.229137
630.787198	0.229230
630.994548	0.229161
631.201880	0.229275
631.409194	0.229203
631.616489	0.229102
631.823766	0.229458
632.031025	0.229242
632.238266	0.229531
632.445489	0.229539
632.652693	0.229943
632.859879	0.230120
633.067047	0.230220
633.274197	0.230400
633.481329	0.230535
633.688442	0.230466
633.895537	0.230864
634.102614	0.230704
634.309672	0.230974
634.516713	0.230922
634.723735	0.231408
634.930739	0.231906
635.137724	0.232347
635.344692	0.232446
635.551641	0.232719
635.758572	0.232912
635.965485	0.233239
636.172379	0.233816
636.379256	0.234185
636.586114	0.234298
636.792954	0.233951
636.999775	0.233856
637.206579	0.234122
637.413364	0.234199
637.620131	0.234116
637.826880	0.234080
638.033610	0.233890
638.240323	0.233904
638.447017	0.233950
638.653692	0.234426
638.860350	0.234783
639.066990	0.234904
639.273611	0.235406
639.480214	0.236015
639.686798	0.236378
639.893365	0.236660
640.099913	0.236745
640.306443	0.236840
640.512955	0.237034
640.719449	0.236937
640.925924	0.237097
641.132381	0.236979
641.338820	0.237014
641.545241	0.237076
641.751644	0.237147
641.958028	0.237594
642.164394	0.237798
642.370742	0.237873
642.577071	0.238283
642.783383	0.238201
642.989676	0.238347
643.195951	0.238365
643.402207	0.238630
643.608446	0.238793
643.814666	0.238843
644.020868	0.239112
644.227052	0.239240
644.433218	0.239358
644.639365	0.239717
644.845494	0.240312
645.051605	0.240521
645.257698	0.240452
645.463772	0.240605
645.669828	0.240839
645.875866	0.240952
646.081886	0.241304
646.287888	0.241508
646.493871	0.241763
646.699836	0.241718
646.905783	0.242120
647.111712	0.242569
647.317622	0.242943
647.523514	0.243252
647.729388	0.243476
647.935244	0.243520
648.141082	0.243798
648.346901	0.243902
648.552702	0.243963
648.758485	0.243934
648.964250	0.244074
649.169996	0.244297
649.375724	0.244483
649.581434	0.244568
649.787126	0.244743
649.992800	0.244721
650.198455	0.245046
650.404092	0.245420
650.609711	0.245485
650.815311	0.245656
651.020894	0.245783
651.226458	0.245741
651.432004	0.245969
651.637532	0.246211
651.843041	0.246500
652.048532	0.246785
652.254006	0.246923
652.459460	0.247231
652.664897	0.247587
652.870315	0.247901
653.075716	0.247852
653.281097	0.248062
653.486461	0.248294
653.691807	0.248510
653.897134	0.248540
654.102443	0.248580
654.307734	0.248907
654.513006	0.248899
654.718261	0.248773
654.923497	0.249128
655.128715	0.249323
655.333915	0.249519
655.539096	0.249466
655.744259	0.249816
655.949404	0.250051
656.154531	0.250311
656.359640	0.250602
656.564730	0.251075
656.769802	0.251570
656.974856	0.251580
657.179892	0.251863
657.384909	0.252145
657.589908	0.252066
657.794889	0.252089
657.999852	0.252191
658.204797	0.252246
658.409723	0.252469
658.614631	0.252648
658.819521	0.253367
659.024393	0.253588
659.229246	0.253963
659.434081	0.254299
659.638898	0.254981
659.843697	0.255133
660.048478	0.255480
660.253240	0.255699
660.457984	0.256045
660.662710	0.256005
660.867417	0.256137
661.072107	0.256323
661.276778	0.256767
661.481431	0.256585
661.686066	0.256949
661.890682	0.257078
662.095281	0.257354
662.299861	0.257512
662.504422	0.257861
662.708966	0.257820
662.913491	0.257781
663.117999	0.257802
663.322488	0.258156
663.526958	0.258278
663.731411	0.258757
663.935845	0.259033
664.140261	0.259078
664.344659	0.259274
664.549038	0.259758
664.753400	0.260284
664.957743	0.260696
665.162068	0.261289
665.366375	0.261823
665.570663	0.261926
665.774933	0.262086
665.979185	0.262341
666.183419	0.262629
666.387635	0.262812
666.591832	0.262996
666.796011	0.263066
667.000172	0.262915
667.204315	0.262944
667.408439	0.263324
667.612545	0.263698
667.816634	0.263939
668.020703	0.263852
668.224755	0.264103
668.428788	0.264330
668.632803	0.264538
668.836800	0.264881
669.040779	0.264983
669.244739	0.264980
669.448681	0.265101
669.652605	0.265286
669.856511	0.265637
670.060399	0.266097
670.264268	0.266569
670.468119	0.266715
670.671952	0.266941
670.875767	0.267175
671.079563	0.267363
671.283341	0.267661
671.487101	0.267965
671.690843	0.268355
671.894567	0.268306
672.098272	0.268216
672.301959	0.268571
672.505628	0.268792
672.709278	0.269097
672.912911	0.269617
673.116525	0.269859
673.320121	0.269967
673.523699	0.270120
673.727258	0.270304
673.930799	0.270719
674.134322	0.270948
674.337827	0.271442
674.541314	0.271521
674.744782	0.271588
674.948232	0.271579
675.151664	0.271853
675.355078	0.271908
675.558474	0.272262
675.761851	0.272526
675.965210	0.273003
676.168551	0.272933
676.371873	0.273418
676.575178	0.273617
676.778464	0.273952
676.981732	0.274366
677.184981	0.274955
677.388213	0.275312
677.591426	0.275496
677.794621	0.275376
677.997798	0.275910
678.200956	0.275865
678.404097	0.276168
678.607219	0.276250
678.810323	0.276328
679.013408	0.276334
679.216476	0.276423
679.419525	0.276647
679.622556	0.277152
679.825569	0.277187
680.028563	0.277331
680.231540	0.277357
680.434498	0.277849
680.637438	0.278152
680.840359	0.278212
681.043263	0.278363
681.246148	0.278402
681.449015	0.278101
681.651864	0.278135
681.854694	0.278567
682.057506	0.278932
682.260301	0.279010
682.463076	0.279124
682.665834	0.279337
682.868573	0.279465
683.071295	0.279783
683.273998	0.280286
683.476682	0.280328
683.679349	0.280688
683.881997	0.280621
684.084627	0.280702
684.287239	0.280874
684.489833	0.281060
684.692408	0.281573
684.894965	0.281809
685.097504	0.281849
685.300025	0.282120
685.502527	0.282036
685.705012	0.282376
685.907478	0.282639
686.109925	0.282770
686.312355	0.283080
686.514766	0.283169
686.717159	0.283175
686.919534	0.283560
687.121891	0.284076
687.324230	0.284219
687.526550	0.284273
687.728852	0.284374
687.931136	0.284465
688.133401	0.284726
688.335649	0.284992
688.537878	0.285399
688.740089	0.285540
688.942281	0.285687
689.144456	0.285972
689.346612	0.286304
689.548750	0.286721
689.750870	0.287585
689.952971	0.287870
690.155055	0.288131
690.357120	0.288340
690.559167	0.288701
690.761195	0.288982
690.963206	0.289335
691.165198	0.289770
691.367172	0.289640
691.569128	0.289380
691.771065	0.289610
691.972984	0.289728
692.174885	0.289864
692.376768	0.290121
692.578633	0.290121
692.780479	0.290228
692.982308	0.290019
693.184118	0.290329
693.385909	0.290458
693.587683	0.290327
693.789438	0.290664
693.991175	0.290653
694.192894	0.290809
694.394595	0.290854
694.596277	0.290995
694.797941	0.291368
694.999587	0.291515
695.201215	0.291454
695.402824	0.291678
695.604416	0.291380
695.805989	0.291733
696.007543	0.291636
696.209080	0.291939
696.410598	0.291800
696.612099	0.292084
696.813580	0.292198
697.015044	0.292569
697.216490	0.292847
697.417917	0.293186
697.619326	0.293138
697.820717	0.293311
698.022089	0.293488
698.223444	0.293954
698.424780	0.293988
698.626098	0.294032
698.827397	0.294153
699.028679	0.294168
699.229942	0.294186
699.431187	0.294596
699.632414	0.294749
699.833622	0.294905
700.034813	0.295081
700.235985	0.295051
700.437139	0.295354
700.638274	0.295442
700.839392	0.295622
701.040491	0.295751
701.241572	0.295662
701.442635	0.295704
701.643679	0.296018
701.844706	0.296207
702.045714	0.296433
702.246704	0.296548
702.447675	0.296768
702.648629	0.296827
702.849564	0.297115
703.050481	0.297262
703.251380	0.297509
703.452260	0.297106
703.653122	0.297124
703.853966	0.297086
704.054792	0.297215
704.255600	0.297305
704.456389	0.297354
704.657160	0.297235
704.857913	0.297199
705.058648	0.297371
705.259365	0.297485
705.460063	0.297076
705.660743	0.297184
705.861405	0.297072
706.062048	0.296986
706.262674	0.297130
706.463281	0.297410
706.663870	0.297600
706.864441	0.297485
707.064993	0.297743
707.265527	0.298129
707.466043	0.298481
707.666541	0.298791
707.867021	0.299113
708.067482	0.299271
708.267925	0.299151
708.468350	0.299298
708.668757	0.299503
708.869145	0.299367
709.069516	0.299590
709.269868	0.299423
709.470201	0.299309
709.670517	0.299341
709.870814	0.299193
710.071093	0.299360
710.271354	0.299361
710.471597	0.299056
710.671821	0.299144
710.872028	0.298830
711.072216	0.299041
711.272385	0.298909
711.472537	0.298785
711.672670	0.298471
711.872785	0.298424
712.072882	0.298277
712.272961	0.298566
712.473021	0.298620
712.673063	0.298864
712.873087	0.298501
713.073093	0.298670
713.273081	0.298548
713.473050	0.298784
713.673001	0.298437
713.872934	0.298609
714.072849	0.298464
714.272745	0.298129
714.472623	0.298137
714.672483	0.298056
714.872325	0.298001
715.072148	0.298013
715.271954	0.297979
715.471741	0.298293
715.671509	0.297832
715.871260	0.297750
716.070992	0.298048
716.270707	0.297644
716.470403	0.297731
716.670080	0.297200
716.869740	0.296678
717.069381	0.296518
717.269004	0.296305
717.468609	0.296458
717.668195	0.296384
717.867764	0.296318
718.067314	0.296319
718.266846	0.296158
718.466360	0.296212
718.665855	0.296550
718.865332	0.296229
719.064791	0.296267
719.264232	0.296258
719.463655	0.296200
719.663059	0.296045
719.862445	0.296069
720.061813	0.296010
720.261163	0.296263
720.460494	0.296186
720.659807	0.296349
720.859102	0.296212
721.058379	0.295917
721.257638	0.295435
721.456878	0.295010
721.656100	0.294758
721.855304	0.294497
722.054490	0.294222
722.253657	0.294043
722.452806	0.293873
722.651937	0.293566
722.851050	0.293426
723.050145	0.293581
723.249221	0.293472
723.448279	0.293385
723.647319	0.293454
723.846340	0.293363
724.045344	0.293241
724.244329	0.293294
724.443296	0.293251
724.642245	0.293197
724.841175	0.293048
725.040088	0.293047
725.238982	0.293057
725.437857	0.292858
725.636715	0.292613
725.835554	0.292342
726.034376	0.291995
726.233179	0.291897
726.431963	0.291787
726.630730	0.291530
726.829478	0.291296
727.028208	0.291231
727.226920	0.291033
727.425614	0.290872
727.624289	0.290782
727.822946	0.290870
728.021585	0.290433
728.220206	0.290117
728.418808	0.289752
728.617392	0.289573
728.815958	0.289087
729.014506	0.288884
729.213036	0.288618
729.411547	0.288409
729.610040	0.287903
729.808515	0.287724
730.006972	0.287493
730.205410	0.287311
730.403831	0.287102
730.602233	0.286946
730.800616	0.286625
730.998982	0.286508
731.197329	0.286200
731.395658	0.286131
731.593969	0.285829
731.792262	0.285592
731.990536	0.285449
732.188793	0.285272
732.387031	0.285194
732.585250	0.284890
732.783452	0.284707
732.981635	0.284742
733.179800	0.284549
733.377947	0.284589
733.576076	0.284395
733.774186	0.284549
733.972278	0.284232
734.170352	0.283822
734.368408	0.283979
734.566446	0.283706
734.764465	0.283607
734.962466	0.283708
735.160449	0.283286
735.358413	0.283328
735.556360	0.282959
735.754288	0.282864
735.952198	0.282692
736.150090	0.282230
736.347963	0.282212
736.545818	0.281790
736.743655	0.281225
736.941474	0.281135
737.139275	0.280749
737.337057	0.280447
737.534821	0.280357
737.732567	0.280036
737.930295	0.279966
738.128005	0.279596
738.325696	0.279308
738.523369	0.279203
738.721024	0.279137
738.918660	0.278857
739.116279	0.278824
739.313879	0.278482
739.511461	0.278379
739.709024	0.278028
739.906570	0.277672
740.104097	0.277371
740.301606	0.276965
740.499097	0.276452
740.696569	0.276432
740.894024	0.275776
741.091460	0.275557
741.288878	0.274922
741.486277	0.274802
741.683659	0.274648
741.881022	0.274521
742.078367	0.274310
742.275694	0.274076
742.473002	0.273725
742.670293	0.274062
742.867565	0.273954
743.064819	0.274057
743.262054	0.274054
743.459272	0.274097
743.656471	0.273766
743.853652	0.273382
744.050815	0.273247
744.247959	0.273061
744.445085	0.272654
744.642194	0.272264
744.839283	0.272144
745.036355	0.271672
745.233408	0.271131
745.430444	0.270872
745.627461	0.270879
745.824459	0.271020
746.021440	0.270861
746.218402	0.270773
746.415346	0.270684
746.612272	0.270552
746.809180	0.270440
747.006069	0.270696
747.202940	0.270698
747.399793	0.270719
747.596628	0.270149
747.793444	0.269873
747.990243	0.269584
748.187023	0.269395
748.383784	0.269130
748.580528	0.269120
748.777253	0.268708
748.973960	0.268451
749.170649	0.267871
749.367320	0.267726
749.563973	0.267484
749.760607	0.267174
749.957223	0.267094
750.153821	0.267036
750.350400	0.266586
750.546962	0.266217
750.743505	0.265972
750.940030	0.265829
751.136536	0.265616
751.333025	0.265429
751.529495	0.265145
751.725947	0.264973
751.922381	0.264690
752.118796	0.264378
752.315194	0.264168
752.511573	0.263724
752.707934	0.263515
752.904276	0.263317
753.100601	0.262915
753.296907	0.262832
753.493195	0.262224
753.689465	0.261758
753.885716	0.261749
754.081949	0.261804
754.278164	0.261785
754.474361	0.261472
754.670540	0.261211
754.866700	0.261151
755.062843	0.260974
755.258967	0.260940
755.455072	0.260820
755.651160	0.260382
755.847229	0.259894
756.043280	0.259785
756.239313	0.259488
756.435328	0.259119
756.631324	0.259015
756.827302	0.258498
757.023262	0.258145
757.219204	0.257883
757.415127	0.257579
757.611033	0.257525
757.806920	0.257109
758.002788	0.257120
758.198639	0.257116
758.394471	0.256540
758.590286	0.256269
758.786081	0.256111
758.981859	0.255850
759.177619	0.255779
759.373360	0.255517
759.569083	0.255386
759.764788	0.255241
759.960474	0.255127
760.156143	0.255163
760.351793	0.255207
760.547425	0.255084
760.743038	0.255150
760.938634	0.255001
761.134211	0.254987
761.329770	0.254854
761.525311	0.254735
761.720833	0.254460
761.916338	0.254342
762.111824	0.254270
762.307292	0.254152
762.502741	0.254025
762.698173	0.253619
762.893586	0.253008
763.088981	0.252705
763.284358	0.252342
763.479716	0.252269
763.675057	0.252075
763.870379	0.251918
764.065683	0.251700
764.260968	0.251588
764.456236	0.251552
764.651485	0.251313
764.846716	0.251282
765.041929	0.251089
765.237123	0.250925
765.432299	0.250836
765.627457	0.250601
765.822597	0.250523
766.017719	0.250040
766.212822	0.250312
766.407907	0.250421
766.602974	0.250365
766.798023	0.250342
766.993054	0.250116
767.188066	0.249933
767.383060	0.249902
767.578036	0.249772
767.772993	0.249897
767.967933	0.249408
768.162854	0.249546
768.357757	0.249520
768.552642	0.249160
768.747508	0.249338
768.942356	0.249053
769.137186	0.248872
769.331998	0.248610
769.526792	0.248417
769.721567	0.248459
769.916324	0.248273
770.111063	0.247963
770.305784	0.248077
770.500486	0.247724
770.695171	0.247823
770.889837	0.247739
771.084484	0.247940
771.279114	0.247826
771.473725	0.247888
771.668318	0.247607
771.862893	0.247646
772.057450	0.247562
772.251988	0.247506
772.446509	0.247366
772.641011	0.247307
772.835494	0.247091
773.029960	0.246973
773.224407	0.246618
773.418836	0.246947
773.613247	0.246796
773.807640	0.246817
774.002014	0.246824
774.196370	0.246884
774.390708	0.247022
774.585028	0.247331
774.779330	0.247375
774.973613	0.247618
775.167878	0.247425
775.362125	0.247487
775.556354	0.247418
775.750564	0.247296
775.944756	0.247406
776.138930	0.247316
776.333086	0.247172
776.527223	0.247199
776.721343	0.247290
776.915444	0.247163
777.109526	0.247303
777.303591	0.247587
777.497637	0.247726
777.691666	0.247435
777.885676	0.247189
778.079667	0.246911
778.273641	0.246987
778.467596	0.246868
778.661533	0.247069
778.855452	0.246899
779.049352	0.246457
779.243235	0.246224
779.437099	0.246330
779.630945	0.246592
779.824773	0.246675
780.018582	0.246477
780.212373	0.246200
780.406146	0.245853
780.599901	0.245912
780.793638	0.246104
780.987356	0.246288
781.181056	0.246279
781.374738	0.246008
781.568402	0.245868
781.762047	0.246117
781.955674	0.246370
782.149283	0.246512
782.342874	0.246316
782.536447	0.246268
782.730001	0.246259
782.923537	0.246281
783.117055	0.246289
783.310555	0.246387
783.504036	0.246391
783.697499	0.246252
783.890944	0.246428
784.084371	0.246734
784.277780	0.246885
784.471170	0.246919
784.664542	0.246942
784.857896	0.247076
785.051231	0.247170
785.244549	0.247102
785.437848	0.247046
785.631129	0.247034
785.824392	0.247286
786.017636	0.247321
786.210863	0.247309
786.404071	0.247454
786.597260	0.247653
786.790432	0.247662
786.983585	0.248007
787.176721	0.248287
787.369838	0.248398
787.562936	0.248116
787.756017	0.248180
787.949079	0.248168
788.142123	0.248143
788.335149	0.248066
788.528156	0.248146
788.721146	0.247814
788.914117	0.247997
789.107070	0.247851
789.300005	0.247968
789.492921	0.248076
789.685819	0.248271
789.878699	0.248380
790.071561	0.248599
790.264405	0.249032
790.457230	0.249348
790.650037	0.249354
790.842826	0.249587
791.035597	0.249854
791.228349	0.249912
791.421084	0.250224
791.613800	0.250224
791.806497	0.250251
791.999177	0.250166
792.191838	0.250067
792.384481	0.249787
792.577106	0.250038
792.769713	0.249833
792.962301	0.249910
793.154871	0.249966
793.347423	0.250467
793.539957	0.250574
793.732473	0.250519
793.924970	0.250831
794.117449	0.251324
794.309910	0.251040
794.502353	0.251426
794.694777	0.251712
794.887183	0.251824
795.079571	0.251887
795.271941	0.252489
795.464293	0.252858
795.656626	0.252994
795.848941	0.253153
796.041238	0.253331
796.233516	0.253484
796.425777	0.253762
796.618019	0.254217
796.810243	0.254300
797.002449	0.254005
797.194636	0.254220
797.386805	0.254424
797.578956	0.254538
797.771089	0.255125
797.963204	0.255373
798.155300	0.255469
798.347378	0.255467
798.539438	0.255736
798.731480	0.256451
798.923503	0.256480
799.115509	0.256656
799.307496	0.256909
799.499465	0.257013
799.691415	0.257316
799.883348	0.257626
800.075262	0.257763
800.267158	0.258082
800.459035	0.257969
800.650895	0.258255
800.842736	0.258756
801.034559	0.259413
801.226364	0.259986
801.418150	0.260223
801.609919	0.260502
801.801669	0.261044
801.993401	0.261333
802.185114	0.261549
802.376810	0.261992
802.568487	0.262265
802.760146	0.262271
802.951787	0.262524
803.143409	0.262942
803.335014	0.263251
803.526600	0.263287
803.718168	0.263549
803.909717	0.263751
804.101249	0.264048
804.292762	0.263992
804.484257	0.264193
804.675734	0.264390
804.867192	0.264549
805.058632	0.264736
805.250054	0.265233
805.441458	0.265258
805.632844	0.265684
805.824211	0.266006
806.015561	0.266672
806.206891	0.267043
806.398204	0.267016
806.589499	0.267022
806.780775	0.267169
806.972033	0.267520
807.163273	0.268083
807.354495	0.268475
807.545698	0.268664
807.736883	0.268779
807.928050	0.269197
808.119199	0.269706
808.310329	0.270085
808.501441	0.270698
808.692535	0.270896
808.883611	0.271105
809.074669	0.271381
809.265708	0.271983
809.456729	0.272497
809.647732	0.272810
809.838717	0.273268
810.029683	0.273818
810.220632	0.274031
810.411562	0.274180
810.602474	0.274755
810.793367	0.274922
810.984242	0.274947
811.175100	0.274874
811.365938	0.275104
811.556759	0.275312
811.747562	0.275478
811.938346	0.275745
812.129112	0.276280
812.319860	0.276675
812.510589	0.276939
812.701300	0.277515
812.891994	0.277949
813.082668	0.278316
813.273325	0.278712
813.463964	0.279319
813.654584	0.279802
813.845186	0.279953
814.035769	0.280036
814.226335	0.280748
814.416882	0.280729
814.607411	0.281416
814.797922	0.281668
814.988415	0.282240
815.178889	0.282650
815.369345	0.283007
815.559783	0.283486
815.750203	0.283814
815.940605	0.284358
816.130988	0.284938
816.321353	0.285188
816.511700	0.286000
816.702028	0.286320
816.892339	0.286714
817.082631	0.287003
817.272905	0.287456
817.463161	0.287723
817.653398	0.287899
817.843617	0.288522
818.033819	0.288990
818.224001	0.289193
818.414166	0.289668
818.604312	0.290129
818.794440	0.290772
818.984550	0.291203
819.174642	0.291874
819.364716	0.292204
819.554771	0.292509
819.744808	0.293479
819.934827	0.293913
820.124827	0.294118
820.314810	0.294390
820.504774	0.294700
820.694720	0.295041
820.884647	0.295512
821.074557	0.296194
821.264448	0.296858
821.454321	0.296976
821.644176	0.297762
821.834012	0.298285
822.023831	0.298642
822.213631	0.299346
822.403413	0.299965
822.593176	0.300387
822.782922	0.300731
822.972649	0.301004
823.162358	0.301093
823.352049	0.301317
823.541721	0.301907
823.731376	0.302343
823.921012	0.302738
824.110629	0.303174
824.300229	0.303749
824.489811	0.304204
824.679374	0.304564
824.868919	0.305135
825.058445	0.305734
825.247954	0.305958
825.437444	0.306530
825.626916	0.306657
825.816370	0.306980
826.005806	0.307612
826.195223	0.308072
826.384622	0.308561
826.574003	0.309076
826.763366	0.309172
826.952711	0.309805
827.142037	0.310299
827.331345	0.311172
827.520635	0.311690
827.709906	0.311944
827.899160	0.312446
828.088395	0.312848
828.277612	0.313420
828.466810	0.313674
828.655991	0.313770
828.845153	0.314172
829.034297	0.314300
829.223423	0.314994
829.412531	0.315660
829.601620	0.316281
829.790691	0.316882
829.979744	0.317357
830.168779	0.318158
830.357795	0.318707
830.546793	0.319136
830.735773	0.319764
830.924735	0.319973
831.113679	0.320020
831.302604	0.319902
831.491511	0.320133
831.680400	0.320202
831.869271	0.320420
832.058123	0.321301
832.246957	0.321673
832.435773	0.322348
832.624571	0.322958
832.813351	0.323775
833.002112	0.324804
833.190855	0.325346
833.379580	0.326107
833.568287	0.326934
833.756975	0.327399
833.945645	0.328300
834.134297	0.328442
834.322931	0.329024
834.511547	0.329185
834.700144	0.329436
834.888723	0.330301
835.077284	0.331199
835.265826	0.331697
835.454351	0.332119
835.642857	0.332509
835.831345	0.333197
836.019815	0.333806
836.208266	0.334486
836.396699	0.335245
836.585114	0.335733
836.773511	0.336024
836.961890	0.336526
837.150250	0.337182
837.338592	0.337730
837.526916	0.338368
837.715222	0.338966
837.903510	0.339623
838.091779	0.340119
838.280030	0.340684
838.468263	0.341041
838.656477	0.341592
838.844674	0.341726
839.032852	0.342456
839.221012	0.342887
839.409153	0.343229
839.597277	0.343833
839.785382	0.344417
839.973469	0.344501
840.161538	0.344916
840.349589	0.345797
840.537621	0.346759
840.725635	0.347222
840.913631	0.347973
841.101609	0.348816
841.289568	0.349389
841.477509	0.349926
841.665432	0.350775
841.853337	0.351511
842.041224	0.351804
842.229092	0.352355
842.416942	0.352765
842.604774	0.353532
842.792588	0.353858
842.980383	0.354480
843.168160	0.354964
843.355919	0.355593
843.543660	0.356118
843.731382	0.356663
843.919087	0.357012
844.106773	0.357728
844.294441	0.358307
844.482090	0.359098
844.669722	0.359575
844.857335	0.360140
845.044930	0.360564
845.232507	0.361257
845.420065	0.361804
845.607605	0.362713
845.795127	0.363141
845.982631	0.363125
846.170117	0.363123
846.357584	0.363607
846.545033	0.364080
846.732464	0.364359
846.919877	0.364744
847.107272	0.365451
847.294648	0.365822
847.482006	0.366157
847.669346	0.367047
847.856667	0.368154
848.043971	0.368675
848.231256	0.369485
848.418523	0.370448
848.605771	0.371282
848.793002	0.371694
848.980214	0.372272
849.167408	0.372964
849.354584	0.373306
849.541742	0.373734
849.728881	0.374397
849.916002	0.374890
850.103105	0.375294
850.290190	0.375602
850.477256	0.375994
850.664304	0.376423
850.851334	0.377198
851.038346	0.377503
851.225340	0.377987
851.412315	0.378261
851.599272	0.378859
851.786211	0.379627
851.973132	0.380147
852.160034	0.380977
852.346918	0.381936
852.533784	0.382312
852.720632	0.383161
852.907462	0.383658
853.094273	0.384390
853.281066	0.384856
853.467841	0.385262
853.654598	0.385774
853.841336	0.385813
854.028056	0.386018
854.214758	0.386295
854.401442	0.386856
854.588107	0.387207
854.774755	0.387942
854.961384	0.388327
855.147995	0.389023
855.334587	0.389675
855.521162	0.390230
855.707718	0.390990
855.894256	0.392129
856.080775	0.392485
856.267277	0.392893
856.453760	0.393241
856.640225	0.393861
856.826672	0.394180
857.013101	0.395065
857.199511	0.396214
857.385903	0.396379
857.572277	0.396793
857.758633	0.397384
857.944970	0.398166
858.131290	0.398522
858.317591	0.398628
858.503873	0.399468
858.690138	0.399789
858.876384	0.400186
859.062612	0.400554
859.248822	0.400776
859.435014	0.401269
859.621188	0.401747
859.807343	0.402675
859.993480	0.403887
860.179599	0.404261
860.365699	0.404657
860.551781	0.405053
860.737846	0.405764
860.923891	0.406192
861.109919	0.406645
861.295929	0.407270
861.481920	0.407532
861.667893	0.407549
861.853848	0.407747
862.039784	0.408494
862.225702	0.408858
862.411603	0.409261
862.597484	0.409874
862.783348	0.410718
862.969193	0.411057
863.155021	0.411465
863.340830	0.411532
863.526620	0.412170
863.712393	0.412294
863.898147	0.412266
864.083883	0.412721
864.269601	0.413023
864.455301	0.413241
864.640982	0.413974
864.826645	0.414517
865.012290	0.415449
865.197917	0.415933
865.383526	0.416694
865.569116	0.417793
865.754688	0.418531
865.940242	0.419444
866.125777	0.419723
866.311295	0.419829
866.496794	0.420225
866.682275	0.420696
866.867737	0.421044
867.053182	0.421417
867.238608	0.421879
867.424016	0.421825
867.609406	0.421803
867.794778	0.422022
867.980131	0.422433
868.165466	0.423014
868.350783	0.423872
868.536082	0.424279
868.721362	0.424232
868.906625	0.424576
869.091869	0.425336
869.277094	0.425912
869.462302	0.426844
869.647491	0.427843
869.832662	0.428132
870.017815	0.428441
870.202950	0.428989
870.388066	0.429740
870.573165	0.429978
870.758245	0.430163
870.943306	0.430482
871.128350	0.430644
871.313375	0.430619
871.498382	0.430946
871.683371	0.431175
871.868342	0.431217
872.053294	0.431909
872.238229	0.432293
872.423144	0.432867
872.608042	0.433005
872.792922	0.433327
872.977783	0.433332
873.162626	0.433915
873.347451	0.433989
873.532258	0.434360
873.717046	0.433983
873.901816	0.434269
874.086568	0.434777
874.271302	0.435453
874.456017	0.436000
874.640715	0.436592
874.825394	0.436655
875.010055	0.437198
875.194697	0.438021
875.379322	0.438640
875.563928	0.439349
875.748516	0.439290
875.933085	0.439662
876.117637	0.439886
876.302170	0.440379
876.486685	0.440566
876.671182	0.440707
876.855661	0.440760
877.040121	0.440987
877.224563	0.441225
877.408987	0.441272
877.593393	0.441420
877.777780	0.441527
877.962150	0.441429
878.146501	0.441479
878.330833	0.441741
878.515148	0.441740
878.699444	0.442085
878.883722	0.442452
879.067982	0.442932
879.252224	0.442854
879.436447	0.443147
879.620653	0.443350
879.804840	0.443868
879.989008	0.444434
880.173159	0.444843
880.357291	0.445129
880.541405	0.445094
880.725501	0.445404
880.909579	0.445800
881.093638	0.446225
881.277680	0.446284
881.461703	0.446383
881.645707	0.445949
881.829694	0.445630
882.013662	0.445670
882.197612	0.445486
882.381544	0.446236
882.565458	0.446335
882.749353	0.446795
882.933230	0.447541
883.117089	0.447468
883.300930	0.447955
883.484753	0.448509
883.668557	0.448469
883.852343	0.448635
884.036111	0.448053
884.219861	0.448115
884.403592	0.447667
884.587305	0.447632
884.771000	0.447892
884.954677	0.447457
885.138335	0.447378
885.321976	0.447612
885.505598	0.447467
885.689201	0.447648
885.872787	0.447556
886.056354	0.447412
886.239904	0.447438
886.423434	0.447581
886.606947	0.448190
886.790442	0.448707
886.973918	0.449012
887.157376	0.449954
887.340816	0.450310
887.524237	0.450477
887.707641	0.450949
887.891026	0.451518
888.074393	0.451902
888.257741	0.452270
888.441072	0.452352
888.624384	0.452530
888.807678	0.452401
888.990954	0.452494
889.174211	0.452575
889.357451	0.452534
889.540672	0.451750
889.723875	0.451335
889.907059	0.451296
890.090226	0.451397
890.273374	0.451041
890.456504	0.450529
890.639616	0.450482
890.822709	0.450609
891.005785	0.449953
891.188842	0.450331
891.371881	0.450780
891.554901	0.450427
891.737904	0.449560
891.920888	0.449856
892.103854	0.450731
892.286802	0.450368
892.469731	0.450538
892.652643	0.450588
892.835536	0.450147
893.018410	0.450134
893.201267	0.449867
893.384106	0.450928
893.566926	0.450727
893.749728	0.449834
893.932511	0.449700
894.115277	0.448964
894.298024	0.449057
894.480753	0.449441
894.663464	0.448738
894.846157	0.448660
895.028831	0.447467
895.211487	0.446757
895.394125	0.446453
895.576745	0.446483
895.759346	0.447121
895.941930	0.447135
896.124495	0.447032
896.307041	0.446510
896.489570	0.446277
896.672080	0.446535
896.854573	0.446289
897.037046	0.446455
897.219502	0.446287
897.401940	0.445341
897.584359	0.445504
897.766760	0.445019
897.949143	0.445443
898.131507	0.445644
898.313854	0.445521
898.496182	0.445843
898.678492	0.444968
898.860783	0.443875
899.043057	0.443922
899.225312	0.443093
899.407549	0.442749
899.589768	0.442499
899.771968	0.441950
899.954151	0.441993
900.136315	0.441632
900.318461	0.441846
900.500588	0.442373
900.682698	0.442218
900.864789	0.442266
901.046862	0.441837
901.228917	0.441620
901.410953	0.441435
901.592971	0.440823
901.774972	0.440758
901.956953	0.440289
902.138917	0.439847
902.320862	0.439517
902.502790	0.439321
902.684699	0.438508
902.866589	0.438481
903.048462	0.438041
903.230316	0.437070
903.412152	0.435936
903.593970	0.435772
903.775770	0.435688
903.957551	0.435267
904.139314	0.434360
904.321059	0.434195
904.502786	0.432975
904.684494	0.432581
904.866185	0.432485
905.047857	0.432118
905.229510	0.430994
905.411146	0.430252
905.592763	0.429653
905.774363	0.429112
905.955943	0.428327
906.137506	0.428375
906.319051	0.427826
906.500577	0.427148
906.682085	0.426830
906.863575	0.426654
907.045046	0.425562
907.226500	0.425529
907.407935	0.425011
907.589352	0.424288
907.770750	0.423767
907.952131	0.422960
908.133493	0.422785
908.314837	0.422063
908.496163	0.421533
908.677470	0.421188
908.858760	0.420188
909.040031	0.419879
909.221284	0.419963
909.402518	0.418978
909.583735	0.418447
909.764933	0.417728
909.946113	0.417257
910.127275	0.416689
910.308418	0.416001
910.489544	0.415393
910.670651	0.414939
910.851740	0.414561
911.032810	0.414241
911.213863	0.413812
911.394897	0.412740
911.575913	0.411847
911.756911	0.411346
911.937890	0.410472
912.118851	0.409579
912.299794	0.408386
912.480719	0.407609
912.661626	0.407612
912.842514	0.407538
913.023384	0.406723
913.204236	0.406319
913.385070	0.406028
913.565886	0.406248
913.746683	0.406276
913.927462	0.405964
914.108223	0.405435
914.288965	0.404077
914.469690	0.402615
914.650396	0.401885
914.831084	0.401105
915.011754	0.399848
915.192405	0.398817
915.373038	0.397678
915.553653	0.396909
915.734250	0.396079
915.914829	0.394774
916.095389	0.393751
916.275931	0.394046
916.456455	0.392969
916.636961	0.392185
916.817448	0.391265
916.997917	0.389805
917.178368	0.388833
917.358801	0.387844
917.539216	0.387609
917.719612	0.387303
917.899990	0.386010
918.080350	0.385779
918.260692	0.385202
918.441015	0.384135
918.621320	0.384768
918.801607	0.383788
918.981876	0.382763
919.162127	0.381248
919.342359	0.380425
919.522573	0.379604
919.702769	0.378193
919.882947	0.377144
920.063106	0.376333
920.243247	0.374232
920.423370	0.373445
920.603475	0.372308
920.783562	0.371562
920.963630	0.370834
921.143680	0.370130
921.323712	0.370045
921.503725	0.368925
921.683721	0.368116
921.863698	0.368018
922.043657	0.367375
922.223598	0.367733
922.403520	0.367012
922.583424	0.365478
922.763311	0.364114
922.943178	0.362896
923.123028	0.361962
923.302859	0.361671
923.482673	0.360338
923.662467	0.359489
923.842244	0.357600
924.022003	0.356602
924.201743	0.356160
924.381465	0.355548
924.561169	0.354431
924.740854	0.354047
924.920522	0.352804
925.100171	0.351861
925.279802	0.351266
925.459414	0.350670
925.639009	0.350029
925.818585	0.348627
925.998143	0.347678
926.177683	0.347033
926.357205	0.345652
926.536708	0.344316
926.716193	0.342693
926.895660	0.341332
927.075109	0.339713
927.254539	0.338353
927.433951	0.338019
927.613345	0.336493
927.792721	0.335367
927.972079	0.334182
928.151418	0.333406
928.330739	0.333287
928.510042	0.332078
928.689327	0.331793
928.868593	0.330841
929.047841	0.329574
929.227071	0.329337
929.406283	0.328013
929.585476	0.326717
929.764652	0.325194
929.943809	0.322793
930.122948	0.320697
930.302068	0.319750
930.481171	0.319290
930.660255	0.318318
930.839321	0.315896
931.018369	0.315039
931.197398	0.314468
931.376409	0.313995
931.555402	0.314186
931.734377	0.313488
931.913334	0.311468
932.092272	0.309140
932.271192	0.307453
932.450094	0.307280
932.628978	0.305442
932.807844	0.303279
932.986691	0.301847
933.165520	0.299601
933.344331	0.299310
933.523123	0.297985
933.701898	0.297619
933.880654	0.296440
934.059392	0.295266
934.238111	0.293892
934.416813	0.292371
934.595496	0.290967
934.774161	0.290483
934.952808	0.289686
935.131437	0.288729
935.310047	0.286862
935.488639	0.285870
935.667213	0.283915
935.845769	0.283616
936.024306	0.283340
936.202825	0.282710
936.381326	0.281161
936.559809	0.278779
936.738274	0.277366
936.916720	0.276035
937.095148	0.274616
937.273558	0.274525
937.451950	0.272871
937.630323	0.271105
937.808678	0.268632
937.987015	0.268131
938.165334	0.267346
938.343635	0.266387
938.521917	0.265709
938.700181	0.263697
938.878427	0.262100
939.056655	0.261377
939.234864	0.260756
939.413055	0.260438
939.591228	0.258404
939.769383	0.257433
939.947519	0.255294
940.125638	0.254717
940.303738	0.254113
940.481820	0.251141
940.659883	0.247915
940.837929	0.246564
941.015956	0.244928
941.193965	0.244069
941.371955	0.241706
941.549928	0.241096
941.727882	0.238357
941.905818	0.237080
942.083736	0.237143
942.261636	0.237950
942.439517	0.235680
942.617380	0.234132
942.795225	0.232566
942.973052	0.232294
943.150860	0.231291
943.328651	0.230359
943.506423	0.229065
943.684176	0.229309
943.861912	0.226611
944.039629	0.226440
944.217328	0.225624
944.395009	0.223885
944.572672	0.223380
944.750317	0.221627
944.927943	0.219578
945.105551	0.216828
945.283141	0.213853
945.460712	0.212890
945.638265	0.211190
945.815801	0.209342
945.993317	0.209304
946.170816	0.206455
946.348297	0.205924
946.525759	0.205176
946.703203	0.205178
946.880629	0.203346
947.058036	0.200710
947.235425	0.200635
947.412797	0.198212
947.590149	0.195928
947.767484	0.195297
947.944800	0.193726
948.122099	0.191703
948.299379	0.191042
948.476640	0.189490
948.653884	0.189176
948.831109	0.185418
949.008316	0.185862
949.185505	0.183833
949.362676	0.180863
949.539828	0.178953
949.716962	0.178440
949.894078	0.176067
950.071176	0.175420
950.248256	0.174838
950.425317	0.174569
950.602360	0.172665
950.779385	0.172428
950.956391	0.171235
951.133380	0.169063
951.310350	0.168087
951.487302	0.166782
951.664235	0.165373
951.841151	0.163296
952.018048	0.163581
952.194927	0.163712
952.371788	0.161045
952.548631	0.161130
952.725455	0.161012
952.902261	0.160277
953.079049	0.158653
953.255819	0.158849
953.432570	0.157728
953.609303	0.156125
953.786018	0.154816
953.962715	0.153353
954.139394	0.150899
954.316054	0.149711
954.492696	0.147018
954.669320	0.145720
954.845926	0.143764
955.022513	0.142879
955.199083	0.140600
955.375634	0.137347
955.552166	0.136682
955.728681	0.136024
955.905177	0.134050
956.081655	0.135182
956.258115	0.136377
956.434557	0.135267
956.610980	0.133534
956.787385	0.133160
956.963772	0.133387
957.140141	0.133222
957.316492	0.132034
957.492824	0.132045
957.669138	0.130314
957.845434	0.126999
958.021712	0.124159
958.197971	0.124669
958.374212	0.123679
958.550435	0.121490
958.726640	0.119507
958.902826	0.117728
959.078995	0.116810
959.255145	0.114837
959.431277	0.115222
959.607390	0.114745
959.783486	0.113603
959.959563	0.113131
960.135622	0.112699
960.311662	0.113538
960.487685	0.114467
960.663689	0.113246
960.839675	0.113559
961.015643	0.112533
961.191593	0.112623
961.367524	0.112843
961.543437	0.111555
961.719332	0.111961
961.895209	0.111350
962.071067	0.110683
962.246907	0.110314
962.422730	0.109216
962.598533	0.107956
962.774319	0.107763
962.950086	0.105534
963.125835	0.105200
963.301566	0.104246
963.477279	0.103255
963.652973	0.102020
963.828650	0.100073
964.004308	0.099252
964.179947	0.100252
964.355569	0.100442
964.531172	0.100331
964.706757	0.100767
964.882324	0.101450
965.057873	0.102222
965.233403	0.103851
965.408916	0.103819
965.584410	0.103752
965.759885	0.102573
965.935343	0.099700
966.110782	0.099943
966.286203	0.098689
966.461606	0.099390
966.636991	0.099281
966.812357	0.097867
966.987705	0.100426
967.163035	0.100881
967.338347	0.102439
967.513641	0.102927
967.688916	0.103113
967.864173	0.103539
968.039412	0.101628
968.214632	0.103272
968.389835	0.103514
968.565019	0.101674
968.740185	0.100950
968.915333	0.098909
969.090462	0.099252
969.265573	0.098431
969.440667	0.097625
969.615741	0.097877
969.790798	0.095958
969.965836	0.095322
970.140856	0.095442
970.315858	0.096174
970.490842	0.095240
970.665808	0.095754
970.840755	0.094950
971.015684	0.095235
971.190595	0.094199
971.365487	0.091064
971.540362	0.090097
971.715218	0.088896
971.890056	0.088857
972.064875	0.090382
972.239677	0.089885
972.414460	0.092008
972.589225	0.091794
972.763972	0.091868
972.938700	0.094819
973.113411	0.095044
973.288103	0.094774
973.462777	0.095510
973.637432	0.094515
973.812070	0.095772
973.986689	0.095584
974.161290	0.096821
974.335873	0.095439
974.510437	0.094454
974.684984	0.096379
974.859512	0.098159
975.034022	0.097478
975.208513	0.099644
975.382987	0.099420
975.557442	0.099698
975.731879	0.099714
975.906298	0.101662
976.080698	0.103301
976.255080	0.101200
976.429445	0.101769
976.603790	0.100783
976.778118	0.099115
976.952427	0.098092
977.126719	0.096790
977.300992	0.096467
977.475246	0.095597
977.649483	0.095127
977.823701	0.096184
977.997901	0.095340
978.172083	0.094712
978.346247	0.093745
978.520392	0.094497
978.694519	0.093799
978.868628	0.093926
979.042719	0.094063
979.216791	0.094207
979.390845	0.092756
979.564882	0.092228
979.738899	0.092551
979.912899	0.091876
980.086880	0.091455
980.260843	0.092956
980.434788	0.090070
980.608715	0.089325
980.782623	0.087135
980.956514	0.089238
981.130386	0.090144
981.304240	0.090726
981.478075	0.092351
981.651892	0.093600
981.825692	0.093510
981.999472	0.095724
982.173235	0.098233
982.346980	0.099821
982.520706	0.097508
982.694414	0.096601
982.868104	0.097165
983.041775	0.099619
983.215428	0.097569
983.389064	0.096866
983.562680	0.097268
983.736279	0.097704
983.909860	0.097098
984.083422	0.097953
984.256966	0.098197
984.430491	0.098896
984.603999	0.097455
984.777488	0.097090
984.950959	0.096127
985.124412	0.097166
985.297847	0.095890
985.471263	0.095809
985.644661	0.097329
985.818041	0.096065
985.991403	0.095945
986.164747	0.094967
986.338072	0.095938
986.511379	0.095094
986.684668	0.092826
986.857938	0.092654
987.031191	0.093434
987.204425	0.091211
987.377641	0.093457
987.550839	0.092457
987.724018	0.092190
987.897179	0.091413
988.070322	0.094153
988.243447	0.095689
988.416554	0.094791
988.589642	0.093464
988.762712	0.093771
988.935764	0.092815
989.108798	0.092447
989.281813	0.091132
989.454811	0.093422
989.627790	0.091867
989.800751	0.090320
989.973693	0.092319
990.146617	0.094036
990.319524	0.093423
990.492412	0.092759
990.665281	0.091454
990.838133	0.093688
991.010966	0.093189
991.183781	0.093330
991.356578	0.093808
991.529356	0.093336
991.702117	0.092196
991.874859	0.092657
992.047583	0.093591
992.220288	0.095882
992.392976	0.093628
992.565645	0.093125
992.738296	0.094397
992.910929	0.094171
993.083543	0.093314
993.256139	0.093380
993.428718	0.093204
993.601277	0.091239
993.773819	0.090663
993.946342	0.093334
994.118848	0.093345
994.291335	0.092154
994.463803	0.093623
994.636254	0.094544
994.808686	0.094457
994.981100	0.096379
995.153496	0.098086
995.325874	0.096516
995.498233	0.095931
995.670574	0.095620
995.842897	0.095045
996.015202	0.094970
996.187488	0.094777
996.359757	0.096085
996.532007	0.097106
996.704239	0.096354
996.876452	0.097307
997.048648	0.097032
997.220825	0.096993
997.392984	0.098888
997.565124	0.097985
997.737247	0.098401
997.909351	0.096553
998.081437	0.094469
998.253505	0.095655
998.425554	0.096157
998.597586	0.095857
998.769599	0.095139
998.941594	0.093211
999.113571	0.093211
999.285529	0.092074
999.457469	0.090888
999.629391	0.090593
999.801295	0.090127
999.973181	0.089207
1000.145048	0.087343
1000.316897	0.087849
1000.488728	0.089813
1000.660541	0.089847
1000.832335	0.089995
1001.004111	0.091627
1001.175869	0.092910
1001.347609	0.093523
1001.519331	0.094131
1001.691034	0.097385
1001.862719	0.096994
1002.034386	0.094693
1002.206035	0.095233
1002.377665	0.094973
1002.549277	0.095282
1002.720871	0.094170
1002.892447	0.093630
1003.064004	0.093728
1003.235544	0.091682
1003.407065	0.091157
1003.578568	0.090873
1003.750052	0.090824
1003.921519	0.091416
1004.092967	0.091501
1004.264397	0.092425
1004.435809	0.092432
1004.607202	0.092290
1004.778577	0.092235
1004.949934	0.094170
1005.121273	0.096783
1005.292594	0.095835
1005.463896	0.096109
1005.635180	0.096091
1005.806446	0.094657
1005.977694	0.093771
1006.148923	0.094234
1006.320135	0.095559
1006.491328	0.094709
1006.662503	0.092250
1006.833659	0.092725
1007.004798	0.092465
1007.175918	0.090336
1007.347020	0.090365
1007.518103	0.090173
1007.689169	0.089223
1007.860216	0.089450
1008.031245	0.089020
1008.202256	0.088681
1008.373248	0.088563
1008.544223	0.088193
1008.715179	0.088062
1008.886117	0.089880
1009.057036	0.091154
1009.227938	0.092533
1009.398821	0.090368
1009.569686	0.091484
1009.740533	0.093940
1009.911361	0.094192
1010.082172	0.095835
1010.252964	0.098724
1010.423738	0.098855
1010.594493	0.100209
1010.765231	0.100534
1010.935950	0.102525
1011.106651	0.099989
1011.277334	0.099398
1011.447998	0.099005
1011.618645	0.097204
1011.789273	0.094866
1011.959882	0.093551
1012.130474	0.092406
1012.301048	0.090194
1012.471603	0.088262
1012.642140	0.089562
1012.812658	0.087164
1012.983159	0.086745
1013.153641	0.087044
1013.324105	0.089669
1013.494551	0.088446
1013.664979	0.087988
1013.835388	0.088024
1014.005779	0.088420
1014.176152	0.089205
1014.346507	0.090973
1014.516843	0.092613
1014.687162	0.091727
1014.857462	0.090259
1015.027744	0.091924
1015.198007	0.091805
1015.368252	0.092361
1015.538480	0.093056
1015.708689	0.093241
1015.878879	0.092033
1016.049052	0.090174
1016.219206	0.090388
1016.389342	0.090812
1016.559460	0.091008
1016.729559	0.091788
1016.899641	0.090976
1017.069704	0.091529
1017.239749	0.091701
1017.409775	0.092886
1017.579784	0.092675
1017.749774	0.094062
1017.919746	0.093689
1018.089700	0.092436
1018.259635	0.091764
1018.429553	0.091813
1018.599452	0.091934
1018.769333	0.090550
1018.939195	0.089354
1019.109040	0.090113
1019.278866	0.090738
1019.448674	0.089495
1019.618464	0.091131
1019.788235	0.091737
1019.957989	0.092766
1020.127724	0.091974
1020.297441	0.091529
1020.467139	0.092001
1020.636820	0.092696
1020.806482	0.092006
1020.976126	0.092915
1021.145752	0.092290
1021.315359	0.092141
1021.484948	0.092136
1021.654519	0.093400
1021.824072	0.093282
1021.993607	0.094329
1022.163123	0.095043
1022.332621	0.093863
1022.502101	0.094639
1022.671563	0.093991
1022.841007	0.092137
1023.010432	0.092377
1023.179839	0.091873
1023.349228	0.094854
1023.518598	0.094018
1023.687951	0.092624
1023.857285	0.093486
1024.026601	0.092782
1024.195899	0.092198
1024.365178	0.094003
1024.534439	0.093060
1024.703682	0.092172
1024.872907	0.090887
1025.042114	0.092774
1025.211302	0.094161
1025.380472	0.092274
1025.549624	0.090852
1025.718758	0.091290
1025.887873	0.088755
1026.056970	0.089432
1026.226049	0.089497
1026.395110	0.087585
1026.564153	0.086963
1026.733177	0.086388
1026.902183	0.085679
1027.071171	0.086959
1027.240141	0.085637
1027.409092	0.085960
1027.578026	0.085031
1027.746940	0.085338
1027.915837	0.085445
1028.084716	0.085007
1028.253576	0.084348
1028.422418	0.084279
1028.591242	0.084913
1028.760048	0.085970
1028.928835	0.087489
1029.097604	0.087311
1029.266355	0.086404
1029.435088	0.086932
1029.603803	0.085590
1029.772499	0.085479
1029.941177	0.088020
1030.109837	0.087124
1030.278478	0.087860
1030.447102	0.086769
1030.615707	0.087748
1030.784294	0.089010
1030.952863	0.089739
1031.121413	0.090946
1031.289945	0.090501
1031.458460	0.090170
1031.626955	0.089966
1031.795433	0.090174
1031.963892	0.090912
1032.132334	0.090723
1032.300756	0.089554
1032.469161	0.091115
1032.637548	0.091345
1032.805916	0.091140
1032.974266	0.090770
1033.142598	0.092197
1033.310911	0.091189
1033.479207	0.091588
1033.647484	0.090448
1033.815743	0.091696
1033.983983	0.089907
1034.152206	0.088954
1034.320410	0.088655
1034.488596	0.087640
1034.656764	0.088519
1034.824914	0.090109
1034.993045	0.088405
1035.161158	0.090582
1035.329253	0.091626
1035.497330	0.092055
1035.665388	0.091755
1035.833428	0.093367
1036.001450	0.094448
1036.169454	0.092001
1036.337440	0.090922
1036.505407	0.093601
1036.673356	0.093045
1036.841287	0.092363
1037.009200	0.091093
1037.177094	0.091165
1037.344970	0.091986
1037.512828	0.091423
1037.680668	0.092615
1037.848489	0.093029
1038.016293	0.091242
1038.184078	0.090041
1038.351845	0.088314
1038.519593	0.088501
1038.687324	0.088499
1038.855036	0.086457
1039.022730	0.086443
1039.190406	0.085518
1039.358063	0.086358
1039.525702	0.087446
1039.693323	0.088667
1039.860926	0.088979
1040.028511	0.090197
1040.196077	0.091053
1040.363625	0.090863
1040.531155	0.091402
1040.698667	0.091138
1040.866161	0.089302
1041.033636	0.089361
1041.201093	0.089574
1041.368532	0.088434
1041.535952	0.088170
1041.703355	0.088822
1041.870739	0.088718
1042.038105	0.089558
1042.205452	0.089565
1042.372782	0.089503
1042.540093	0.090014
1042.707386	0.088882
1042.874661	0.091232
1043.041918	0.090345
1043.209156	0.087744
1043.376376	0.089337
1043.543578	0.087730
1043.710762	0.089485
1043.877927	0.089186
1044.045074	0.087838
1044.212203	0.089173
1044.379314	0.087256
1044.546407	0.088604
1044.713481	0.089312
1044.880537	0.089064
1045.047575	0.091987
1045.214595	0.091004
1045.381596	0.092595
1045.548579	0.093373
1045.715544	0.093532
1045.882491	0.093678
1046.049420	0.094359
1046.216330	0.097384
1046.383222	0.098177
1046.550096	0.095305
1046.716951	0.094094
1046.883789	0.094412
1047.050608	0.094915
1047.217409	0.092670
1047.384192	0.093041
1047.550956	0.091702
1047.717703	0.088554
1047.884431	0.086950
1048.051140	0.089307
1048.217832	0.089162
1048.384505	0.088445
1048.551161	0.088459
1048.717798	0.089387
1048.884416	0.090223
1049.051017	0.090203
1049.217599	0.089863
1049.384163	0.090398
1049.550709	0.088284
1049.717237	0.090036
1049.883746	0.090313
1050.050237	0.090662
1050.216710	0.091500
1050.383165	0.090937
1050.549601	0.090366
1050.716019	0.092750
1050.882420	0.093109
1051.048801	0.093927
1051.215165	0.094408
1051.381510	0.093532
1051.547837	0.091721
1051.714146	0.091487
1051.880437	0.093104
1052.046709	0.094948
1052.212964	0.095549
1052.379200	0.093976
1052.545417	0.093013
1052.711617	0.091902
1052.877798	0.090522
1053.043961	0.091118
1053.210106	0.089510
1053.376233	0.087988
1053.542341	0.087684
1053.708432	0.086392
1053.874504	0.086723
1054.040557	0.088694
1054.206593	0.089988
1054.372610	0.093296
1054.538609	0.094086
1054.704590	0.096391
1054.870553	0.096834
1055.036497	0.096814
1055.202424	0.094958
1055.368331	0.094848
1055.534221	0.093657
1055.700093	0.092421
1055.865946	0.090913
1056.031781	0.089690
1056.197598	0.089733
1056.363397	0.090889
1056.529177	0.090034
1056.694939	0.092772
1056.860683	0.094200
1057.026409	0.092306
1057.192116	0.092545
1057.357806	0.091798
1057.523477	0.092129
1057.689130	0.091732
1057.854764	0.091449
1058.020381	0.091679
1058.185979	0.090147
1058.351559	0.089580
1058.517120	0.092751
1058.682664	0.091171
1058.848189	0.093267
1059.013696	0.094416
1059.179185	0.092945
1059.344656	0.090942
1059.510108	0.090907
1059.675542	0.090544
1059.840958	0.089915
1060.006356	0.088062
1060.171735	0.089434
1060.337096	0.089969
1060.502439	0.088479
1060.667764	0.090898
1060.833071	0.093596
1060.998359	0.093506
1061.163629	0.095877
1061.328881	0.096832
1061.494115	0.098460
1061.659330	0.097360
1061.824527	0.095603
1061.989706	0.096955
1062.154867	0.098229
1062.320010	0.096299
1062.485134	0.095094
1062.650240	0.092728
1062.815328	0.094624
1062.980398	0.094249
1063.145449	0.096613
1063.310482	0.097802
1063.475497	0.097172
1063.640494	0.095959
1063.805473	0.094941
1063.970433	0.096403
1064.135375	0.097657
1064.300299	0.094449
1064.465204	0.093891
1064.630092	0.093944
1064.794961	0.093943
1064.959812	0.092615
1065.124645	0.091137
1065.289459	0.093634
1065.454256	0.094563
1065.619034	0.093985
1065.783793	0.095889
1065.948535	0.095457
1066.113258	0.092627
1066.277964	0.092057
1066.442651	0.093617
1066.607319	0.094010
1066.771970	0.094586
1066.936602	0.092215
1067.101216	0.093484
1067.265812	0.093539
1067.430389	0.093478
1067.594949	0.096627
1067.759490	0.096174
1067.924013	0.097022
1068.088518	0.097654
1068.253004	0.096122
1068.417472	0.099105
1068.581922	0.098058
1068.746354	0.098625
1068.910768	0.099727
1069.075163	0.099924
1069.239540	0.101266
1069.403899	0.099828
1069.568240	0.099671
1069.732562	0.099738
1069.896866	0.096942
1070.061152	0.098632
1070.225420	0.097188
1070.389670	0.098354
1070.553901	0.098522
1070.718114	0.097131
1070.882309	0.097578
1071.046486	0.097902
1071.210644	0.097784
1071.374784	0.098939
1071.538906	0.098455
1071.703010	0.100713
1071.867096	0.097575
1072.031163	0.096605
1072.195212	0.099750
1072.359243	0.102361
1072.523256	0.101443
1072.687250	0.101340
1072.851226	0.101925
1073.015184	0.099561
1073.179124	0.099456
1073.343045	0.101046
1073.506949	0.101189
1073.670834	0.098512
1073.834701	0.095411
1073.998549	0.096793
1074.162380	0.097061
1074.326192	0.097397
1074.489986	0.102793
1074.653761	0.104097
1074.817519	0.103734
1074.981258	0.100106
1075.144979	0.102830
1075.308682	0.104142
1075.472367	0.102865
1075.636033	0.105497
1075.799681	0.105665
1075.963311	0.102763
1076.126923	0.100905
1076.290516	0.102351
1076.454092	0.106759
1076.617649	0.104568
1076.781187	0.106287
1076.944708	0.105860
1077.108210	0.104262
1077.271695	0.104776
1077.435160	0.103477
1077.598608	0.102609
1077.762038	0.103290
1077.925449	0.103198
1078.088842	0.103711
1078.252217	0.101688
1078.415573	0.103249
1078.578912	0.102117
1078.742232	0.102012
1078.905534	0.102653
1079.068817	0.103389
1079.232083	0.102016
1079.395330	0.102860
1079.558559	0.103605
1079.721770	0.102774
1079.884962	0.102827
1080.048136	0.103265
1080.211293	0.104174
1080.374430	0.102073
1080.537550	0.101508
1080.700651	0.102551
1080.863735	0.099788
1081.026800	0.098057
1081.189846	0.099089
1081.352875	0.098850
1081.515885	0.097940
1081.678877	0.096735
1081.841851	0.099510
1082.004807	0.099347
1082.167744	0.098609
1082.330663	0.099273
1082.493564	0.100276
1082.656447	0.104008
1082.819312	0.101227
1082.982158	0.104709
1083.144986	0.104460
1083.307796	0.104816
1083.470587	0.105736
1083.633361	0.103165
1083.796116	0.106539
1083.958853	0.107766
1084.121571	0.104099
1084.284272	0.107331
1084.446954	0.108170
1084.609618	0.107795
1084.772264	0.107253
1084.934892	0.110945
1085.097501	0.114044
1085.260092	0.112167
1085.422665	0.112687
1085.585220	0.113366
1085.747756	0.116111
1085.910274	0.113099
1086.072774	0.113333
1086.235256	0.114712
1086.397720	0.110095
1086.560165	0.109533
1086.722592	0.108774
1086.885001	0.109282
1087.047392	0.109334
1087.209764	0.109720
1087.372119	0.111480
1087.534455	0.114487
1087.696772	0.112495
1087.859072	0.113651
1088.021353	0.117436
1088.183616	0.122781
1088.345861	0.121904
1088.508088	0.122647
1088.670296	0.121868
1088.832486	0.120158
1088.994658	0.118666
1089.156812	0.121667
1089.318948	0.124235
1089.481065	0.122716
1089.643164	0.120683
1089.805245	0.119409
1089.967308	0.119282
1090.129352	0.114757
1090.291378	0.115077
1090.453386	0.113481
1090.615376	0.112413
1090.777347	0.109826
1090.939301	0.108853
1091.101236	0.110200
1091.263153	0.113536
1091.425051	0.113717
1091.586932	0.120196
1091.748794	0.122436
1091.910638	0.124202
1092.072463	0.125720
1092.234271	0.128107
1092.396060	0.126731
1092.557831	0.127587
1092.719584	0.126096
1092.881319	0.123755
1093.043035	0.120226
1093.204733	0.119852
1093.366413	0.120799
1093.528075	0.120832
1093.689718	0.118437
1093.851343	0.123138
1094.012950	0.117580
1094.174539	0.116092
1094.336110	0.117951
1094.497662	0.116837
1094.659196	0.121538
1094.820712	0.121269
1094.982210	0.122117
1095.143689	0.120648
1095.305151	0.117413
1095.466594	0.120003
1095.628018	0.120671
1095.789425	0.122714
1095.950813	0.122607
1096.112183	0.117529
1096.273535	0.113351
1096.434869	0.112959
1096.596184	0.113762
1096.757482	0.116169
1096.918761	0.117792
1097.080021	0.116330
1097.241264	0.108945
1097.402488	0.113873
1097.563694	0.115291
1097.724882	0.121284
1097.886052	0.122198
1098.047203	0.122487
1098.208336	0.121873
1098.369451	0.118092
1098.530548	0.118072
1098.691627	0.126314
1098.852687	0.123160
1099.013729	0.122033
1099.174753	0.119587
1099.335758	0.119321
1099.496746	0.120443
1099.657715	0.118211
1099.818666	0.119090
1099.979599	0.119859
1100.140513	0.118281
1100.301409	0.118355
1100.462287	0.115959
1100.623147	0.120682
1100.783989	0.121460
1100.944812	0.123553
1101.105617	0.124406
1101.266404	0.122870
1101.427173	0.123186
1101.587923	0.127176
1101.748656	0.125323
1101.909370	0.129204
1102.070066	0.125008
1102.230743	0.121673
1102.391403	0.123944
1102.552044	0.127470
1102.712667	0.129919
1102.873271	0.132624
1103.033858	0.129575
1103.194426	0.132130
1103.354976	0.126232
1103.515508	0.130353
1103.676021	0.130866
1103.836517	0.128935
1103.996994	0.132159
1104.157453	0.135309
1104.317893	0.135587
1104.478316	0.138280
1104.638720	0.137191
1104.799106	0.143869
1104.959474	0.139506
1105.119823	0.142095
1105.280155	0.139506
1105.440468	0.134661
1105.600763	0.130814
1105.761039	0.126626
1105.921298	0.124620
1106.081538	0.124367
1106.241760	0.126270
1106.401964	0.124277
1106.562149	0.124154
1106.722316	0.124732
1106.882465	0.122878
1107.042596	0.129167
1107.202709	0.128634
1107.362803	0.130701
1107.522879	0.132222
1107.682937	0.131042
1107.842977	0.131198
1108.002999	0.125880
1108.163002	0.126058
1108.322987	0.126560
1108.482954	0.123772
1108.642902	0.127207
1108.802833	0.125280
1108.962745	0.126088
1109.122639	0.123486
1109.282515	0.127778
1109.442372	0.133796
1109.602211	0.133309
1109.762032	0.132508
1109.921835	0.128595
1110.081620	0.126030
1110.241386	0.125925
1110.401134	0.127939
1110.560864	0.130895
1110.720576	0.131072
1110.880269	0.130897
1111.039945	0.130518
1111.199602	0.131004
1111.359240	0.134083
1111.518861	0.139371
1111.678463	0.137866
1111.838047	0.134790
1111.997613	0.131908
1112.157161	0.126364
1112.316690	0.127696
1112.476202	0.133035
1112.635695	0.132980
1112.795169	0.132617
1112.954626	0.124777
1113.114064	0.126168
1113.273484	0.126767
1113.432886	0.127872
1113.592270	0.135701
1113.751635	0.133466
1113.910983	0.127602
1114.070312	0.128715
1114.229622	0.134461
1114.388915	0.138561
1114.548189	0.136553
1114.707445	0.139647
1114.866683	0.142872
1115.025903	0.138209
1115.185104	0.143005
1115.344287	0.151159
1115.503452	0.150581
1115.662599	0.142502
1115.821727	0.142004
1115.980838	0.139601
1116.139930	0.137261
1116.299004	0.138781
1116.458059	0.142379
1116.617097	0.141218
1116.776116	0.140249
1116.935117	0.146286
1117.094099	0.147624
1117.253064	0.152488
1117.412010	0.158766
1117.570938	0.163621
1117.729848	0.158890
1117.888740	0.158554
1118.047613	0.156097
1118.206468	0.148927
1118.365305	0.147117
1118.524124	0.152742
1118.682924	0.150248
1118.841707	0.149592
1119.000471	0.148177
1119.159216	0.146914
1119.317944	0.144895
1119.476653	0.143760
1119.635344	0.148293
1119.794017	0.147277
1119.952672	0.144061
1120.111308	0.146683
1120.269927	0.150338
1120.428527	0.148813
1120.587108	0.152190
1120.745672	0.156878
1120.904217	0.155409
1121.062744	0.156442
1121.221253	0.157650
1121.379744	0.153372
1121.538216	0.154370
1121.696671	0.147715
1121.855107	0.142058
1122.013524	0.140212
1122.171924	0.135055
1122.330305	0.138707
1122.488668	0.140613
1122.647013	0.140696
1122.805340	0.145707
1122.963648	0.141032
1123.121938	0.144606
1123.280210	0.154518
1123.438464	0.154599
1123.596700	0.155121
1123.754917	0.157451
1123.913116	0.148808
1124.071297	0.145312
1124.229459	0.139984
1124.387604	0.144135
1124.545730	0.147508
1124.703838	0.139584
1124.861928	0.142130
1125.019999	0.140268
1125.178052	0.136700
1125.336088	0.144559
1125.494104	0.143581
1125.652103	0.147486
1125.810083	0.146048
1125.968045	0.144370
1126.125989	0.149936
1126.283915	0.144341
1126.441823	0.148417
1126.599712	0.145658
1126.757583	0.142610
1126.915436	0.147547
1127.073270	0.148891
1127.231087	0.151023
1127.388885	0.151226
1127.546665	0.149872
1127.704426	0.151665
1127.862170	0.156533
1128.019895	0.160549
1128.177602	0.161812
1128.335291	0.159819
1128.492961	0.164381
1128.650614	0.159010
1128.808248	0.157637
1128.965864	0.164096
1129.123461	0.166660
1129.281041	0.164461
1129.438602	0.162186
1129.596145	0.165087
1129.753670	0.159917
1129.911176	0.152822
1130.068665	0.159323
1130.226135	0.158809
1130.383587	0.151605
1130.541020	0.149877
1130.698436	0.150380
1130.855833	0.149654
1131.013212	0.144441
1131.170573	0.150825
1131.327915	0.151780
1131.485239	0.149037
1131.642545	0.153800
1131.799833	0.149902
1131.957103	0.147675
1132.114354	0.143830
1132.271588	0.145969
1132.428803	0.145397
1132.585999	0.142362
1132.743178	0.150586
1132.900338	0.147308
1133.057480	0.147832
1133.214604	0.152351
1133.371710	0.157700
1133.528797	0.160330
1133.685866	0.161978
1133.842917	0.174580
1133.999950	0.175203
1134.156964	0.163174
1134.313960	0.165173
1134.470938	0.159235
1134.627898	0.159672
1134.784840	0.158609
1134.941763	0.147634
1135.098668	0.145567
1135.255555	0.143283
1135.412424	0.147958
1135.569274	0.149801
1135.726107	0.149172
1135.882921	0.152069
1136.039716	0.146538
1136.196494	0.148888
1136.353253	0.154649
1136.509995	0.151744
1136.666717	0.140844
1136.823422	0.138386
1136.980109	0.144150
1137.136777	0.150978
1137.293427	0.145180
1137.450059	0.153391
1137.606672	0.156882
1137.763267	0.163352
1137.919844	0.171765
1138.076403	0.179670
1138.232944	0.176899
1138.389466	0.173491
1138.545971	0.170742
1138.702457	0.173796
1138.858924	0.174560
1139.015374	0.173367
1139.171805	0.165865
1139.328218	0.161342
1139.484613	0.150747
1139.640990	0.146564
1139.797348	0.141742
1139.953688	0.142350
1140.110010	0.145076
1140.266314	0.136937
1140.422600	0.133634
1140.578867	0.143794
1140.735116	0.152920
1140.891347	0.162519
1141.047559	0.168572
1141.203754	0.175950
1141.359930	0.163447
1141.516088	0.167059
1141.672228	0.173836
1141.828349	0.169721
1141.984452	0.165413
1142.140537	0.150593
1142.296604	0.148071
1142.452653	0.144514
1142.608683	0.137423
1142.764695	0.143455
1142.920689	0.133177
1143.076665	0.130510
1143.232622	0.132077
1143.388562	0.124901
1143.544483	0.133537
1143.700385	0.125816
1143.856270	0.128872
1144.012136	0.133864
1144.167985	0.131535
1144.323814	0.136479
1144.479626	0.139600
1144.635420	0.145907
1144.791195	0.154715
1144.946952	0.156590
1145.102691	0.162629
1145.258411	0.163473
1145.414113	0.170884
1145.569798	0.178428
1145.725463	0.179266
1145.881111	0.170369
1146.036741	0.162438
1146.192352	0.148302
1146.347945	0.142041
1146.503519	0.140940
1146.659076	0.140502
1146.814614	0.134662
1146.970134	0.134508
1147.125636	0.128537
1147.281120	0.139701
1147.436585	0.145453
1147.592032	0.153301
1147.747461	0.150905
1147.902872	0.156208
1148.058265	0.158115
1148.213639	0.158542
1148.368995	0.156887
1148.524333	0.162815
1148.679653	0.158421
1148.834954	0.151533
1148.990237	0.159972
1149.145502	0.157047
1149.300749	0.147469
1149.455977	0.148967
1149.611188	0.148836
1149.766380	0.150610
1149.921553	0.153133
1150.076709	0.155028
1150.231846	0.159607
1150.386966	0.156571
1150.542066	0.163620
1150.697149	0.170394
1150.852214	0.162375
1151.007260	0.157599
1151.162288	0.150377
1151.317298	0.154052
1151.472289	0.152311
1151.627263	0.147197
1151.782218	0.143634
1151.937155	0.135981
1152.092073	0.144717
1152.246974	0.144898
1152.401856	0.147725
1152.556720	0.157955
1152.711566	0.150950
1152.866393	0.149318
1153.021203	0.147633
1153.175994	0.156266
1153.330767	0.169479
1153.485521	0.166671
1153.640258	0.174965
1153.794976	0.173802
1153.949676	0.177661
1154.104358	0.179088
1154.259021	0.182128
1154.413667	0.191330
1154.568294	0.174626
1154.722903	0.173452
1154.877493	0.182006
1155.032066	0.178191
1155.186620	0.173719
1155.341156	0.175662
1155.495674	0.173595
1155.650173	0.170405
1155.804654	0.173661
1155.959118	0.183186
1156.113562	0.178108
1156.267989	0.162938
1156.422397	0.163163
1156.576788	0.170210
1156.731160	0.158817
1156.885513	0.156379
1157.039849	0.151614
1157.194166	0.146736
1157.348465	0.139837
1157.502746	0.137480
1157.657009	0.144772
1157.811253	0.146508
1157.965479	0.153270
1158.119687	0.156186
1158.273877	0.156555
1158.428048	0.157007
1158.582201	0.157026
1158.736337	0.165750
1158.890453	0.168478
1159.044552	0.156637
1159.198632	0.160564
1159.352694	0.156717
1159.506738	0.157413
1159.660764	0.159763
1159.814771	0.159773
1159.968761	0.153982
1160.122732	0.146808
1160.276685	0.158993
1160.430619	0.157503
1160.584535	0.139230
1160.738434	0.140950
1160.892313	0.149038
1161.046175	0.152249
1161.200019	0.162250
1161.353844	0.174508
1161.507651	0.192039
1161.661440	0.175688
1161.815210	0.197294
1161.968962	0.214015
1162.122697	0.206624
1162.276412	0.186131
1162.430110	0.192155
1162.583789	0.185098
1162.737451	0.169924
1162.891094	0.155037
1163.044718	0.157230
1163.198325	0.147360
1163.351913	0.144223
1163.505483	0.141038
1163.659035	0.163049
1163.812569	0.154996
1163.966084	0.150805
1164.119581	0.158937
1164.273060	0.146933
1164.426521	0.138907
1164.579964	0.139925
1164.733388	0.147908
1164.886794	0.154471
1165.040182	0.140998
1165.193551	0.139916
1165.346903	0.134313
1165.500236	0.125966
1165.653551	0.144747
1165.806848	0.153028
1165.960126	0.136335
1166.113386	0.128949
1166.266628	0.131477
1166.419852	0.137599
1166.573058	0.130471
1166.726245	0.142775
1166.879414	0.138884
1167.032565	0.137834
1167.185698	0.136376
1167.338812	0.152904
1167.491909	0.150461
1167.644987	0.134832
1167.798046	0.138190
1167.951088	0.152025
1168.104111	0.153971
1168.257117	0.181736
1168.410103	0.174493
1168.563072	0.181588
1168.716023	0.176516
1168.868955	0.156776
1169.021869	0.167743
1169.174765	0.154094
1169.327642	0.134969
1169.480501	0.122284
1169.633343	0.097036
1169.786165	0.108361
1169.938970	0.110297
1170.091757	0.114952
1170.244525	0.132953
1170.397275	0.145805
1170.550007	0.146657
1170.702720	0.165111
1170.855415	0.178119
1171.008092	0.195970
1171.160751	0.188558
1171.313392	0.185352
1171.466014	0.170308
1171.618619	0.190061
1171.771205	0.190061
1171.923772	0.190061
