sample name	sample
index	1421
start time	 05-10-2021  12:06:24 PM
880	0.291477
Peak Time (s)	92.035
Peak Height 	0.2915
calc peak height	90,93
Baseline Time (s)	8.539
Baseline Value 	-0.002764
subtract baseline	10,4
Abs	0.185222
Peak Time (s)	90.537
Peak Height 	0.1852
calc peak height	90,93
Baseline Time (s)	8.539
Baseline Value 	0.001705
subtract baseline	10,3
PK_550	0.104649
Peak Time (s)	90.037
Peak Height 	0.1046
calc peak height	90,93
Baseline Time (s)	8.539
Baseline Value 	3.082E-4
subtract baseline	10,2
PK_880	0.169857
Peak Time (s)	91.538
Peak Height 	0.1699
calc peak height	90,93
Baseline Time (s)	10.537
Baseline Value 	5.9838E-5
subtract baseline	10,1


Time (s)	A880-A510	A880-A775	A880-A975	A880	I510	I775	I975	I880	
0.036500	-0.001146	0.000419	-0.001499	0.006392	6426.926930	43662.661883	3916.584462	22417.288643
0.537000	-0.001294	-0.000576	-0.005005	0.004239	6443.482418	43771.464025	3913.157063	22514.506045
1.037500	0.000578	0.000508	-0.000502	0.004359	6457.998423	43862.111790	3924.293287	22509.058687
1.535000	0.001707	-0.000400	-0.000531	0.001423	6491.929530	44053.685431	3931.742684	22642.365886
2.035500	-0.000055	0.000545	0.000161	0.007278	6428.618181	43591.440137	3918.548278	22377.425131
2.539000	-0.001037	0.000680	-0.001617	0.001470	6468.598117	44151.607003	3928.833626	22640.208927
3.036000	-0.000047	-0.000656	-0.004160	-0.001050	6497.968280	44264.121453	3928.776304	22755.368760
3.536500	0.000486	-0.000535	-0.002836	-0.000005	6493.672758	44176.336966	3929.490366	22707.550157
4.039000	0.000049	-0.000661	-0.005275	0.004454	6452.823530	43743.213560	3911.934059	22504.786120
4.537000	0.001665	0.000457	-0.000943	0.000428	6499.930734	44229.450568	3933.243312	22687.754698
5.037000	-0.000894	-0.000410	-0.000382	-0.000188	6483.633850	44205.527648	3936.276257	22715.881073
5.537000	0.000758	-0.000433	-0.001295	-0.000313	6498.533957	44215.199275	3934.243397	22721.613391
6.035000	0.003086	0.000350	-0.001397	0.000261	6513.296610	44235.106315	3932.503550	22695.363773
6.535500	-0.000394	-0.000029	-0.002561	-0.000058	6486.737541	44229.383770	3930.333582	22709.957661
7.035500	0.000949	-0.000577	0.000226	-0.000428	6501.105766	44212.464026	3938.467725	22726.880179
7.535000	0.002351	0.000113	0.000875	0.000226	6507.396944	44215.830920	3938.453231	22696.955219
8.036000	-0.001237	-0.000519	0.003015	-0.000370	6482.292806	44212.463421	3945.553704	22724.224604
8.539000	-0.000563	0.000000	0.000000	0.000000	6484.832598	44226.646470	3936.777471	22707.302232
9.036500	0.001236	-0.000579	-0.003179	-0.000569	6504.703739	44225.672928	3930.055287	22733.304924
9.537000	0.000944	-0.000042	-0.000934	0.000215	6495.661745	44202.241577	3933.814396	22697.482712
10.037500	0.001490	0.000485	0.001167	0.000780	6495.506504	44198.605918	3937.776953	22671.699434
10.537500	0.000000	-0.000425	0.001247	-0.000134	6490.671146	44198.959424	3940.348071	22713.414614
11.035000	-0.000058	0.000207	-0.000443	0.000286	6486.668814	44219.198858	3934.898708	22694.252987
11.535500	-0.000328	0.000145	0.002235	-0.000590	6491.746916	44296.585461	3944.096283	22734.296770
12.035500	-0.001335	-0.000250	-0.002576	0.004352	6442.212521	43791.485269	3919.029954	22509.400189
12.536000	0.000799	-0.000145	-0.004014	0.000002	6496.231919	44212.658394	3926.453581	22707.190997
13.036000	0.000797	0.000263	0.004248	0.000132	6495.127244	44239.082827	3947.455912	22701.258795
13.537000	0.002853	-0.000168	0.004347	0.000119	6512.529445	44199.341403	3947.746601	22701.843319
14.037000	-0.000869	-0.000331	-0.001532	0.004207	6447.264239	43797.451254	3922.055997	22515.955538
14.540000	-0.000033	0.000725	0.002469	0.002137	6471.411632	44092.674487	3937.635939	22609.882930
15.034500	0.002761	0.000710	-0.000026	0.000377	6509.577487	44258.249383	3935.735228	22690.060286
15.537500	-0.000065	-0.000008	0.000086	0.000060	6488.507549	44220.199537	3936.844260	22704.561346
16.035000	-0.000711	0.000256	-0.003647	0.004522	6445.960795	43823.030118	3915.879421	22501.683156
16.535500	0.000266	0.000091	0.003522	0.000618	6486.596628	44176.555083	3944.301850	22679.069757
17.035500	0.002760	0.001127	-0.000214	-0.001869	6528.543860	44512.413812	3941.058604	22792.897984
17.536000	0.001367	-0.000021	0.001181	0.001615	6487.472442	44071.359741	3935.657027	22633.623104
18.036000	-0.000976	0.000220	-0.001090	0.003776	6449.953146	43889.989816	3924.282546	22535.488125
18.537000	0.001088	-0.000549	-0.003629	0.001262	6488.096867	44054.875973	3924.218683	22649.709141
19.037000	0.001787	-0.000500	-0.000327	0.001396	6492.828665	44046.852838	3932.336542	22643.608155
19.537000	0.000771	0.000135	0.000037	0.001640	6482.276897	44083.749002	3932.645788	22632.473694
20.034500	-0.001736	0.000278	-0.003932	0.003374	6446.976732	43933.283749	3918.067652	22553.674090
20.537500	0.000452	-0.000059	0.001173	0.002056	6476.130930	44026.007669	3934.499521	22613.540706
21.035000	0.000663	-0.000496	-0.001557	0.001577	6481.898625	44030.026204	3928.712888	22635.359931
21.536000	0.000765	-0.000475	0.000471	0.001520	6483.227565	44037.418353	3934.070967	22637.952732
22.036000	-0.000398	-0.001080	-0.001854	0.002855	6462.386240	43854.194985	3924.682784	22577.225538
22.536000	-0.000287	-0.000138	-0.000213	0.001749	6472.532512	44047.664496	3931.723680	22627.542877
23.036500	-0.000379	0.000314	0.000001	0.001953	6470.064511	44071.134190	3931.747194	22618.235421
23.537000	0.000350	0.000234	-0.000947	0.002227	6473.851273	44037.563722	3928.610639	22605.774366
24.037000	-0.001211	-0.000475	-0.001444	0.002812	6455.997826	43915.390334	3925.840203	22579.207038
24.537500	0.002095	0.001011	0.000438	0.002018	6490.194651	44130.975647	3932.704159	22615.277290
25.040500	0.001102	0.000019	0.004769	0.001448	6486.646382	44090.962878	3945.384958	22641.211755
25.535000	0.003106	0.000524	-0.002197	0.002029	6498.583218	44083.771414	3925.916907	22614.779966
26.038000	0.000603	0.000030	0.002711	0.001221	6484.367665	44113.494150	3940.629448	22651.555279
26.535500	-0.000012	0.000194	0.001298	0.001772	6474.628567	44076.905295	3935.552436	22626.460456
27.035500	0.002006	0.000777	0.005513	-0.000625	6511.668404	44360.171160	3952.742020	22735.908189
27.535500	0.002253	0.000719	-0.004806	0.000257	6506.316184	44270.666128	3923.779009	22695.580415
28.036500	-0.001088	-0.000289	0.002699	0.002900	6456.288990	43924.594874	3936.260558	22575.216360
28.537000	0.000185	-0.000060	0.000095	0.000103	6490.243071	44211.203153	3936.757864	22702.603156
29.037000	0.000811	-0.000363	-0.001924	0.000049	6495.943966	44187.503422	3931.693177	22705.056532
29.537500	0.002232	0.000224	0.001145	0.000613	6503.141444	44189.637293	3938.153075	22679.301711
30.035000	0.000099	-0.000359	-0.000301	0.001504	6477.801183	44049.967979	3932.126310	22638.689618
30.539000	-0.001309	-0.000870	-0.003795	0.002083	6461.236011	43946.888674	3921.699345	22612.321175
31.036000	0.000398	0.000912	0.000108	0.002482	6472.131019	44077.629536	3930.661831	22594.176751
31.536000	0.003121	0.000265	-0.000672	0.000217	6513.968614	44231.155676	3934.483822	22697.380139
32.036000	-0.000193	0.000901	0.002443	0.002856	6464.089893	44041.239187	3935.713143	22577.207338
32.536500	0.001555	0.000548	0.000021	0.000778	6496.066647	44204.754662	3934.822744	22671.763773
33.036500	0.001531	-0.000514	0.003524	-0.000223	6504.278925	44198.981105	3946.493989	22717.484074
33.536500	0.001130	0.000268	0.000709	0.001431	6487.031719	44116.240752	3934.915457	22642.021406
34.037500	0.000521	-0.000467	0.002290	0.001734	6479.400287	44018.008045	3938.214304	22628.230912
34.535000	-0.000811	0.000499	0.004001	0.002223	6464.215341	44063.038874	3941.376336	22605.940774
35.038000	0.000074	0.000173	0.001482	0.001837	6474.805153	44068.750707	3935.860252	22623.516737
35.539500	-0.000388	-0.000003	0.000193	0.002185	6468.061344	44019.214444	3931.646821	22607.708520
36.036000	-0.001346	-0.000406	-0.001062	0.001232	6468.012874	44071.252239	3930.869120	22651.082715
36.535500	0.000240	-0.000571	-0.000965	0.001118	6482.207132	44066.386524	3931.411577	22656.289579
37.036000	0.000801	0.000768	0.001537	0.002334	6476.729414	44078.005656	3934.722147	22600.912768
37.536500	0.001140	-0.000287	0.001751	0.001783	6484.169685	44030.333384	3936.695275	22625.999288
38.037000	0.000623	0.000862	-0.001263	0.002023	6477.843624	44116.486701	3928.324305	22615.068683
38.537500	0.001459	0.000545	0.002682	0.002089	6484.273443	44080.163808	3938.309272	22612.058120
39.037500	-0.000282	0.000275	0.003369	0.002248	6468.414960	44039.514999	3939.675632	22604.822495
39.537500	-0.000465	-0.000088	-0.001455	0.001838	6470.303895	44043.897495	3928.306351	22623.462892
40.035000	-0.002098	0.000031	0.000256	0.003443	6443.416013	43903.607193	3928.576831	22550.572990
40.535500	-0.000869	0.000549	0.009877	0.002358	6462.602896	44054.986057	3956.362574	22599.803906
41.036000	0.002192	0.000433	0.003459	0.002385	6487.928384	44041.459227	3939.552864	22598.582931
41.536000	0.000548	0.000264	-0.001142	0.002227	6475.507889	44040.415518	3928.111680	22605.784416
42.036000	-0.001289	0.000142	0.002819	0.004150	6444.257784	43847.353602	3933.344666	22518.526319
42.537000	0.001370	0.000172	0.005214	0.001679	6486.963239	44083.620516	3945.941927	22630.702878
43.037000	0.000645	0.000277	-0.000454	0.001846	6479.501130	44077.708913	3930.851837	22623.100448
43.537500	0.002674	0.001183	0.004420	-0.002396	6532.283883	44568.265703	3954.518601	22817.104106
44.037500	-0.002007	0.000432	0.000717	0.005718	6425.391859	43727.196440	3923.937840	22447.681837
44.537500	0.002721	-0.000347	0.001319	-0.000441	6516.150343	44235.579829	3941.333663	22727.486936
45.035500	0.002282	0.000329	0.004211	-0.000199	6510.394258	44276.858287	3948.222562	22716.380719
45.535500	0.001766	0.000519	0.000013	0.000339	6501.530926	44243.747417	3935.936285	22691.827916
46.038500	-0.002498	-0.000455	0.001825	0.004248	6433.459617	43781.987960	3930.538839	22514.111057
46.536000	0.002769	0.000822	0.004867	0.000574	6507.990438	44250.233096	3947.920684	22681.107331
47.039000	-0.000807	-0.000180	-0.000882	0.002106	6465.218876	44009.853329	3929.088631	22611.282854
47.536500	-0.000613	-0.000121	-0.002815	0.002283	6465.371498	43998.740432	3923.691924	22603.256681
48.040000	-0.002103	-0.000486	0.001003	0.004745	6432.615671	43732.308580	3927.155318	22491.622356
48.537500	0.003430	0.000737	0.004014	0.000301	6515.867875	44268.114151	3946.408110	22693.568471
49.034500	0.002464	0.000672	0.001227	0.000608	6505.138682	44232.702983	3938.377869	22679.539440
49.535000	0.003499	0.000717	-0.001707	-0.002371	6539.074580	44521.223116	3938.494475	22815.959325
50.035500	-0.001597	0.000084	-0.002389	0.006421	6422.979244	43628.560148	3914.254750	22415.991415
50.535500	-0.007917	-0.009735	0.009604	0.000416	6420.385794	43272.839624	3960.758059	22688.297986
51.035500	0.003778	-0.023770	0.026198	0.219639	5064.199480	26512.272470	3533.660386	14828.471841
51.536500	-0.009503	-0.035149	-0.021668	-0.133374	7690.691029	54704.740574	4265.738324	29842.663825
52.036500	-0.025158	-0.100947	-0.039618	-0.281422	9415.845977	65498.222728	4772.340461	40803.765730
52.539000	-0.013911	-0.066211	-0.019046	-0.234538	8898.621354	63772.632981	4657.295054	36920.810022
53.037500	-0.000846	-0.035001	-0.011458	-0.171499	8241.204696	59473.794341	4436.497474	32318.628606
53.534500	-0.004617	-0.022949	0.001854	-0.092038	7301.032162	51346.001717	4207.447611	27392.773173
54.035000	-0.012833	-0.013629	-0.006937	-0.079734	7095.624329	51014.412286	4141.439587	26707.418375
54.535000	-0.006343	-0.028106	-0.006958	-0.158995	8022.337111	58748.241033	4406.890719	31482.526489
55.035500	0.010029	-0.031574	0.004653	-0.179539	8481.177545	60986.276667	4529.203555	32869.064450
55.536000	0.016444	-0.017746	0.019965	-0.133634	7991.762370	56853.445512	4412.627173	29858.843835
56.036000	0.025757	-0.003774	0.032786	-0.031482	7002.230447	46946.638294	4115.651914	24199.611231
56.536000	0.037351	0.006152	0.049335	0.020859	6630.400125	42851.935923	4012.777451	21776.485872
57.039500	0.049483	0.013050	0.062021	0.065474	6357.990726	39531.919024	3927.895217	19929.525846
57.537000	0.062224	0.023522	0.075760	0.093179	6239.189190	38108.359212	3892.683435	18874.506153
58.037500	0.074831	0.032611	0.082801	0.115590	6163.553595	37045.996026	3855.222262	18069.004607
58.535000	0.085332	0.039378	0.093498	0.138741	6068.433975	35783.313780	3825.823106	17279.384845
59.035500	0.093035	0.043707	0.103411	0.154294	6010.791654	34945.372512	3812.783021	16772.073224
59.535500	0.099573	0.047830	0.120427	0.173544	5919.621301	33849.761895	3807.664094	16168.810926
60.035500	0.111623	0.056410	0.125665	0.234316	5593.911496	30349.730995	3688.545599	14430.709351
60.536000	0.113404	0.055793	0.128878	0.226427	5655.681103	30812.496533	3711.156144	14642.824195
61.036500	0.121171	0.063159	0.136097	0.206450	5840.741992	32623.749932	3769.052782	15197.566709
61.539500	0.124800	0.064778	0.143007	0.234583	5676.688292	30865.754221	3723.561281	14423.575794
62.036500	0.128586	0.074313	0.143089	0.243072	5646.252488	30933.124133	3706.149829	14199.722858
62.536500	0.131665	0.077101	0.140178	0.240028	5685.945213	31311.549642	3706.421514	14279.482908
63.064000	0.135140	0.080413	0.148510	0.237027	5728.546959	31726.948201	3729.981519	14358.679576
63.537500	0.135129	0.083696	0.141504	0.236831	5729.773919	31958.483269	3715.752462	14363.879765
64.035500	0.139083	0.085581	0.143933	0.235760	5763.281447	32156.686640	3723.039119	14392.296331
64.535500	0.141173	0.087400	0.147064	0.236678	5771.150237	32217.384909	3727.675545	14367.934844
65.036500	0.145922	0.089227	0.147613	0.236972	5801.266664	32320.869741	3728.210411	14360.139869
65.535500	0.144233	0.089359	0.143590	0.236978	5789.767193	32329.403085	3719.780914	14359.969885
66.037000	0.143009	0.091483	0.147354	0.245247	5726.214880	31916.500179	3710.446145	14143.053904
66.537000	0.149350	0.093198	0.154301	0.241213	5795.753669	32302.676104	3733.369619	14248.379629
67.037000	0.152755	0.093670	0.154726	0.241616	5816.179519	32307.262746	3733.415596	14237.800783
67.537500	0.154285	0.095318	0.156577	0.242541	5820.310856	32356.229895	3735.375728	14213.597639
68.035000	0.152367	0.096280	0.154621	0.248308	5768.224910	32032.571735	3719.159566	14063.811784
68.535000	0.161911	0.098303	0.151987	0.243715	5864.760132	32479.111704	3723.243773	14182.927552
69.035500	0.159801	0.099357	0.162183	0.244375	5845.600028	32505.935841	3743.401545	14165.739603
69.535500	0.162724	0.100744	0.162732	0.245177	5860.264556	32545.839606	3742.861790	14144.882987
70.036500	0.161700	0.101675	0.160557	0.246254	5845.739113	32535.836190	3735.941252	14116.929842
70.536500	0.162578	0.101540	0.166136	0.247045	5846.337548	32472.814405	3746.147933	14096.431820
71.037000	0.164813	0.103453	0.166524	0.248805	5849.616343	32483.251400	3743.211987	14050.987932
71.537000	0.164297	0.103694	0.160452	0.250122	5836.988580	32410.102145	3727.559162	14017.103669
72.037000	0.162532	0.103761	0.163613	0.257602	5774.078774	31911.358651	3718.530626	13826.561210
72.534500	0.164211	0.104584	0.168295	0.253518	5813.136699	32240.618945	3736.947879	13930.194177
73.035000	0.166155	0.103914	0.167271	0.254903	5816.950538	32102.234271	3731.847353	13894.921514
73.534500	0.165377	0.104886	0.168442	0.259003	5783.815599	31892.955155	3725.687699	13791.215059
74.035500	0.163364	0.104864	0.162262	0.266780	5718.426972	31377.633558	3696.893572	13597.180903
74.536000	0.168050	0.106093	0.169761	0.264004	5768.139928	31641.158589	3718.003196	13666.066142
75.037000	0.167607	0.106253	0.176523	0.265335	5756.236987	31563.798006	3729.361444	13632.972007
75.536000	0.166419	0.105645	0.172366	0.267468	5734.103680	31383.777267	3716.219557	13580.204387
76.037000	0.163646	0.106321	0.172749	0.274640	5668.820836	30961.503359	3702.244524	13404.587036
76.537000	0.171105	0.106976	0.176171	0.271626	5737.607283	31199.147803	3715.484908	13478.020225
77.037000	0.169913	0.106439	0.176804	0.273907	5714.614072	31016.426971	3712.077425	13422.406136
77.535000	0.169059	0.106854	0.171615	0.277260	5687.006210	30827.164595	3694.609477	13341.158061
78.035000	0.165927	0.107654	0.173766	0.284053	5622.912331	30444.940627	3685.260799	13178.452876
78.535000	0.171550	0.106879	0.175107	0.278738	5693.630599	30733.966263	3698.697437	13305.540460
79.038500	0.171319	0.107271	0.181952	0.279602	5686.466966	30703.841334	3710.947651	13284.778841
79.536000	0.170918	0.106712	0.176457	0.282551	5664.675665	30480.458985	3693.701416	13214.213208
80.037000	0.167232	0.106713	0.176385	0.286884	5613.192651	30207.131497	3684.836979	13111.416394
80.535500	0.171517	0.106728	0.174309	0.281587	5674.821542	30542.611965	3691.307928	13237.220077
81.037000	0.171809	0.107149	0.182177	0.282271	5672.274882	30525.964793	3705.922332	13220.894868
81.536500	0.167883	0.105623	0.178046	0.283900	5636.412993	30326.302812	3694.187378	13182.100303
82.037500	0.168780	0.107493	0.179373	0.288627	5611.948546	30146.743191	3687.332579	13070.347373
82.535000	0.173229	0.107500	0.181681	0.282579	5679.506353	30528.641430	3704.274303	13213.543434
83.036000	0.172484	0.107696	0.178273	0.282602	5674.509528	30539.652337	3697.278110	13213.000627
83.541000	0.169277	0.107600	0.175709	0.287186	5624.298485	30243.852683	3682.880152	13104.276155
84.036000	0.169904	0.107899	0.181961	0.283682	5650.811653	30484.040774	3702.592311	13187.292702
84.536000	0.168579	0.107356	0.182334	0.283262	5644.981357	30476.190143	3704.213297	13197.280731
85.036500	0.171311	0.106588	0.181574	0.283754	5659.434910	30396.455177	3701.655262	13185.580421
85.539500	0.172264	0.106036	0.175076	0.287577	5640.928184	30121.179689	3680.836998	13095.054066
86.037000	0.171828	0.106615	0.178572	0.285049	5654.400980	30316.373004	3692.926280	13154.812060
86.537000	0.169573	0.105933	0.175643	0.284365	5644.277089	30316.472742	3688.402019	13171.052262
87.035000	0.170677	0.106905	0.181445	0.286391	5638.354399	30250.184369	3696.025791	13123.059399
87.534500	0.169165	0.105867	0.180534	0.290216	5604.301353	29946.046253	3686.472614	13033.039182
88.038000	0.168739	0.105399	0.182825	0.287091	5621.470098	30111.783253	3697.405837	13106.519328
88.535000	0.169068	0.105529	0.181303	0.287554	5620.618790	30090.934660	3693.384889	13095.609444
89.035500	0.170359	0.104854	0.183090	0.288048	5625.707416	30018.010625	3696.002277	13083.973657
89.536000	0.172244	0.105081	0.180983	0.288467	5635.088945	30005.962034	3690.894470	13074.098007
90.036500	0.168393	0.104649	0.183896	0.288969	5607.310723	29947.803438	3695.768462	13062.292352
90.537000	0.167098	0.104014	0.185222	0.289193	5597.692478	29894.517550	3698.006218	13057.046230
91.037000	0.169406	0.103802	0.180345	0.290448	5604.362323	29803.591629	3685.630447	13027.616395
91.537500	0.169857	0.101893	0.184576	0.290055	5609.718446	29709.993080	3694.946815	13036.822782
92.035000	0.169749	0.103539	0.182751	0.291477	5600.017343	29723.812186	3688.395341	13003.555533
92.535000	0.168114	0.102196	0.177263	0.291190	5591.494731	29658.764636	3678.000065	13010.256355
93.096500	0.170241	0.102804	0.176223	0.292040	5599.565009	29643.817391	3674.252903	12990.397726
93.535000	0.169052	0.101353	0.183805	0.291703	5594.176573	29575.400786	3690.058466	12998.260652
94.036000	0.165449	0.102186	0.181259	0.298794	5527.433610	29194.371847	3670.860361	12834.042895
94.536500	0.170966	0.102962	0.185537	0.294442	5588.968279	29506.231100	3688.033713	12934.518870
95.036500	0.166412	0.100254	0.180603	0.293481	5566.404773	29399.556951	3680.085445	12956.834121
95.543000	0.169791	0.100469	0.175512	0.300052	5546.513375	29015.142514	3657.171662	12805.189227
96.037000	0.169711	0.102670	0.187261	0.297054	5564.691091	29329.132525	3686.249919	12874.090437
