sample name	sample
index	1065
start time	 04-22-2021  10:17:19 AM


Wavelength (nm)	Absorbance
494.344910	-0.026656
494.563924	-0.026656
494.782919	-0.026656
495.001897	-0.061979
495.220856	0.000659
495.439797	0.006159
495.658719	0.009138
495.877624	0.014463
496.096510	0.011116
496.315378	-0.001278
496.534227	-0.003559
496.753059	0.008367
496.971872	-0.010369
497.190667	0.101635
497.409444	0.149134
497.628203	0.164259
497.846943	0.173741
498.065665	0.181045
498.284369	0.185387
498.503055	0.189186
498.721723	0.190163
498.940372	0.192327
499.159003	0.192549
499.377616	0.192605
499.596210	0.193503
499.814787	0.193976
500.033345	0.193542
500.251885	0.193730
500.470406	0.194085
500.688910	0.193863
500.907395	0.194107
501.125862	0.196141
501.344311	0.196543
501.562742	0.197175
501.781154	0.196717
501.999548	0.197485
502.217924	0.197995
502.436282	0.196332
502.654621	0.197858
502.872942	0.198633
503.091245	0.197587
503.309530	0.197522
503.527797	0.196070
503.746045	0.196443
503.964275	0.197802
504.182487	0.196722
504.400681	0.198444
504.618856	0.198341
504.837013	0.198313
505.055152	0.198095
505.273273	0.198779
505.491376	0.199829
505.709460	0.200439
505.927526	0.199195
506.145574	0.199823
506.363604	0.199321
506.581615	0.199854
506.799608	0.199367
507.017583	0.200574
507.235540	0.200245
507.453478	0.199853
507.671399	0.199025
507.889301	0.199079
508.107185	0.200192
508.325050	0.199319
508.542898	0.198814
508.760727	0.199234
508.978538	0.199562
509.196330	0.200010
509.414105	0.200705
509.631861	0.202345
509.849599	0.202894
510.067319	0.202017
510.285021	0.203958
510.502704	0.204326
510.720369	0.205274
510.938016	0.204770
511.155645	0.204621
511.373255	0.204732
511.590848	0.205033
511.808422	0.204873
512.025977	0.205048
512.243515	0.204094
512.461034	0.204549
512.678536	0.204271
512.896018	0.203771
513.113483	0.204314
513.330930	0.205365
513.548358	0.205205
513.765768	0.205378
513.983160	0.204657
514.200533	0.205579
514.417889	0.205917
514.635226	0.206005
514.852545	0.205803
515.069845	0.206210
515.287128	0.205933
515.504392	0.205515
515.721638	0.205328
515.938866	0.206596
516.156075	0.207099
516.373267	0.207665
516.590440	0.207688
516.807594	0.209221
517.024731	0.209647
517.241850	0.209823
517.458950	0.210241
517.676032	0.211086
517.893095	0.211626
518.110141	0.211177
518.327168	0.211231
518.544177	0.212495
518.761168	0.212216
518.978141	0.212334
519.195095	0.213010
519.412031	0.213727
519.628949	0.214287
519.845849	0.214693
520.062731	0.215595
520.279594	0.215175
520.496439	0.215402
520.713266	0.216314
520.930074	0.216250
521.146865	0.216296
521.363637	0.216287
521.580391	0.216245
521.797127	0.216662
522.013844	0.216971
522.230543	0.218427
522.447224	0.217837
522.663887	0.218197
522.880532	0.218012
523.097158	0.218681
523.313766	0.219367
523.530356	0.219763
523.746928	0.219704
523.963481	0.219999
524.180017	0.219567
524.396534	0.219717
524.613032	0.219657
524.829513	0.221255
525.045975	0.220722
525.262420	0.220863
525.478845	0.221291
525.695253	0.221021
525.911643	0.220606
526.128014	0.220646
526.344367	0.221069
526.560702	0.221186
526.777018	0.221291
526.993316	0.222447
527.209597	0.222004
527.425858	0.222568
527.642102	0.223992
527.858328	0.225088
528.074535	0.225628
528.290724	0.226541
528.506894	0.227247
528.723047	0.226645
528.939181	0.227139
529.155297	0.228087
529.371395	0.228085
529.587475	0.228053
529.803536	0.227241
530.019579	0.227140
530.235604	0.227539
530.451611	0.227982
530.667600	0.228105
530.883570	0.227937
531.099522	0.227686
531.315456	0.227330
531.531372	0.227367
531.747269	0.227920
531.963148	0.228609
532.179009	0.228277
532.394852	0.228195
532.610676	0.228486
532.826482	0.228417
533.042271	0.229131
533.258040	0.230292
533.473792	0.231258
533.689525	0.232049
533.905240	0.232002
534.120937	0.232008
534.336616	0.232489
534.552277	0.232489
534.767919	0.232913
534.983543	0.232520
535.199149	0.232733
535.414736	0.232455
535.630306	0.232496
535.845857	0.232925
536.061390	0.233771
536.276904	0.233703
536.492401	0.235016
536.707879	0.235147
536.923339	0.236200
537.138781	0.236097
537.354204	0.236714
537.569610	0.237083
537.784997	0.237354
538.000366	0.237057
538.215716	0.237215
538.431049	0.236952
538.646363	0.237447
538.861659	0.237331
539.076937	0.237905
539.292196	0.238222
539.507438	0.238422
539.722661	0.238324
539.937866	0.239182
540.153052	0.239503
540.368221	0.240452
540.583371	0.240335
540.798503	0.240695
541.013617	0.241366
541.228712	0.240763
541.443789	0.241779
541.658848	0.242815
541.873889	0.242985
542.088912	0.243476
542.303916	0.243715
542.518902	0.244402
542.733870	0.244679
542.948820	0.244742
543.163752	0.245241
543.378665	0.244864
543.593560	0.245088
543.808437	0.245512
544.023295	0.245841
544.238136	0.245753
544.452958	0.246228
544.667762	0.247208
544.882548	0.247234
545.097315	0.247534
545.312064	0.247813
545.526795	0.248327
545.741508	0.248253
545.956203	0.248431
546.170879	0.248251
546.385537	0.248560
546.600177	0.248398
546.814799	0.248980
547.029402	0.248752
547.243988	0.249643
547.458555	0.249535
547.673103	0.250580
547.887634	0.250965
548.102146	0.251776
548.316640	0.252298
548.531116	0.252761
548.745574	0.253313
548.960013	0.254449
549.174435	0.254537
549.388838	0.254916
549.603222	0.254603
549.817589	0.255320
550.031937	0.256029
550.246267	0.255649
550.460579	0.255653
550.674873	0.255454
550.889148	0.255786
551.103405	0.255753
551.317644	0.255446
551.531865	0.255620
551.746068	0.255116
551.960252	0.255205
552.174418	0.255911
552.388566	0.256120
552.602696	0.256205
552.816807	0.256232
553.030900	0.256627
553.244975	0.257290
553.459032	0.257585
553.673070	0.258148
553.887091	0.257852
554.101093	0.257391
554.315077	0.258018
554.529042	0.257878
554.742990	0.258504
554.956919	0.258573
555.170830	0.258814
555.384722	0.258940
555.598597	0.258972
555.812453	0.259125
556.026291	0.259659
556.240111	0.259257
556.453913	0.259782
556.667696	0.259080
556.881461	0.258938
557.095208	0.258811
557.308937	0.259010
557.522647	0.259378
557.736339	0.259874
557.950013	0.259775
558.163669	0.260072
558.377307	0.260209
558.590926	0.260817
558.804527	0.261055
559.018110	0.261226
559.231675	0.261210
559.445221	0.261384
559.658749	0.261339
559.872259	0.261634
560.085751	0.262106
560.299225	0.262388
560.512680	0.262708
560.726117	0.263288
560.939536	0.263600
561.152937	0.263980
561.366319	0.263843
561.579683	0.263862
561.793029	0.263655
562.006357	0.263194
562.219667	0.263128
562.432958	0.263081
562.646231	0.263231
562.859486	0.263334
563.072723	0.263191
563.285941	0.263439
563.499141	0.263828
563.712323	0.264204
563.925487	0.264506
564.138632	0.264679
564.351760	0.265251
564.564869	0.265408
564.777960	0.265850
564.991032	0.266149
565.204087	0.265969
565.417123	0.266303
565.630141	0.267278
565.843140	0.268060
566.056122	0.268202
566.269085	0.267747
566.482030	0.267977
566.694957	0.267763
566.907866	0.268595
567.120756	0.268913
567.333628	0.268698
567.546482	0.268205
567.759318	0.268030
567.972135	0.268109
568.184935	0.268448
568.397716	0.268355
568.610478	0.269410
568.823223	0.268983
569.035949	0.269374
569.248657	0.269666
569.461347	0.269947
569.674019	0.269985
569.886672	0.270494
570.099308	0.270987
570.311925	0.271228
570.524523	0.270719
570.737104	0.270808
570.949666	0.270522
571.162210	0.270426
571.374736	0.270517
571.587244	0.270950
571.799733	0.271133
572.012205	0.271008
572.224658	0.270994
572.437092	0.270690
572.649509	0.271137
572.861907	0.271858
573.074287	0.272441
573.286649	0.272543
573.498993	0.272372
573.711318	0.272183
573.923625	0.272558
574.135914	0.273157
574.348185	0.273506
574.560438	0.273015
574.772672	0.273107
574.984888	0.273313
575.197086	0.273654
575.409266	0.274274
575.621427	0.274269
575.833570	0.274457
576.045695	0.274196
576.257802	0.274311
576.469890	0.274852
576.681961	0.274643
576.894013	0.274229
577.106046	0.273959
577.318062	0.273390
577.530059	0.273898
577.742039	0.273641
577.954000	0.273886
578.165942	0.274240
578.377867	0.274294
578.589773	0.275208
578.801661	0.275838
579.013531	0.276388
579.225382	0.276844
579.437216	0.276929
579.649031	0.277110
579.860828	0.277125
580.072606	0.277266
580.284367	0.277815
580.496109	0.277517
580.707833	0.277988
580.919539	0.277932
581.131227	0.278029
581.342896	0.278230
581.554547	0.278830
581.766180	0.278787
581.977795	0.279097
582.189391	0.278922
582.400969	0.278726
582.612529	0.278686
582.824071	0.278711
583.035595	0.278823
583.247100	0.278913
583.458587	0.278959
583.670056	0.279388
583.881506	0.279624
584.092939	0.280154
584.304353	0.280987
584.515749	0.281135
584.727127	0.281398
584.938486	0.281371
585.149828	0.281640
585.361151	0.281505
585.572456	0.281920
585.783742	0.281900
585.995011	0.281803
586.206261	0.281409
586.417493	0.281349
586.628706	0.281714
586.839902	0.281963
587.051079	0.282155
587.262238	0.282140
587.473379	0.282199
587.684502	0.282549
587.895606	0.282735
588.106692	0.283204
588.317760	0.283600
588.528810	0.283596
588.739841	0.283915
588.950855	0.283849
589.161850	0.283852
589.372827	0.284161
589.583785	0.283926
589.794726	0.283814
590.005648	0.283657
590.216552	0.283661
590.427437	0.283652
590.638305	0.284066
590.849154	0.284558
591.059985	0.285303
591.270798	0.285012
591.481592	0.285155
591.692369	0.285582
591.903127	0.285785
592.113867	0.285920
592.324588	0.286495
592.535292	0.287167
592.745977	0.287224
592.956644	0.287526
593.167293	0.287916
593.377923	0.288231
593.588536	0.288212
593.799130	0.288654
594.009706	0.288828
594.220263	0.288666
594.430803	0.288126
594.641324	0.288123
594.851827	0.287788
595.062312	0.287799
595.272778	0.288035
595.483227	0.288276
595.693657	0.288238
595.904069	0.288657
596.114462	0.289308
596.324838	0.289508
596.535195	0.289857
596.745534	0.290235
596.955855	0.290686
597.166157	0.291022
597.376441	0.291373
597.586707	0.291649
597.796955	0.291581
598.007185	0.291596
598.217396	0.291431
598.427589	0.291841
598.637764	0.292199
598.847921	0.291920
599.058060	0.291786
599.268180	0.291917
599.478282	0.292294
599.688366	0.292840
599.898431	0.292603
600.108479	0.293000
600.318508	0.292711
600.528519	0.292898
600.738511	0.293053
600.948486	0.293198
601.158442	0.293001
601.368380	0.292580
601.578300	0.292481
601.788202	0.293118
601.998085	0.293173
602.207950	0.293227
602.417797	0.293146
602.627626	0.293797
602.837436	0.294171
603.047228	0.294345
603.257002	0.294746
603.466758	0.294868
603.676496	0.294806
603.886215	0.294993
604.095916	0.295397
604.305599	0.295406
604.515264	0.295358
604.724910	0.295326
604.934538	0.295373
605.144148	0.295616
605.353740	0.295693
605.563314	0.295947
605.772869	0.296501
605.982406	0.296691
606.191925	0.296766
606.401425	0.296756
606.610908	0.296876
606.820372	0.297520
607.029818	0.297736
607.239246	0.297635
607.448655	0.297671
607.658047	0.297447
607.867420	0.297590
608.076775	0.298116
608.286111	0.298362
608.495430	0.298538
608.704730	0.298587
608.914012	0.298639
609.123275	0.298823
609.332521	0.298565
609.541748	0.298520
609.750957	0.298332
609.960148	0.298102
610.169321	0.298184
610.378475	0.298255
610.587611	0.298476
610.796729	0.298327
611.005829	0.298082
611.214910	0.298598
611.423974	0.299109
611.633019	0.299181
611.842045	0.299423
612.051054	0.299449
612.260044	0.299421
612.469017	0.299529
612.677970	0.299504
612.886906	0.300066
613.095824	0.299698
613.304723	0.299577
613.513604	0.299731
613.722467	0.299913
613.931311	0.300224
614.140138	0.300523
614.348946	0.300300
614.557736	0.301011
614.766507	0.301390
614.975261	0.301879
615.183996	0.301826
615.392713	0.301923
615.601412	0.302263
615.810092	0.302224
616.018754	0.302572
616.227399	0.302770
616.436024	0.302388
616.644632	0.302335
616.853222	0.302637
617.061793	0.302999
617.270346	0.303341
617.478880	0.303320
617.687397	0.303475
617.895895	0.303136
618.104375	0.303352
618.312837	0.303823
618.521281	0.303880
618.729706	0.304102
618.938113	0.304271
619.146502	0.304334
619.354873	0.304191
619.563226	0.304535
619.771560	0.305008
619.979876	0.305228
620.188174	0.305284
620.396453	0.305327
620.604715	0.305205
620.812958	0.305130
621.021183	0.305223
621.229390	0.305648
621.437578	0.305572
621.645748	0.305469
621.853900	0.305566
622.062034	0.305801
622.270150	0.305991
622.478247	0.306028
622.686326	0.306349
622.894387	0.306760
623.102430	0.306760
623.310454	0.306918
623.518461	0.307289
623.726449	0.307116
623.934418	0.307219
624.142370	0.307392
624.350303	0.307812
624.558218	0.307734
624.766115	0.307720
624.973994	0.307618
625.181855	0.307574
625.389697	0.307629
625.597521	0.308125
625.805327	0.307938
626.013114	0.308135
626.220883	0.307736
626.428634	0.307912
626.636367	0.307835
626.844082	0.308381
627.051778	0.308779
627.259457	0.309296
627.467117	0.309165
627.674758	0.309554
627.882382	0.309694
628.089987	0.310364
628.297574	0.310551
628.505143	0.310904
628.712694	0.310989
628.920226	0.310905
629.127740	0.310644
629.335236	0.310761
629.542714	0.310488
629.750174	0.310568
629.957615	0.310489
630.165038	0.310709
630.372443	0.310504
630.579829	0.310744
630.787198	0.310846
630.994548	0.311076
631.201880	0.311669
631.409194	0.312126
631.616489	0.312136
631.823766	0.312281
632.031025	0.312341
632.238266	0.312887
632.445489	0.312570
632.652693	0.312790
632.859879	0.312921
633.067047	0.312789
633.274197	0.312871
633.481329	0.313008
633.688442	0.312949
633.895537	0.313050
634.102614	0.312815
634.309672	0.313124
634.516713	0.313349
634.723735	0.313358
634.930739	0.313440
635.137724	0.313621
635.344692	0.314046
635.551641	0.314209
635.758572	0.314538
635.965485	0.314821
636.172379	0.315083
636.379256	0.315109
636.586114	0.315323
636.792954	0.315457
636.999775	0.315677
637.206579	0.315435
637.413364	0.315871
637.620131	0.316085
637.826880	0.316241
638.033610	0.316205
638.240323	0.316577
638.447017	0.316670
638.653692	0.317053
638.860350	0.317342
639.066990	0.317849
639.273611	0.318126
639.480214	0.318253
639.686798	0.318461
639.893365	0.318837
640.099913	0.319308
640.306443	0.319491
640.512955	0.319682
640.719449	0.320035
640.925924	0.320116
641.132381	0.320477
641.338820	0.320576
641.545241	0.320928
641.751644	0.321095
641.958028	0.320934
642.164394	0.321326
642.370742	0.321268
642.577071	0.321139
642.783383	0.321180
642.989676	0.320964
643.195951	0.320892
643.402207	0.321170
643.608446	0.321300
643.814666	0.321487
644.020868	0.321453
644.227052	0.321676
644.433218	0.322095
644.639365	0.322500
644.845494	0.322410
645.051605	0.322748
645.257698	0.323018
645.463772	0.323116
645.669828	0.323228
645.875866	0.323358
646.081886	0.323303
646.287888	0.323267
646.493871	0.323123
646.699836	0.323730
646.905783	0.323744
647.111712	0.323422
647.317622	0.323626
647.523514	0.323635
647.729388	0.323812
647.935244	0.324201
648.141082	0.324137
648.346901	0.324661
648.552702	0.324778
648.758485	0.325161
648.964250	0.325713
649.169996	0.325933
649.375724	0.326038
649.581434	0.326273
649.787126	0.326757
649.992800	0.327113
650.198455	0.327276
650.404092	0.327412
650.609711	0.327849
650.815311	0.328116
651.020894	0.328568
651.226458	0.328896
651.432004	0.329458
651.637532	0.329510
651.843041	0.329889
652.048532	0.330142
652.254006	0.330369
652.459460	0.330587
652.664897	0.330653
652.870315	0.330519
653.075716	0.330840
653.281097	0.330724
653.486461	0.330884
653.691807	0.331010
653.897134	0.331303
654.102443	0.331500
654.307734	0.331890
654.513006	0.332067
654.718261	0.332518
654.923497	0.332787
655.128715	0.333017
655.333915	0.332940
655.539096	0.333278
655.744259	0.333509
655.949404	0.333539
656.154531	0.333169
656.359640	0.333206
656.564730	0.333376
656.769802	0.333565
656.974856	0.333672
657.179892	0.334175
657.384909	0.334465
657.589908	0.334456
657.794889	0.334876
657.999852	0.335304
658.204797	0.335570
658.409723	0.335596
658.614631	0.335860
658.819521	0.336322
659.024393	0.336441
659.229246	0.336650
659.434081	0.336799
659.638898	0.336978
659.843697	0.337043
660.048478	0.337348
660.253240	0.337470
660.457984	0.337503
660.662710	0.337760
660.867417	0.338055
661.072107	0.338050
661.276778	0.338475
661.481431	0.338611
661.686066	0.338809
661.890682	0.339017
662.095281	0.339455
662.299861	0.339569
662.504422	0.339769
662.708966	0.340077
662.913491	0.340162
663.117999	0.340218
663.322488	0.340528
663.526958	0.340910
663.731411	0.341410
663.935845	0.341555
664.140261	0.342111
664.344659	0.342082
664.549038	0.342247
664.753400	0.342713
664.957743	0.342652
665.162068	0.342763
665.366375	0.343010
665.570663	0.343116
665.774933	0.343417
665.979185	0.343371
666.183419	0.343382
666.387635	0.343671
666.591832	0.343708
666.796011	0.344095
667.000172	0.344540
667.204315	0.344946
667.408439	0.345059
667.612545	0.345097
667.816634	0.345121
668.020703	0.345710
668.224755	0.345913
668.428788	0.346231
668.632803	0.346662
668.836800	0.346827
669.040779	0.346888
669.244739	0.346854
669.448681	0.347175
669.652605	0.347873
669.856511	0.347831
670.060399	0.347944
670.264268	0.348057
670.468119	0.348004
670.671952	0.348082
670.875767	0.348170
671.079563	0.348600
671.283341	0.348661
671.487101	0.348318
671.690843	0.348711
671.894567	0.348618
672.098272	0.348789
672.301959	0.348872
672.505628	0.349060
672.709278	0.349440
672.912911	0.349741
673.116525	0.350014
673.320121	0.350512
673.523699	0.350814
673.727258	0.351352
673.930799	0.351619
674.134322	0.352132
674.337827	0.352269
674.541314	0.352567
674.744782	0.352799
674.948232	0.353414
675.151664	0.353683
675.355078	0.353859
675.558474	0.353963
675.761851	0.354265
675.965210	0.354600
676.168551	0.354948
676.371873	0.354863
676.575178	0.355138
676.778464	0.355146
676.981732	0.355288
677.184981	0.355586
677.388213	0.355969
677.591426	0.356182
677.794621	0.356240
677.997798	0.356465
678.200956	0.356724
678.404097	0.356867
678.607219	0.356709
678.810323	0.356890
679.013408	0.356890
679.216476	0.357053
679.419525	0.356926
679.622556	0.357105
679.825569	0.357187
680.028563	0.357339
680.231540	0.357478
680.434498	0.358036
680.637438	0.358285
680.840359	0.358153
681.043263	0.358214
681.246148	0.358589
681.449015	0.358576
681.651864	0.358929
681.854694	0.359333
682.057506	0.359389
682.260301	0.359715
682.463076	0.360050
682.665834	0.360727
682.868573	0.361219
683.071295	0.361560
683.273998	0.362089
683.476682	0.361984
683.679349	0.361966
683.881997	0.362257
684.084627	0.362460
684.287239	0.362531
684.489833	0.362544
684.692408	0.362500
684.894965	0.362755
685.097504	0.362770
685.300025	0.363323
685.502527	0.363636
685.705012	0.363546
685.907478	0.363441
686.109925	0.363591
686.312355	0.363872
686.514766	0.363993
686.717159	0.363938
686.919534	0.364096
687.121891	0.364107
687.324230	0.364206
687.526550	0.364643
687.728852	0.364791
687.931136	0.364899
688.133401	0.365069
688.335649	0.365274
688.537878	0.365460
688.740089	0.365553
688.942281	0.365788
689.144456	0.365809
689.346612	0.365742
689.548750	0.365924
689.750870	0.366599
689.952971	0.366967
690.155055	0.367356
690.357120	0.367583
690.559167	0.367605
690.761195	0.368035
690.963206	0.368458
691.165198	0.368921
691.367172	0.369468
691.569128	0.369145
691.771065	0.369452
691.972984	0.369548
692.174885	0.369699
692.376768	0.370187
692.578633	0.370008
692.780479	0.370280
692.982308	0.370094
693.184118	0.370145
693.385909	0.370112
693.587683	0.369811
693.789438	0.369718
693.991175	0.369847
694.192894	0.369979
694.394595	0.370056
694.596277	0.369783
694.797941	0.370138
694.999587	0.370052
695.201215	0.370355
695.402824	0.370352
695.604416	0.370551
695.805989	0.370619
696.007543	0.370643
696.209080	0.370761
696.410598	0.370782
696.612099	0.370674
696.813580	0.370884
697.015044	0.370952
697.216490	0.371287
697.417917	0.371198
697.619326	0.371430
697.820717	0.371781
698.022089	0.372253
698.223444	0.372520
698.424780	0.372675
698.626098	0.372530
698.827397	0.372568
699.028679	0.372679
699.229942	0.373006
699.431187	0.373005
699.632414	0.372938
699.833622	0.372666
700.034813	0.372805
700.235985	0.373199
700.437139	0.373424
700.638274	0.373561
700.839392	0.373768
701.040491	0.373905
701.241572	0.374238
701.442635	0.374230
701.643679	0.374472
701.844706	0.374615
702.045714	0.374673
702.246704	0.374669
702.447675	0.375112
702.648629	0.374904
702.849564	0.375100
703.050481	0.374872
703.251380	0.375066
703.452260	0.375032
703.653122	0.375119
703.853966	0.375056
704.054792	0.375318
704.255600	0.375146
704.456389	0.375294
704.657160	0.375141
704.857913	0.375231
705.058648	0.375211
705.259365	0.375156
705.460063	0.375188
705.660743	0.375287
705.861405	0.375179
706.062048	0.375369
706.262674	0.375560
706.463281	0.375495
706.663870	0.375777
706.864441	0.375880
707.064993	0.376110
707.265527	0.376086
707.466043	0.376078
707.666541	0.375957
707.867021	0.375874
708.067482	0.375885
708.267925	0.375985
708.468350	0.375959
708.668757	0.376133
708.869145	0.376138
709.069516	0.376266
709.269868	0.376242
709.470201	0.376671
709.670517	0.376737
709.870814	0.376802
710.071093	0.376819
710.271354	0.376640
710.471597	0.376257
710.671821	0.376498
710.872028	0.376440
711.072216	0.376654
711.272385	0.376545
711.472537	0.376588
711.672670	0.376312
711.872785	0.376389
712.072882	0.376370
712.272961	0.376426
712.473021	0.376158
712.673063	0.376126
712.873087	0.375924
713.073093	0.375974
713.273081	0.375745
713.473050	0.375779
713.673001	0.375513
713.872934	0.375612
714.072849	0.375940
714.272745	0.375670
714.472623	0.375654
714.672483	0.375691
714.872325	0.375443
715.072148	0.375519
715.271954	0.375648
715.471741	0.375914
715.671509	0.375742
715.871260	0.375318
716.070992	0.375306
716.270707	0.375271
716.470403	0.375216
716.670080	0.375152
716.869740	0.375233
717.069381	0.375238
717.269004	0.375219
717.468609	0.375435
717.668195	0.375760
717.867764	0.375715
718.067314	0.375710
718.266846	0.375390
718.466360	0.375290
718.665855	0.375231
718.865332	0.374736
719.064791	0.374343
719.264232	0.373823
719.463655	0.373489
719.663059	0.373562
719.862445	0.373585
720.061813	0.373674
720.261163	0.373564
720.460494	0.373299
720.659807	0.373371
720.859102	0.373261
721.058379	0.373400
721.257638	0.373152
721.456878	0.373136
721.656100	0.372791
721.855304	0.372523
722.054490	0.372278
722.253657	0.371887
722.452806	0.371832
722.651937	0.371962
722.851050	0.371697
723.050145	0.371798
723.249221	0.371458
723.448279	0.371343
723.647319	0.371471
723.846340	0.371506
724.045344	0.371708
724.244329	0.371522
724.443296	0.371310
724.642245	0.371306
724.841175	0.371006
725.040088	0.371281
725.238982	0.371266
725.437857	0.371071
725.636715	0.371114
725.835554	0.371120
726.034376	0.370491
726.233179	0.370179
726.431963	0.370010
726.630730	0.369784
726.829478	0.369322
727.028208	0.368997
727.226920	0.368632
727.425614	0.368549
727.624289	0.368040
727.822946	0.368544
728.021585	0.368421
728.220206	0.368260
728.418808	0.368275
728.617392	0.368076
728.815958	0.367919
729.014506	0.367914
729.213036	0.367614
729.411547	0.367462
729.610040	0.367153
729.808515	0.367061
730.006972	0.366959
730.205410	0.366331
730.403831	0.366063
730.602233	0.365713
730.800616	0.365361
730.998982	0.365091
731.197329	0.364974
731.395658	0.364773
731.593969	0.364491
731.792262	0.364403
731.990536	0.364722
732.188793	0.364671
732.387031	0.364640
732.585250	0.364778
732.783452	0.364519
732.981635	0.364306
733.179800	0.364110
733.377947	0.364089
733.576076	0.363713
733.774186	0.363380
733.972278	0.363313
734.170352	0.363340
734.368408	0.362809
734.566446	0.362328
734.764465	0.362381
734.962466	0.362116
735.160449	0.361829
735.358413	0.361647
735.556360	0.361402
735.754288	0.360915
735.952198	0.360379
736.150090	0.360415
736.347963	0.360664
736.545818	0.360253
736.743655	0.360001
736.941474	0.359512
737.139275	0.359562
737.337057	0.359151
737.534821	0.359103
737.732567	0.358997
737.930295	0.358692
738.128005	0.358289
738.325696	0.358250
738.523369	0.358102
738.721024	0.357845
738.918660	0.357371
739.116279	0.357393
739.313879	0.357034
739.511461	0.356967
739.709024	0.356879
739.906570	0.356811
740.104097	0.356149
740.301606	0.356135
740.499097	0.356432
740.696569	0.356441
740.894024	0.356243
741.091460	0.356500
741.288878	0.356396
741.486277	0.356321
741.683659	0.356069
741.881022	0.356406
742.078367	0.356271
742.275694	0.356130
742.473002	0.356063
742.670293	0.356018
742.867565	0.355869
743.064819	0.355358
743.262054	0.355110
743.459272	0.354816
743.656471	0.354481
743.853652	0.353921
744.050815	0.353326
744.247959	0.352773
744.445085	0.352481
744.642194	0.351997
744.839283	0.351797
745.036355	0.351645
745.233408	0.351766
745.430444	0.351309
745.627461	0.351206
745.824459	0.350963
746.021440	0.350798
746.218402	0.350487
746.415346	0.350404
746.612272	0.350231
746.809180	0.349956
747.006069	0.349530
747.202940	0.349236
747.399793	0.348887
747.596628	0.348613
747.793444	0.348322
747.990243	0.348033
748.187023	0.347548
748.383784	0.347420
748.580528	0.346839
748.777253	0.346700
748.973960	0.346743
749.170649	0.346820
749.367320	0.346741
749.563973	0.346659
749.760607	0.346611
749.957223	0.346418
750.153821	0.346221
750.350400	0.346398
750.546962	0.345845
750.743505	0.345548
750.940030	0.345069
751.136536	0.345073
751.333025	0.344704
751.529495	0.344359
751.725947	0.344279
751.922381	0.343811
752.118796	0.343430
752.315194	0.343416
752.511573	0.343340
752.707934	0.343069
752.904276	0.342478
753.100601	0.342126
753.296907	0.342173
753.493195	0.341780
753.689465	0.341745
753.885716	0.341466
754.081949	0.340866
754.278164	0.340438
754.474361	0.340337
754.670540	0.340138
754.866700	0.340328
755.062843	0.339919
755.258967	0.339517
755.455072	0.339380
755.651160	0.339150
755.847229	0.339692
756.043280	0.339856
756.239313	0.339815
756.435328	0.339568
756.631324	0.339386
756.827302	0.339350
757.023262	0.339393
757.219204	0.339117
757.415127	0.339113
757.611033	0.338578
757.806920	0.337907
758.002788	0.337514
758.198639	0.337514
758.394471	0.337186
758.590286	0.337000
758.786081	0.336909
758.981859	0.336752
759.177619	0.336332
759.373360	0.336031
759.569083	0.336073
759.764788	0.336104
759.960474	0.336162
760.156143	0.336105
760.351793	0.335855
760.547425	0.335477
760.743038	0.335393
760.938634	0.335289
761.134211	0.335138
761.329770	0.335086
761.525311	0.335074
761.720833	0.334839
761.916338	0.334833
762.111824	0.334768
762.307292	0.334878
762.502741	0.334677
762.698173	0.334584
762.893586	0.334664
763.088981	0.334407
763.284358	0.334165
763.479716	0.334232
763.675057	0.333771
763.870379	0.333554
764.065683	0.333449
764.260968	0.333229
764.456236	0.333138
764.651485	0.332997
764.846716	0.332804
765.041929	0.332513
765.237123	0.332160
765.432299	0.332104
765.627457	0.331949
765.822597	0.331716
766.017719	0.331635
766.212822	0.331842
766.407907	0.331726
766.602974	0.331813
766.798023	0.331554
766.993054	0.331292
767.188066	0.331311
767.383060	0.331129
767.578036	0.331232
767.772993	0.331129
767.967933	0.330690
768.162854	0.330438
768.357757	0.330235
768.552642	0.330106
768.747508	0.330209
768.942356	0.330099
769.137186	0.330191
769.331998	0.329877
769.526792	0.329918
769.721567	0.329594
769.916324	0.329554
770.111063	0.329158
770.305784	0.329263
770.500486	0.329020
770.695171	0.328662
770.889837	0.328144
771.084484	0.328237
771.279114	0.328082
771.473725	0.328068
771.668318	0.328014
771.862893	0.328096
772.057450	0.328226
772.251988	0.328454
772.446509	0.328442
772.641011	0.328791
772.835494	0.328550
773.029960	0.328205
773.224407	0.328281
773.418836	0.328135
773.613247	0.328255
773.807640	0.327952
774.002014	0.327646
774.196370	0.327716
774.390708	0.327531
774.585028	0.327477
774.779330	0.327788
774.973613	0.327711
775.167878	0.327742
775.362125	0.327994
775.556354	0.328259
775.750564	0.328091
775.944756	0.327899
776.138930	0.327733
776.333086	0.327582
776.527223	0.327381
776.721343	0.327345
776.915444	0.327319
777.109526	0.326809
777.303591	0.326801
777.497637	0.326904
777.691666	0.326691
777.885676	0.326656
778.079667	0.326632
778.273641	0.326585
778.467596	0.326557
778.661533	0.326450
778.855452	0.326473
779.049352	0.326241
779.243235	0.326274
779.437099	0.326138
779.630945	0.326210
779.824773	0.326275
780.018582	0.326330
780.212373	0.326304
780.406146	0.326428
780.599901	0.326556
780.793638	0.326257
780.987356	0.326514
781.181056	0.327007
781.374738	0.327153
781.568402	0.327208
781.762047	0.327189
781.955674	0.327578
782.149283	0.327589
782.342874	0.327731
782.536447	0.328107
782.730001	0.327822
782.923537	0.327658
783.117055	0.327703
783.310555	0.327940
783.504036	0.328020
783.697499	0.327874
783.890944	0.328018
784.084371	0.328101
784.277780	0.327953
784.471170	0.328026
784.664542	0.328516
784.857896	0.328606
785.051231	0.328496
785.244549	0.328683
785.437848	0.328839
785.631129	0.328782
785.824392	0.328645
786.017636	0.328959
786.210863	0.329176
786.404071	0.328969
786.597260	0.329020
786.790432	0.329335
786.983585	0.329678
787.176721	0.329648
787.369838	0.330027
787.562936	0.330201
787.756017	0.330266
787.949079	0.330301
788.142123	0.330362
788.335149	0.330452
788.528156	0.330438
788.721146	0.330048
788.914117	0.330103
789.107070	0.330114
789.300005	0.330391
789.492921	0.330524
789.685819	0.330796
789.878699	0.330891
790.071561	0.331198
790.264405	0.331316
790.457230	0.331841
790.650037	0.331814
790.842826	0.331814
791.035597	0.331781
791.228349	0.331961
791.421084	0.332341
791.613800	0.332708
791.806497	0.332732
791.999177	0.332830
792.191838	0.332983
792.384481	0.333414
792.577106	0.333823
792.769713	0.334197
792.962301	0.334145
793.154871	0.333894
793.347423	0.333910
793.539957	0.333970
793.732473	0.333898
793.924970	0.333711
794.117449	0.334042
794.309910	0.333933
794.502353	0.334106
794.694777	0.334200
794.887183	0.334465
795.079571	0.334957
795.271941	0.335077
795.464293	0.335654
795.656626	0.336134
795.848941	0.335940
796.041238	0.336219
796.233516	0.336264
796.425777	0.336946
796.618019	0.337062
796.810243	0.337209
797.002449	0.337879
797.194636	0.338246
797.386805	0.338339
797.578956	0.338714
797.771089	0.338917
797.963204	0.339037
798.155300	0.339194
798.347378	0.339878
798.539438	0.339966
798.731480	0.339846
798.923503	0.339832
799.115509	0.340024
799.307496	0.340487
799.499465	0.340462
799.691415	0.340856
799.883348	0.340646
800.075262	0.340389
800.267158	0.340450
800.459035	0.340787
800.650895	0.341003
800.842736	0.341140
801.034559	0.341017
801.226364	0.341570
801.418150	0.341887
801.609919	0.341996
801.801669	0.342092
801.993401	0.342262
802.185114	0.342301
802.376810	0.342611
802.568487	0.342887
802.760146	0.343344
802.951787	0.343232
803.143409	0.343295
803.335014	0.343955
803.526600	0.344385
803.718168	0.344832
803.909717	0.345231
804.101249	0.345344
804.292762	0.345929
804.484257	0.346138
804.675734	0.346906
804.867192	0.347200
805.058632	0.347550
805.250054	0.348057
805.441458	0.348205
805.632844	0.348580
805.824211	0.348869
806.015561	0.349332
806.206891	0.349605
806.398204	0.349702
806.589499	0.350085
806.780775	0.350594
806.972033	0.351025
807.163273	0.351710
807.354495	0.352195
807.545698	0.352515
807.736883	0.352775
807.928050	0.353103
808.119199	0.353693
808.310329	0.354058
808.501441	0.354426
808.692535	0.354400
808.883611	0.354595
809.074669	0.354787
809.265708	0.355174
809.456729	0.355014
809.647732	0.355397
809.838717	0.355850
810.029683	0.356091
810.220632	0.356527
810.411562	0.356916
810.602474	0.357221
810.793367	0.357594
810.984242	0.358156
811.175100	0.359097
811.365938	0.359661
811.556759	0.359721
811.747562	0.360533
811.938346	0.360693
812.129112	0.361208
812.319860	0.361710
812.510589	0.362148
812.701300	0.362477
812.891994	0.362803
813.082668	0.363130
813.273325	0.363498
813.463964	0.363826
813.654584	0.364396
813.845186	0.364808
814.035769	0.365217
814.226335	0.365543
814.416882	0.366021
814.607411	0.365887
814.797922	0.366028
814.988415	0.366533
815.178889	0.366776
815.369345	0.366724
815.559783	0.366980
815.750203	0.367533
815.940605	0.367979
816.130988	0.368363
816.321353	0.369245
816.511700	0.369882
816.702028	0.370299
816.892339	0.370511
817.082631	0.371170
817.272905	0.371920
817.463161	0.372186
817.653398	0.372385
817.843617	0.372396
818.033819	0.372760
818.224001	0.373178
818.414166	0.373654
818.604312	0.373969
818.794440	0.374017
818.984550	0.374199
819.174642	0.374386
819.364716	0.374939
819.554771	0.375530
819.744808	0.375875
819.934827	0.376080
820.124827	0.376271
820.314810	0.377082
820.504774	0.377767
820.694720	0.378316
820.884647	0.378795
821.074557	0.379144
821.264448	0.379625
821.454321	0.380049
821.644176	0.380457
821.834012	0.380917
822.023831	0.381198
822.213631	0.381665
822.403413	0.381849
822.593176	0.382286
822.782922	0.382643
822.972649	0.383336
823.162358	0.383741
823.352049	0.384263
823.541721	0.384848
823.731376	0.384896
823.921012	0.384948
824.110629	0.385382
824.300229	0.385801
824.489811	0.386420
824.679374	0.386465
824.868919	0.386919
825.058445	0.387476
825.247954	0.387560
825.437444	0.388330
825.626916	0.388989
825.816370	0.389524
826.005806	0.389757
826.195223	0.390222
826.384622	0.390741
826.574003	0.391164
826.763366	0.392004
826.952711	0.392674
827.142037	0.393223
827.331345	0.393887
827.520635	0.394548
827.709906	0.395228
827.899160	0.395725
828.088395	0.395915
828.277612	0.396532
828.466810	0.396315
828.655991	0.396804
828.845153	0.396811
829.034297	0.397162
829.223423	0.397606
829.412531	0.397878
829.601620	0.398126
829.790691	0.398788
829.979744	0.399293
830.168779	0.399988
830.357795	0.400661
830.546793	0.402012
830.735773	0.402504
830.924735	0.402924
831.113679	0.403684
831.302604	0.404303
831.491511	0.404927
831.680400	0.405205
831.869271	0.405775
832.058123	0.406501
832.246957	0.406587
832.435773	0.406893
832.624571	0.407295
832.813351	0.407804
833.002112	0.408294
833.190855	0.409196
833.379580	0.409945
833.568287	0.410242
833.756975	0.410584
833.945645	0.410850
834.134297	0.411461
834.322931	0.412190
834.511547	0.412624
834.700144	0.413219
834.888723	0.413608
835.077284	0.413965
835.265826	0.414872
835.454351	0.415439
835.642857	0.416323
835.831345	0.417215
836.019815	0.417875
836.208266	0.418702
836.396699	0.419052
836.585114	0.419357
836.773511	0.419823
836.961890	0.420183
837.150250	0.420443
837.338592	0.420576
837.526916	0.420693
837.715222	0.420808
837.903510	0.421166
838.091779	0.422161
838.280030	0.422578
838.468263	0.423048
838.656477	0.423886
838.844674	0.424671
839.032852	0.425680
839.221012	0.426686
839.409153	0.427453
839.597277	0.427790
839.785382	0.428071
839.973469	0.428414
840.161538	0.429288
840.349589	0.429312
840.537621	0.429825
840.725635	0.430423
840.913631	0.430732
841.101609	0.431524
841.289568	0.432411
841.477509	0.433077
841.665432	0.434442
841.853337	0.434976
842.041224	0.436149
842.229092	0.436678
842.416942	0.436822
842.604774	0.437621
842.792588	0.438227
842.980383	0.438905
843.168160	0.439493
843.355919	0.439851
843.543660	0.440201
843.731382	0.440879
843.919087	0.441228
844.106773	0.441996
844.294441	0.442612
844.482090	0.442809
844.669722	0.443092
844.857335	0.443373
845.044930	0.443774
845.232507	0.444884
845.420065	0.445038
845.607605	0.445784
845.795127	0.445921
845.982631	0.446553
846.170117	0.446870
846.357584	0.447513
846.545033	0.448446
846.732464	0.448792
846.919877	0.448789
847.107272	0.449360
847.294648	0.449973
847.482006	0.450978
847.669346	0.451026
847.856667	0.451760
848.043971	0.452050
848.231256	0.452710
848.418523	0.453529
848.605771	0.454632
848.793002	0.455185
848.980214	0.455304
849.167408	0.455871
849.354584	0.456389
849.541742	0.456975
849.728881	0.457470
849.916002	0.457914
850.103105	0.458287
850.290190	0.458305
850.477256	0.458970
850.664304	0.459499
850.851334	0.460197
851.038346	0.460805
851.225340	0.461380
851.412315	0.462095
851.599272	0.462488
851.786211	0.463091
851.973132	0.463883
852.160034	0.464120
852.346918	0.465382
852.533784	0.465965
852.720632	0.466768
852.907462	0.467311
853.094273	0.468100
853.281066	0.468653
853.467841	0.469842
853.654598	0.470371
853.841336	0.471361
854.028056	0.472011
854.214758	0.472640
854.401442	0.473376
854.588107	0.473981
854.774755	0.474659
854.961384	0.475672
855.147995	0.475461
855.334587	0.476123
855.521162	0.476246
855.707718	0.476150
855.894256	0.476292
856.080775	0.476339
856.267277	0.476821
856.453760	0.477072
856.640225	0.476937
856.826672	0.477796
857.013101	0.477774
857.199511	0.478797
857.385903	0.479461
857.572277	0.480096
857.758633	0.480453
857.944970	0.480805
858.131290	0.481490
858.317591	0.482117
858.503873	0.482148
858.690138	0.482989
858.876384	0.483137
859.062612	0.483453
859.248822	0.484091
859.435014	0.484838
859.621188	0.485719
859.807343	0.486306
859.993480	0.486862
860.179599	0.487896
860.365699	0.488241
860.551781	0.488548
860.737846	0.488750
860.923891	0.488580
861.109919	0.489250
861.295929	0.489356
861.481920	0.489191
861.667893	0.489664
861.853848	0.489812
862.039784	0.490209
862.225702	0.490568
862.411603	0.491278
862.597484	0.491660
862.783348	0.491937
862.969193	0.492733
863.155021	0.493459
863.340830	0.493348
863.526620	0.493740
863.712393	0.494609
863.898147	0.494815
864.083883	0.495383
864.269601	0.496143
864.455301	0.496802
864.640982	0.497210
864.826645	0.497783
865.012290	0.498426
865.197917	0.498992
865.383526	0.499019
865.569116	0.499489
865.754688	0.499270
865.940242	0.500073
866.125777	0.500407
866.311295	0.500711
866.496794	0.501266
866.682275	0.501815
866.867737	0.502443
867.053182	0.502440
867.238608	0.503650
867.424016	0.505015
867.609406	0.504758
867.794778	0.504962
867.980131	0.505419
868.165466	0.505469
868.350783	0.506071
868.536082	0.506635
868.721362	0.507696
868.906625	0.507761
869.091869	0.507786
869.277094	0.508615
869.462302	0.509059
869.647491	0.509170
869.832662	0.510250
870.017815	0.510299
870.202950	0.510632
870.388066	0.510717
870.573165	0.511026
870.758245	0.511842
870.943306	0.511524
871.128350	0.512087
871.313375	0.512947
871.498382	0.512807
871.683371	0.513214
871.868342	0.513069
872.053294	0.513473
872.238229	0.513666
872.423144	0.513662
872.608042	0.514485
872.792922	0.514864
872.977783	0.514647
873.162626	0.514912
873.347451	0.515361
873.532258	0.515944
873.717046	0.515933
873.901816	0.516673
874.086568	0.516177
874.271302	0.517107
874.456017	0.517271
874.640715	0.517825
874.825394	0.518272
875.010055	0.518615
875.194697	0.518626
875.379322	0.519150
875.563928	0.519106
875.748516	0.520320
875.933085	0.520307
876.117637	0.520726
876.302170	0.520650
876.486685	0.520476
876.671182	0.520893
876.855661	0.521388
877.040121	0.521537
877.224563	0.521522
877.408987	0.522065
877.593393	0.521984
877.777780	0.522434
877.962150	0.522935
878.146501	0.523081
878.330833	0.523529
878.515148	0.523787
878.699444	0.524483
878.883722	0.525131
879.067982	0.524972
879.252224	0.525047
879.436447	0.525088
879.620653	0.525052
879.804840	0.525668
879.989008	0.525454
880.173159	0.525475
880.357291	0.525232
880.541405	0.525118
880.725501	0.525342
880.909579	0.525827
881.093638	0.525699
881.277680	0.525932
881.461703	0.526224
881.645707	0.526810
881.829694	0.526375
882.013662	0.526809
882.197612	0.527276
882.381544	0.527476
882.565458	0.528119
882.749353	0.528709
882.933230	0.529023
883.117089	0.529030
883.300930	0.528925
883.484753	0.529850
883.668557	0.529694
883.852343	0.529936
884.036111	0.529991
884.219861	0.529682
884.403592	0.529738
884.587305	0.530356
884.771000	0.530197
884.954677	0.529892
885.138335	0.529872
885.321976	0.530093
885.505598	0.529406
885.689201	0.529756
885.872787	0.529436
886.056354	0.528896
886.239904	0.528626
886.423434	0.528937
886.606947	0.529511
886.790442	0.529965
886.973918	0.530380
887.157376	0.530690
887.340816	0.530375
887.524237	0.530435
887.707641	0.530617
887.891026	0.530315
888.074393	0.530173
888.257741	0.529558
888.441072	0.529223
888.624384	0.529158
888.807678	0.529358
888.990954	0.529346
889.174211	0.530144
889.357451	0.529990
889.540672	0.530290
889.723875	0.530209
889.907059	0.530157
890.090226	0.530293
890.273374	0.529893
890.456504	0.529643
890.639616	0.529148
890.822709	0.528545
891.005785	0.528724
891.188842	0.528184
891.371881	0.528720
891.554901	0.528899
891.737904	0.528873
891.920888	0.528933
892.103854	0.529020
892.286802	0.528742
892.469731	0.528596
892.652643	0.528832
892.835536	0.528945
893.018410	0.528468
893.201267	0.528787
893.384106	0.528307
893.566926	0.528080
893.749728	0.527976
893.932511	0.529005
894.115277	0.528937
894.298024	0.528544
894.480753	0.528349
894.663464	0.527484
894.846157	0.527411
895.028831	0.527287
895.211487	0.527352
895.394125	0.527484
895.576745	0.526801
895.759346	0.527222
895.941930	0.527766
896.124495	0.527917
896.307041	0.528149
896.489570	0.527157
896.672080	0.526602
896.854573	0.526720
897.037046	0.526430
897.219502	0.525749
897.401940	0.524869
897.584359	0.524605
897.766760	0.524197
897.949143	0.524617
898.131507	0.524933
898.313854	0.524937
898.496182	0.524166
898.678492	0.523318
898.860783	0.523732
899.043057	0.523669
899.225312	0.523087
899.407549	0.522578
899.589768	0.521957
899.771968	0.521448
899.954151	0.521523
900.136315	0.520954
900.318461	0.520914
900.500588	0.520089
900.682698	0.519942
900.864789	0.519348
901.046862	0.519464
901.228917	0.519046
901.410953	0.518709
901.592971	0.517944
901.774972	0.517919
901.956953	0.517904
902.138917	0.517618
902.320862	0.516617
902.502790	0.516481
902.684699	0.515390
902.866589	0.515458
903.048462	0.515452
903.230316	0.514960
903.412152	0.514594
903.593970	0.514200
903.775770	0.514183
903.957551	0.514139
904.139314	0.513021
904.321059	0.512684
904.502786	0.512011
904.684494	0.511527
904.866185	0.510536
905.047857	0.509421
905.229510	0.508013
905.411146	0.507259
905.592763	0.506277
905.774363	0.506029
905.955943	0.505783
906.137506	0.505275
906.319051	0.504117
906.500577	0.503917
906.682085	0.503471
906.863575	0.503885
907.045046	0.503027
907.226500	0.503094
907.407935	0.502434
907.589352	0.501359
907.770750	0.500443
907.952131	0.500257
908.133493	0.499899
908.314837	0.499900
908.496163	0.499265
908.677470	0.499455
908.858760	0.498882
909.040031	0.498687
909.221284	0.499289
909.402518	0.498212
909.583735	0.497226
909.764933	0.496711
909.946113	0.495968
910.127275	0.495194
910.308418	0.494162
910.489544	0.493210
910.670651	0.492363
910.851740	0.491552
911.032810	0.492316
911.213863	0.492007
911.394897	0.492585
911.575913	0.492131
911.756911	0.491864
911.937890	0.490221
912.118851	0.489380
912.299794	0.488730
912.480719	0.487774
912.661626	0.486088
912.842514	0.485879
913.023384	0.484286
913.204236	0.483267
913.385070	0.482716
913.565886	0.483310
913.746683	0.482927
913.927462	0.482536
914.108223	0.481690
914.288965	0.481011
914.469690	0.480260
914.650396	0.479096
914.831084	0.477863
915.011754	0.476524
915.192405	0.475820
915.373038	0.474848
915.553653	0.473578
915.734250	0.472418
915.914829	0.471559
916.095389	0.469857
916.275931	0.469527
916.456455	0.469790
916.636961	0.469421
916.817448	0.468675
916.997917	0.468431
917.178368	0.468125
917.358801	0.467964
917.539216	0.467901
917.719612	0.467365
917.899990	0.466142
918.080350	0.465760
918.260692	0.464834
918.441015	0.463836
918.621320	0.462932
918.801607	0.461696
918.981876	0.461134
919.162127	0.459954
919.342359	0.459063
919.522573	0.458549
919.702769	0.457041
919.882947	0.454737
920.063106	0.453043
920.243247	0.451859
920.423370	0.450879
920.603475	0.449560
920.783562	0.448460
920.963630	0.448173
921.143680	0.446562
921.323712	0.445673
921.503725	0.446424
921.683721	0.446421
921.863698	0.445582
922.043657	0.445283
922.223598	0.444393
922.403520	0.443828
922.583424	0.442953
922.763311	0.442618
922.943178	0.441355
923.123028	0.439274
923.302859	0.438631
923.482673	0.437778
923.662467	0.437014
923.842244	0.436183
924.022003	0.434588
924.201743	0.433074
924.381465	0.431971
924.561169	0.430839
924.740854	0.429846
924.920522	0.428484
925.100171	0.427354
925.279802	0.425866
925.459414	0.424721
925.639009	0.424476
925.818585	0.423258
925.998143	0.422127
926.177683	0.421046
926.357205	0.420618
926.536708	0.418901
926.716193	0.417632
926.895660	0.416724
927.075109	0.415761
927.254539	0.414324
927.433951	0.413946
927.613345	0.413323
927.792721	0.412821
927.972079	0.412533
928.151418	0.411965
928.330739	0.411273
928.510042	0.410202
928.689327	0.409298
928.868593	0.408136
929.047841	0.406742
929.227071	0.404499
929.406283	0.403043
929.585476	0.401838
929.764652	0.401044
929.943809	0.400756
930.122948	0.399152
930.302068	0.397958
930.481171	0.396885
930.660255	0.395027
930.839321	0.394993
931.018369	0.394606
931.197398	0.392551
931.376409	0.390996
931.555402	0.389003
931.734377	0.387866
931.913334	0.386121
932.092272	0.384599
932.271192	0.383542
932.450094	0.381652
932.628978	0.379412
932.807844	0.378071
932.986691	0.376556
933.165520	0.375198
933.344331	0.373678
933.523123	0.373431
933.701898	0.372099
933.880654	0.372127
934.059392	0.371565
934.238111	0.371034
934.416813	0.370228
934.595496	0.369883
934.774161	0.368007
934.952808	0.367390
935.131437	0.365387
935.310047	0.364483
935.488639	0.362357
935.667213	0.360670
935.845769	0.358722
936.024306	0.356537
936.202825	0.355404
936.381326	0.354197
936.559809	0.353091
936.738274	0.351961
936.916720	0.350907
937.095148	0.350650
937.273558	0.350001
937.451950	0.349897
937.630323	0.349449
937.808678	0.347219
937.987015	0.345801
938.165334	0.343636
938.343635	0.342139
938.521917	0.339713
938.700181	0.336133
938.878427	0.334566
939.056655	0.332699
939.234864	0.332250
939.413055	0.331160
939.591228	0.330855
939.769383	0.330495
939.947519	0.329472
940.125638	0.329676
940.303738	0.329838
940.481820	0.327812
940.659883	0.325538
940.837929	0.324291
941.015956	0.324078
941.193965	0.322616
941.371955	0.320259
941.549928	0.318002
941.727882	0.316237
941.905818	0.313521
942.083736	0.312669
942.261636	0.312174
942.439517	0.310377
942.617380	0.307070
942.795225	0.304806
942.973052	0.303224
943.150860	0.302775
943.328651	0.299713
943.506423	0.298868
943.684176	0.295655
943.861912	0.294561
944.039629	0.292635
944.217328	0.291764
944.395009	0.289813
944.572672	0.289137
944.750317	0.286588
944.927943	0.287124
945.105551	0.287628
945.283141	0.287952
945.460712	0.284934
945.638265	0.283299
945.815801	0.281744
945.993317	0.281419
946.170816	0.279184
946.348297	0.278588
946.525759	0.277631
946.703203	0.275246
946.880629	0.273502
947.058036	0.273519
947.235425	0.272324
947.412797	0.271406
947.590149	0.271180
947.767484	0.270949
947.944800	0.268845
948.122099	0.267177
948.299379	0.265672
948.476640	0.263477
948.653884	0.262998
948.831109	0.259986
949.008316	0.258589
949.185505	0.255637
949.362676	0.255056
949.539828	0.254329
949.716962	0.251403
949.894078	0.249674
950.071176	0.248839
950.248256	0.247104
950.425317	0.246891
950.602360	0.245311
950.779385	0.243125
950.956391	0.240571
951.133380	0.238590
951.310350	0.238913
951.487302	0.238676
951.664235	0.238262
951.841151	0.237496
952.018048	0.235460
952.194927	0.232633
952.371788	0.235276
952.548631	0.235230
952.725455	0.234209
952.902261	0.231177
953.079049	0.228916
953.255819	0.227409
953.432570	0.224573
953.609303	0.224326
953.786018	0.225871
953.962715	0.220973
954.139394	0.218534
954.316054	0.217080
954.492696	0.215748
954.669320	0.215745
954.845926	0.213542
955.022513	0.211838
955.199083	0.212216
955.375634	0.209590
955.552166	0.210121
955.728681	0.209174
955.905177	0.209007
956.081655	0.208081
956.258115	0.206117
956.434557	0.206408
956.610980	0.204937
956.787385	0.201093
956.963772	0.199677
957.140141	0.197737
957.316492	0.196943
957.492824	0.194367
957.669138	0.194448
957.845434	0.193287
958.021712	0.191942
958.197971	0.192050
958.374212	0.193667
958.550435	0.192730
958.726640	0.192669
958.902826	0.193900
959.078995	0.195871
959.255145	0.194170
959.431277	0.191739
959.607390	0.191738
959.783486	0.191167
959.959563	0.189807
960.135622	0.190430
960.311662	0.187187
960.487685	0.182814
960.663689	0.180930
960.839675	0.179067
961.015643	0.180580
961.191593	0.180307
961.367524	0.179606
961.543437	0.179445
961.719332	0.180053
961.895209	0.183631
962.071067	0.182530
962.246907	0.180181
962.422730	0.182656
962.598533	0.182563
962.774319	0.182896
962.950086	0.182418
963.125835	0.183283
963.301566	0.183296
963.477279	0.181829
963.652973	0.182533
963.828650	0.185086
964.004308	0.184584
964.179947	0.185982
964.355569	0.184748
964.531172	0.184447
964.706757	0.182953
964.882324	0.180031
965.057873	0.179004
965.233403	0.179613
965.408916	0.179055
965.584410	0.179298
965.759885	0.178793
965.935343	0.178403
966.110782	0.178616
966.286203	0.177862
966.461606	0.181169
966.636991	0.181954
966.812357	0.183201
966.987705	0.180885
967.163035	0.179555
967.338347	0.178933
967.513641	0.178748
967.688916	0.177778
967.864173	0.175698
968.039412	0.172589
968.214632	0.173074
968.389835	0.171976
968.565019	0.175519
968.740185	0.176485
968.915333	0.174397
969.090462	0.175125
969.265573	0.173092
969.440667	0.174532
969.615741	0.175026
969.790798	0.173204
969.965836	0.170661
970.140856	0.168150
970.315858	0.168039
970.490842	0.168674
970.665808	0.166119
970.840755	0.168699
971.015684	0.166660
971.190595	0.166622
971.365487	0.166555
971.540362	0.167638
971.715218	0.168088
971.890056	0.168672
972.064875	0.168103
972.239677	0.168793
972.414460	0.169217
972.589225	0.171139
972.763972	0.171186
972.938700	0.172708
973.113411	0.172536
973.288103	0.171134
973.462777	0.170026
973.637432	0.168537
973.812070	0.170128
973.986689	0.169374
974.161290	0.169190
974.335873	0.169919
974.510437	0.168437
974.684984	0.169246
974.859512	0.168315
975.034022	0.166622
975.208513	0.168491
975.382987	0.168737
975.557442	0.169935
975.731879	0.169884
975.906298	0.169630
976.080698	0.169138
976.255080	0.171364
976.429445	0.173090
976.603790	0.176802
976.778118	0.175412
976.952427	0.171723
977.126719	0.167867
977.300992	0.169413
977.475246	0.167261
977.649483	0.167736
977.823701	0.164796
977.997901	0.165554
978.172083	0.163575
978.346247	0.165637
978.520392	0.169004
978.694519	0.171494
978.868628	0.170509
979.042719	0.171789
979.216791	0.171060
979.390845	0.172011
979.564882	0.172184
979.738899	0.172111
979.912899	0.171506
980.086880	0.169555
980.260843	0.169510
980.434788	0.170519
980.608715	0.170594
980.782623	0.172256
980.956514	0.170788
981.130386	0.169395
981.304240	0.167527
981.478075	0.168189
981.651892	0.170475
981.825692	0.171595
981.999472	0.172319
982.173235	0.172199
982.346980	0.169963
982.520706	0.172023
982.694414	0.170821
982.868104	0.172108
983.041775	0.171888
983.215428	0.170518
983.389064	0.168834
983.562680	0.167630
983.736279	0.168357
983.909860	0.171661
984.083422	0.171468
984.256966	0.172551
984.430491	0.172407
984.603999	0.170552
984.777488	0.168676
984.950959	0.169080
985.124412	0.168974
985.297847	0.169242
985.471263	0.167498
985.644661	0.164952
985.818041	0.165908
985.991403	0.165634
986.164747	0.168077
986.338072	0.169981
986.511379	0.168866
986.684668	0.169011
986.857938	0.168540
987.031191	0.169808
987.204425	0.172298
987.377641	0.172337
987.550839	0.173542
987.724018	0.172076
987.897179	0.171492
988.070322	0.174817
988.243447	0.174387
988.416554	0.173199
988.589642	0.169817
988.762712	0.170530
988.935764	0.172712
989.108798	0.174691
989.281813	0.174618
989.454811	0.175855
989.627790	0.172953
989.800751	0.174665
989.973693	0.174369
990.146617	0.175203
990.319524	0.174699
990.492412	0.171757
990.665281	0.169503
990.838133	0.170528
991.010966	0.171625
991.183781	0.173344
991.356578	0.172293
991.529356	0.172414
991.702117	0.172211
991.874859	0.172301
992.047583	0.172923
992.220288	0.172292
992.392976	0.171611
992.565645	0.170490
992.738296	0.169063
992.910929	0.169158
993.083543	0.169874
993.256139	0.172149
993.428718	0.170588
993.601277	0.169456
993.773819	0.170599
993.946342	0.171926
994.118848	0.172142
994.291335	0.172638
994.463803	0.172276
994.636254	0.173368
994.808686	0.172893
994.981100	0.174357
995.153496	0.175440
995.325874	0.174737
995.498233	0.173520
995.670574	0.174261
995.842897	0.174927
996.015202	0.176281
996.187488	0.175471
996.359757	0.176425
996.532007	0.177797
996.704239	0.176304
996.876452	0.176805
997.048648	0.176869
997.220825	0.176383
997.392984	0.176208
997.565124	0.175311
997.737247	0.173954
997.909351	0.171971
998.081437	0.170838
998.253505	0.173816
998.425554	0.173282
998.597586	0.173246
998.769599	0.170858
998.941594	0.169693
999.113571	0.168641
999.285529	0.172576
999.457469	0.174267
999.629391	0.172884
999.801295	0.171689
999.973181	0.172760
1000.145048	0.173073
1000.316897	0.174675
1000.488728	0.174771
1000.660541	0.175595
1000.832335	0.173560
1001.004111	0.173384
1001.175869	0.174283
1001.347609	0.173276
1001.519331	0.172104
1001.691034	0.173374
1001.862719	0.174966
1002.034386	0.175876
1002.206035	0.175536
1002.377665	0.177077
1002.549277	0.176295
1002.720871	0.176121
1002.892447	0.177847
1003.064004	0.176466
1003.235544	0.172997
1003.407065	0.172730
1003.578568	0.172442
1003.750052	0.171476
1003.921519	0.169734
1004.092967	0.170868
1004.264397	0.171470
1004.435809	0.171859
1004.607202	0.174287
1004.778577	0.175896
1004.949934	0.176042
1005.121273	0.176266
1005.292594	0.177764
1005.463896	0.176747
1005.635180	0.175541
1005.806446	0.177185
1005.977694	0.175771
1006.148923	0.174808
1006.320135	0.175995
1006.491328	0.175024
1006.662503	0.174571
1006.833659	0.174410
1007.004798	0.177390
1007.175918	0.178381
1007.347020	0.176603
1007.518103	0.175941
1007.689169	0.174408
1007.860216	0.174284
1008.031245	0.174303
1008.202256	0.172815
1008.373248	0.173772
1008.544223	0.171176
1008.715179	0.170843
1008.886117	0.170292
1009.057036	0.171285
1009.227938	0.174479
1009.398821	0.173758
1009.569686	0.174488
1009.740533	0.177667
1009.911361	0.176009
1010.082172	0.176738
1010.252964	0.175429
1010.423738	0.175042
1010.594493	0.173894
1010.765231	0.172061
1010.935950	0.172493
1011.106651	0.172321
1011.277334	0.170801
1011.447998	0.170198
1011.618645	0.170968
1011.789273	0.173261
1011.959882	0.173120
1012.130474	0.174793
1012.301048	0.175245
1012.471603	0.174190
1012.642140	0.173198
1012.812658	0.173647
1012.983159	0.174754
1013.153641	0.172886
1013.324105	0.171967
1013.494551	0.173439
1013.664979	0.172021
1013.835388	0.172602
1014.005779	0.172672
1014.176152	0.173870
1014.346507	0.173938
1014.516843	0.172607
1014.687162	0.174295
1014.857462	0.173083
1015.027744	0.171908
1015.198007	0.172579
1015.368252	0.171519
1015.538480	0.171380
1015.708689	0.170940
1015.878879	0.170804
1016.049052	0.171488
1016.219206	0.171130
1016.389342	0.171710
1016.559460	0.172573
1016.729559	0.172906
1016.899641	0.173426
1017.069704	0.174555
1017.239749	0.174106
1017.409775	0.172838
1017.579784	0.173100
1017.749774	0.172462
1017.919746	0.172984
1018.089700	0.171489
1018.259635	0.171173
1018.429553	0.171956
1018.599452	0.171724
1018.769333	0.171204
1018.939195	0.174427
1019.109040	0.174247
1019.278866	0.172585
1019.448674	0.173026
1019.618464	0.173290
1019.788235	0.175665
1019.957989	0.175562
1020.127724	0.175836
1020.297441	0.177361
1020.467139	0.174452
1020.636820	0.175778
1020.806482	0.176876
1020.976126	0.177476
1021.145752	0.177240
1021.315359	0.174894
1021.484948	0.172474
1021.654519	0.172152
1021.824072	0.170649
1021.993607	0.170262
1022.163123	0.170389
1022.332621	0.172664
1022.502101	0.170574
1022.671563	0.170122
1022.841007	0.169799
1023.010432	0.171650
1023.179839	0.171982
1023.349228	0.171109
1023.518598	0.174381
1023.687951	0.174883
1023.857285	0.173733
1024.026601	0.173752
1024.195899	0.175547
1024.365178	0.176120
1024.534439	0.174200
1024.703682	0.173723
1024.872907	0.174891
1025.042114	0.172274
1025.211302	0.173768
1025.380472	0.172929
1025.549624	0.174100
1025.718758	0.174944
1025.887873	0.173651
1026.056970	0.175422
1026.226049	0.174952
1026.395110	0.173768
1026.564153	0.174867
1026.733177	0.171340
1026.902183	0.171035
1027.071171	0.170375
1027.240141	0.168850
1027.409092	0.170799
1027.578026	0.169603
1027.746940	0.170656
1027.915837	0.169204
1028.084716	0.167352
1028.253576	0.170103
1028.422418	0.170745
1028.591242	0.171797
1028.760048	0.171741
1028.928835	0.171920
1029.097604	0.171915
1029.266355	0.172211
1029.435088	0.174923
1029.603803	0.177849
1029.772499	0.176867
1029.941177	0.176507
1030.109837	0.174457
1030.278478	0.173670
1030.447102	0.172817
1030.615707	0.174088
1030.784294	0.173020
1030.952863	0.172980
1031.121413	0.171196
1031.289945	0.169053
1031.458460	0.169749
1031.626955	0.171698
1031.795433	0.171998
1031.963892	0.171704
1032.132334	0.170802
1032.300756	0.171436
1032.469161	0.171046
1032.637548	0.169247
1032.805916	0.168666
1032.974266	0.167590
1033.142598	0.167190
1033.310911	0.168607
1033.479207	0.168113
1033.647484	0.169865
1033.815743	0.170288
1033.983983	0.171567
1034.152206	0.173821
1034.320410	0.175402
1034.488596	0.175830
1034.656764	0.175772
1034.824914	0.176212
1034.993045	0.177789
1035.161158	0.177157
1035.329253	0.176679
1035.497330	0.174728
1035.665388	0.173916
1035.833428	0.174409
1036.001450	0.173885
1036.169454	0.173221
1036.337440	0.171615
1036.505407	0.170303
1036.673356	0.168238
1036.841287	0.169118
1037.009200	0.169272
1037.177094	0.169666
1037.344970	0.169237
1037.512828	0.170641
1037.680668	0.171554
1037.848489	0.173212
1038.016293	0.174009
1038.184078	0.176391
1038.351845	0.174593
1038.519593	0.175666
1038.687324	0.175989
1038.855036	0.175236
1039.022730	0.173261
1039.190406	0.173476
1039.358063	0.172988
1039.525702	0.171271
1039.693323	0.168663
1039.860926	0.168609
1040.028511	0.166237
1040.196077	0.165801
1040.363625	0.165004
1040.531155	0.165248
1040.698667	0.163067
1040.866161	0.162914
1041.033636	0.163860
1041.201093	0.167281
1041.368532	0.167408
1041.535952	0.171048
1041.703355	0.169958
1041.870739	0.172742
1042.038105	0.173641
1042.205452	0.173172
1042.372782	0.171208
1042.540093	0.171412
1042.707386	0.170316
1042.874661	0.172380
1043.041918	0.170103
1043.209156	0.171561
1043.376376	0.168953
1043.543578	0.167834
1043.710762	0.168201
1043.877927	0.168945
1044.045074	0.169512
1044.212203	0.167992
1044.379314	0.165975
1044.546407	0.167295
1044.713481	0.165336
1044.880537	0.165814
1045.047575	0.167008
1045.214595	0.167044
1045.381596	0.167678
1045.548579	0.167432
1045.715544	0.170854
1045.882491	0.170278
1046.049420	0.170476
1046.216330	0.172808
1046.383222	0.173274
1046.550096	0.172892
1046.716951	0.172538
1046.883789	0.171121
1047.050608	0.170725
1047.217409	0.169151
1047.384192	0.168537
1047.550956	0.166692
1047.717703	0.165548
1047.884431	0.165848
1048.051140	0.165833
1048.217832	0.168698
1048.384505	0.171559
1048.551161	0.171968
1048.717798	0.170583
1048.884416	0.170838
1049.051017	0.172992
1049.217599	0.174389
1049.384163	0.174559
1049.550709	0.173575
1049.717237	0.173763
1049.883746	0.172851
1050.050237	0.171459
1050.216710	0.173321
1050.383165	0.174088
1050.549601	0.172767
1050.716019	0.172009
1050.882420	0.173220
1051.048801	0.175290
1051.215165	0.172692
1051.381510	0.169951
1051.547837	0.170619
1051.714146	0.169488
1051.880437	0.168301
1052.046709	0.167927
1052.212964	0.166629
1052.379200	0.165821
1052.545417	0.164654
1052.711617	0.167814
1052.877798	0.168826
1053.043961	0.168121
1053.210106	0.167664
1053.376233	0.168586
1053.542341	0.170565
1053.708432	0.171036
1053.874504	0.169203
1054.040557	0.168924
1054.206593	0.166558
1054.372610	0.167299
1054.538609	0.168985
1054.704590	0.168818
1054.870553	0.168505
1055.036497	0.168319
1055.202424	0.168616
1055.368331	0.169386
1055.534221	0.169295
1055.700093	0.168895
1055.865946	0.169438
1056.031781	0.168058
1056.197598	0.168510
1056.363397	0.168893
1056.529177	0.168802
1056.694939	0.168987
1056.860683	0.168993
1057.026409	0.170787
1057.192116	0.170109
1057.357806	0.166661
1057.523477	0.166448
1057.689130	0.166828
1057.854764	0.166370
1058.020381	0.165175
1058.185979	0.164639
1058.351559	0.162323
1058.517120	0.161532
1058.682664	0.162942
1058.848189	0.168517
1059.013696	0.169667
1059.179185	0.170473
1059.344656	0.171476
1059.510108	0.171282
1059.675542	0.174497
1059.840958	0.176725
1060.006356	0.175003
1060.171735	0.173287
1060.337096	0.171576
1060.502439	0.171047
1060.667764	0.171271
1060.833071	0.169955
1060.998359	0.168764
1061.163629	0.166647
1061.328881	0.166639
1061.494115	0.166928
1061.659330	0.169510
1061.824527	0.169279
1061.989706	0.169146
1062.154867	0.166270
1062.320010	0.168067
1062.485134	0.168164
1062.650240	0.165733
1062.815328	0.163821
1062.980398	0.166053
1063.145449	0.165580
1063.310482	0.166261
1063.475497	0.168114
1063.640494	0.170839
1063.805473	0.170585
1063.970433	0.171548
1064.135375	0.173617
1064.300299	0.176492
1064.465204	0.175654
1064.630092	0.176089
1064.794961	0.173672
1064.959812	0.171857
1065.124645	0.170873
1065.289459	0.169663
1065.454256	0.171026
1065.619034	0.171877
1065.783793	0.170314
1065.948535	0.170342
1066.113258	0.170454
1066.277964	0.174523
1066.442651	0.175233
1066.607319	0.176002
1066.771970	0.176829
1066.936602	0.174237
1067.101216	0.174662
1067.265812	0.175571
1067.430389	0.176077
1067.594949	0.174624
1067.759490	0.170604
1067.924013	0.169798
1068.088518	0.169020
1068.253004	0.166687
1068.417472	0.168753
1068.581922	0.167842
1068.746354	0.169057
1068.910768	0.168076
1069.075163	0.167379
1069.239540	0.168673
1069.403899	0.170752
1069.568240	0.170552
1069.732562	0.171107
1069.896866	0.171044
1070.061152	0.171742
1070.225420	0.171473
1070.389670	0.172208
1070.553901	0.172802
1070.718114	0.171358
1070.882309	0.170408
1071.046486	0.171405
1071.210644	0.171999
1071.374784	0.170731
1071.538906	0.167848
1071.703010	0.168738
1071.867096	0.166381
1072.031163	0.167215
1072.195212	0.169567
1072.359243	0.167346
1072.523256	0.165604
1072.687250	0.167315
1072.851226	0.168195
1073.015184	0.171674
1073.179124	0.170453
1073.343045	0.171218
1073.506949	0.170531
1073.670834	0.170085
1073.834701	0.174183
1073.998549	0.174898
1074.162380	0.176198
1074.326192	0.177040
1074.489986	0.174883
1074.653761	0.174323
1074.817519	0.177975
1074.981258	0.177741
1075.144979	0.176121
1075.308682	0.171646
1075.472367	0.170648
1075.636033	0.170353
1075.799681	0.168321
1075.963311	0.168990
1076.126923	0.171284
1076.290516	0.169971
1076.454092	0.170972
1076.617649	0.170827
1076.781187	0.169844
1076.944708	0.170347
1077.108210	0.170468
1077.271695	0.171528
1077.435160	0.174729
1077.598608	0.171771
1077.762038	0.171295
1077.925449	0.171736
1078.088842	0.172530
1078.252217	0.174131
1078.415573	0.177452
1078.578912	0.177142
1078.742232	0.177871
1078.905534	0.174264
1079.068817	0.174307
1079.232083	0.174714
1079.395330	0.174079
1079.558559	0.172534
1079.721770	0.172703
1079.884962	0.168555
1080.048136	0.167843
1080.211293	0.166262
1080.374430	0.165052
1080.537550	0.166161
1080.700651	0.163487
1080.863735	0.161102
1081.026800	0.161691
1081.189846	0.165286
1081.352875	0.163717
1081.515885	0.162977
1081.678877	0.163078
1081.841851	0.166185
1082.004807	0.165318
1082.167744	0.167861
1082.330663	0.169480
1082.493564	0.170714
1082.656447	0.166673
1082.819312	0.167875
1082.982158	0.169627
1083.144986	0.169465
1083.307796	0.167640
1083.470587	0.167596
1083.633361	0.166780
1083.796116	0.166030
1083.958853	0.169920
1084.121571	0.171826
1084.284272	0.169180
1084.446954	0.169496
1084.609618	0.173524
1084.772264	0.173730
1084.934892	0.173759
1085.097501	0.169783
1085.260092	0.170141
1085.422665	0.168234
1085.585220	0.168149
1085.747756	0.171938
1085.910274	0.170299
1086.072774	0.168026
1086.235256	0.165648
1086.397720	0.165230
1086.560165	0.169107
1086.722592	0.170089
1086.885001	0.171889
1087.047392	0.172465
1087.209764	0.174749
1087.372119	0.174636
1087.534455	0.173661
1087.696772	0.176973
1087.859072	0.176344
1088.021353	0.176749
1088.183616	0.178228
1088.345861	0.172817
1088.508088	0.171327
1088.670296	0.170777
1088.832486	0.171943
1088.994658	0.173676
1089.156812	0.171544
1089.318948	0.175263
1089.481065	0.177505
1089.643164	0.177903
1089.805245	0.176486
1089.967308	0.175783
1090.129352	0.173248
1090.291378	0.174329
1090.453386	0.172528
1090.615376	0.172094
1090.777347	0.168852
1090.939301	0.165246
1091.101236	0.162545
1091.263153	0.164139
1091.425051	0.165803
1091.586932	0.166412
1091.748794	0.165347
1091.910638	0.164023
1092.072463	0.166624
1092.234271	0.170371
1092.396060	0.169153
1092.557831	0.170178
1092.719584	0.172076
1092.881319	0.168985
1093.043035	0.169506
1093.204733	0.169141
1093.366413	0.169980
1093.528075	0.170386
1093.689718	0.167668
1093.851343	0.170172
1094.012950	0.171646
1094.174539	0.169616
1094.336110	0.174496
1094.497662	0.175244
1094.659196	0.171666
1094.820712	0.173228
1094.982210	0.173440
1095.143689	0.174816
1095.305151	0.176378
1095.466594	0.174670
1095.628018	0.175589
1095.789425	0.168627
1095.950813	0.165862
1096.112183	0.167546
1096.273535	0.167655
1096.434869	0.166291
1096.596184	0.166195
1096.757482	0.162836
1096.918761	0.161287
1097.080021	0.157394
1097.241264	0.158570
1097.402488	0.160338
1097.563694	0.162958
1097.724882	0.161431
1097.886052	0.158483
1098.047203	0.153810
1098.208336	0.157909
1098.369451	0.157292
1098.530548	0.161430
1098.691627	0.167061
1098.852687	0.166821
1099.013729	0.164899
1099.174753	0.164794
1099.335758	0.167855
1099.496746	0.169194
1099.657715	0.163752
1099.818666	0.164845
1099.979599	0.163290
1100.140513	0.158265
1100.301409	0.159351
1100.462287	0.155765
1100.623147	0.157309
1100.783989	0.159724
1100.944812	0.163669
1101.105617	0.164008
1101.266404	0.168744
1101.427173	0.169697
1101.587923	0.172709
1101.748656	0.168649
1101.909370	0.171811
1102.070066	0.171678
1102.230743	0.169675
1102.391403	0.168618
1102.552044	0.172551
1102.712667	0.165420
1102.873271	0.170037
1103.033858	0.171067
1103.194426	0.174238
1103.354976	0.171231
1103.515508	0.169044
1103.676021	0.171389
1103.836517	0.172436
1103.996994	0.167938
1104.157453	0.171137
1104.317893	0.168075
1104.478316	0.166537
1104.638720	0.166945
1104.799106	0.171697
1104.959474	0.173933
1105.119823	0.171557
1105.280155	0.165754
1105.440468	0.167645
1105.600763	0.166662
1105.761039	0.163723
1105.921298	0.160069
1106.081538	0.161675
1106.241760	0.160616
1106.401964	0.156848
1106.562149	0.154739
1106.722316	0.156632
1106.882465	0.155905
1107.042596	0.154992
1107.202709	0.159411
1107.362803	0.164259
1107.522879	0.159371
1107.682937	0.161202
1107.842977	0.164761
1108.002999	0.163199
1108.163002	0.160006
1108.322987	0.161485
1108.482954	0.160206
1108.642902	0.157316
1108.802833	0.154910
1108.962745	0.156797
1109.122639	0.153613
1109.282515	0.152800
1109.442372	0.152220
1109.602211	0.159473
1109.762032	0.156534
1109.921835	0.163035
1110.081620	0.162991
1110.241386	0.161617
1110.401134	0.161075
1110.560864	0.162512
1110.720576	0.163151
1110.880269	0.163354
1111.039945	0.164759
1111.199602	0.167687
1111.359240	0.168194
1111.518861	0.168628
1111.678463	0.172735
1111.838047	0.171874
1111.997613	0.170306
1112.157161	0.172422
1112.316690	0.174967
1112.476202	0.169523
1112.635695	0.174565
1112.795169	0.179300
1112.954626	0.180056
1113.114064	0.177764
1113.273484	0.177197
1113.432886	0.180421
1113.592270	0.177990
1113.751635	0.175449
1113.910983	0.177524
1114.070312	0.175114
1114.229622	0.168192
1114.388915	0.170469
1114.548189	0.167920
1114.707445	0.170898
1114.866683	0.166555
1115.025903	0.162564
1115.185104	0.167692
1115.344287	0.169941
1115.503452	0.161454
1115.662599	0.156734
1115.821727	0.157185
1115.980838	0.159119
1116.139930	0.160279
1116.299004	0.155433
1116.458059	0.160980
1116.617097	0.156102
1116.776116	0.152630
1116.935117	0.157024
1117.094099	0.159934
1117.253064	0.160979
1117.412010	0.159133
1117.570938	0.160401
1117.729848	0.167861
1117.888740	0.162171
1118.047613	0.163708
1118.206468	0.164971
1118.365305	0.168656
1118.524124	0.169323
1118.682924	0.163333
1118.841707	0.166569
1119.000471	0.164514
1119.159216	0.164819
1119.317944	0.165926
1119.476653	0.167213
1119.635344	0.165990
1119.794017	0.159665
1119.952672	0.161893
1120.111308	0.161042
1120.269927	0.163806
1120.428527	0.159577
1120.587108	0.158876
1120.745672	0.163901
1120.904217	0.158889
1121.062744	0.160337
1121.221253	0.164053
1121.379744	0.167832
1121.538216	0.166608
1121.696671	0.166477
1121.855107	0.170689
1122.013524	0.168197
1122.171924	0.169908
1122.330305	0.175507
1122.488668	0.178983
1122.647013	0.175271
1122.805340	0.171725
1122.963648	0.175850
1123.121938	0.172397
1123.280210	0.171046
1123.438464	0.177021
1123.596700	0.170313
1123.754917	0.166145
1123.913116	0.160300
1124.071297	0.162475
1124.229459	0.158351
1124.387604	0.153962
1124.545730	0.151549
1124.703838	0.155537
1124.861928	0.154234
1125.019999	0.144924
1125.178052	0.144138
1125.336088	0.145657
1125.494104	0.144423
1125.652103	0.144388
1125.810083	0.150828
1125.968045	0.153442
1126.125989	0.145828
1126.283915	0.142961
1126.441823	0.152458
1126.599712	0.158450
1126.757583	0.159754
1126.915436	0.161325
1127.073270	0.162433
1127.231087	0.161387
1127.388885	0.161362
1127.546665	0.165910
1127.704426	0.166483
1127.862170	0.167258
1128.019895	0.164223
1128.177602	0.164178
1128.335291	0.167036
1128.492961	0.163075
1128.650614	0.158774
1128.808248	0.152498
1128.965864	0.153762
1129.123461	0.154224
1129.281041	0.150146
1129.438602	0.150034
1129.596145	0.155141
1129.753670	0.152386
1129.911176	0.157153
1130.068665	0.156619
1130.226135	0.166014
1130.383587	0.163677
1130.541020	0.165031
1130.698436	0.162846
1130.855833	0.156764
1131.013212	0.141618
1131.170573	0.137050
1131.327915	0.140239
1131.485239	0.140463
1131.642545	0.138389
1131.799833	0.139674
1131.957103	0.135302
1132.114354	0.141118
1132.271588	0.147010
1132.428803	0.152066
1132.585999	0.153468
1132.743178	0.147079
1132.900338	0.151988
1133.057480	0.150605
1133.214604	0.152036
1133.371710	0.153664
1133.528797	0.148161
1133.685866	0.150588
1133.842917	0.150861
1133.999950	0.156760
1134.156964	0.156233
1134.313960	0.151099
1134.470938	0.151677
1134.627898	0.144781
1134.784840	0.143132
1134.941763	0.150239
1135.098668	0.144575
1135.255555	0.140383
1135.412424	0.142328
1135.569274	0.143747
1135.726107	0.146535
1135.882921	0.141868
1136.039716	0.142147
1136.196494	0.146073
1136.353253	0.144797
1136.509995	0.144885
1136.666717	0.149448
1136.823422	0.144694
1136.980109	0.147824
1137.136777	0.144715
1137.293427	0.147885
1137.450059	0.150536
1137.606672	0.151841
1137.763267	0.153308
1137.919844	0.159558
1138.076403	0.155746
1138.232944	0.156546
1138.389466	0.153449
1138.545971	0.154784
1138.702457	0.159093
1138.858924	0.164520
1139.015374	0.158518
1139.171805	0.152553
1139.328218	0.148940
1139.484613	0.152923
1139.640990	0.152781
1139.797348	0.145955
1139.953688	0.147720
1140.110010	0.140570
1140.266314	0.134347
1140.422600	0.134971
1140.578867	0.136379
1140.735116	0.139193
1140.891347	0.135646
1141.047559	0.132073
1141.203754	0.137679
1141.359930	0.133355
1141.516088	0.132137
1141.672228	0.131830
1141.828349	0.134670
1141.984452	0.136882
1142.140537	0.129723
1142.296604	0.130274
1142.452653	0.124581
1142.608683	0.120980
1142.764695	0.126896
1142.920689	0.125002
1143.076665	0.130363
1143.232622	0.131438
1143.388562	0.134506
1143.544483	0.138550
1143.700385	0.139393
1143.856270	0.153196
1144.012136	0.149011
1144.167985	0.140133
1144.323814	0.150951
1144.479626	0.148082
1144.635420	0.141380
1144.791195	0.136252
1144.946952	0.135663
1145.102691	0.139437
1145.258411	0.137692
1145.414113	0.149327
1145.569798	0.146162
1145.725463	0.135765
1145.881111	0.131365
1146.036741	0.138396
1146.192352	0.146099
1146.347945	0.144652
1146.503519	0.144553
1146.659076	0.139260
1146.814614	0.140069
1146.970134	0.143399
1147.125636	0.151316
1147.281120	0.159000
1147.436585	0.150672
1147.592032	0.146384
1147.747461	0.145836
1147.902872	0.146900
1148.058265	0.147607
1148.213639	0.138424
1148.368995	0.146314
1148.524333	0.140209
1148.679653	0.138882
1148.834954	0.145614
1148.990237	0.133660
1149.145502	0.133479
1149.300749	0.129446
1149.455977	0.129824
1149.611188	0.128933
1149.766380	0.125386
1149.921553	0.123601
1150.076709	0.115362
1150.231846	0.107624
1150.386966	0.123838
1150.542066	0.115531
1150.697149	0.116385
1150.852214	0.113148
1151.007260	0.114445
1151.162288	0.111527
1151.317298	0.115444
1151.472289	0.114456
1151.627263	0.122152
1151.782218	0.111994
1151.937155	0.121052
1152.092073	0.123832
1152.246974	0.123564
1152.401856	0.124406
1152.556720	0.125140
1152.711566	0.124443
1152.866393	0.131514
1153.021203	0.121904
1153.175994	0.135262
1153.330767	0.135044
1153.485521	0.136719
1153.640258	0.141785
1153.794976	0.129705
1153.949676	0.136843
1154.104358	0.134164
1154.259021	0.133349
1154.413667	0.143235
1154.568294	0.125133
1154.722903	0.128601
1154.877493	0.125929
1155.032066	0.118218
1155.186620	0.135641
1155.341156	0.128869
1155.495674	0.131871
1155.650173	0.124097
1155.804654	0.117636
1155.959118	0.124942
1156.113562	0.124001
1156.267989	0.134143
1156.422397	0.137066
1156.576788	0.128855
1156.731160	0.125098
1156.885513	0.121108
1157.039849	0.124066
1157.194166	0.128377
1157.348465	0.120672
1157.502746	0.116184
1157.657009	0.106472
1157.811253	0.107878
1157.965479	0.105974
1158.119687	0.103730
1158.273877	0.106544
1158.428048	0.104018
1158.582201	0.099902
1158.736337	0.109434
1158.890453	0.109471
1159.044552	0.108506
1159.198632	0.111001
1159.352694	0.114036
1159.506738	0.111784
1159.660764	0.118731
1159.814771	0.115156
1159.968761	0.107015
1160.122732	0.093524
1160.276685	0.099187
1160.430619	0.092291
1160.584535	0.093204
1160.738434	0.088024
1160.892313	0.094652
1161.046175	0.095471
1161.200019	0.098480
1161.353844	0.103388
1161.507651	0.112872
1161.661440	0.103175
1161.815210	0.115402
1161.968962	0.110372
1162.122697	0.116868
1162.276412	0.110351
1162.430110	0.103054
1162.583789	0.106143
1162.737451	0.108131
1162.891094	0.102036
1163.044718	0.104771
1163.198325	0.097072
1163.351913	0.092179
1163.505483	0.094426
1163.659035	0.102822
1163.812569	0.103441
1163.966084	0.102862
1164.119581	0.101253
1164.273060	0.107668
1164.426521	0.108397
1164.579964	0.113515
1164.733388	0.117347
1164.886794	0.109617
1165.040182	0.104557
1165.193551	0.107826
1165.346903	0.103880
1165.500236	0.101645
1165.653551	0.102702
1165.806848	0.102372
1165.960126	0.090745
1166.113386	0.102743
1166.266628	0.106944
1166.419852	0.115655
1166.573058	0.106117
1166.726245	0.110918
1166.879414	0.119424
1167.032565	0.116866
1167.185698	0.113075
1167.338812	0.120286
1167.491909	0.105713
1167.644987	0.107553
1167.798046	0.099056
1167.951088	0.102810
1168.104111	0.106349
1168.257117	0.101376
1168.410103	0.097817
1168.563072	0.109617
1168.716023	0.096887
1168.868955	0.100864
1169.021869	0.101807
1169.174765	0.093654
1169.327642	0.098816
1169.480501	0.090353
1169.633343	0.086477
1169.786165	0.087061
1169.938970	0.086341
1170.091757	0.098929
1170.244525	0.087296
1170.397275	0.076979
1170.550007	0.100478
1170.702720	0.091278
1170.855415	0.100248
1171.008092	0.111385
1171.160751	0.118170
1171.313392	0.114517
1171.466014	0.130177
1171.618619	0.144483
1171.771205	0.144483
1171.923772	0.144483
