sample name	sample
index	759
start time	 03-31-2021  12:18:17 PM


Wavelength (nm)	Absorbance
494.344910	0.058477
494.563924	0.058477
494.782919	0.058477
495.001897	-0.008918
495.220856	-0.004796
495.439797	-0.011919
495.658719	-0.014849
495.877624	-0.019791
496.096510	-0.021360
496.315378	0.013344
496.534227	0.015929
496.753059	0.020937
496.971872	-0.014027
497.190667	0.048557
497.409444	0.060028
497.628203	0.060206
497.846943	0.060836
498.065665	0.062328
498.284369	0.061786
498.503055	0.062472
498.721723	0.062602
498.940372	0.063376
499.159003	0.063767
499.377616	0.063238
499.596210	0.064312
499.814787	0.063599
500.033345	0.063421
500.251885	0.063222
500.470406	0.062150
500.688910	0.062742
500.907395	0.062876
501.125862	0.063539
501.344311	0.064313
501.562742	0.063726
501.781154	0.064518
501.999548	0.064971
502.217924	0.065725
502.436282	0.066802
502.654621	0.066529
502.872942	0.066212
503.091245	0.065253
503.309530	0.064438
503.527797	0.064854
503.746045	0.065546
503.964275	0.065338
504.182487	0.064749
504.400681	0.065018
504.618856	0.065983
504.837013	0.066465
505.055152	0.066704
505.273273	0.067410
505.491376	0.067895
505.709460	0.067314
505.927526	0.067123
506.145574	0.067573
506.363604	0.067257
506.581615	0.066917
506.799608	0.067099
507.017583	0.066604
507.235540	0.066897
507.453478	0.065896
507.671399	0.066639
507.889301	0.066405
508.107185	0.065935
508.325050	0.066323
508.542898	0.065623
508.760727	0.065513
508.978538	0.066467
509.196330	0.066209
509.414105	0.066914
509.631861	0.066539
509.849599	0.067362
510.067319	0.068536
510.285021	0.068248
510.502704	0.068677
510.720369	0.068049
510.938016	0.067856
511.155645	0.067762
511.373255	0.067794
511.590848	0.068190
511.808422	0.068629
512.025977	0.067923
512.243515	0.068480
512.461034	0.067937
512.678536	0.068630
512.896018	0.068868
513.113483	0.068455
513.330930	0.068704
513.548358	0.068487
513.765768	0.067465
513.983160	0.067676
514.200533	0.067322
514.417889	0.068247
514.635226	0.068867
514.852545	0.068682
515.069845	0.068508
515.287128	0.068557
515.504392	0.068429
515.721638	0.069185
515.938866	0.069551
516.156075	0.069792
516.373267	0.069992
516.590440	0.069130
516.807594	0.069708
517.024731	0.070612
517.241850	0.070621
517.458950	0.070873
517.676032	0.070077
517.893095	0.069947
518.110141	0.069874
518.327168	0.069907
518.544177	0.070790
518.761168	0.070790
518.978141	0.070160
519.195095	0.069817
519.412031	0.069646
519.628949	0.070001
519.845849	0.069691
520.062731	0.070578
520.279594	0.069870
520.496439	0.069913
520.713266	0.069712
520.930074	0.070432
521.146865	0.070527
521.363637	0.070325
521.580391	0.071138
521.797127	0.071203
522.013844	0.070850
522.230543	0.071495
522.447224	0.070959
522.663887	0.070788
522.880532	0.070041
523.097158	0.070437
523.313766	0.070795
523.530356	0.070161
523.746928	0.070775
523.963481	0.070808
524.180017	0.071511
524.396534	0.072568
524.613032	0.072892
524.829513	0.073461
525.045975	0.073256
525.262420	0.073108
525.478845	0.073502
525.695253	0.073736
525.911643	0.074019
526.128014	0.073246
526.344367	0.072575
526.560702	0.072735
526.777018	0.073389
526.993316	0.074013
527.209597	0.074632
527.425858	0.074488
527.642102	0.074131
527.858328	0.074103
528.074535	0.074924
528.290724	0.074963
528.506894	0.075423
528.723047	0.075470
528.939181	0.075100
529.155297	0.074905
529.371395	0.075424
529.587475	0.076313
529.803536	0.076610
530.019579	0.076352
530.235604	0.076638
530.451611	0.076451
530.667600	0.076369
530.883570	0.077547
531.099522	0.077584
531.315456	0.077468
531.531372	0.077386
531.747269	0.077085
531.963148	0.077496
532.179009	0.077580
532.394852	0.077407
532.610676	0.077418
532.826482	0.077004
533.042271	0.078078
533.258040	0.078746
533.473792	0.078459
533.689525	0.079491
533.905240	0.079079
534.120937	0.079970
534.336616	0.080259
534.552277	0.080965
534.767919	0.081367
534.983543	0.081477
535.199149	0.081325
535.414736	0.082079
535.630306	0.081543
535.845857	0.081940
536.061390	0.081801
536.276904	0.082302
536.492401	0.081870
536.707879	0.081448
536.923339	0.081493
537.138781	0.081728
537.354204	0.081374
537.569610	0.081658
537.784997	0.081883
538.000366	0.082013
538.215716	0.082045
538.431049	0.082609
538.646363	0.083211
538.861659	0.083347
539.076937	0.083304
539.292196	0.083740
539.507438	0.084312
539.722661	0.084648
539.937866	0.084957
540.153052	0.085065
540.368221	0.085156
540.583371	0.084821
540.798503	0.084453
541.013617	0.084922
541.228712	0.084823
541.443789	0.084487
541.658848	0.084406
541.873889	0.084353
542.088912	0.084644
542.303916	0.084738
542.518902	0.085356
542.733870	0.085781
542.948820	0.085793
543.163752	0.086051
543.378665	0.086428
543.593560	0.087025
543.808437	0.087229
544.023295	0.087463
544.238136	0.087619
544.452958	0.087229
544.667762	0.087454
544.882548	0.088097
545.097315	0.088265
545.312064	0.088318
545.526795	0.088293
545.741508	0.088276
545.956203	0.088291
546.170879	0.088294
546.385537	0.088711
546.600177	0.088591
546.814799	0.087669
547.029402	0.087673
547.243988	0.087893
547.458555	0.087922
547.673103	0.088216
547.887634	0.088332
548.102146	0.088561
548.316640	0.088669
548.531116	0.088725
548.745574	0.089635
548.960013	0.090435
549.174435	0.090838
549.388838	0.090885
549.603222	0.091036
549.817589	0.091273
550.031937	0.091721
550.246267	0.092022
550.460579	0.092557
550.674873	0.092087
550.889148	0.091602
551.103405	0.091655
551.317644	0.091830
551.531865	0.092019
551.746068	0.092347
551.960252	0.092602
552.174418	0.092971
552.388566	0.092959
552.602696	0.093251
552.816807	0.093776
553.030900	0.093698
553.244975	0.093854
553.459032	0.093404
553.673070	0.093345
553.887091	0.092879
554.101093	0.092565
554.315077	0.092756
554.529042	0.093177
554.742990	0.092922
554.956919	0.093072
555.170830	0.093189
555.384722	0.093562
555.598597	0.093763
555.812453	0.094325
556.026291	0.094610
556.240111	0.094792
556.453913	0.094832
556.667696	0.095126
556.881461	0.095058
557.095208	0.095219
557.308937	0.095488
557.522647	0.095645
557.736339	0.095486
557.950013	0.095617
558.163669	0.095721
558.377307	0.095811
558.590926	0.095966
558.804527	0.096261
559.018110	0.096272
559.231675	0.096624
559.445221	0.097143
559.658749	0.097507
559.872259	0.097808
560.085751	0.097912
560.299225	0.097825
560.512680	0.097868
560.726117	0.097670
560.939536	0.097918
561.152937	0.097845
561.366319	0.097307
561.579683	0.097326
561.793029	0.097327
562.006357	0.097755
562.219667	0.097974
562.432958	0.097972
562.646231	0.098392
562.859486	0.099019
563.072723	0.099064
563.285941	0.099525
563.499141	0.099847
563.712323	0.100235
563.925487	0.099952
564.138632	0.100135
564.351760	0.100221
564.564869	0.100498
564.777960	0.100275
564.991032	0.100322
565.204087	0.100314
565.417123	0.100516
565.630141	0.100037
565.843140	0.099964
566.056122	0.100037
566.269085	0.100373
566.482030	0.100067
566.694957	0.099817
566.907866	0.100236
567.120756	0.100391
567.333628	0.100090
567.546482	0.100364
567.759318	0.100848
567.972135	0.101252
568.184935	0.101257
568.397716	0.101705
568.610478	0.102023
568.823223	0.101872
569.035949	0.101894
569.248657	0.102032
569.461347	0.102388
569.674019	0.102320
569.886672	0.102185
570.099308	0.102576
570.311925	0.102447
570.524523	0.102617
570.737104	0.102975
570.949666	0.102966
571.162210	0.103116
571.374736	0.103100
571.587244	0.103000
571.799733	0.103527
572.012205	0.103470
572.224658	0.103596
572.437092	0.103679
572.649509	0.103819
572.861907	0.104110
573.074287	0.104082
573.286649	0.103980
573.498993	0.104244
573.711318	0.104198
573.923625	0.104256
574.135914	0.104513
574.348185	0.104334
574.560438	0.104620
574.772672	0.104544
574.984888	0.105250
575.197086	0.105306
575.409266	0.105400
575.621427	0.105161
575.833570	0.105120
576.045695	0.104621
576.257802	0.104970
576.469890	0.104858
576.681961	0.105327
576.894013	0.105181
577.106046	0.105777
577.318062	0.106041
577.530059	0.106455
577.742039	0.106902
577.954000	0.107978
578.165942	0.108274
578.377867	0.108199
578.589773	0.108273
578.801661	0.108305
579.013531	0.108561
579.225382	0.108523
579.437216	0.108193
579.649031	0.108327
579.860828	0.108333
580.072606	0.108384
580.284367	0.108630
580.496109	0.108516
580.707833	0.108478
580.919539	0.108238
581.131227	0.108374
581.342896	0.108967
581.554547	0.108843
581.766180	0.108524
581.977795	0.108367
582.189391	0.108595
582.400969	0.108554
582.612529	0.108481
582.824071	0.108666
583.035595	0.108660
583.247100	0.108329
583.458587	0.108355
583.670056	0.108352
583.881506	0.108801
584.092939	0.108773
584.304353	0.108928
584.515749	0.109108
584.727127	0.109309
584.938486	0.109619
585.149828	0.110181
585.361151	0.110429
585.572456	0.110651
585.783742	0.110571
585.995011	0.110982
586.206261	0.111420
586.417493	0.111773
586.628706	0.111647
586.839902	0.111774
587.051079	0.111958
587.262238	0.112205
587.473379	0.112431
587.684502	0.112609
587.895606	0.112461
588.106692	0.112689
588.317760	0.112914
588.528810	0.113027
588.739841	0.113169
588.950855	0.112861
589.161850	0.112629
589.372827	0.112538
589.583785	0.112664
589.794726	0.112972
590.005648	0.113032
590.216552	0.113177
590.427437	0.113368
590.638305	0.113372
590.849154	0.113835
591.059985	0.113965
591.270798	0.114245
591.481592	0.114255
591.692369	0.113849
591.903127	0.113794
592.113867	0.113447
592.324588	0.113627
592.535292	0.114221
592.745977	0.114080
592.956644	0.114276
593.167293	0.114626
593.377923	0.114847
593.588536	0.115182
593.799130	0.115236
594.009706	0.115773
594.220263	0.115659
594.430803	0.115336
594.641324	0.115606
594.851827	0.115706
595.062312	0.115509
595.272778	0.115513
595.483227	0.115594
595.693657	0.115654
595.904069	0.115772
596.114462	0.115934
596.324838	0.116152
596.535195	0.116336
596.745534	0.116431
596.955855	0.116859
597.166157	0.116902
597.376441	0.116749
597.586707	0.117071
597.796955	0.117007
598.007185	0.117447
598.217396	0.117577
598.427589	0.117144
598.637764	0.117475
598.847921	0.117519
599.058060	0.117480
599.268180	0.117851
599.478282	0.117732
599.688366	0.117833
599.898431	0.117621
600.108479	0.117746
600.318508	0.118134
600.528519	0.117875
600.738511	0.117700
600.948486	0.117950
601.158442	0.118299
601.368380	0.118521
601.578300	0.118627
601.788202	0.118608
601.998085	0.118481
602.207950	0.118834
602.417797	0.119224
602.627626	0.119319
602.837436	0.119605
603.047228	0.119466
603.257002	0.119585
603.466758	0.119879
603.676496	0.120288
603.886215	0.120698
604.095916	0.120570
604.305599	0.120846
604.515264	0.121052
604.724910	0.121060
604.934538	0.121355
605.144148	0.121410
605.353740	0.121174
605.563314	0.121326
605.772869	0.121218
605.982406	0.121445
606.191925	0.121269
606.401425	0.121413
606.610908	0.121520
606.820372	0.121289
607.029818	0.121383
607.239246	0.121438
607.448655	0.121576
607.658047	0.121489
607.867420	0.121460
608.076775	0.121657
608.286111	0.121761
608.495430	0.121774
608.704730	0.122054
608.914012	0.122292
609.123275	0.122609
609.332521	0.122360
609.541748	0.122614
609.750957	0.122616
609.960148	0.122700
610.169321	0.122815
610.378475	0.123093
610.587611	0.122988
610.796729	0.122963
611.005829	0.122881
611.214910	0.123170
611.423974	0.123189
611.633019	0.123313
611.842045	0.123278
612.051054	0.123295
612.260044	0.123182
612.469017	0.123294
612.677970	0.123424
612.886906	0.123547
613.095824	0.123460
613.304723	0.123789
613.513604	0.124010
613.722467	0.123979
613.931311	0.123961
614.140138	0.123940
614.348946	0.124004
614.557736	0.124218
614.766507	0.124261
614.975261	0.124360
615.183996	0.124179
615.392713	0.124295
615.601412	0.124444
615.810092	0.124785
616.018754	0.125271
616.227399	0.125554
616.436024	0.125282
616.644632	0.125783
616.853222	0.125984
617.061793	0.126210
617.270346	0.126478
617.478880	0.126786
617.687397	0.126683
617.895895	0.126583
618.104375	0.126824
618.312837	0.127229
618.521281	0.127244
618.729706	0.127246
618.938113	0.127247
619.146502	0.127292
619.354873	0.127433
619.563226	0.127472
619.771560	0.127670
619.979876	0.127720
620.188174	0.127769
620.396453	0.127776
620.604715	0.128049
620.812958	0.128061
621.021183	0.127937
621.229390	0.127840
621.437578	0.127969
621.645748	0.127944
621.853900	0.127897
622.062034	0.127935
622.270150	0.128002
622.478247	0.128094
622.686326	0.128393
622.894387	0.128374
623.102430	0.128512
623.310454	0.128790
623.518461	0.128865
623.726449	0.128958
623.934418	0.129086
624.142370	0.129111
624.350303	0.129133
624.558218	0.129165
624.766115	0.129588
624.973994	0.129886
625.181855	0.129970
625.389697	0.130282
625.597521	0.130333
625.805327	0.130456
626.013114	0.130641
626.220883	0.130676
626.428634	0.131029
626.636367	0.131052
626.844082	0.131033
627.051778	0.130968
627.259457	0.130726
627.467117	0.130826
627.674758	0.130960
627.882382	0.131179
628.089987	0.131311
628.297574	0.131235
628.505143	0.130971
628.712694	0.131161
628.920226	0.131247
629.127740	0.131371
629.335236	0.131608
629.542714	0.131614
629.750174	0.131556
629.957615	0.131524
630.165038	0.131275
630.372443	0.131695
630.579829	0.131818
630.787198	0.132029
630.994548	0.132308
631.201880	0.132236
631.409194	0.132297
631.616489	0.132315
631.823766	0.132514
632.031025	0.132965
632.238266	0.133210
632.445489	0.133255
632.652693	0.133313
632.859879	0.133410
633.067047	0.133501
633.274197	0.133520
633.481329	0.133590
633.688442	0.133678
633.895537	0.133992
634.102614	0.133835
634.309672	0.133751
634.516713	0.133798
634.723735	0.133929
634.930739	0.134179
635.137724	0.134184
635.344692	0.134369
635.551641	0.134430
635.758572	0.134339
635.965485	0.134585
636.172379	0.134638
636.379256	0.134863
636.586114	0.134812
636.792954	0.134842
636.999775	0.135043
637.206579	0.135296
637.413364	0.135494
637.620131	0.135557
637.826880	0.135649
638.033610	0.135834
638.240323	0.135973
638.447017	0.136097
638.653692	0.136215
638.860350	0.136357
639.066990	0.136141
639.273611	0.136551
639.480214	0.136670
639.686798	0.136771
639.893365	0.136845
640.099913	0.136787
640.306443	0.136986
640.512955	0.137048
640.719449	0.137259
640.925924	0.137660
641.132381	0.137523
641.338820	0.137578
641.545241	0.137783
641.751644	0.137700
641.958028	0.137873
642.164394	0.138181
642.370742	0.138502
642.577071	0.138813
642.783383	0.138996
642.989676	0.139147
643.195951	0.139289
643.402207	0.139363
643.608446	0.139565
643.814666	0.139770
644.020868	0.139696
644.227052	0.139778
644.433218	0.139502
644.639365	0.139517
644.845494	0.139668
645.051605	0.139665
645.257698	0.139837
645.463772	0.140089
645.669828	0.140187
645.875866	0.140255
646.081886	0.140216
646.287888	0.140396
646.493871	0.140330
646.699836	0.140433
646.905783	0.140723
647.111712	0.140683
647.317622	0.140697
647.523514	0.140819
647.729388	0.141010
647.935244	0.141308
648.141082	0.141533
648.346901	0.141669
648.552702	0.141680
648.758485	0.141858
648.964250	0.142209
649.169996	0.142313
649.375724	0.142557
649.581434	0.142618
649.787126	0.142603
649.992800	0.142510
650.198455	0.142660
650.404092	0.142694
650.609711	0.142619
650.815311	0.142490
651.020894	0.142751
651.226458	0.142833
651.432004	0.143000
651.637532	0.143353
651.843041	0.143640
652.048532	0.143939
652.254006	0.144240
652.459460	0.144398
652.664897	0.144602
652.870315	0.144936
653.075716	0.145043
653.281097	0.145077
653.486461	0.145107
653.691807	0.145271
653.897134	0.145078
654.102443	0.145076
654.307734	0.145158
654.513006	0.145226
654.718261	0.145029
654.923497	0.144994
655.128715	0.145130
655.333915	0.145014
655.539096	0.145167
655.744259	0.145261
655.949404	0.145319
656.154531	0.145500
656.359640	0.145545
656.564730	0.145635
656.769802	0.145725
656.974856	0.145911
657.179892	0.146246
657.384909	0.146394
657.589908	0.146893
657.794889	0.147208
657.999852	0.147453
658.204797	0.147697
658.409723	0.147827
658.614631	0.147940
658.819521	0.148030
659.024393	0.148113
659.229246	0.148113
659.434081	0.148006
659.638898	0.148100
659.843697	0.148234
660.048478	0.148705
660.253240	0.148927
660.457984	0.149164
660.662710	0.149228
660.867417	0.149256
661.072107	0.149430
661.276778	0.149845
661.481431	0.149972
661.686066	0.149841
661.890682	0.149769
662.095281	0.150121
662.299861	0.150360
662.504422	0.150556
662.708966	0.150776
662.913491	0.150970
663.117999	0.150733
663.322488	0.150908
663.526958	0.151469
663.731411	0.151454
663.935845	0.151418
664.140261	0.151481
664.344659	0.151501
664.549038	0.151595
664.753400	0.151698
664.957743	0.151935
665.162068	0.151940
665.366375	0.151895
665.570663	0.151949
665.774933	0.152233
665.979185	0.152420
666.183419	0.152627
666.387635	0.152878
666.591832	0.153060
666.796011	0.153380
667.000172	0.153430
667.204315	0.153613
667.408439	0.153885
667.612545	0.153902
667.816634	0.153771
668.020703	0.153895
668.224755	0.154064
668.428788	0.154143
668.632803	0.154178
668.836800	0.154379
669.040779	0.154272
669.244739	0.154166
669.448681	0.154059
669.652605	0.154441
669.856511	0.154762
670.060399	0.154658
670.264268	0.154528
670.468119	0.154572
670.671952	0.154525
670.875767	0.154934
671.079563	0.155114
671.283341	0.155386
671.487101	0.155609
671.690843	0.155583
671.894567	0.155677
672.098272	0.156035
672.301959	0.156089
672.505628	0.156390
672.709278	0.156314
672.912911	0.156278
673.116525	0.156463
673.320121	0.156361
673.523699	0.156373
673.727258	0.156478
673.930799	0.156546
674.134322	0.157040
674.337827	0.157076
674.541314	0.157214
674.744782	0.157478
674.948232	0.157689
675.151664	0.157850
675.355078	0.158048
675.558474	0.158220
675.761851	0.158224
675.965210	0.158169
676.168551	0.158449
676.371873	0.158459
676.575178	0.158696
676.778464	0.158778
676.981732	0.158836
677.184981	0.159003
677.388213	0.159186
677.591426	0.159414
677.794621	0.159355
677.997798	0.159344
678.200956	0.159473
678.404097	0.159740
678.607219	0.159663
678.810323	0.159956
679.013408	0.160126
679.216476	0.160164
679.419525	0.160530
679.622556	0.160556
679.825569	0.160639
680.028563	0.160792
680.231540	0.160716
680.434498	0.161072
680.637438	0.161105
680.840359	0.161328
681.043263	0.161426
681.246148	0.161293
681.449015	0.161383
681.651864	0.161665
681.854694	0.161864
682.057506	0.162242
682.260301	0.162370
682.463076	0.162449
682.665834	0.162202
682.868573	0.162331
683.071295	0.162550
683.273998	0.162782
683.476682	0.162813
683.679349	0.162638
683.881997	0.162556
684.084627	0.162536
684.287239	0.162616
684.489833	0.162764
684.692408	0.162830
684.894965	0.162832
685.097504	0.163064
685.300025	0.163111
685.502527	0.163613
685.705012	0.163419
685.907478	0.163557
686.109925	0.163739
686.312355	0.163934
686.514766	0.164241
686.717159	0.164327
686.919534	0.164390
687.121891	0.164770
687.324230	0.164748
687.526550	0.165058
687.728852	0.165238
687.931136	0.165199
688.133401	0.165338
688.335649	0.165507
688.537878	0.165660
688.740089	0.165821
688.942281	0.165847
689.144456	0.166015
689.346612	0.166264
689.548750	0.166267
689.750870	0.166593
689.952971	0.166856
690.155055	0.166685
690.357120	0.166900
690.559167	0.167012
690.761195	0.167146
690.963206	0.167131
691.165198	0.167362
691.367172	0.167474
691.569128	0.167751
691.771065	0.167783
691.972984	0.168108
692.174885	0.168411
692.376768	0.168562
692.578633	0.168460
692.780479	0.168884
692.982308	0.168911
693.184118	0.169069
693.385909	0.168862
693.587683	0.169126
693.789438	0.169250
693.991175	0.169038
694.192894	0.169174
694.394595	0.169274
694.596277	0.169229
694.797941	0.169321
694.999587	0.169315
695.201215	0.169672
695.402824	0.169709
695.604416	0.169829
695.805989	0.170095
696.007543	0.170377
696.209080	0.170640
696.410598	0.170732
696.612099	0.171079
696.813580	0.171216
697.015044	0.171226
697.216490	0.171196
697.417917	0.171267
697.619326	0.171230
697.820717	0.171201
698.022089	0.171113
698.223444	0.171384
698.424780	0.171199
698.626098	0.171341
698.827397	0.171474
699.028679	0.171488
699.229942	0.171734
699.431187	0.171674
699.632414	0.171683
699.833622	0.172193
700.034813	0.171972
700.235985	0.172051
700.437139	0.172213
700.638274	0.172337
700.839392	0.172783
701.040491	0.172730
701.241572	0.173102
701.442635	0.173216
701.643679	0.173043
701.844706	0.173216
702.045714	0.173172
702.246704	0.173352
702.447675	0.173290
702.648629	0.173184
702.849564	0.173273
703.050481	0.173440
703.251380	0.173480
703.452260	0.173349
703.653122	0.173353
703.853966	0.173607
704.054792	0.173468
704.255600	0.173428
704.456389	0.173275
704.657160	0.173155
704.857913	0.172829
705.058648	0.172812
705.259365	0.172996
705.460063	0.172909
705.660743	0.172902
705.861405	0.172975
706.062048	0.173271
706.262674	0.173383
706.463281	0.173359
706.663870	0.173833
706.864441	0.173723
707.064993	0.174050
707.265527	0.174254
707.466043	0.174215
707.666541	0.174346
707.867021	0.174318
708.067482	0.174423
708.267925	0.174618
708.468350	0.174425
708.668757	0.174721
708.869145	0.174691
709.069516	0.174756
709.269868	0.174946
709.470201	0.174693
709.670517	0.174650
709.870814	0.174620
710.071093	0.174703
710.271354	0.174671
710.471597	0.174523
710.671821	0.174428
710.872028	0.174378
711.072216	0.174435
711.272385	0.174540
711.472537	0.174695
711.672670	0.174599
711.872785	0.174669
712.072882	0.174721
712.272961	0.174800
712.473021	0.174528
712.673063	0.174567
712.873087	0.174409
713.073093	0.174691
713.273081	0.174490
713.473050	0.174584
713.673001	0.174627
713.872934	0.174702
714.072849	0.174966
714.272745	0.175361
714.472623	0.175206
714.672483	0.175264
714.872325	0.175194
715.072148	0.175385
715.271954	0.175572
715.471741	0.175505
715.671509	0.175352
715.871260	0.175100
716.070992	0.174810
716.270707	0.175018
716.470403	0.174925
716.670080	0.174899
716.869740	0.174743
717.069381	0.174622
717.269004	0.174541
717.468609	0.174634
717.668195	0.174632
717.867764	0.174668
718.067314	0.174662
718.266846	0.174708
718.466360	0.174526
718.665855	0.174777
718.865332	0.174699
719.064791	0.174503
719.264232	0.174402
719.463655	0.174328
719.663059	0.174310
719.862445	0.174297
720.061813	0.174205
720.261163	0.174242
720.460494	0.173915
720.659807	0.174042
720.859102	0.174129
721.058379	0.174018
721.257638	0.173901
721.456878	0.173945
721.656100	0.173860
721.855304	0.173887
722.054490	0.173965
722.253657	0.173878
722.452806	0.173807
722.651937	0.173748
722.851050	0.173694
723.050145	0.173691
723.249221	0.173621
723.448279	0.173534
723.647319	0.173355
723.846340	0.173434
724.045344	0.173480
724.244329	0.173272
724.443296	0.173391
724.642245	0.173546
724.841175	0.173663
725.040088	0.173646
725.238982	0.173749
725.437857	0.173688
725.636715	0.173506
725.835554	0.173531
726.034376	0.173566
726.233179	0.173495
726.431963	0.173594
726.630730	0.173548
726.829478	0.173372
727.028208	0.173156
727.226920	0.173523
727.425614	0.173527
727.624289	0.173362
727.822946	0.173295
728.021585	0.172987
728.220206	0.172669
728.418808	0.172576
728.617392	0.172781
728.815958	0.172673
729.014506	0.172296
729.213036	0.172169
729.411547	0.172033
729.610040	0.172013
729.808515	0.172190
730.006972	0.171975
730.205410	0.171737
730.403831	0.171405
730.602233	0.171322
730.800616	0.171174
730.998982	0.170966
731.197329	0.171093
731.395658	0.170855
731.593969	0.170685
731.792262	0.171071
731.990536	0.171092
732.188793	0.170788
732.387031	0.170714
732.585250	0.170827
732.783452	0.170801
732.981635	0.170568
733.179800	0.170766
733.377947	0.170672
733.576076	0.170242
733.774186	0.170088
733.972278	0.170273
734.170352	0.170097
734.368408	0.170348
734.566446	0.170232
734.764465	0.170249
734.962466	0.169854
735.160449	0.170076
735.358413	0.170041
735.556360	0.170052
735.754288	0.170202
735.952198	0.170329
736.150090	0.169890
736.347963	0.169672
736.545818	0.169385
736.743655	0.169176
736.941474	0.168661
737.139275	0.168508
737.337057	0.168358
737.534821	0.168149
737.732567	0.168144
737.930295	0.167961
738.128005	0.167792
738.325696	0.167794
738.523369	0.167951
738.721024	0.168018
738.918660	0.168078
739.116279	0.167901
739.313879	0.167520
739.511461	0.167310
739.709024	0.167110
739.906570	0.167165
740.104097	0.167033
740.301606	0.166889
740.499097	0.166698
740.696569	0.166476
740.894024	0.166318
741.091460	0.166383
741.288878	0.166257
741.486277	0.166096
741.683659	0.165881
741.881022	0.165728
742.078367	0.165719
742.275694	0.165650
742.473002	0.165619
742.670293	0.165596
742.867565	0.165711
743.064819	0.165507
743.262054	0.165775
743.459272	0.165649
743.656471	0.165543
743.853652	0.165417
744.050815	0.165156
744.247959	0.165086
744.445085	0.165088
744.642194	0.164706
744.839283	0.164541
745.036355	0.164062
745.233408	0.164159
745.430444	0.163953
745.627461	0.163842
745.824459	0.163936
746.021440	0.163846
746.218402	0.163827
746.415346	0.163691
746.612272	0.163636
746.809180	0.163633
747.006069	0.163593
747.202940	0.163619
747.399793	0.163426
747.596628	0.163307
747.793444	0.163035
747.990243	0.162787
748.187023	0.162891
748.383784	0.162879
748.580528	0.162717
748.777253	0.162342
748.973960	0.162429
749.170649	0.162540
749.367320	0.162417
749.563973	0.162353
749.760607	0.162051
749.957223	0.161756
750.153821	0.161450
750.350400	0.161659
750.546962	0.161859
750.743505	0.161553
750.940030	0.161279
751.136536	0.161231
751.333025	0.161273
751.529495	0.161420
751.725947	0.161457
751.922381	0.161488
752.118796	0.161345
752.315194	0.161224
752.511573	0.161158
752.707934	0.161012
752.904276	0.160852
753.100601	0.160682
753.296907	0.160511
753.493195	0.160178
753.689465	0.160036
753.885716	0.159861
754.081949	0.159775
754.278164	0.159898
754.474361	0.159645
754.670540	0.159645
754.866700	0.159476
755.062843	0.159569
755.258967	0.159781
755.455072	0.159876
755.651160	0.159843
755.847229	0.159538
756.043280	0.159196
756.239313	0.159271
756.435328	0.159181
756.631324	0.159305
756.827302	0.159103
757.023262	0.158630
757.219204	0.158610
757.415127	0.158606
757.611033	0.158555
757.806920	0.158622
758.002788	0.158492
758.198639	0.158403
758.394471	0.158049
758.590286	0.157893
758.786081	0.157991
758.981859	0.157766
759.177619	0.157565
759.373360	0.157583
759.569083	0.157370
759.764788	0.157195
759.960474	0.156821
760.156143	0.156529
760.351793	0.156453
760.547425	0.156493
760.743038	0.156394
760.938634	0.156160
761.134211	0.156071
761.329770	0.155845
761.525311	0.155703
761.720833	0.155609
761.916338	0.155752
762.111824	0.155688
762.307292	0.155354
762.502741	0.155188
762.698173	0.155034
762.893586	0.154931
763.088981	0.155044
763.284358	0.155140
763.479716	0.155304
763.675057	0.155239
763.870379	0.154916
764.065683	0.154922
764.260968	0.154866
764.456236	0.154890
764.651485	0.154534
764.846716	0.154171
765.041929	0.154073
765.237123	0.153958
765.432299	0.153892
765.627457	0.153980
765.822597	0.154038
766.017719	0.153792
766.212822	0.153655
766.407907	0.153729
766.602974	0.153870
766.798023	0.153794
766.993054	0.153684
767.188066	0.153594
767.383060	0.153555
767.578036	0.153307
767.772993	0.153394
767.967933	0.153401
768.162854	0.153373
768.357757	0.153067
768.552642	0.152869
768.747508	0.152577
768.942356	0.152521
769.137186	0.152288
769.331998	0.152030
769.526792	0.151880
769.721567	0.151737
769.916324	0.151650
770.111063	0.151776
770.305784	0.151692
770.500486	0.151819
770.695171	0.151539
770.889837	0.151632
771.084484	0.151862
771.279114	0.151999
771.473725	0.151955
771.668318	0.151745
771.862893	0.151548
772.057450	0.151566
772.251988	0.151489
772.446509	0.151492
772.641011	0.151334
772.835494	0.151006
773.029960	0.150799
773.224407	0.150705
773.418836	0.150570
773.613247	0.150621
773.807640	0.150567
774.002014	0.150505
774.196370	0.150597
774.390708	0.150486
774.585028	0.150577
774.779330	0.150520
774.973613	0.150533
775.167878	0.150683
775.362125	0.150552
775.556354	0.150248
775.750564	0.150239
775.944756	0.150184
776.138930	0.150147
776.333086	0.150193
776.527223	0.150314
776.721343	0.150209
776.915444	0.150124
777.109526	0.149944
777.303591	0.150266
777.497637	0.150324
777.691666	0.150252
777.885676	0.150350
778.079667	0.150439
778.273641	0.150207
778.467596	0.150142
778.661533	0.150161
778.855452	0.150652
779.049352	0.150488
779.243235	0.150200
779.437099	0.150172
779.630945	0.149952
779.824773	0.149682
780.018582	0.149534
780.212373	0.149510
780.406146	0.149573
780.599901	0.149106
780.793638	0.149035
780.987356	0.149040
781.181056	0.149314
781.374738	0.149430
781.568402	0.149466
781.762047	0.149392
781.955674	0.149298
782.149283	0.149137
782.342874	0.149388
782.536447	0.149428
782.730001	0.149460
782.923537	0.149041
783.117055	0.149000
783.310555	0.149134
783.504036	0.149319
783.697499	0.149648
783.890944	0.149818
784.084371	0.149596
784.277780	0.149664
784.471170	0.149777
784.664542	0.149789
784.857896	0.149605
785.051231	0.149756
785.244549	0.149851
785.437848	0.149670
785.631129	0.149514
785.824392	0.149663
786.017636	0.149582
786.210863	0.149566
786.404071	0.149555
786.597260	0.149771
786.790432	0.149428
786.983585	0.149373
787.176721	0.149230
787.369838	0.149314
787.562936	0.149154
787.756017	0.149406
787.949079	0.149427
788.142123	0.149533
788.335149	0.149745
788.528156	0.149807
788.721146	0.149921
788.914117	0.150188
789.107070	0.150250
789.300005	0.150407
789.492921	0.150275
789.685819	0.150207
789.878699	0.150217
790.071561	0.150216
790.264405	0.150154
790.457230	0.149935
790.650037	0.149557
790.842826	0.149394
791.035597	0.149288
791.228349	0.149166
791.421084	0.149087
791.613800	0.149007
791.806497	0.148873
791.999177	0.148853
792.191838	0.148847
792.384481	0.149235
792.577106	0.149221
792.769713	0.149203
792.962301	0.149333
793.154871	0.149263
793.347423	0.149320
793.539957	0.149184
793.732473	0.149514
793.924970	0.149669
794.117449	0.149527
794.309910	0.149592
794.502353	0.149490
794.694777	0.149556
794.887183	0.149478
795.079571	0.149349
795.271941	0.149435
795.464293	0.149465
795.656626	0.149472
795.848941	0.149583
796.041238	0.149818
796.233516	0.150204
796.425777	0.150292
796.618019	0.150480
796.810243	0.150896
797.002449	0.150987
797.194636	0.150692
797.386805	0.150697
797.578956	0.150807
797.771089	0.150985
797.963204	0.150720
798.155300	0.150651
798.347378	0.150950
798.539438	0.150942
798.731480	0.151113
798.923503	0.151547
799.115509	0.151701
799.307496	0.151833
799.499465	0.151680
799.691415	0.151859
799.883348	0.152042
800.075262	0.152094
800.267158	0.152226
800.459035	0.152313
800.650895	0.152333
800.842736	0.152331
801.034559	0.152165
801.226364	0.152370
801.418150	0.152760
801.609919	0.152998
801.801669	0.153157
801.993401	0.153225
802.185114	0.153271
802.376810	0.153485
802.568487	0.153796
802.760146	0.153984
802.951787	0.154004
803.143409	0.154006
803.335014	0.153964
803.526600	0.154056
803.718168	0.153892
803.909717	0.154057
804.101249	0.153801
804.292762	0.153830
804.484257	0.153711
804.675734	0.153906
804.867192	0.153979
805.058632	0.153926
805.250054	0.153695
805.441458	0.153938
805.632844	0.153879
805.824211	0.153950
806.015561	0.153934
806.206891	0.154418
806.398204	0.154465
806.589499	0.154621
806.780775	0.154882
806.972033	0.155159
807.163273	0.155118
807.354495	0.155331
807.545698	0.155703
807.736883	0.155640
807.928050	0.155565
808.119199	0.155745
808.310329	0.155608
808.501441	0.155657
808.692535	0.155976
808.883611	0.156085
809.074669	0.156138
809.265708	0.156223
809.456729	0.156810
809.647732	0.156835
809.838717	0.156832
810.029683	0.156987
810.220632	0.157080
810.411562	0.157087
810.602474	0.157290
810.793367	0.157542
810.984242	0.157604
811.175100	0.157444
811.365938	0.157503
811.556759	0.157554
811.747562	0.157618
811.938346	0.157771
812.129112	0.157754
812.319860	0.158029
812.510589	0.157961
812.701300	0.158040
812.891994	0.158048
813.082668	0.158264
813.273325	0.158134
813.463964	0.158288
813.654584	0.158269
813.845186	0.158233
814.035769	0.158195
814.226335	0.158262
814.416882	0.158269
814.607411	0.158404
814.797922	0.158524
814.988415	0.158876
815.178889	0.158901
815.369345	0.159196
815.559783	0.159350
815.750203	0.159684
815.940605	0.160052
816.130988	0.160304
816.321353	0.160285
816.511700	0.160432
816.702028	0.160689
816.892339	0.160955
817.082631	0.160985
817.272905	0.161360
817.463161	0.161239
817.653398	0.161148
817.843617	0.161404
818.033819	0.161999
818.224001	0.162192
818.414166	0.162489
818.604312	0.162425
818.794440	0.162671
818.984550	0.162760
819.174642	0.162940
819.364716	0.163045
819.554771	0.162740
819.744808	0.162781
819.934827	0.162784
820.124827	0.162589
820.314810	0.162850
820.504774	0.162961
820.694720	0.163145
820.884647	0.163501
821.074557	0.163915
821.264448	0.164563
821.454321	0.164579
821.644176	0.165051
821.834012	0.165275
822.023831	0.165778
822.213631	0.165906
822.403413	0.166065
822.593176	0.166115
822.782922	0.166085
822.972649	0.166145
823.162358	0.166514
823.352049	0.166424
823.541721	0.166613
823.731376	0.166446
823.921012	0.166551
824.110629	0.166603
824.300229	0.166995
824.489811	0.167106
824.679374	0.167061
824.868919	0.167184
825.058445	0.167378
825.247954	0.167573
825.437444	0.167854
825.626916	0.168201
825.816370	0.168510
826.005806	0.168375
826.195223	0.168439
826.384622	0.168843
826.574003	0.168873
826.763366	0.168997
826.952711	0.169083
827.142037	0.169392
827.331345	0.169078
827.520635	0.169092
827.709906	0.169499
827.899160	0.169793
828.088395	0.169803
828.277612	0.170046
828.466810	0.170229
828.655991	0.170761
828.845153	0.170869
829.034297	0.171475
829.223423	0.171717
829.412531	0.171707
829.601620	0.172021
829.790691	0.172217
829.979744	0.172362
830.168779	0.172610
830.357795	0.172596
830.546793	0.172766
830.735773	0.173001
830.924735	0.173444
831.113679	0.173710
831.302604	0.173854
831.491511	0.174252
831.680400	0.174280
831.869271	0.174283
832.058123	0.174397
832.246957	0.174691
832.435773	0.174776
832.624571	0.174954
832.813351	0.175341
833.002112	0.175628
833.190855	0.175773
833.379580	0.176274
833.568287	0.176702
833.756975	0.176924
833.945645	0.176858
834.134297	0.177026
834.322931	0.176877
834.511547	0.176666
834.700144	0.176716
834.888723	0.177004
835.077284	0.177115
835.265826	0.177291
835.454351	0.177259
835.642857	0.177444
835.831345	0.177738
836.019815	0.178425
836.208266	0.178949
836.396699	0.179493
836.585114	0.179713
836.773511	0.179765
836.961890	0.180231
837.150250	0.180814
837.338592	0.181279
837.526916	0.181329
837.715222	0.181355
837.903510	0.181614
838.091779	0.181569
838.280030	0.181837
838.468263	0.182287
838.656477	0.182232
838.844674	0.182383
839.032852	0.182449
839.221012	0.182736
839.409153	0.182603
839.597277	0.182434
839.785382	0.182794
839.973469	0.182868
840.161538	0.182843
840.349589	0.182942
840.537621	0.183261
840.725635	0.183380
840.913631	0.183359
841.101609	0.183796
841.289568	0.184259
841.477509	0.184766
841.665432	0.184827
841.853337	0.184990
842.041224	0.185673
842.229092	0.185764
842.416942	0.186546
842.604774	0.187197
842.792588	0.187529
842.980383	0.187869
843.168160	0.188087
843.355919	0.188382
843.543660	0.188996
843.731382	0.189172
843.919087	0.189180
844.106773	0.188857
844.294441	0.188813
844.482090	0.189002
844.669722	0.189042
844.857335	0.188846
845.044930	0.188850
845.232507	0.188766
845.420065	0.188731
845.607605	0.189099
845.795127	0.189470
845.982631	0.189947
846.170117	0.190120
846.357584	0.190727
846.545033	0.191066
846.732464	0.191781
846.919877	0.192142
847.107272	0.192522
847.294648	0.192821
847.482006	0.192778
847.669346	0.192892
847.856667	0.193030
848.043971	0.192710
848.231256	0.192750
848.418523	0.192834
848.605771	0.192702
848.793002	0.192740
848.980214	0.192771
849.167408	0.193376
849.354584	0.193267
849.541742	0.193660
849.728881	0.194119
849.916002	0.194480
850.103105	0.194749
850.290190	0.195546
850.477256	0.195919
850.664304	0.196278
850.851334	0.196371
851.038346	0.197220
851.225340	0.197429
851.412315	0.197441
851.599272	0.197670
851.786211	0.197587
851.973132	0.197811
852.160034	0.197872
852.346918	0.198174
852.533784	0.198628
852.720632	0.198737
852.907462	0.198837
853.094273	0.199202
853.281066	0.199281
853.467841	0.199738
853.654598	0.199657
853.841336	0.199983
854.028056	0.200249
854.214758	0.199932
854.401442	0.200018
854.588107	0.200338
854.774755	0.200689
854.961384	0.200712
855.147995	0.201079
855.334587	0.201468
855.521162	0.201715
855.707718	0.201779
855.894256	0.202714
856.080775	0.202908
856.267277	0.203108
856.453760	0.203230
856.640225	0.203950
856.826672	0.203802
857.013101	0.203846
857.199511	0.204160
857.385903	0.204427
857.572277	0.204464
857.758633	0.204581
857.944970	0.204833
858.131290	0.205069
858.317591	0.205223
858.503873	0.205956
858.690138	0.206180
858.876384	0.206352
859.062612	0.206612
859.248822	0.206981
859.435014	0.207260
859.621188	0.207515
859.807343	0.207515
859.993480	0.207422
860.179599	0.207360
860.365699	0.207521
860.551781	0.207612
860.737846	0.207791
860.923891	0.207738
861.109919	0.207686
861.295929	0.207795
861.481920	0.208109
861.667893	0.208302
861.853848	0.208159
862.039784	0.208269
862.225702	0.208482
862.411603	0.208750
862.597484	0.208457
862.783348	0.208802
862.969193	0.208990
863.155021	0.209255
863.340830	0.209676
863.526620	0.210140
863.712393	0.210648
863.898147	0.210777
864.083883	0.210555
864.269601	0.211126
864.455301	0.211579
864.640982	0.211618
864.826645	0.211397
865.012290	0.211315
865.197917	0.211380
865.383526	0.211706
865.569116	0.211631
865.754688	0.212032
865.940242	0.212179
866.125777	0.212298
866.311295	0.212505
866.496794	0.212710
866.682275	0.212963
866.867737	0.213001
867.053182	0.212756
867.238608	0.213094
867.424016	0.213400
867.609406	0.213754
867.794778	0.213736
867.980131	0.213706
868.165466	0.214080
868.350783	0.214405
868.536082	0.214599
868.721362	0.214846
868.906625	0.214968
869.091869	0.214891
869.277094	0.215016
869.462302	0.215116
869.647491	0.215377
869.832662	0.215916
870.017815	0.215995
870.202950	0.215922
870.388066	0.216095
870.573165	0.216323
870.758245	0.216594
870.943306	0.216780
871.128350	0.217575
871.313375	0.217525
871.498382	0.217507
871.683371	0.217568
871.868342	0.218136
872.053294	0.218233
872.238229	0.218515
872.423144	0.218728
872.608042	0.218638
872.792922	0.218038
872.977783	0.218538
873.162626	0.218629
873.347451	0.218993
873.532258	0.219162
873.717046	0.219699
873.901816	0.219939
874.086568	0.220167
874.271302	0.220762
874.456017	0.221544
874.640715	0.221855
874.825394	0.221937
875.010055	0.222032
875.194697	0.222482
875.379322	0.222378
875.563928	0.222505
875.748516	0.222437
875.933085	0.222412
876.117637	0.221881
876.302170	0.221760
876.486685	0.222030
876.671182	0.221968
876.855661	0.221673
877.040121	0.221433
877.224563	0.221376
877.408987	0.221668
877.593393	0.221553
877.777780	0.221932
877.962150	0.222162
878.146501	0.222142
878.330833	0.222127
878.515148	0.222416
878.699444	0.223139
878.883722	0.223082
879.067982	0.222947
879.252224	0.223016
879.436447	0.223082
879.620653	0.222996
879.804840	0.223183
879.989008	0.223748
880.173159	0.223422
880.357291	0.223154
880.541405	0.222909
880.725501	0.223146
880.909579	0.223030
881.093638	0.223044
881.277680	0.223439
881.461703	0.223121
881.645707	0.222827
881.829694	0.223208
882.013662	0.223643
882.197612	0.224176
882.381544	0.224259
882.565458	0.224469
882.749353	0.224950
882.933230	0.224659
883.117089	0.224712
883.300930	0.224872
883.484753	0.224924
883.668557	0.224742
883.852343	0.224825
884.036111	0.224548
884.219861	0.224727
884.403592	0.224338
884.587305	0.224652
884.771000	0.224945
884.954677	0.225280
885.138335	0.225334
885.321976	0.225213
885.505598	0.225091
885.689201	0.225115
885.872787	0.224879
886.056354	0.224901
886.239904	0.224720
886.423434	0.224875
886.606947	0.224630
886.790442	0.224286
886.973918	0.224394
887.157376	0.224291
887.340816	0.224494
887.524237	0.225114
887.707641	0.225136
887.891026	0.225284
888.074393	0.225289
888.257741	0.225373
888.441072	0.225444
888.624384	0.225390
888.807678	0.225685
888.990954	0.225700
889.174211	0.225440
889.357451	0.225353
889.540672	0.225015
889.723875	0.225014
889.907059	0.224860
890.090226	0.225358
890.273374	0.224956
890.456504	0.224951
890.639616	0.224767
890.822709	0.224625
891.005785	0.224495
891.188842	0.224637
891.371881	0.224470
891.554901	0.224228
891.737904	0.223671
891.920888	0.224282
892.103854	0.223919
892.286802	0.224091
892.469731	0.224202
892.652643	0.224172
892.835536	0.224409
893.018410	0.224517
893.201267	0.224680
893.384106	0.224633
893.566926	0.224345
893.749728	0.224909
893.932511	0.225029
894.115277	0.224910
894.298024	0.225287
894.480753	0.224971
894.663464	0.225333
894.846157	0.225339
895.028831	0.225823
895.211487	0.225811
895.394125	0.225154
895.576745	0.225024
895.759346	0.224757
895.941930	0.224733
896.124495	0.224995
896.307041	0.224373
896.489570	0.224142
896.672080	0.223262
896.854573	0.223577
897.037046	0.223796
897.219502	0.223650
897.401940	0.223614
897.584359	0.223383
897.766760	0.223176
897.949143	0.223300
898.131507	0.223440
898.313854	0.224169
898.496182	0.223781
898.678492	0.223139
898.860783	0.222968
899.043057	0.222863
899.225312	0.222257
899.407549	0.222428
899.589768	0.222054
899.771968	0.221807
899.954151	0.221209
900.136315	0.220876
900.318461	0.221048
900.500588	0.221121
900.682698	0.220951
900.864789	0.221258
901.046862	0.220665
901.228917	0.220696
901.410953	0.220410
901.592971	0.220148
901.774972	0.219707
901.956953	0.219351
902.138917	0.219090
902.320862	0.218909
902.502790	0.218797
902.684699	0.218875
902.866589	0.218521
903.048462	0.218524
903.230316	0.218444
903.412152	0.218287
903.593970	0.218140
903.775770	0.218265
903.957551	0.217986
904.139314	0.217324
904.321059	0.216712
904.502786	0.216491
904.684494	0.216118
904.866185	0.216055
905.047857	0.216100
905.229510	0.215896
905.411146	0.215406
905.592763	0.215254
905.774363	0.215378
905.955943	0.215214
906.137506	0.214804
906.319051	0.214371
906.500577	0.213973
906.682085	0.213844
906.863575	0.214152
907.045046	0.213997
907.226500	0.213852
907.407935	0.213753
907.589352	0.213927
907.770750	0.213984
907.952131	0.214011
908.133493	0.214312
908.314837	0.214408
908.496163	0.213752
908.677470	0.212915
908.858760	0.212395
909.040031	0.212016
909.221284	0.211590
909.402518	0.211428
909.583735	0.210911
909.764933	0.210674
909.946113	0.210175
910.127275	0.210114
910.308418	0.210532
910.489544	0.210413
910.670651	0.210183
910.851740	0.210168
911.032810	0.209813
911.213863	0.210002
911.394897	0.209161
911.575913	0.208213
911.756911	0.207844
911.937890	0.206970
912.118851	0.206746
912.299794	0.206409
912.480719	0.205839
912.661626	0.205682
912.842514	0.205475
913.023384	0.205445
913.204236	0.205874
913.385070	0.205426
913.565886	0.205575
913.746683	0.205148
913.927462	0.204904
914.108223	0.204289
914.288965	0.204139
914.469690	0.203763
914.650396	0.203426
914.831084	0.202290
915.011754	0.201779
915.192405	0.201677
915.373038	0.201739
915.553653	0.201570
915.734250	0.201741
915.914829	0.201481
916.095389	0.201336
916.275931	0.200885
916.456455	0.200974
916.636961	0.201014
916.817448	0.200425
916.997917	0.199819
917.178368	0.199232
917.358801	0.198932
917.539216	0.197972
917.719612	0.197193
917.899990	0.197059
918.080350	0.197257
918.260692	0.197275
918.441015	0.196894
918.621320	0.196815
918.801607	0.196500
918.981876	0.195813
919.162127	0.195835
919.342359	0.195072
919.522573	0.194735
919.702769	0.194205
919.882947	0.193616
920.063106	0.193209
920.243247	0.193126
920.423370	0.192712
920.603475	0.192526
920.783562	0.192036
920.963630	0.192668
921.143680	0.191944
921.323712	0.190895
921.503725	0.189902
921.683721	0.189489
921.863698	0.188332
922.043657	0.187461
922.223598	0.186581
922.403520	0.186142
922.583424	0.184824
922.763311	0.184602
922.943178	0.184405
923.123028	0.184442
923.302859	0.184142
923.482673	0.183520
923.662467	0.183600
923.842244	0.183063
924.022003	0.182613
924.201743	0.182443
924.381465	0.181962
924.561169	0.181661
924.740854	0.181174
924.920522	0.180546
925.100171	0.180497
925.279802	0.180005
925.459414	0.179954
925.639009	0.179325
925.818585	0.178589
925.998143	0.178121
926.177683	0.177738
926.357205	0.177153
926.536708	0.176726
926.716193	0.176162
926.895660	0.176126
927.075109	0.175767
927.254539	0.175269
927.433951	0.175066
927.613345	0.173997
927.792721	0.173315
927.972079	0.173263
928.151418	0.172728
928.330739	0.172178
928.510042	0.171430
928.689327	0.170848
928.868593	0.170826
929.047841	0.170079
929.227071	0.170067
929.406283	0.169549
929.585476	0.168976
929.764652	0.168649
929.943809	0.168239
930.122948	0.167857
930.302068	0.167404
930.481171	0.166373
930.660255	0.165743
930.839321	0.164641
931.018369	0.164273
931.197398	0.163845
931.376409	0.162850
931.555402	0.162384
931.734377	0.161074
931.913334	0.160603
932.092272	0.160197
932.271192	0.160053
932.450094	0.160396
932.628978	0.159483
932.807844	0.157950
932.986691	0.157543
933.165520	0.156824
933.344331	0.156111
933.523123	0.156061
933.701898	0.155590
933.880654	0.155264
934.059392	0.154546
934.238111	0.154168
934.416813	0.154176
934.595496	0.154248
934.774161	0.153743
934.952808	0.153636
935.131437	0.152843
935.310047	0.153137
935.488639	0.152578
935.667213	0.152393
935.845769	0.151709
936.024306	0.151450
936.202825	0.150355
936.381326	0.149880
936.559809	0.149775
936.738274	0.148736
936.916720	0.146131
937.095148	0.145626
937.273558	0.144800
937.451950	0.144643
937.630323	0.143521
937.808678	0.142178
937.987015	0.141832
938.165334	0.141066
938.343635	0.140043
938.521917	0.140436
938.700181	0.139780
938.878427	0.138994
939.056655	0.137898
939.234864	0.137117
939.413055	0.137488
939.591228	0.137210
939.769383	0.136179
939.947519	0.136200
940.125638	0.135916
940.303738	0.135953
940.481820	0.135176
940.659883	0.135049
940.837929	0.135524
941.015956	0.134786
941.193965	0.133768
941.371955	0.133133
941.549928	0.132289
941.727882	0.131098
941.905818	0.129567
942.083736	0.128346
942.261636	0.127736
942.439517	0.124992
942.617380	0.124201
942.795225	0.123781
942.973052	0.124356
943.150860	0.122819
943.328651	0.122741
943.506423	0.122469
943.684176	0.122365
943.861912	0.121319
944.039629	0.122400
944.217328	0.121699
944.395009	0.121858
944.572672	0.120317
944.750317	0.119872
944.927943	0.117857
945.105551	0.116877
945.283141	0.116619
945.460712	0.116181
945.638265	0.114265
945.815801	0.113961
945.993317	0.112805
946.170816	0.112148
946.348297	0.110729
946.525759	0.110508
946.703203	0.110231
946.880629	0.108294
947.058036	0.107766
947.235425	0.108270
947.412797	0.107603
947.590149	0.104942
947.767484	0.104122
947.944800	0.104542
948.122099	0.104259
948.299379	0.102073
948.476640	0.101682
948.653884	0.100814
948.831109	0.100298
949.008316	0.098570
949.185505	0.099756
949.362676	0.098185
949.539828	0.097128
949.716962	0.096944
949.894078	0.096595
950.071176	0.095582
950.248256	0.095511
950.425317	0.095392
950.602360	0.095421
950.779385	0.094553
950.956391	0.096045
951.133380	0.095159
951.310350	0.094827
951.487302	0.095782
951.664235	0.097040
951.841151	0.096612
952.018048	0.094719
952.194927	0.095468
952.371788	0.094440
952.548631	0.093207
952.725455	0.092622
952.902261	0.092116
953.079049	0.090605
953.255819	0.090013
953.432570	0.089652
953.609303	0.089901
953.786018	0.087138
953.962715	0.086774
954.139394	0.084226
954.316054	0.085268
954.492696	0.084792
954.669320	0.083851
954.845926	0.082402
955.022513	0.082267
955.199083	0.080790
955.375634	0.081795
955.552166	0.081117
955.728681	0.082353
955.905177	0.082105
956.081655	0.080067
956.258115	0.080600
956.434557	0.081150
956.610980	0.080947
956.787385	0.081002
956.963772	0.080808
957.140141	0.080768
957.316492	0.078658
957.492824	0.079350
957.669138	0.078540
957.845434	0.076663
958.021712	0.076052
958.197971	0.072864
958.374212	0.074324
958.550435	0.076033
958.726640	0.072838
958.902826	0.073485
959.078995	0.069719
959.255145	0.070892
959.431277	0.070714
959.607390	0.070070
959.783486	0.071437
959.959563	0.069084
960.135622	0.065287
960.311662	0.067755
960.487685	0.067887
960.663689	0.069700
960.839675	0.068859
961.015643	0.069160
961.191593	0.067655
961.367524	0.066671
961.543437	0.067026
961.719332	0.066623
961.895209	0.067881
962.071067	0.068806
962.246907	0.069319
962.422730	0.069079
962.598533	0.069397
962.774319	0.069152
962.950086	0.069743
963.125835	0.070149
963.301566	0.070064
963.477279	0.066576
963.652973	0.065809
963.828650	0.064537
964.004308	0.064733
964.179947	0.065181
964.355569	0.066826
964.531172	0.064855
964.706757	0.063955
964.882324	0.065354
965.057873	0.065029
965.233403	0.064432
965.408916	0.065416
965.584410	0.064559
965.759885	0.065154
965.935343	0.063756
966.110782	0.063691
966.286203	0.065910
966.461606	0.066948
966.636991	0.067463
966.812357	0.067473
966.987705	0.067732
967.163035	0.069151
967.338347	0.068851
967.513641	0.069230
967.688916	0.071470
967.864173	0.070098
968.039412	0.067462
968.214632	0.067491
968.389835	0.066978
968.565019	0.065029
968.740185	0.063207
968.915333	0.062362
969.090462	0.062650
969.265573	0.062012
969.440667	0.059140
969.615741	0.060181
969.790798	0.060102
969.965836	0.060196
970.140856	0.060369
970.315858	0.061818
970.490842	0.060809
970.665808	0.060788
970.840755	0.060630
971.015684	0.061631
971.190595	0.062179
971.365487	0.064019
971.540362	0.062477
971.715218	0.062595
971.890056	0.063120
972.064875	0.061937
972.239677	0.061723
972.414460	0.059102
972.589225	0.059154
972.763972	0.056686
972.938700	0.055124
973.113411	0.056130
973.288103	0.056586
973.462777	0.056472
973.637432	0.057329
973.812070	0.057000
973.986689	0.056825
974.161290	0.055485
974.335873	0.058838
974.510437	0.059383
974.684984	0.059105
974.859512	0.060677
975.034022	0.059596
975.208513	0.059112
975.382987	0.058429
975.557442	0.060661
975.731879	0.063779
975.906298	0.060190
976.080698	0.059165
976.255080	0.060685
976.429445	0.058130
976.603790	0.057890
976.778118	0.058602
976.952427	0.059588
977.126719	0.056544
977.300992	0.055873
977.475246	0.057365
977.649483	0.058709
977.823701	0.056973
977.997901	0.056928
978.172083	0.057686
978.346247	0.058024
978.520392	0.058255
978.694519	0.060746
978.868628	0.060402
979.042719	0.060846
979.216791	0.059796
979.390845	0.060435
979.564882	0.061668
979.738899	0.060585
979.912899	0.060953
980.086880	0.059283
980.260843	0.058934
980.434788	0.058915
980.608715	0.056720
980.782623	0.055776
980.956514	0.057554
981.130386	0.056396
981.304240	0.056560
981.478075	0.055866
981.651892	0.060295
981.825692	0.062299
981.999472	0.061108
982.173235	0.061647
982.346980	0.063349
982.520706	0.061880
982.694414	0.061989
982.868104	0.063917
983.041775	0.062838
983.215428	0.057888
983.389064	0.056678
983.562680	0.057793
983.736279	0.057792
983.909860	0.058373
984.083422	0.058287
984.256966	0.057962
984.430491	0.056420
984.603999	0.058024
984.777488	0.061508
984.950959	0.061071
985.124412	0.060512
985.297847	0.060604
985.471263	0.060206
985.644661	0.060273
985.818041	0.061606
985.991403	0.062284
986.164747	0.061606
986.338072	0.058318
986.511379	0.059404
986.684668	0.057964
986.857938	0.057606
987.031191	0.058063
987.204425	0.058942
987.377641	0.058409
987.550839	0.058560
987.724018	0.059335
987.897179	0.060294
988.070322	0.059009
988.243447	0.060988
988.416554	0.061355
988.589642	0.060518
988.762712	0.061804
988.935764	0.061585
989.108798	0.061085
989.281813	0.059906
989.454811	0.062041
989.627790	0.060447
989.800751	0.059468
989.973693	0.060263
990.146617	0.059572
990.319524	0.056599
990.492412	0.055708
990.665281	0.056620
990.838133	0.058470
991.010966	0.056309
991.183781	0.059426
991.356578	0.060496
991.529356	0.060462
991.702117	0.061292
991.874859	0.064214
992.047583	0.065175
992.220288	0.063507
992.392976	0.062749
992.565645	0.064826
992.738296	0.061495
992.910929	0.060738
993.083543	0.061884
993.256139	0.060019
993.428718	0.059500
993.601277	0.059444
993.773819	0.060053
993.946342	0.059262
994.118848	0.056498
994.291335	0.058576
994.463803	0.056841
994.636254	0.055431
994.808686	0.057771
994.981100	0.055541
995.153496	0.054953
995.325874	0.055373
995.498233	0.055426
995.670574	0.056440
995.842897	0.056555
996.015202	0.057910
996.187488	0.057190
996.359757	0.056054
996.532007	0.055866
996.704239	0.055120
996.876452	0.054812
997.048648	0.054477
997.220825	0.053455
997.392984	0.054230
997.565124	0.054373
997.737247	0.054335
997.909351	0.054965
998.081437	0.054383
998.253505	0.055295
998.425554	0.055218
998.597586	0.056604
998.769599	0.057467
998.941594	0.056419
999.113571	0.056362
999.285529	0.057030
999.457469	0.056506
999.629391	0.058634
999.801295	0.058737
999.973181	0.057883
1000.145048	0.056104
1000.316897	0.055703
1000.488728	0.053452
1000.660541	0.054530
1000.832335	0.053822
1001.004111	0.052067
1001.175869	0.050831
1001.347609	0.049612
1001.519331	0.050547
1001.691034	0.050981
1001.862719	0.051891
1002.034386	0.053926
1002.206035	0.054250
1002.377665	0.055322
1002.549277	0.056792
1002.720871	0.056654
1002.892447	0.057190
1003.064004	0.057321
1003.235544	0.058913
1003.407065	0.059184
1003.578568	0.060126
1003.750052	0.058599
1003.921519	0.058558
1004.092967	0.059671
1004.264397	0.059573
1004.435809	0.058382
1004.607202	0.058121
1004.778577	0.056545
1004.949934	0.056094
1005.121273	0.055794
1005.292594	0.054789
1005.463896	0.055152
1005.635180	0.054535
1005.806446	0.054773
1005.977694	0.056105
1006.148923	0.054128
1006.320135	0.054442
1006.491328	0.053835
1006.662503	0.053793
1006.833659	0.056075
1007.004798	0.056400
1007.175918	0.057363
1007.347020	0.057150
1007.518103	0.057338
1007.689169	0.056991
1007.860216	0.055783
1008.031245	0.056108
1008.202256	0.054455
1008.373248	0.053346
1008.544223	0.053591
1008.715179	0.052868
1008.886117	0.054325
1009.057036	0.054484
1009.227938	0.055921
1009.398821	0.056630
1009.569686	0.056491
1009.740533	0.055010
1009.911361	0.055355
1010.082172	0.053795
1010.252964	0.053541
1010.423738	0.053218
1010.594493	0.052455
1010.765231	0.052994
1010.935950	0.053739
1011.106651	0.054897
1011.277334	0.056704
1011.447998	0.056277
1011.618645	0.056808
1011.789273	0.056113
1011.959882	0.055400
1012.130474	0.056413
1012.301048	0.055350
1012.471603	0.055142
1012.642140	0.054720
1012.812658	0.055125
1012.983159	0.056421
1013.153641	0.056715
1013.324105	0.056381
1013.494551	0.056463
1013.664979	0.055883
1013.835388	0.056782
1014.005779	0.056425
1014.176152	0.055740
1014.346507	0.056810
1014.516843	0.056279
1014.687162	0.053570
1014.857462	0.054098
1015.027744	0.053885
1015.198007	0.053404
1015.368252	0.052644
1015.538480	0.051805
1015.708689	0.051722
1015.878879	0.050863
1016.049052	0.050398
1016.219206	0.052952
1016.389342	0.053470
1016.559460	0.053605
1016.729559	0.053848
1016.899641	0.054665
1017.069704	0.056267
1017.239749	0.056080
1017.409775	0.056548
1017.579784	0.056548
1017.749774	0.055389
1017.919746	0.054104
1018.089700	0.053736
1018.259635	0.054433
1018.429553	0.054258
1018.599452	0.054603
1018.769333	0.056297
1018.939195	0.055520
1019.109040	0.055250
1019.278866	0.056108
1019.448674	0.056601
1019.618464	0.056438
1019.788235	0.055470
1019.957989	0.055406
1020.127724	0.053060
1020.297441	0.052467
1020.467139	0.053212
1020.636820	0.054242
1020.806482	0.053442
1020.976126	0.053459
1021.145752	0.053679
1021.315359	0.054632
1021.484948	0.053817
1021.654519	0.054498
1021.824072	0.053150
1021.993607	0.052047
1022.163123	0.049856
1022.332621	0.048650
1022.502101	0.046885
1022.671563	0.047408
1022.841007	0.047473
1023.010432	0.047442
1023.179839	0.046797
1023.349228	0.046294
1023.518598	0.046183
1023.687951	0.046352
1023.857285	0.046497
1024.026601	0.047118
1024.195899	0.045440
1024.365178	0.045185
1024.534439	0.046459
1024.703682	0.048614
1024.872907	0.049586
1025.042114	0.049978
1025.211302	0.051571
1025.380472	0.052215
1025.549624	0.051902
1025.718758	0.052940
1025.887873	0.051520
1026.056970	0.050874
1026.226049	0.047727
1026.395110	0.048739
1026.564153	0.046981
1026.733177	0.047055
1026.902183	0.046600
1027.071171	0.048495
1027.240141	0.048328
1027.409092	0.049445
1027.578026	0.049346
1027.746940	0.051656
1027.915837	0.049016
1028.084716	0.050798
1028.253576	0.050211
1028.422418	0.049916
1028.591242	0.049533
1028.760048	0.047963
1028.928835	0.047803
1029.097604	0.048995
1029.266355	0.047866
1029.435088	0.049835
1029.603803	0.049710
1029.772499	0.048324
1029.941177	0.049382
1030.109837	0.050177
1030.278478	0.051269
1030.447102	0.051235
1030.615707	0.049520
1030.784294	0.050301
1030.952863	0.049552
1031.121413	0.050686
1031.289945	0.051794
1031.458460	0.052715
1031.626955	0.051050
1031.795433	0.051557
1031.963892	0.052671
1032.132334	0.053116
1032.300756	0.053628
1032.469161	0.053193
1032.637548	0.052377
1032.805916	0.051137
1032.974266	0.050172
1033.142598	0.052146
1033.310911	0.052193
1033.479207	0.051836
1033.647484	0.052259
1033.815743	0.052648
1033.983983	0.053475
1034.152206	0.053400
1034.320410	0.054005
1034.488596	0.054541
1034.656764	0.053558
1034.824914	0.053080
1034.993045	0.051644
1035.161158	0.051022
1035.329253	0.050016
1035.497330	0.049167
1035.665388	0.048506
1035.833428	0.048038
1036.001450	0.048606
1036.169454	0.049569
1036.337440	0.049654
1036.505407	0.050361
1036.673356	0.052030
1036.841287	0.050895
1037.009200	0.051640
1037.177094	0.052909
1037.344970	0.054169
1037.512828	0.051868
1037.680668	0.052274
1037.848489	0.052825
1038.016293	0.053135
1038.184078	0.050348
1038.351845	0.050579
1038.519593	0.049470
1038.687324	0.049019
1038.855036	0.048316
1039.022730	0.050798
1039.190406	0.048167
1039.358063	0.047358
1039.525702	0.046738
1039.693323	0.047575
1039.860926	0.048871
1040.028511	0.049754
1040.196077	0.049542
1040.363625	0.048613
1040.531155	0.048092
1040.698667	0.048910
1040.866161	0.049565
1041.033636	0.049676
1041.201093	0.049133
1041.368532	0.048602
1041.535952	0.047486
1041.703355	0.048089
1041.870739	0.049594
1042.038105	0.048671
1042.205452	0.048637
1042.372782	0.048702
1042.540093	0.048293
1042.707386	0.048316
1042.874661	0.049073
1043.041918	0.049167
1043.209156	0.047887
1043.376376	0.046512
1043.543578	0.046942
1043.710762	0.047746
1043.877927	0.048008
1044.045074	0.049278
1044.212203	0.050256
1044.379314	0.049031
1044.546407	0.049945
1044.713481	0.050491
1044.880537	0.050015
1045.047575	0.050557
1045.214595	0.050801
1045.381596	0.049780
1045.548579	0.048526
1045.715544	0.047885
1045.882491	0.046955
1046.049420	0.046751
1046.216330	0.048522
1046.383222	0.049823
1046.550096	0.049603
1046.716951	0.048754
1046.883789	0.048266
1047.050608	0.048376
1047.217409	0.048905
1047.384192	0.050927
1047.550956	0.049124
1047.717703	0.047154
1047.884431	0.047721
1048.051140	0.047071
1048.217832	0.046303
1048.384505	0.047268
1048.551161	0.048663
1048.717798	0.049116
1048.884416	0.048859
1049.051017	0.051741
1049.217599	0.052217
1049.384163	0.052038
1049.550709	0.053449
1049.717237	0.054852
1049.883746	0.053774
1050.050237	0.051973
1050.216710	0.052380
1050.383165	0.051265
1050.549601	0.051202
1050.716019	0.050591
1050.882420	0.050870
1051.048801	0.050421
1051.215165	0.047271
1051.381510	0.047342
1051.547837	0.047218
1051.714146	0.047285
1051.880437	0.049080
1052.046709	0.048828
1052.212964	0.049362
1052.379200	0.050110
1052.545417	0.050043
1052.711617	0.051752
1052.877798	0.051176
1053.043961	0.050914
1053.210106	0.051591
1053.376233	0.049329
1053.542341	0.047716
1053.708432	0.047452
1053.874504	0.045428
1054.040557	0.046040
1054.206593	0.047468
1054.372610	0.047947
1054.538609	0.050002
1054.704590	0.049315
1054.870553	0.050457
1055.036497	0.052152
1055.202424	0.052569
1055.368331	0.052683
1055.534221	0.052500
1055.700093	0.050659
1055.865946	0.052868
1056.031781	0.051584
1056.197598	0.049297
1056.363397	0.050121
1056.529177	0.050108
1056.694939	0.050792
1056.860683	0.052868
1057.026409	0.052300
1057.192116	0.051807
1057.357806	0.050254
1057.523477	0.051549
1057.689130	0.053569
1057.854764	0.051648
1058.020381	0.049335
1058.185979	0.050820
1058.351559	0.050998
1058.517120	0.048843
1058.682664	0.049594
1058.848189	0.049150
1059.013696	0.047856
1059.179185	0.046504
1059.344656	0.049997
1059.510108	0.051480
1059.675542	0.049773
1059.840958	0.050017
1060.006356	0.052085
1060.171735	0.053156
1060.337096	0.052763
1060.502439	0.052629
1060.667764	0.053022
1060.833071	0.052070
1060.998359	0.051511
1061.163629	0.050699
1061.328881	0.048164
1061.494115	0.046966
1061.659330	0.047238
1061.824527	0.049736
1061.989706	0.051650
1062.154867	0.051408
1062.320010	0.049887
1062.485134	0.051308
1062.650240	0.051742
1062.815328	0.051391
1062.980398	0.052811
1063.145449	0.052100
1063.310482	0.051075
1063.475497	0.049255
1063.640494	0.050278
1063.805473	0.050287
1063.970433	0.049476
1064.135375	0.048248
1064.300299	0.048814
1064.465204	0.047727
1064.630092	0.048303
1064.794961	0.048438
1064.959812	0.048199
1065.124645	0.047952
1065.289459	0.049227
1065.454256	0.049167
1065.619034	0.049926
1065.783793	0.051242
1065.948535	0.052276
1066.113258	0.052162
1066.277964	0.052538
1066.442651	0.053117
1066.607319	0.053448
1066.771970	0.051831
1066.936602	0.052737
1067.101216	0.052328
1067.265812	0.051702
1067.430389	0.052342
1067.594949	0.049934
1067.759490	0.048846
1067.924013	0.050059
1068.088518	0.050447
1068.253004	0.053336
1068.417472	0.053089
1068.581922	0.054355
1068.746354	0.055224
1068.910768	0.055353
1069.075163	0.056604
1069.239540	0.057323
1069.403899	0.055975
1069.568240	0.056839
1069.732562	0.055371
1069.896866	0.054016
1070.061152	0.053175
1070.225420	0.052622
1070.389670	0.052516
1070.553901	0.055086
1070.718114	0.054436
1070.882309	0.051206
1071.046486	0.050828
1071.210644	0.049761
1071.374784	0.050411
1071.538906	0.051203
1071.703010	0.051456
1071.867096	0.051773
1072.031163	0.050443
1072.195212	0.051843
1072.359243	0.054391
1072.523256	0.053680
1072.687250	0.053860
1072.851226	0.053655
1073.015184	0.053869
1073.179124	0.053080
1073.343045	0.049996
1073.506949	0.050791
1073.670834	0.052977
1073.834701	0.056597
1073.998549	0.055545
1074.162380	0.056658
1074.326192	0.057233
1074.489986	0.057029
1074.653761	0.056709
1074.817519	0.057479
1074.981258	0.057724
1075.144979	0.054602
1075.308682	0.052777
1075.472367	0.054018
1075.636033	0.053678
1075.799681	0.055582
1075.963311	0.054767
1076.126923	0.055940
1076.290516	0.057143
1076.454092	0.055190
1076.617649	0.054255
1076.781187	0.057325
1076.944708	0.057432
1077.108210	0.056304
1077.271695	0.055554
1077.435160	0.054332
1077.598608	0.051912
1077.762038	0.051544
1077.925449	0.050558
1078.088842	0.051163
1078.252217	0.048383
1078.415573	0.046339
1078.578912	0.048134
1078.742232	0.048756
1078.905534	0.050301
1079.068817	0.053554
1079.232083	0.052691
1079.395330	0.053596
1079.558559	0.055568
1079.721770	0.055214
1079.884962	0.056473
1080.048136	0.055228
1080.211293	0.052338
1080.374430	0.052657
1080.537550	0.051916
1080.700651	0.050492
1080.863735	0.052278
1081.026800	0.049442
1081.189846	0.048595
1081.352875	0.050398
1081.515885	0.048747
1081.678877	0.050315
1081.841851	0.049432
1082.004807	0.050364
1082.167744	0.053047
1082.330663	0.050847
1082.493564	0.053194
1082.656447	0.053698
1082.819312	0.052820
1082.982158	0.054892
1083.144986	0.056639
1083.307796	0.057094
1083.470587	0.056332
1083.633361	0.058639
1083.796116	0.061323
1083.958853	0.060915
1084.121571	0.059903
1084.284272	0.059304
1084.446954	0.056743
1084.609618	0.055284
1084.772264	0.056250
1084.934892	0.055039
1085.097501	0.052682
1085.260092	0.052189
1085.422665	0.054495
1085.585220	0.057665
1085.747756	0.056771
1085.910274	0.061699
1086.072774	0.061664
1086.235256	0.062275
1086.397720	0.065061
1086.560165	0.064552
1086.722592	0.063876
1086.885001	0.061037
1087.047392	0.060590
1087.209764	0.062746
1087.372119	0.062239
1087.534455	0.062767
1087.696772	0.060254
1087.859072	0.059395
1088.021353	0.059761
1088.183616	0.060922
1088.345861	0.061133
1088.508088	0.059866
1088.670296	0.058874
1088.832486	0.056713
1088.994658	0.057579
1089.156812	0.057575
1089.318948	0.057920
1089.481065	0.057702
1089.643164	0.054817
1089.805245	0.057328
1089.967308	0.057287
1090.129352	0.057913
1090.291378	0.058820
1090.453386	0.054982
1090.615376	0.055914
1090.777347	0.055252
1090.939301	0.055213
1091.101236	0.057346
1091.263153	0.056843
1091.425051	0.056288
1091.586932	0.056749
1091.748794	0.056158
1091.910638	0.058567
1092.072463	0.062330
1092.234271	0.061512
1092.396060	0.063463
1092.557831	0.064785
1092.719584	0.062302
1092.881319	0.062409
1093.043035	0.063161
1093.204733	0.062214
1093.366413	0.063832
1093.528075	0.058386
1093.689718	0.058215
1093.851343	0.056694
1094.012950	0.053869
1094.174539	0.053730
1094.336110	0.055785
1094.497662	0.056358
1094.659196	0.056537
1094.820712	0.057068
1094.982210	0.059537
1095.143689	0.061421
1095.305151	0.062294
1095.466594	0.063053
1095.628018	0.062194
1095.789425	0.060846
1095.950813	0.058301
1096.112183	0.058059
1096.273535	0.055505
1096.434869	0.054571
1096.596184	0.051394
1096.757482	0.051315
1096.918761	0.052062
1097.080021	0.055458
1097.241264	0.052852
1097.402488	0.052153
1097.563694	0.052240
1097.724882	0.053674
1097.886052	0.057352
1098.047203	0.061460
1098.208336	0.062476
1098.369451	0.062451
1098.530548	0.060677
1098.691627	0.062954
1098.852687	0.065926
1099.013729	0.070160
1099.174753	0.070528
1099.335758	0.069112
1099.496746	0.065797
1099.657715	0.060975
1099.818666	0.059960
1099.979599	0.060811
1100.140513	0.063207
1100.301409	0.062423
1100.462287	0.060850
1100.623147	0.061700
1100.783989	0.060542
1100.944812	0.062160
1101.105617	0.067634
1101.266404	0.068898
1101.427173	0.068198
1101.587923	0.065614
1101.748656	0.062218
1101.909370	0.061364
1102.070066	0.059236
1102.230743	0.058814
1102.391403	0.055473
1102.552044	0.053279
1102.712667	0.052542
1102.873271	0.053065
1103.033858	0.051612
1103.194426	0.054379
1103.354976	0.054429
1103.515508	0.054646
1103.676021	0.056119
1103.836517	0.059730
1103.996994	0.059114
1104.157453	0.060917
1104.317893	0.058407
1104.478316	0.058892
1104.638720	0.058992
1104.799106	0.059223
1104.959474	0.056307
1105.119823	0.057684
1105.280155	0.059840
1105.440468	0.062309
1105.600763	0.061925
1105.761039	0.063541
1105.921298	0.067355
1106.081538	0.066010
1106.241760	0.063518
1106.401964	0.068105
1106.562149	0.062891
1106.722316	0.058888
1106.882465	0.061141
1107.042596	0.061999
1107.202709	0.061352
1107.362803	0.060321
1107.522879	0.060577
1107.682937	0.061852
1107.842977	0.059129
1108.002999	0.060884
1108.163002	0.063269
1108.322987	0.061164
1108.482954	0.060388
1108.642902	0.063232
1108.802833	0.062106
1108.962745	0.063145
1109.122639	0.060772
1109.282515	0.064153
1109.442372	0.064410
1109.602211	0.059964
1109.762032	0.060814
1109.921835	0.061486
1110.081620	0.059844
1110.241386	0.061532
1110.401134	0.062507
1110.560864	0.066434
1110.720576	0.065253
1110.880269	0.061337
1111.039945	0.064764
1111.199602	0.062384
1111.359240	0.062212
1111.518861	0.065179
1111.678463	0.064654
1111.838047	0.065286
1111.997613	0.065293
1112.157161	0.064941
1112.316690	0.070599
1112.476202	0.070613
1112.635695	0.074011
1112.795169	0.074701
1112.954626	0.071381
1113.114064	0.070623
1113.273484	0.071514
1113.432886	0.075171
1113.592270	0.078778
1113.751635	0.077511
1113.910983	0.077709
1114.070312	0.070494
1114.229622	0.070545
1114.388915	0.071779
1114.548189	0.068300
1114.707445	0.068036
1114.866683	0.063900
1115.025903	0.062121
1115.185104	0.060930
1115.344287	0.059540
1115.503452	0.065237
1115.662599	0.068049
1115.821727	0.068565
1115.980838	0.070744
1116.139930	0.068757
1116.299004	0.069886
1116.458059	0.067046
1116.617097	0.070037
1116.776116	0.072023
1116.935117	0.070248
1117.094099	0.063621
1117.253064	0.060755
1117.412010	0.062867
1117.570938	0.065493
1117.729848	0.062445
1117.888740	0.064184
1118.047613	0.059715
1118.206468	0.060522
1118.365305	0.058879
1118.524124	0.065897
1118.682924	0.072046
1118.841707	0.069165
1119.000471	0.069125
1119.159216	0.072835
1119.317944	0.073589
1119.476653	0.076806
1119.635344	0.080751
1119.794017	0.081542
1119.952672	0.077669
1120.111308	0.073865
1120.269927	0.076194
1120.428527	0.072979
1120.587108	0.072639
1120.745672	0.071840
1120.904217	0.072963
1121.062744	0.067230
1121.221253	0.068319
1121.379744	0.065965
1121.538216	0.064878
1121.696671	0.064200
1121.855107	0.063826
1122.013524	0.064826
1122.171924	0.062891
1122.330305	0.063760
1122.488668	0.062818
1122.647013	0.062061
1122.805340	0.063384
1122.963648	0.065908
1123.121938	0.067310
1123.280210	0.065897
1123.438464	0.066303
1123.596700	0.071457
1123.754917	0.072247
1123.913116	0.073539
1124.071297	0.074769
1124.229459	0.076395
1124.387604	0.074958
1124.545730	0.076508
1124.703838	0.078231
1124.861928	0.077297
1125.019999	0.071139
1125.178052	0.067776
1125.336088	0.069310
1125.494104	0.066792
1125.652103	0.062623
1125.810083	0.060406
1125.968045	0.055606
1126.125989	0.054592
1126.283915	0.052464
1126.441823	0.052790
1126.599712	0.054965
1126.757583	0.053960
1126.915436	0.058632
1127.073270	0.060646
1127.231087	0.067230
1127.388885	0.068217
1127.546665	0.067713
1127.704426	0.069193
1127.862170	0.071613
1128.019895	0.068375
1128.177602	0.067915
1128.335291	0.064876
1128.492961	0.066349
1128.650614	0.060695
1128.808248	0.062571
1128.965864	0.064739
1129.123461	0.065504
1129.281041	0.063948
1129.438602	0.063414
1129.596145	0.059411
1129.753670	0.062114
1129.911176	0.062185
1130.068665	0.062142
1130.226135	0.062377
1130.383587	0.063283
1130.541020	0.061115
1130.698436	0.061750
1130.855833	0.060479
1131.013212	0.063812
1131.170573	0.063495
1131.327915	0.059984
1131.485239	0.058873
1131.642545	0.061757
1131.799833	0.059531
1131.957103	0.059088
1132.114354	0.060580
1132.271588	0.062362
1132.428803	0.063303
1132.585999	0.063504
1132.743178	0.067718
1132.900338	0.066855
1133.057480	0.060570
1133.214604	0.061978
1133.371710	0.071182
1133.528797	0.069967
1133.685866	0.078097
1133.842917	0.080475
1133.999950	0.077730
1134.156964	0.075919
1134.313960	0.080289
1134.470938	0.081260
1134.627898	0.081484
1134.784840	0.076251
1134.941763	0.072953
1135.098668	0.066073
1135.255555	0.063674
1135.412424	0.056442
1135.569274	0.056324
1135.726107	0.056469
1135.882921	0.058608
1136.039716	0.061678
1136.196494	0.059857
1136.353253	0.062971
1136.509995	0.068113
1136.666717	0.066146
1136.823422	0.074247
1136.980109	0.076269
1137.136777	0.073418
1137.293427	0.074065
1137.450059	0.068891
1137.606672	0.065964
1137.763267	0.066010
1137.919844	0.062493
1138.076403	0.062720
1138.232944	0.064165
1138.389466	0.064258
1138.545971	0.068025
1138.702457	0.071692
1138.858924	0.070925
1139.015374	0.074897
1139.171805	0.071778
1139.328218	0.069586
1139.484613	0.069654
1139.640990	0.070966
1139.797348	0.069255
1139.953688	0.064487
1140.110010	0.058606
1140.266314	0.056449
1140.422600	0.049176
1140.578867	0.052116
1140.735116	0.060384
1140.891347	0.062611
1141.047559	0.063392
1141.203754	0.065827
1141.359930	0.062584
1141.516088	0.064731
1141.672228	0.067220
1141.828349	0.074947
1141.984452	0.072507
1142.140537	0.065091
1142.296604	0.066853
1142.452653	0.062673
1142.608683	0.056681
1142.764695	0.064785
1142.920689	0.061211
1143.076665	0.064627
1143.232622	0.062940
1143.388562	0.061686
1143.544483	0.061682
1143.700385	0.061532
1143.856270	0.063252
1144.012136	0.066745
1144.167985	0.063366
1144.323814	0.069531
1144.479626	0.067762
1144.635420	0.068762
1144.791195	0.075189
1144.946952	0.076820
1145.102691	0.077061
1145.258411	0.074983
1145.414113	0.077570
1145.569798	0.074810
1145.725463	0.074802
1145.881111	0.072113
1146.036741	0.068324
1146.192352	0.067927
1146.347945	0.067456
1146.503519	0.067308
1146.659076	0.068119
1146.814614	0.062369
1146.970134	0.063502
1147.125636	0.063323
1147.281120	0.065225
1147.436585	0.072502
1147.592032	0.071014
1147.747461	0.071097
1147.902872	0.068215
1148.058265	0.067320
1148.213639	0.074231
1148.368995	0.079146
1148.524333	0.078408
1148.679653	0.083308
1148.834954	0.076225
1148.990237	0.078266
1149.145502	0.078510
1149.300749	0.078883
1149.455977	0.078474
1149.611188	0.075426
1149.766380	0.076743
1149.921553	0.079725
1150.076709	0.079298
1150.231846	0.081096
1150.386966	0.078244
1150.542066	0.076717
1150.697149	0.077380
1150.852214	0.084766
1151.007260	0.083572
1151.162288	0.078519
1151.317298	0.070898
1151.472289	0.074592
1151.627263	0.075541
1151.782218	0.068895
1151.937155	0.067804
1152.092073	0.067349
1152.246974	0.063630
1152.401856	0.065402
1152.556720	0.063420
1152.711566	0.063917
1152.866393	0.055331
1153.021203	0.048601
1153.175994	0.052475
1153.330767	0.050388
1153.485521	0.051423
1153.640258	0.053802
1153.794976	0.052036
1153.949676	0.050436
1154.104358	0.051232
1154.259021	0.051418
1154.413667	0.056649
1154.568294	0.059435
1154.722903	0.063621
1154.877493	0.065671
1155.032066	0.068896
1155.186620	0.071316
1155.341156	0.071388
1155.495674	0.075624
1155.650173	0.076048
1155.804654	0.073386
1155.959118	0.070981
1156.113562	0.068803
1156.267989	0.058573
1156.422397	0.047736
1156.576788	0.046190
1156.731160	0.049373
1156.885513	0.048161
1157.039849	0.052628
1157.194166	0.053098
1157.348465	0.058658
1157.502746	0.060659
1157.657009	0.067515
1157.811253	0.072305
1157.965479	0.075878
1158.119687	0.080008
1158.273877	0.078956
1158.428048	0.073699
1158.582201	0.072873
1158.736337	0.067945
1158.890453	0.066713
1159.044552	0.062561
1159.198632	0.058463
1159.352694	0.053233
1159.506738	0.047393
1159.660764	0.044750
1159.814771	0.049309
1159.968761	0.051852
1160.122732	0.052007
1160.276685	0.051593
1160.430619	0.059904
1160.584535	0.056568
1160.738434	0.052471
1160.892313	0.049189
1161.046175	0.046638
1161.200019	0.042293
1161.353844	0.050318
1161.507651	0.047491
1161.661440	0.046849
1161.815210	0.042027
1161.968962	0.047057
1162.122697	0.057701
1162.276412	0.062074
1162.430110	0.066218
1162.583789	0.077374
1162.737451	0.074116
1162.891094	0.080148
1163.044718	0.079583
1163.198325	0.077984
1163.351913	0.080461
1163.505483	0.070423
1163.659035	0.081321
1163.812569	0.074818
1163.966084	0.061122
1164.119581	0.055898
1164.273060	0.055851
1164.426521	0.061006
1164.579964	0.066377
1164.733388	0.066262
1164.886794	0.066643
1165.040182	0.057968
1165.193551	0.065116
1165.346903	0.072552
1165.500236	0.078355
1165.653551	0.078580
1165.806848	0.072878
1165.960126	0.069720
1166.113386	0.062621
1166.266628	0.058349
1166.419852	0.056508
1166.573058	0.056315
1166.726245	0.053099
1166.879414	0.048915
1167.032565	0.045944
1167.185698	0.049605
1167.338812	0.051939
1167.491909	0.057037
1167.644987	0.069720
1167.798046	0.073990
1167.951088	0.080065
1168.104111	0.078876
1168.257117	0.075139
1168.410103	0.077695
1168.563072	0.073286
1168.716023	0.070096
1168.868955	0.073060
1169.021869	0.071039
1169.174765	0.065278
1169.327642	0.059160
1169.480501	0.060308
1169.633343	0.065858
1169.786165	0.071818
1169.938970	0.080004
1170.091757	0.077887
1170.244525	0.074644
1170.397275	0.073542
1170.550007	0.078205
1170.702720	0.081826
1170.855415	0.079948
1171.008092	0.074084
1171.160751	0.063134
1171.313392	0.056130
1171.466014	0.046588
1171.618619	0.041729
1171.771205	0.041729
1171.923772	0.041729
