sample name	sample
index	48
start time	 02-11-2021  02:14:30 PM


Wavelength (nm)	Absorbance
494.344910	-0.234926
494.563924	-0.234926
494.782919	-0.234926
495.001897	1.123198
495.220856	-0.107531
495.439797	-0.113383
495.658719	-0.046615
495.877624	-0.057535
496.096510	-0.168043
496.315378	-0.140563
496.534227	-0.105044
496.753059	-0.092950
496.971872	-0.124385
497.190667	0.023458
497.409444	0.074882
497.628203	0.086138
497.846943	0.099217
498.065665	0.104222
498.284369	0.101768
498.503055	0.103499
498.721723	0.106979
498.940372	0.108141
499.159003	0.111886
499.377616	0.111261
499.596210	0.111268
499.814787	0.110058
500.033345	0.111471
500.251885	0.114994
500.470406	0.113723
500.688910	0.111130
500.907395	0.110190
501.125862	0.107822
501.344311	0.108738
501.562742	0.107282
501.781154	0.109177
501.999548	0.109830
502.217924	0.108414
502.436282	0.108768
502.654621	0.110411
502.872942	0.111367
503.091245	0.110746
503.309530	0.110960
503.527797	0.109908
503.746045	0.106602
503.964275	0.105272
504.182487	0.106028
504.400681	0.105315
504.618856	0.104038
504.837013	0.104338
505.055152	0.106450
505.273273	0.105534
505.491376	0.106733
505.709460	0.107853
505.927526	0.106273
506.145574	0.105570
506.363604	0.105530
506.581615	0.106493
506.799608	0.106062
507.017583	0.104346
507.235540	0.105244
507.453478	0.104832
507.671399	0.103495
507.889301	0.104145
508.107185	0.105083
508.325050	0.106453
508.542898	0.106332
508.760727	0.105004
508.978538	0.106701
509.196330	0.107399
509.414105	0.107642
509.631861	0.108601
509.849599	0.109613
510.067319	0.109290
510.285021	0.109195
510.502704	0.109021
510.720369	0.108791
510.938016	0.108851
511.155645	0.106388
511.373255	0.106926
511.590848	0.107871
511.808422	0.107106
512.025977	0.106958
512.243515	0.105709
512.461034	0.105245
512.678536	0.105623
512.896018	0.104904
513.113483	0.105747
513.330930	0.105877
513.548358	0.103294
513.765768	0.103637
513.983160	0.103708
514.200533	0.105993
514.417889	0.106539
514.635226	0.106801
514.852545	0.105918
515.069845	0.106354
515.287128	0.106747
515.504392	0.108651
515.721638	0.109735
515.938866	0.109985
516.156075	0.109125
516.373267	0.108873
516.590440	0.109679
516.807594	0.110297
517.024731	0.109899
517.241850	0.110215
517.458950	0.109431
517.676032	0.109260
517.893095	0.110690
518.110141	0.111080
518.327168	0.111268
518.544177	0.111216
518.761168	0.111290
518.978141	0.110947
519.195095	0.109023
519.412031	0.110123
519.628949	0.109684
519.845849	0.109577
520.062731	0.110240
520.279594	0.108687
520.496439	0.110539
520.713266	0.111080
520.930074	0.111683
521.146865	0.113361
521.363637	0.113327
521.580391	0.113868
521.797127	0.112511
522.013844	0.111496
522.230543	0.113411
522.447224	0.110396
522.663887	0.110074
522.880532	0.110596
523.097158	0.110118
523.313766	0.110535
523.530356	0.110160
523.746928	0.110647
523.963481	0.110992
524.180017	0.110773
524.396534	0.112313
524.613032	0.113398
524.829513	0.113900
525.045975	0.113467
525.262420	0.114002
525.478845	0.115352
525.695253	0.115781
525.911643	0.116171
526.128014	0.116355
526.344367	0.115952
526.560702	0.115994
526.777018	0.116016
526.993316	0.117059
527.209597	0.116547
527.425858	0.115313
527.642102	0.115262
527.858328	0.114410
528.074535	0.113444
528.290724	0.114586
528.506894	0.114324
528.723047	0.114423
528.939181	0.114279
529.155297	0.113284
529.371395	0.113869
529.587475	0.113228
529.803536	0.113660
530.019579	0.114388
530.235604	0.113459
530.451611	0.112793
530.667600	0.112161
530.883570	0.112519
531.099522	0.113332
531.315456	0.113562
531.531372	0.113457
531.747269	0.112846
531.963148	0.112810
532.179009	0.112952
532.394852	0.113925
532.610676	0.114505
532.826482	0.114781
533.042271	0.115517
533.258040	0.114864
533.473792	0.115557
533.689525	0.116649
533.905240	0.117662
534.120937	0.118434
534.336616	0.118573
534.552277	0.117793
534.767919	0.117664
534.983543	0.116541
535.199149	0.118236
535.414736	0.118611
535.630306	0.117920
535.845857	0.117914
536.061390	0.117666
536.276904	0.118196
536.492401	0.118858
536.707879	0.119404
536.923339	0.120434
537.138781	0.119529
537.354204	0.119966
537.569610	0.120894
537.784997	0.121093
538.000366	0.121302
538.215716	0.121156
538.431049	0.121340
538.646363	0.120555
538.861659	0.120640
539.076937	0.120993
539.292196	0.120288
539.507438	0.120956
539.722661	0.121418
539.937866	0.121646
540.153052	0.122122
540.368221	0.123219
540.583371	0.124305
540.798503	0.124351
541.013617	0.124607
541.228712	0.124835
541.443789	0.125000
541.658848	0.124445
541.873889	0.124787
542.088912	0.124094
542.303916	0.123362
542.518902	0.122361
542.733870	0.122263
542.948820	0.121895
543.163752	0.122796
543.378665	0.122406
543.593560	0.122841
543.808437	0.122776
544.023295	0.122902
544.238136	0.123255
544.452958	0.123485
544.667762	0.123759
544.882548	0.123889
545.097315	0.124028
545.312064	0.124179
545.526795	0.123938
545.741508	0.123506
545.956203	0.123877
546.170879	0.123694
546.385537	0.124759
546.600177	0.124897
546.814799	0.124678
547.029402	0.124076
547.243988	0.124331
547.458555	0.124434
547.673103	0.125050
547.887634	0.125289
548.102146	0.125438
548.316640	0.124938
548.531116	0.125343
548.745574	0.126117
548.960013	0.126548
549.174435	0.126340
549.388838	0.126206
549.603222	0.126069
549.817589	0.125964
550.031937	0.126177
550.246267	0.126298
550.460579	0.125759
550.674873	0.125243
550.889148	0.125325
551.103405	0.124917
551.317644	0.124796
551.531865	0.124695
551.746068	0.124808
551.960252	0.124635
552.174418	0.124245
552.388566	0.124659
552.602696	0.125289
552.816807	0.124290
553.030900	0.124690
553.244975	0.125044
553.459032	0.125179
553.673070	0.124450
553.887091	0.124571
554.101093	0.124777
554.315077	0.125155
554.529042	0.124465
554.742990	0.125428
554.956919	0.125638
555.170830	0.125604
555.384722	0.125853
555.598597	0.125574
555.812453	0.126676
556.026291	0.126736
556.240111	0.126647
556.453913	0.127151
556.667696	0.127493
556.881461	0.127509
557.095208	0.127441
557.308937	0.127480
557.522647	0.128549
557.736339	0.127288
557.950013	0.127591
558.163669	0.127010
558.377307	0.126971
558.590926	0.126586
558.804527	0.126469
559.018110	0.126998
559.231675	0.126748
559.445221	0.126904
559.658749	0.126903
559.872259	0.127352
560.085751	0.127772
560.299225	0.128256
560.512680	0.128029
560.726117	0.127731
560.939536	0.127977
561.152937	0.127778
561.366319	0.127453
561.579683	0.128028
561.793029	0.127505
562.006357	0.127080
562.219667	0.126732
562.432958	0.126499
562.646231	0.126470
562.859486	0.126155
563.072723	0.125854
563.285941	0.126145
563.499141	0.126543
563.712323	0.126757
563.925487	0.127757
564.138632	0.127676
564.351760	0.128960
564.564869	0.129608
564.777960	0.129152
564.991032	0.130316
565.204087	0.130795
565.417123	0.130278
565.630141	0.130552
565.843140	0.130193
566.056122	0.130261
566.269085	0.130456
566.482030	0.130183
566.694957	0.130909
566.907866	0.131030
567.120756	0.131194
567.333628	0.131947
567.546482	0.132070
567.759318	0.132534
567.972135	0.132582
568.184935	0.131921
568.397716	0.132297
568.610478	0.132641
568.823223	0.132696
569.035949	0.132444
569.248657	0.131725
569.461347	0.131604
569.674019	0.131233
569.886672	0.131752
570.099308	0.131442
570.311925	0.131765
570.524523	0.131386
570.737104	0.131157
570.949666	0.131017
571.162210	0.131032
571.374736	0.131069
571.587244	0.130673
571.799733	0.130529
572.012205	0.130492
572.224658	0.130387
572.437092	0.130119
572.649509	0.129658
572.861907	0.129592
573.074287	0.129403
573.286649	0.129746
573.498993	0.129995
573.711318	0.129663
573.923625	0.129673
574.135914	0.129468
574.348185	0.129663
574.560438	0.129768
574.772672	0.129618
574.984888	0.130295
575.197086	0.129552
575.409266	0.129978
575.621427	0.130135
575.833570	0.130715
576.045695	0.129999
576.257802	0.129656
576.469890	0.130131
576.681961	0.129416
576.894013	0.128902
577.106046	0.128825
577.318062	0.128373
577.530059	0.128408
577.742039	0.127999
577.954000	0.128935
578.165942	0.128768
578.377867	0.128202
578.589773	0.129424
578.801661	0.129639
579.013531	0.130407
579.225382	0.130755
579.437216	0.131040
579.649031	0.131438
579.860828	0.132018
580.072606	0.132342
580.284367	0.133159
580.496109	0.132879
580.707833	0.132371
580.919539	0.132162
581.131227	0.132182
581.342896	0.131829
581.554547	0.131602
581.766180	0.130879
581.977795	0.131224
582.189391	0.131397
582.400969	0.131329
582.612529	0.131500
582.824071	0.131511
583.035595	0.131110
583.247100	0.131518
583.458587	0.131556
583.670056	0.132043
583.881506	0.131967
584.092939	0.131679
584.304353	0.132153
584.515749	0.132519
584.727127	0.133370
584.938486	0.133994
585.149828	0.134170
585.361151	0.134355
585.572456	0.134379
585.783742	0.134110
585.995011	0.134253
586.206261	0.133889
586.417493	0.134119
586.628706	0.133155
586.839902	0.132953
587.051079	0.132947
587.262238	0.133132
587.473379	0.133011
587.684502	0.133376
587.895606	0.133488
588.106692	0.133479
588.317760	0.133463
588.528810	0.133640
588.739841	0.133765
588.950855	0.134207
589.161850	0.134631
589.372827	0.134469
589.583785	0.134360
589.794726	0.134493
590.005648	0.134598
590.216552	0.135202
590.427437	0.136135
590.638305	0.136420
590.849154	0.135948
591.059985	0.135423
591.270798	0.136004
591.481592	0.136232
591.692369	0.136221
591.903127	0.136607
592.113867	0.136324
592.324588	0.134962
592.535292	0.134873
592.745977	0.134764
592.956644	0.134901
593.167293	0.134517
593.377923	0.134282
593.588536	0.134192
593.799130	0.134339
594.009706	0.134320
594.220263	0.135002
594.430803	0.134991
594.641324	0.134901
594.851827	0.135324
595.062312	0.135102
595.272778	0.135538
595.483227	0.135550
595.693657	0.135337
595.904069	0.135371
596.114462	0.135621
596.324838	0.135249
596.535195	0.135034
596.745534	0.134527
596.955855	0.134423
597.166157	0.134637
597.376441	0.134490
597.586707	0.134145
597.796955	0.134440
598.007185	0.134517
598.217396	0.135112
598.427589	0.135802
598.637764	0.136462
598.847921	0.136823
599.058060	0.136665
599.268180	0.136568
599.478282	0.136712
599.688366	0.136371
599.898431	0.136096
600.108479	0.135858
600.318508	0.135582
600.528519	0.135623
600.738511	0.135439
600.948486	0.135359
601.158442	0.136094
601.368380	0.136434
601.578300	0.136314
601.788202	0.136609
601.998085	0.136923
602.207950	0.136965
602.417797	0.136178
602.627626	0.136153
602.837436	0.136265
603.047228	0.136166
603.257002	0.136530
603.466758	0.136402
603.676496	0.136248
603.886215	0.135872
604.095916	0.136091
604.305599	0.136229
604.515264	0.136981
604.724910	0.136965
604.934538	0.136569
605.144148	0.135683
605.353740	0.136039
605.563314	0.136947
605.772869	0.136992
605.982406	0.137067
606.191925	0.137540
606.401425	0.136828
606.610908	0.136895
606.820372	0.137002
607.029818	0.137011
607.239246	0.136940
607.448655	0.136019
607.658047	0.136265
607.867420	0.136311
608.076775	0.136190
608.286111	0.136205
608.495430	0.136325
608.704730	0.136478
608.914012	0.136686
609.123275	0.136637
609.332521	0.136614
609.541748	0.137077
609.750957	0.136725
609.960148	0.136917
610.169321	0.137347
610.378475	0.137202
610.587611	0.137149
610.796729	0.137513
611.005829	0.137953
611.214910	0.138263
611.423974	0.137912
611.633019	0.138343
611.842045	0.138348
612.051054	0.138091
612.260044	0.138212
612.469017	0.138588
612.677970	0.138149
612.886906	0.138139
613.095824	0.138114
613.304723	0.138149
613.513604	0.137884
613.722467	0.137833
613.931311	0.138085
614.140138	0.138488
614.348946	0.138202
614.557736	0.138879
614.766507	0.138844
614.975261	0.139098
615.183996	0.138962
615.392713	0.139327
615.601412	0.139218
615.810092	0.139546
616.018754	0.139343
616.227399	0.139406
616.436024	0.139094
616.644632	0.138956
616.853222	0.138827
617.061793	0.139284
617.270346	0.139010
617.478880	0.139392
617.687397	0.139196
617.895895	0.139037
618.104375	0.139210
618.312837	0.139558
618.521281	0.139979
618.729706	0.140044
618.938113	0.139466
619.146502	0.139690
619.354873	0.139450
619.563226	0.139864
619.771560	0.139916
619.979876	0.139906
620.188174	0.140434
620.396453	0.140325
620.604715	0.140265
620.812958	0.140904
621.021183	0.141031
621.229390	0.141540
621.437578	0.141538
621.645748	0.142080
621.853900	0.142285
622.062034	0.141753
622.270150	0.141756
622.478247	0.141951
622.686326	0.142238
622.894387	0.142481
623.102430	0.142248
623.310454	0.142308
623.518461	0.142255
623.726449	0.142392
623.934418	0.142641
624.142370	0.142889
624.350303	0.143100
624.558218	0.142851
624.766115	0.142556
624.973994	0.143001
625.181855	0.143278
625.389697	0.143653
625.597521	0.144037
625.805327	0.144514
626.013114	0.144838
626.220883	0.145252
626.428634	0.145601
626.636367	0.146530
626.844082	0.146307
627.051778	0.145811
627.259457	0.146008
627.467117	0.146182
627.674758	0.145910
627.882382	0.145815
628.089987	0.145814
628.297574	0.145723
628.505143	0.145405
628.712694	0.145976
628.920226	0.146052
629.127740	0.145617
629.335236	0.145098
629.542714	0.145420
629.750174	0.145313
629.957615	0.145105
630.165038	0.145123
630.372443	0.145055
630.579829	0.144932
630.787198	0.145123
630.994548	0.145249
631.201880	0.145511
631.409194	0.144993
631.616489	0.145245
631.823766	0.145311
632.031025	0.145333
632.238266	0.145672
632.445489	0.145534
632.652693	0.145562
632.859879	0.146122
633.067047	0.146058
633.274197	0.146325
633.481329	0.146210
633.688442	0.146446
633.895537	0.146690
634.102614	0.146723
634.309672	0.146656
634.516713	0.146726
634.723735	0.146584
634.930739	0.146582
635.137724	0.146750
635.344692	0.147097
635.551641	0.146927
635.758572	0.146832
635.965485	0.146826
636.172379	0.147051
636.379256	0.146984
636.586114	0.146960
636.792954	0.146960
636.999775	0.147020
637.206579	0.146606
637.413364	0.146658
637.620131	0.146968
637.826880	0.146803
638.033610	0.146422
638.240323	0.146772
638.447017	0.146505
638.653692	0.146768
638.860350	0.146971
639.066990	0.147409
639.273611	0.147172
639.480214	0.146930
639.686798	0.147255
639.893365	0.147837
640.099913	0.148008
640.306443	0.148401
640.512955	0.148489
640.719449	0.148181
640.925924	0.147877
641.132381	0.147892
641.338820	0.147988
641.545241	0.147976
641.751644	0.147758
641.958028	0.147715
642.164394	0.147621
642.370742	0.147953
642.577071	0.148338
642.783383	0.148634
642.989676	0.149444
643.195951	0.149508
643.402207	0.149593
643.608446	0.150159
643.814666	0.150023
644.020868	0.149943
644.227052	0.149953
644.433218	0.149663
644.639365	0.150010
644.845494	0.149802
645.051605	0.149919
645.257698	0.149486
645.463772	0.149056
645.669828	0.149200
645.875866	0.149236
646.081886	0.148858
646.287888	0.149092
646.493871	0.148451
646.699836	0.148272
646.905783	0.148605
647.111712	0.148915
647.317622	0.148713
647.523514	0.148792
647.729388	0.149130
647.935244	0.149003
648.141082	0.148741
648.346901	0.149288
648.552702	0.149563
648.758485	0.149047
648.964250	0.148978
649.169996	0.148903
649.375724	0.148880
649.581434	0.148709
649.787126	0.149173
649.992800	0.149716
650.198455	0.149632
650.404092	0.149672
650.609711	0.150327
650.815311	0.150534
651.020894	0.151123
651.226458	0.151294
651.432004	0.151217
651.637532	0.150995
651.843041	0.151147
652.048532	0.151470
652.254006	0.151318
652.459460	0.151204
652.664897	0.150987
652.870315	0.150893
653.075716	0.150928
653.281097	0.151304
653.486461	0.151908
653.691807	0.151926
653.897134	0.151774
654.102443	0.151871
654.307734	0.152161
654.513006	0.152643
654.718261	0.153208
654.923497	0.153461
655.128715	0.153716
655.333915	0.153707
655.539096	0.153386
655.744259	0.153403
655.949404	0.153675
656.154531	0.153279
656.359640	0.153316
656.564730	0.153016
656.769802	0.152819
656.974856	0.152301
657.179892	0.152102
657.384909	0.152286
657.589908	0.152402
657.794889	0.152525
657.999852	0.152443
658.204797	0.152757
658.409723	0.153042
658.614631	0.153143
658.819521	0.153452
659.024393	0.153716
659.229246	0.153985
659.434081	0.154289
659.638898	0.154480
659.843697	0.155022
660.048478	0.155006
660.253240	0.155438
660.457984	0.155816
660.662710	0.156060
660.867417	0.156352
661.072107	0.156649
661.276778	0.156559
661.481431	0.156701
661.686066	0.156723
661.890682	0.156438
662.095281	0.156029
662.299861	0.155825
662.504422	0.155837
662.708966	0.155582
662.913491	0.155366
663.117999	0.155826
663.322488	0.155739
663.526958	0.155917
663.731411	0.155985
663.935845	0.155718
664.140261	0.155785
664.344659	0.155740
664.549038	0.155989
664.753400	0.156062
664.957743	0.155669
665.162068	0.155684
665.366375	0.155506
665.570663	0.155673
665.774933	0.156079
665.979185	0.156070
666.183419	0.156402
666.387635	0.156599
666.591832	0.156899
666.796011	0.157138
667.000172	0.157324
667.204315	0.157768
667.408439	0.158353
667.612545	0.158698
667.816634	0.159354
668.020703	0.159217
668.224755	0.159299
668.428788	0.159479
668.632803	0.159884
668.836800	0.159632
669.040779	0.159625
669.244739	0.159615
669.448681	0.159548
669.652605	0.159339
669.856511	0.159529
670.060399	0.159576
670.264268	0.159567
670.468119	0.159415
670.671952	0.159624
670.875767	0.159492
671.079563	0.159183
671.283341	0.159531
671.487101	0.159485
671.690843	0.159763
671.894567	0.159459
672.098272	0.159642
672.301959	0.159693
672.505628	0.159785
672.709278	0.159948
672.912911	0.159945
673.116525	0.160231
673.320121	0.160190
673.523699	0.160303
673.727258	0.160492
673.930799	0.160619
674.134322	0.160827
674.337827	0.161315
674.541314	0.161403
674.744782	0.162024
674.948232	0.161937
675.151664	0.162286
675.355078	0.162475
675.558474	0.162932
675.761851	0.163057
675.965210	0.163161
676.168551	0.163195
676.371873	0.163332
676.575178	0.163372
676.778464	0.163406
676.981732	0.163677
677.184981	0.163500
677.388213	0.163448
677.591426	0.163501
677.794621	0.163629
677.997798	0.163805
678.200956	0.164109
678.404097	0.164067
678.607219	0.164216
678.810323	0.164503
679.013408	0.164903
679.216476	0.165024
679.419525	0.164763
679.622556	0.164542
679.825569	0.164363
680.028563	0.164317
680.231540	0.164600
680.434498	0.164536
680.637438	0.164274
680.840359	0.164230
681.043263	0.164105
681.246148	0.164496
681.449015	0.164682
681.651864	0.164845
681.854694	0.164949
682.057506	0.164428
682.260301	0.164286
682.463076	0.164486
682.665834	0.164637
682.868573	0.164772
683.071295	0.164648
683.273998	0.164624
683.476682	0.164931
683.679349	0.164912
683.881997	0.165609
684.084627	0.165901
684.287239	0.166077
684.489833	0.166083
684.692408	0.166010
684.894965	0.166236
685.097504	0.166590
685.300025	0.166435
685.502527	0.166204
685.705012	0.166135
685.907478	0.166329
686.109925	0.166176
686.312355	0.166019
686.514766	0.166531
686.717159	0.166512
686.919534	0.166459
687.121891	0.166630
687.324230	0.167053
687.526550	0.167098
687.728852	0.167140
687.931136	0.167719
688.133401	0.167947
688.335649	0.167770
688.537878	0.167965
688.740089	0.168481
688.942281	0.168596
689.144456	0.169038
689.346612	0.169255
689.548750	0.169238
689.750870	0.169095
689.952971	0.169153
690.155055	0.169179
690.357120	0.169415
690.559167	0.168927
690.761195	0.168644
690.963206	0.168171
691.165198	0.168102
691.367172	0.168268
691.569128	0.168420
691.771065	0.168332
691.972984	0.168295
692.174885	0.168310
692.376768	0.168512
692.578633	0.168656
692.780479	0.168667
692.982308	0.168902
693.184118	0.168594
693.385909	0.168016
693.587683	0.168444
693.789438	0.168319
693.991175	0.168210
694.192894	0.168053
694.394595	0.168124
694.596277	0.168754
694.797941	0.168773
694.999587	0.168658
695.201215	0.169285
695.402824	0.169321
695.604416	0.169615
695.805989	0.169493
696.007543	0.169944
696.209080	0.170185
696.410598	0.170028
696.612099	0.170239
696.813580	0.170918
697.015044	0.170952
697.216490	0.171237
697.417917	0.171739
697.619326	0.172362
697.820717	0.172499
698.022089	0.173095
698.223444	0.173080
698.424780	0.172929
698.626098	0.172880
698.827397	0.173348
699.028679	0.173280
699.229942	0.173326
699.431187	0.173506
699.632414	0.173471
699.833622	0.173211
700.034813	0.173244
700.235985	0.173466
700.437139	0.173704
700.638274	0.173325
700.839392	0.173283
701.040491	0.172923
701.241572	0.172695
701.442635	0.172688
701.643679	0.172477
701.844706	0.172726
702.045714	0.172824
702.246704	0.172384
702.447675	0.172127
702.648629	0.172255
702.849564	0.172518
703.050481	0.172469
703.251380	0.172533
703.452260	0.172470
703.653122	0.172230
703.853966	0.171857
704.054792	0.172413
704.255600	0.172555
704.456389	0.172422
704.657160	0.172485
704.857913	0.172563
705.058648	0.172574
705.259365	0.172754
705.460063	0.173147
705.660743	0.173278
705.861405	0.173242
706.062048	0.173226
706.262674	0.173218
706.463281	0.173187
706.663870	0.173148
706.864441	0.173246
707.064993	0.173233
707.265527	0.173139
707.466043	0.172839
707.666541	0.172644
707.867021	0.172856
708.067482	0.172876
708.267925	0.172861
708.468350	0.172812
708.668757	0.172448
708.869145	0.172553
709.069516	0.172080
709.269868	0.172338
709.470201	0.172246
709.670517	0.172318
709.870814	0.172497
710.071093	0.172375
710.271354	0.172292
710.471597	0.172312
710.671821	0.172290
710.872028	0.172464
711.072216	0.172494
711.272385	0.172496
711.472537	0.172483
711.672670	0.172261
711.872785	0.172213
712.072882	0.172129
712.272961	0.172637
712.473021	0.172430
712.673063	0.172550
712.873087	0.172620
713.073093	0.172896
713.273081	0.172768
713.473050	0.172808
713.673001	0.172771
713.872934	0.172855
714.072849	0.172240
714.272745	0.172406
714.472623	0.172256
714.672483	0.172618
714.872325	0.172438
715.072148	0.172399
715.271954	0.172065
715.471741	0.172476
715.671509	0.172383
715.871260	0.172826
716.070992	0.172489
716.270707	0.172300
716.470403	0.171735
716.670080	0.171514
716.869740	0.171264
717.069381	0.171521
717.269004	0.171092
717.468609	0.171114
717.668195	0.170977
717.867764	0.171001
718.067314	0.171364
718.266846	0.170836
718.466360	0.170722
718.665855	0.170685
718.865332	0.170537
719.064791	0.170552
719.264232	0.170248
719.463655	0.170150
719.663059	0.169876
719.862445	0.169670
720.061813	0.170130
720.261163	0.170286
720.460494	0.170220
720.659807	0.170498
720.859102	0.170537
721.058379	0.170376
721.257638	0.170280
721.456878	0.170171
721.656100	0.169706
721.855304	0.169976
722.054490	0.169905
722.253657	0.169749
722.452806	0.169219
722.651937	0.168817
722.851050	0.169060
723.050145	0.168859
723.249221	0.169209
723.448279	0.169670
723.647319	0.169228
723.846340	0.169078
724.045344	0.168959
724.244329	0.168510
724.443296	0.168668
724.642245	0.168502
724.841175	0.168815
725.040088	0.168768
725.238982	0.168422
725.437857	0.168464
725.636715	0.168405
725.835554	0.168355
726.034376	0.168975
726.233179	0.169159
726.431963	0.169270
726.630730	0.168705
726.829478	0.168355
727.028208	0.168515
727.226920	0.168529
727.425614	0.168343
727.624289	0.168496
727.822946	0.168366
728.021585	0.167969
728.220206	0.167279
728.418808	0.167382
728.617392	0.167326
728.815958	0.167085
729.014506	0.166690
729.213036	0.166481
729.411547	0.166195
729.610040	0.166016
729.808515	0.165943
730.006972	0.166202
730.205410	0.166178
730.403831	0.166069
730.602233	0.166047
730.800616	0.165842
730.998982	0.165932
731.197329	0.166122
731.395658	0.166286
731.593969	0.166412
731.792262	0.166354
731.990536	0.166000
732.188793	0.165987
732.387031	0.165829
732.585250	0.165936
732.783452	0.165644
732.981635	0.165133
733.179800	0.164451
733.377947	0.164316
733.576076	0.164300
733.774186	0.164462
733.972278	0.164428
734.170352	0.164326
734.368408	0.164223
734.566446	0.164125
734.764465	0.163971
734.962466	0.163993
735.160449	0.163320
735.358413	0.163402
735.556360	0.163113
735.754288	0.162638
735.952198	0.162313
736.150090	0.162176
736.347963	0.162339
736.545818	0.162294
736.743655	0.162127
736.941474	0.162205
737.139275	0.161577
737.337057	0.161622
737.534821	0.161634
737.732567	0.161694
737.930295	0.161524
738.128005	0.161347
738.325696	0.161670
738.523369	0.161912
738.721024	0.161964
738.918660	0.161967
739.116279	0.161680
739.313879	0.162008
739.511461	0.161960
739.709024	0.162094
739.906570	0.161957
740.104097	0.161935
740.301606	0.161851
740.499097	0.161606
740.696569	0.161908
740.894024	0.161868
741.091460	0.161749
741.288878	0.161676
741.486277	0.161605
741.683659	0.161336
741.881022	0.160956
742.078367	0.160917
742.275694	0.161264
742.473002	0.161026
742.670293	0.160907
742.867565	0.160676
743.064819	0.161148
743.262054	0.161156
743.459272	0.161415
743.656471	0.161659
743.853652	0.161545
744.050815	0.161199
744.247959	0.160882
744.445085	0.160979
744.642194	0.161327
744.839283	0.160599
745.036355	0.160543
745.233408	0.160475
745.430444	0.160077
745.627461	0.160032
745.824459	0.159952
746.021440	0.160267
746.218402	0.159993
746.415346	0.159360
746.612272	0.159118
746.809180	0.158793
747.006069	0.158426
747.202940	0.158066
747.399793	0.157678
747.596628	0.157396
747.793444	0.156974
747.990243	0.156898
748.187023	0.156877
748.383784	0.156787
748.580528	0.156665
748.777253	0.156557
748.973960	0.156777
749.170649	0.156664
749.367320	0.156727
749.563973	0.156253
749.760607	0.155956
749.957223	0.155921
750.153821	0.156069
750.350400	0.156118
750.546962	0.155924
750.743505	0.155651
750.940030	0.155422
751.136536	0.155430
751.333025	0.155706
751.529495	0.155673
751.725947	0.155479
751.922381	0.154832
752.118796	0.154419
752.315194	0.154170
752.511573	0.154032
752.707934	0.153786
752.904276	0.153561
753.100601	0.153507
753.296907	0.153170
753.493195	0.153067
753.689465	0.153263
753.885716	0.153224
754.081949	0.153091
754.278164	0.153543
754.474361	0.153633
754.670540	0.153337
754.866700	0.153344
755.062843	0.153495
755.258967	0.153145
755.455072	0.153160
755.651160	0.153165
755.847229	0.153435
756.043280	0.152923
756.239313	0.152974
756.435328	0.153011
756.631324	0.152668
756.827302	0.152997
757.023262	0.153390
757.219204	0.153345
757.415127	0.153500
757.611033	0.153281
757.806920	0.153185
758.002788	0.153291
758.198639	0.153469
758.394471	0.153906
758.590286	0.153628
758.786081	0.153630
758.981859	0.153417
759.177619	0.153266
759.373360	0.153530
759.569083	0.153663
759.764788	0.153337
759.960474	0.153232
760.156143	0.152932
760.351793	0.152702
760.547425	0.152463
760.743038	0.152296
760.938634	0.152045
761.134211	0.151396
761.329770	0.151141
761.525311	0.151110
761.720833	0.150903
761.916338	0.150807
762.111824	0.150799
762.307292	0.150955
762.502741	0.151141
762.698173	0.150838
762.893586	0.151192
763.088981	0.150893
763.284358	0.151066
763.479716	0.151061
763.675057	0.150935
763.870379	0.151040
764.065683	0.150819
764.260968	0.150810
764.456236	0.151339
764.651485	0.151115
764.846716	0.151548
765.041929	0.151152
765.237123	0.151514
765.432299	0.151801
765.627457	0.151540
765.822597	0.151471
766.017719	0.151554
766.212822	0.151156
766.407907	0.151636
766.602974	0.151675
766.798023	0.151929
766.993054	0.151350
767.188066	0.151518
767.383060	0.151671
767.578036	0.151764
767.772993	0.151759
767.967933	0.152159
768.162854	0.151720
768.357757	0.151749
768.552642	0.151799
768.747508	0.152102
768.942356	0.151807
769.137186	0.151762
769.331998	0.151587
769.526792	0.151345
769.721567	0.150936
769.916324	0.150951
770.111063	0.150715
770.305784	0.150636
770.500486	0.150161
770.695171	0.149921
770.889837	0.149709
771.084484	0.149339
771.279114	0.149387
771.473725	0.149278
771.668318	0.149103
771.862893	0.148851
772.057450	0.148526
772.251988	0.148610
772.446509	0.148176
772.641011	0.148035
772.835494	0.148146
773.029960	0.147891
773.224407	0.147775
773.418836	0.148145
773.613247	0.148101
773.807640	0.147998
774.002014	0.148022
774.196370	0.148320
774.390708	0.148572
774.585028	0.148748
774.779330	0.149008
774.973613	0.149199
775.167878	0.149031
775.362125	0.149205
775.556354	0.149416
775.750564	0.149541
775.944756	0.149406
776.138930	0.149304
776.333086	0.149424
776.527223	0.149559
776.721343	0.149642
776.915444	0.149554
777.109526	0.149246
777.303591	0.148943
777.497637	0.148599
777.691666	0.148510
777.885676	0.148340
778.079667	0.147993
778.273641	0.147432
778.467596	0.147200
778.661533	0.147321
778.855452	0.147722
779.049352	0.147936
779.243235	0.148270
779.437099	0.148649
779.630945	0.149048
779.824773	0.149396
780.018582	0.149638
780.212373	0.150027
780.406146	0.149582
780.599901	0.149338
780.793638	0.149544
780.987356	0.149497
781.181056	0.149189
781.374738	0.149238
781.568402	0.148909
781.762047	0.149230
781.955674	0.148563
782.149283	0.148793
782.342874	0.148920
782.536447	0.148913
782.730001	0.148849
782.923537	0.149211
783.117055	0.149008
783.310555	0.149081
783.504036	0.148873
783.697499	0.149509
783.890944	0.149369
784.084371	0.149224
784.277780	0.149106
784.471170	0.149444
784.664542	0.149231
784.857896	0.149267
785.051231	0.149377
785.244549	0.149355
785.437848	0.149090
785.631129	0.149504
785.824392	0.149576
786.017636	0.149400
786.210863	0.149074
786.404071	0.148946
786.597260	0.148900
786.790432	0.148783
786.983585	0.148926
787.176721	0.148852
787.369838	0.148716
787.562936	0.148734
787.756017	0.148695
787.949079	0.148812
788.142123	0.149005
788.335149	0.148748
788.528156	0.148843
788.721146	0.148532
788.914117	0.148384
789.107070	0.148154
789.300005	0.148441
789.492921	0.148587
789.685819	0.148217
789.878699	0.148042
790.071561	0.148321
790.264405	0.148339
790.457230	0.148489
790.650037	0.148480
790.842826	0.148276
791.035597	0.147544
791.228349	0.147964
791.421084	0.147776
791.613800	0.147882
791.806497	0.148345
791.999177	0.148172
792.191838	0.148165
792.384481	0.148438
792.577106	0.148842
792.769713	0.149262
792.962301	0.148687
793.154871	0.149077
793.347423	0.149013
793.539957	0.148563
793.732473	0.148831
793.924970	0.148704
794.117449	0.148818
794.309910	0.148698
794.502353	0.148575
794.694777	0.148693
794.887183	0.148604
795.079571	0.148693
795.271941	0.148548
795.464293	0.148519
795.656626	0.148805
795.848941	0.148625
796.041238	0.148960
796.233516	0.149040
796.425777	0.149248
796.618019	0.149315
796.810243	0.149680
797.002449	0.149920
797.194636	0.150173
797.386805	0.150228
797.578956	0.150724
797.771089	0.150620
797.963204	0.151027
798.155300	0.151253
798.347378	0.151929
798.539438	0.152071
798.731480	0.152282
798.923503	0.152329
799.115509	0.152368
799.307496	0.152148
799.499465	0.152487
799.691415	0.152782
799.883348	0.152878
800.075262	0.152509
800.267158	0.152178
800.459035	0.152026
800.650895	0.151861
800.842736	0.151953
801.034559	0.152460
801.226364	0.152717
801.418150	0.152555
801.609919	0.152732
801.801669	0.153124
801.993401	0.153559
802.185114	0.153904
802.376810	0.154273
802.568487	0.154615
802.760146	0.154427
802.951787	0.154222
803.143409	0.154478
803.335014	0.154627
803.526600	0.154809
803.718168	0.154589
803.909717	0.155031
804.101249	0.155033
804.292762	0.155034
804.484257	0.154850
804.675734	0.155012
804.867192	0.155105
805.058632	0.155109
805.250054	0.155109
805.441458	0.155389
805.632844	0.154867
805.824211	0.154864
806.015561	0.154725
806.206891	0.154844
806.398204	0.154846
806.589499	0.155079
806.780775	0.155045
806.972033	0.154862
807.163273	0.154957
807.354495	0.155295
807.545698	0.155338
807.736883	0.155342
807.928050	0.155642
808.119199	0.155715
808.310329	0.155513
808.501441	0.155272
808.692535	0.155294
808.883611	0.155250
809.074669	0.155458
809.265708	0.155708
809.456729	0.155807
809.647732	0.155881
809.838717	0.155697
810.029683	0.155829
810.220632	0.156464
810.411562	0.156830
810.602474	0.156508
810.793367	0.156052
810.984242	0.156040
811.175100	0.156328
811.365938	0.156155
811.556759	0.156385
811.747562	0.156392
811.938346	0.156264
812.129112	0.156500
812.319860	0.156932
812.510589	0.157235
812.701300	0.157479
812.891994	0.157622
813.082668	0.157908
813.273325	0.158297
813.463964	0.158131
813.654584	0.158192
813.845186	0.158027
814.035769	0.158512
814.226335	0.158779
814.416882	0.158862
814.607411	0.158727
814.797922	0.158925
814.988415	0.158981
815.178889	0.159248
815.369345	0.159127
815.559783	0.159108
815.750203	0.159145
815.940605	0.159685
816.130988	0.159578
816.321353	0.160110
816.511700	0.160437
816.702028	0.160526
816.892339	0.160724
817.082631	0.161459
817.272905	0.161841
817.463161	0.161893
817.653398	0.161685
817.843617	0.162111
818.033819	0.162018
818.224001	0.162321
818.414166	0.162576
818.604312	0.162607
818.794440	0.162533
818.984550	0.162543
819.174642	0.162855
819.364716	0.163150
819.554771	0.162967
819.744808	0.163231
819.934827	0.163075
820.124827	0.163479
820.314810	0.163634
820.504774	0.163638
820.694720	0.163836
820.884647	0.164164
821.074557	0.164040
821.264448	0.163822
821.454321	0.163487
821.644176	0.163179
821.834012	0.162792
822.023831	0.163159
822.213631	0.163253
822.403413	0.163625
822.593176	0.163749
822.782922	0.164214
822.972649	0.164628
823.162358	0.165096
823.352049	0.165809
823.541721	0.165982
823.731376	0.165894
823.921012	0.166150
824.110629	0.166069
824.300229	0.165780
824.489811	0.165573
824.679374	0.165809
824.868919	0.166129
825.058445	0.165801
825.247954	0.165550
825.437444	0.165878
825.626916	0.165817
825.816370	0.166195
826.005806	0.166272
826.195223	0.166561
826.384622	0.166612
826.574003	0.166353
826.763366	0.166789
826.952711	0.167611
827.142037	0.167404
827.331345	0.167839
827.520635	0.167644
827.709906	0.167712
827.899160	0.168009
828.088395	0.168207
828.277612	0.168380
828.466810	0.168346
828.655991	0.168051
828.845153	0.168343
829.034297	0.168343
829.223423	0.168202
829.412531	0.168622
829.601620	0.168558
829.790691	0.169075
829.979744	0.169371
830.168779	0.169414
830.357795	0.169944
830.546793	0.170085
830.735773	0.169755
830.924735	0.169995
831.113679	0.170023
831.302604	0.170105
831.491511	0.169929
831.680400	0.170183
831.869271	0.170427
832.058123	0.170316
832.246957	0.170390
832.435773	0.171281
832.624571	0.171634
832.813351	0.171781
833.002112	0.172069
833.190855	0.172334
833.379580	0.172322
833.568287	0.172328
833.756975	0.172458
833.945645	0.173015
834.134297	0.172895
834.322931	0.172890
834.511547	0.173296
834.700144	0.173233
834.888723	0.173714
835.077284	0.173831
835.265826	0.174496
835.454351	0.174515
835.642857	0.174509
835.831345	0.174577
836.019815	0.174972
836.208266	0.175018
836.396699	0.175118
836.585114	0.175195
836.773511	0.175549
836.961890	0.175117
837.150250	0.175366
837.338592	0.175364
837.526916	0.176237
837.715222	0.176404
837.903510	0.176628
838.091779	0.176971
838.280030	0.176932
838.468263	0.177088
838.656477	0.177822
838.844674	0.178558
839.032852	0.179003
839.221012	0.178295
839.409153	0.178370
839.597277	0.178077
839.785382	0.178038
839.973469	0.178098
840.161538	0.178128
840.349589	0.178362
840.537621	0.178239
840.725635	0.178127
840.913631	0.178940
841.101609	0.179513
841.289568	0.180239
841.477509	0.180668
841.665432	0.181168
841.853337	0.182038
842.041224	0.182119
842.229092	0.182340
842.416942	0.182980
842.604774	0.182890
842.792588	0.182926
842.980383	0.183797
843.168160	0.184257
843.355919	0.184808
843.543660	0.184885
843.731382	0.185492
843.919087	0.185783
844.106773	0.186049
844.294441	0.186253
844.482090	0.186595
844.669722	0.186673
844.857335	0.186561
845.044930	0.186577
845.232507	0.187062
845.420065	0.186548
845.607605	0.186810
845.795127	0.187139
845.982631	0.187089
846.170117	0.187247
846.357584	0.187380
846.545033	0.188002
846.732464	0.187961
846.919877	0.187623
847.107272	0.188811
847.294648	0.188980
847.482006	0.188901
847.669346	0.189299
847.856667	0.189233
848.043971	0.189245
848.231256	0.189456
848.418523	0.189932
848.605771	0.190352
848.793002	0.190124
848.980214	0.190394
849.167408	0.191083
849.354584	0.191580
849.541742	0.192569
849.728881	0.192657
849.916002	0.192881
850.103105	0.193065
850.290190	0.193306
850.477256	0.193714
850.664304	0.194176
850.851334	0.193430
851.038346	0.193502
851.225340	0.193231
851.412315	0.193499
851.599272	0.193526
851.786211	0.193791
851.973132	0.193539
852.160034	0.193466
852.346918	0.193108
852.533784	0.193998
852.720632	0.194238
852.907462	0.194617
853.094273	0.194750
853.281066	0.194949
853.467841	0.194900
853.654598	0.195199
853.841336	0.195893
854.028056	0.195913
854.214758	0.195541
854.401442	0.195589
854.588107	0.195517
854.774755	0.195419
854.961384	0.195390
855.147995	0.195834
855.334587	0.196569
855.521162	0.196279
855.707718	0.196708
855.894256	0.197408
856.080775	0.197751
856.267277	0.197748
856.453760	0.197828
856.640225	0.198069
856.826672	0.198018
857.013101	0.198024
857.199511	0.198462
857.385903	0.198531
857.572277	0.199230
857.758633	0.199293
857.944970	0.199791
858.131290	0.200323
858.317591	0.201200
858.503873	0.201029
858.690138	0.201252
858.876384	0.200892
859.062612	0.201380
859.248822	0.201386
859.435014	0.201742
859.621188	0.201380
859.807343	0.201225
859.993480	0.201125
860.179599	0.201869
860.365699	0.201683
860.551781	0.202071
860.737846	0.201815
860.923891	0.201109
861.109919	0.200622
861.295929	0.201098
861.481920	0.201570
861.667893	0.201294
861.853848	0.201191
862.039784	0.201506
862.225702	0.201636
862.411603	0.202237
862.597484	0.202874
862.783348	0.203715
862.969193	0.203861
863.155021	0.203862
863.340830	0.204297
863.526620	0.204597
863.712393	0.204804
863.898147	0.204722
864.083883	0.204391
864.269601	0.204358
864.455301	0.204435
864.640982	0.204546
864.826645	0.204464
865.012290	0.204406
865.197917	0.203891
865.383526	0.203970
865.569116	0.203916
865.754688	0.204104
865.940242	0.203920
866.125777	0.203408
866.311295	0.203559
866.496794	0.204009
866.682275	0.203672
866.867737	0.203946
867.053182	0.203956
867.238608	0.204549
867.424016	0.204940
867.609406	0.205484
867.794778	0.205780
867.980131	0.206131
868.165466	0.205837
868.350783	0.206432
868.536082	0.206801
868.721362	0.207073
868.906625	0.206838
869.091869	0.207401
869.277094	0.207081
869.462302	0.207688
869.647491	0.206966
869.832662	0.207639
870.017815	0.208201
870.202950	0.208609
870.388066	0.208569
870.573165	0.209056
870.758245	0.208759
870.943306	0.209539
871.128350	0.209244
871.313375	0.210177
871.498382	0.209549
871.683371	0.209304
871.868342	0.209076
872.053294	0.209130
872.238229	0.208426
872.423144	0.208816
872.608042	0.208589
872.792922	0.208577
872.977783	0.207976
873.162626	0.208629
873.347451	0.208577
873.532258	0.208725
873.717046	0.208484
873.901816	0.209419
874.086568	0.209353
874.271302	0.209363
874.456017	0.209583
874.640715	0.210468
874.825394	0.210192
875.010055	0.210283
875.194697	0.210265
875.379322	0.210490
875.563928	0.210426
875.748516	0.209928
875.933085	0.210043
876.117637	0.210436
876.302170	0.210851
876.486685	0.210950
876.671182	0.211026
876.855661	0.210750
877.040121	0.211305
877.224563	0.211314
877.408987	0.211735
877.593393	0.211860
877.777780	0.211813
877.962150	0.211817
878.146501	0.211871
878.330833	0.212086
878.515148	0.213021
878.699444	0.212866
878.883722	0.212555
879.067982	0.212141
879.252224	0.212297
879.436447	0.212589
879.620653	0.212447
879.804840	0.213068
879.989008	0.212840
880.173159	0.212209
880.357291	0.212435
880.541405	0.213188
880.725501	0.213721
880.909579	0.213656
881.093638	0.213316
881.277680	0.213619
881.461703	0.213649
881.645707	0.213959
881.829694	0.214790
882.013662	0.214398
882.197612	0.213535
882.381544	0.213386
882.565458	0.212546
882.749353	0.213035
882.933230	0.212657
883.117089	0.213332
883.300930	0.213585
883.484753	0.213480
883.668557	0.213650
883.852343	0.214442
884.036111	0.214840
884.219861	0.215936
884.403592	0.215587
884.587305	0.216029
884.771000	0.214948
884.954677	0.214771
885.138335	0.214605
885.321976	0.214713
885.505598	0.214665
885.689201	0.214578
885.872787	0.214663
886.056354	0.214360
886.239904	0.214117
886.423434	0.214237
886.606947	0.213649
886.790442	0.213701
886.973918	0.213753
887.157376	0.213945
887.340816	0.213834
887.524237	0.213838
887.707641	0.214153
887.891026	0.213575
888.074393	0.212966
888.257741	0.213323
888.441072	0.213621
888.624384	0.213819
888.807678	0.213415
888.990954	0.213805
889.174211	0.213762
889.357451	0.214027
889.540672	0.214062
889.723875	0.214303
889.907059	0.214290
890.090226	0.213749
890.273374	0.212915
890.456504	0.212514
890.639616	0.212192
890.822709	0.211567
891.005785	0.211146
891.188842	0.211056
891.371881	0.211404
891.554901	0.211399
891.737904	0.210962
891.920888	0.211620
892.103854	0.212386
892.286802	0.211864
892.469731	0.212356
892.652643	0.212301
892.835536	0.212962
893.018410	0.213011
893.201267	0.213384
893.384106	0.213111
893.566926	0.213144
893.749728	0.212889
893.932511	0.213308
894.115277	0.213080
894.298024	0.213907
894.480753	0.213571
894.663464	0.213249
894.846157	0.212777
895.028831	0.213470
895.211487	0.213367
895.394125	0.212849
895.576745	0.212562
895.759346	0.212784
895.941930	0.212183
896.124495	0.212325
896.307041	0.212665
896.489570	0.212970
896.672080	0.212881
896.854573	0.212988
897.037046	0.213235
897.219502	0.213629
897.401940	0.213438
897.584359	0.213044
897.766760	0.212939
897.949143	0.212534
898.131507	0.213001
898.313854	0.212770
898.496182	0.212615
898.678492	0.212190
898.860783	0.212312
899.043057	0.212049
899.225312	0.211753
899.407549	0.210973
899.589768	0.211480
899.771968	0.209856
899.954151	0.209714
900.136315	0.209554
900.318461	0.209417
900.500588	0.209002
900.682698	0.209391
900.864789	0.209763
901.046862	0.209645
901.228917	0.209044
901.410953	0.208967
901.592971	0.209237
901.774972	0.209080
901.956953	0.208381
902.138917	0.207491
902.320862	0.207091
902.502790	0.206547
902.684699	0.206654
902.866589	0.205950
903.048462	0.205763
903.230316	0.205065
903.412152	0.204025
903.593970	0.204747
903.775770	0.205305
903.957551	0.204680
904.139314	0.205014
904.321059	0.204588
904.502786	0.205061
904.684494	0.205477
904.866185	0.204887
905.047857	0.205366
905.229510	0.205085
905.411146	0.204082
905.592763	0.204631
905.774363	0.203189
905.955943	0.203320
906.137506	0.203290
906.319051	0.202713
906.500577	0.203261
906.682085	0.203240
906.863575	0.203582
907.045046	0.203407
907.226500	0.202630
907.407935	0.203656
907.589352	0.203770
907.770750	0.202710
907.952131	0.202390
908.133493	0.202165
908.314837	0.201958
908.496163	0.200939
908.677470	0.201058
908.858760	0.200279
909.040031	0.200802
909.221284	0.200611
909.402518	0.201539
909.583735	0.202211
909.764933	0.202683
909.946113	0.202814
910.127275	0.202787
910.308418	0.203478
910.489544	0.204292
910.670651	0.204369
910.851740	0.203861
911.032810	0.202620
911.213863	0.201702
911.394897	0.200095
911.575913	0.199391
911.756911	0.200064
911.937890	0.199143
912.118851	0.197386
912.299794	0.195799
912.480719	0.194695
912.661626	0.194837
912.842514	0.194568
913.023384	0.194516
913.204236	0.194558
913.385070	0.194015
913.565886	0.193214
913.746683	0.193865
913.927462	0.193712
914.108223	0.194222
914.288965	0.193785
914.469690	0.193553
914.650396	0.193572
914.831084	0.193880
915.011754	0.193341
915.192405	0.193671
915.373038	0.192820
915.553653	0.191738
915.734250	0.190994
915.914829	0.190919
916.095389	0.190651
916.275931	0.190951
916.456455	0.189511
916.636961	0.189247
916.817448	0.189431
916.997917	0.189083
917.178368	0.189813
917.358801	0.190115
917.539216	0.190478
917.719612	0.190993
917.899990	0.190327
918.080350	0.189305
918.260692	0.188142
918.441015	0.187014
918.621320	0.188081
918.801607	0.187554
918.981876	0.187273
919.162127	0.186014
919.342359	0.184399
919.522573	0.183551
919.702769	0.183848
919.882947	0.183710
920.063106	0.183287
920.243247	0.182807
920.423370	0.182169
920.603475	0.181117
920.783562	0.181284
920.963630	0.181651
921.143680	0.181825
921.323712	0.180976
921.503725	0.180531
921.683721	0.181117
921.863698	0.180045
922.043657	0.180208
922.223598	0.181067
922.403520	0.180169
922.583424	0.179702
922.763311	0.179168
922.943178	0.179523
923.123028	0.180154
923.302859	0.179435
923.482673	0.178949
923.662467	0.177939
923.842244	0.177234
924.022003	0.177885
924.201743	0.177436
924.381465	0.177539
924.561169	0.176991
924.740854	0.175863
924.920522	0.174890
925.100171	0.174793
925.279802	0.174871
925.459414	0.174408
925.639009	0.173516
925.818585	0.173500
925.998143	0.171506
926.177683	0.171550
926.357205	0.170854
926.536708	0.171053
926.716193	0.170558
926.895660	0.169748
927.075109	0.168550
927.254539	0.167371
927.433951	0.165539
927.613345	0.165746
927.792721	0.164410
927.972079	0.164007
928.151418	0.163302
928.330739	0.163753
928.510042	0.164184
928.689327	0.163874
928.868593	0.163581
929.047841	0.164255
929.227071	0.164516
929.406283	0.164289
929.585476	0.163507
929.764652	0.163248
929.943809	0.161952
930.122948	0.159315
930.302068	0.158259
930.481171	0.157544
930.660255	0.156366
930.839321	0.154501
931.018369	0.155175
931.197398	0.154524
931.376409	0.153304
931.555402	0.153495
931.734377	0.154962
931.913334	0.153930
932.092272	0.153285
932.271192	0.153372
932.450094	0.154471
932.628978	0.152353
932.807844	0.152917
932.986691	0.151792
933.165520	0.149878
933.344331	0.149479
933.523123	0.150155
933.701898	0.150170
933.880654	0.150062
934.059392	0.147565
934.238111	0.148206
934.416813	0.148421
934.595496	0.148597
934.774161	0.149163
934.952808	0.148595
935.131437	0.147561
935.310047	0.147606
935.488639	0.146653
935.667213	0.147411
935.845769	0.147612
936.024306	0.145842
936.202825	0.145325
936.381326	0.143610
936.559809	0.142341
936.738274	0.143317
936.916720	0.141645
937.095148	0.141213
937.273558	0.141939
937.451950	0.140357
937.630323	0.139026
937.808678	0.138449
937.987015	0.138434
938.165334	0.137736
938.343635	0.134903
938.521917	0.133828
938.700181	0.134861
938.878427	0.132988
939.056655	0.132599
939.234864	0.134405
939.413055	0.133298
939.591228	0.134482
939.769383	0.134091
939.947519	0.135357
940.125638	0.136030
940.303738	0.133961
940.481820	0.132613
940.659883	0.131561
940.837929	0.130431
941.015956	0.131670
941.193965	0.126719
941.371955	0.125158
941.549928	0.122709
941.727882	0.123467
941.905818	0.122533
942.083736	0.124039
942.261636	0.123965
942.439517	0.123688
942.617380	0.123669
942.795225	0.123901
942.973052	0.125676
943.150860	0.129913
943.328651	0.128812
943.506423	0.127365
943.684176	0.126127
943.861912	0.124226
944.039629	0.122832
944.217328	0.121050
944.395009	0.122651
944.572672	0.121413
944.750317	0.117687
944.927943	0.114629
945.105551	0.115998
945.283141	0.113349
945.460712	0.113923
945.638265	0.113934
945.815801	0.113647
945.993317	0.114487
946.170816	0.114004
946.348297	0.115956
946.525759	0.117787
946.703203	0.118737
946.880629	0.120229
947.058036	0.120900
947.235425	0.120328
947.412797	0.119003
947.590149	0.115625
947.767484	0.116216
947.944800	0.112603
948.122099	0.110438
948.299379	0.108716
948.476640	0.108687
948.653884	0.105418
948.831109	0.104834
949.008316	0.103423
949.185505	0.104271
949.362676	0.100867
949.539828	0.101399
949.716962	0.104865
949.894078	0.105413
950.071176	0.107600
950.248256	0.109076
950.425317	0.107171
950.602360	0.109390
950.779385	0.110270
950.956391	0.109434
951.133380	0.109375
951.310350	0.104096
951.487302	0.102593
951.664235	0.096436
951.841151	0.097554
952.018048	0.096797
952.194927	0.098228
952.371788	0.093793
952.548631	0.099251
952.725455	0.099105
952.902261	0.099570
953.079049	0.096465
953.255819	0.099002
953.432570	0.097977
953.609303	0.098830
953.786018	0.095438
953.962715	0.099219
954.139394	0.096388
954.316054	0.096112
954.492696	0.097106
954.669320	0.101243
954.845926	0.100713
955.022513	0.102610
955.199083	0.105050
955.375634	0.106883
955.552166	0.101771
955.728681	0.097487
955.905177	0.096034
956.081655	0.093620
956.258115	0.089815
956.434557	0.085926
956.610980	0.083287
956.787385	0.084336
956.963772	0.082281
957.140141	0.085349
957.316492	0.084453
957.492824	0.086611
957.669138	0.091853
957.845434	0.089873
958.021712	0.098013
958.197971	0.098378
958.374212	0.093329
958.550435	0.094100
958.726640	0.097690
958.902826	0.099036
959.078995	0.095707
959.255145	0.090928
959.431277	0.091034
959.607390	0.089424
959.783486	0.084845
959.959563	0.087004
960.135622	0.087580
960.311662	0.083768
960.487685	0.081872
960.663689	0.083740
960.839675	0.085544
961.015643	0.087250
961.191593	0.081874
961.367524	0.081459
961.543437	0.084760
961.719332	0.080144
961.895209	0.085429
962.071067	0.088763
962.246907	0.092585
962.422730	0.092610
962.598533	0.094903
962.774319	0.093813
962.950086	0.097366
963.125835	0.091089
963.301566	0.091961
963.477279	0.091953
963.652973	0.093931
963.828650	0.086307
964.004308	0.079933
964.179947	0.079635
964.355569	0.080237
964.531172	0.078974
964.706757	0.083437
964.882324	0.084904
965.057873	0.080328
965.233403	0.074655
965.408916	0.079166
965.584410	0.084771
965.759885	0.084351
965.935343	0.088837
966.110782	0.092317
966.286203	0.094729
966.461606	0.095189
966.636991	0.092590
966.812357	0.093730
966.987705	0.091354
967.163035	0.093622
967.338347	0.094760
967.513641	0.089155
967.688916	0.084208
967.864173	0.077319
968.039412	0.074843
968.214632	0.074786
968.389835	0.081698
968.565019	0.081435
968.740185	0.079558
968.915333	0.077432
969.090462	0.080106
969.265573	0.080282
969.440667	0.084176
969.615741	0.085792
969.790798	0.087079
969.965836	0.080971
970.140856	0.086992
970.315858	0.084250
970.490842	0.083226
970.665808	0.080608
970.840755	0.085148
971.015684	0.080779
971.190595	0.084699
971.365487	0.083512
971.540362	0.084298
971.715218	0.078495
971.890056	0.080289
972.064875	0.086135
972.239677	0.088555
972.414460	0.086952
972.589225	0.087020
972.763972	0.087834
972.938700	0.092440
973.113411	0.097007
973.288103	0.102259
973.462777	0.101327
973.637432	0.094704
973.812070	0.093184
973.986689	0.089649
974.161290	0.090163
974.335873	0.089102
974.510437	0.090551
974.684984	0.085760
974.859512	0.082357
975.034022	0.084560
975.208513	0.085546
975.382987	0.087291
975.557442	0.091240
975.731879	0.091382
975.906298	0.090891
976.080698	0.088868
976.255080	0.090293
976.429445	0.088496
976.603790	0.086628
976.778118	0.089180
976.952427	0.083087
977.126719	0.079896
977.300992	0.082386
977.475246	0.080681
977.649483	0.080890
977.823701	0.078836
977.997901	0.082404
978.172083	0.084868
978.346247	0.084141
978.520392	0.092097
978.694519	0.095428
978.868628	0.098259
979.042719	0.097885
979.216791	0.093657
979.390845	0.096541
979.564882	0.095664
979.738899	0.090232
979.912899	0.087934
980.086880	0.081018
980.260843	0.078433
980.434788	0.074097
980.608715	0.072296
980.782623	0.075784
980.956514	0.077064
981.130386	0.075566
981.304240	0.082097
981.478075	0.083508
981.651892	0.087303
981.825692	0.089879
981.999472	0.089090
982.173235	0.092391
982.346980	0.091688
982.520706	0.090687
982.694414	0.089602
982.868104	0.087448
983.041775	0.086446
983.215428	0.083946
983.389064	0.079833
983.562680	0.082129
983.736279	0.081811
983.909860	0.081714
984.083422	0.082473
984.256966	0.083661
984.430491	0.083561
984.603999	0.082295
984.777488	0.086624
984.950959	0.089183
985.124412	0.092539
985.297847	0.089648
985.471263	0.085774
985.644661	0.083772
985.818041	0.080865
985.991403	0.078683
986.164747	0.077350
986.338072	0.079537
986.511379	0.080575
986.684668	0.077840
986.857938	0.077564
987.031191	0.084744
987.204425	0.083366
987.377641	0.088515
987.550839	0.088679
987.724018	0.088542
987.897179	0.088198
988.070322	0.087812
988.243447	0.086948
988.416554	0.091068
988.589642	0.090197
988.762712	0.089697
988.935764	0.085905
989.108798	0.087627
989.281813	0.089218
989.454811	0.092846
989.627790	0.087317
989.800751	0.087954
989.973693	0.085909
990.146617	0.082967
990.319524	0.086075
990.492412	0.086796
990.665281	0.085249
990.838133	0.083881
991.010966	0.076446
991.183781	0.080775
991.356578	0.081308
991.529356	0.082707
991.702117	0.082897
991.874859	0.086794
992.047583	0.086392
992.220288	0.087883
992.392976	0.089603
992.565645	0.085426
992.738296	0.084243
992.910929	0.083171
993.083543	0.084402
993.256139	0.086429
993.428718	0.084326
993.601277	0.085660
993.773819	0.088812
993.946342	0.090114
994.118848	0.098621
994.291335	0.099225
994.463803	0.099447
994.636254	0.098731
994.808686	0.096898
994.981100	0.093483
995.153496	0.090993
995.325874	0.088285
995.498233	0.090160
995.670574	0.086769
995.842897	0.086832
996.015202	0.084456
996.187488	0.079799
996.359757	0.080359
996.532007	0.081550
996.704239	0.084527
996.876452	0.084366
997.048648	0.081594
997.220825	0.083005
997.392984	0.087742
997.565124	0.086298
997.737247	0.088885
997.909351	0.087575
998.081437	0.088291
998.253505	0.091861
998.425554	0.091499
998.597586	0.096614
998.769599	0.101392
998.941594	0.097870
999.113571	0.098706
999.285529	0.099221
999.457469	0.100710
999.629391	0.098517
999.801295	0.093018
999.973181	0.095064
1000.145048	0.092918
1000.316897	0.086380
1000.488728	0.087355
1000.660541	0.089603
1000.832335	0.090317
1001.004111	0.087434
1001.175869	0.093831
1001.347609	0.091529
1001.519331	0.089730
1001.691034	0.090236
1001.862719	0.090780
1002.034386	0.086942
1002.206035	0.086385
1002.377665	0.084745
1002.549277	0.086798
1002.720871	0.083748
1002.892447	0.086306
1003.064004	0.086112
1003.235544	0.085997
1003.407065	0.088221
1003.578568	0.089351
1003.750052	0.087500
1003.921519	0.089589
1004.092967	0.090382
1004.264397	0.087857
1004.435809	0.087365
1004.607202	0.084864
1004.778577	0.082675
1004.949934	0.082314
1005.121273	0.082833
1005.292594	0.085401
1005.463896	0.083041
1005.635180	0.080841
1005.806446	0.080696
1005.977694	0.082979
1006.148923	0.086856
1006.320135	0.087257
1006.491328	0.087578
1006.662503	0.089146
1006.833659	0.090136
1007.004798	0.090721
1007.175918	0.095029
1007.347020	0.095331
1007.518103	0.095227
1007.689169	0.092056
1007.860216	0.091167
1008.031245	0.089729
1008.202256	0.088113
1008.373248	0.085889
1008.544223	0.083215
1008.715179	0.079939
1008.886117	0.079327
1009.057036	0.076406
1009.227938	0.080294
1009.398821	0.080045
1009.569686	0.082911
1009.740533	0.083193
1009.911361	0.087638
1010.082172	0.085925
1010.252964	0.084613
1010.423738	0.082884
1010.594493	0.087593
1010.765231	0.082044
1010.935950	0.081899
1011.106651	0.077894
1011.277334	0.079682
1011.447998	0.074259
1011.618645	0.081317
1011.789273	0.081527
1011.959882	0.087540
1012.130474	0.081192
1012.301048	0.085939
1012.471603	0.086896
1012.642140	0.087499
1012.812658	0.087096
1012.983159	0.088580
1013.153641	0.084656
1013.324105	0.082985
1013.494551	0.075912
1013.664979	0.081514
1013.835388	0.080113
1014.005779	0.078907
1014.176152	0.077469
1014.346507	0.077026
1014.516843	0.075719
1014.687162	0.074522
1014.857462	0.078643
1015.027744	0.081926
1015.198007	0.078167
1015.368252	0.079644
1015.538480	0.079660
1015.708689	0.082201
1015.878879	0.078351
1016.049052	0.081508
1016.219206	0.078999
1016.389342	0.077054
1016.559460	0.078279
1016.729559	0.076715
1016.899641	0.075304
1017.069704	0.075109
1017.239749	0.074779
1017.409775	0.079142
1017.579784	0.075078
1017.749774	0.083036
1017.919746	0.084825
1018.089700	0.084589
1018.259635	0.088904
1018.429553	0.086339
1018.599452	0.086810
1018.769333	0.081396
1018.939195	0.081451
1019.109040	0.084147
1019.278866	0.080202
1019.448674	0.078464
1019.618464	0.078357
1019.788235	0.077408
1019.957989	0.079108
1020.127724	0.076972
1020.297441	0.080965
1020.467139	0.079910
1020.636820	0.077823
1020.806482	0.076938
1020.976126	0.075870
1021.145752	0.076527
1021.315359	0.079531
1021.484948	0.079810
1021.654519	0.081638
1021.824072	0.081718
1021.993607	0.081093
1022.163123	0.083342
1022.332621	0.087053
1022.502101	0.088946
1022.671563	0.088768
1022.841007	0.089231
1023.010432	0.087230
1023.179839	0.089145
1023.349228	0.087201
1023.518598	0.084821
1023.687951	0.083338
1023.857285	0.080063
1024.026601	0.079358
1024.195899	0.077084
1024.365178	0.071648
1024.534439	0.075186
1024.703682	0.073225
1024.872907	0.076274
1025.042114	0.075396
1025.211302	0.075156
1025.380472	0.075333
1025.549624	0.075350
1025.718758	0.076096
1025.887873	0.079643
1026.056970	0.079967
1026.226049	0.081593
1026.395110	0.084672
1026.564153	0.088294
1026.733177	0.091615
1026.902183	0.094342
1027.071171	0.097998
1027.240141	0.100073
1027.409092	0.095916
1027.578026	0.093827
1027.746940	0.091585
1027.915837	0.087573
1028.084716	0.091061
1028.253576	0.087880
1028.422418	0.085266
1028.591242	0.077731
1028.760048	0.076188
1028.928835	0.075316
1029.097604	0.079005
1029.266355	0.081169
1029.435088	0.082293
1029.603803	0.081472
1029.772499	0.082125
1029.941177	0.080847
1030.109837	0.087192
1030.278478	0.087472
1030.447102	0.093648
1030.615707	0.087653
1030.784294	0.086040
1030.952863	0.085920
1031.121413	0.086341
1031.289945	0.087466
1031.458460	0.090461
1031.626955	0.091279
1031.795433	0.089553
1031.963892	0.084567
1032.132334	0.087748
1032.300756	0.089163
1032.469161	0.087452
1032.637548	0.087916
1032.805916	0.089084
1032.974266	0.085874
1033.142598	0.079638
1033.310911	0.078772
1033.479207	0.080991
1033.647484	0.077478
1033.815743	0.075024
1033.983983	0.072629
1034.152206	0.071391
1034.320410	0.069844
1034.488596	0.072926
1034.656764	0.075225
1034.824914	0.078286
1034.993045	0.075730
1035.161158	0.079938
1035.329253	0.080607
1035.497330	0.081976
1035.665388	0.076676
1035.833428	0.075114
1036.001450	0.071834
1036.169454	0.073877
1036.337440	0.072680
1036.505407	0.072839
1036.673356	0.067357
1036.841287	0.069474
1037.009200	0.072119
1037.177094	0.074052
1037.344970	0.075893
1037.512828	0.076347
1037.680668	0.076162
1037.848489	0.075232
1038.016293	0.078484
1038.184078	0.083258
1038.351845	0.084447
1038.519593	0.084752
1038.687324	0.083629
1038.855036	0.087299
1039.022730	0.088594
1039.190406	0.090771
1039.358063	0.094371
1039.525702	0.092376
1039.693323	0.093809
1039.860926	0.087785
1040.028511	0.088637
1040.196077	0.087917
1040.363625	0.083693
1040.531155	0.085268
1040.698667	0.082992
1040.866161	0.078875
1041.033636	0.079461
1041.201093	0.077467
1041.368532	0.082397
1041.535952	0.075875
1041.703355	0.076325
1041.870739	0.075134
1042.038105	0.070937
1042.205452	0.071263
1042.372782	0.074268
1042.540093	0.072378
1042.707386	0.072123
1042.874661	0.067578
1043.041918	0.072688
1043.209156	0.075118
1043.376376	0.074748
1043.543578	0.076829
1043.710762	0.076992
1043.877927	0.074447
1044.045074	0.072163
1044.212203	0.074629
1044.379314	0.077125
1044.546407	0.076470
1044.713481	0.073594
1044.880537	0.077886
1045.047575	0.080848
1045.214595	0.080728
1045.381596	0.079891
1045.548579	0.085930
1045.715544	0.078889
1045.882491	0.076669
1046.049420	0.073803
1046.216330	0.079918
1046.383222	0.078040
1046.550096	0.075891
1046.716951	0.076483
1046.883789	0.080778
1047.050608	0.076807
1047.217409	0.081461
1047.384192	0.086548
1047.550956	0.088391
1047.717703	0.084078
1047.884431	0.080068
1048.051140	0.077478
1048.217832	0.077521
1048.384505	0.072608
1048.551161	0.074650
1048.717798	0.073732
1048.884416	0.071793
1049.051017	0.070746
1049.217599	0.072148
1049.384163	0.073397
1049.550709	0.074023
1049.717237	0.074262
1049.883746	0.078704
1050.050237	0.081120
1050.216710	0.082504
1050.383165	0.082047
1050.549601	0.086665
1050.716019	0.083244
1050.882420	0.086610
1051.048801	0.088686
1051.215165	0.087998
1051.381510	0.084704
1051.547837	0.080282
1051.714146	0.078568
1051.880437	0.079940
1052.046709	0.077866
1052.212964	0.080949
1052.379200	0.079451
1052.545417	0.082289
1052.711617	0.084403
1052.877798	0.087282
1053.043961	0.087275
1053.210106	0.086356
1053.376233	0.087842
1053.542341	0.088668
1053.708432	0.089290
1053.874504	0.088774
1054.040557	0.084522
1054.206593	0.083171
1054.372610	0.078604
1054.538609	0.078964
1054.704590	0.080648
1054.870553	0.076694
1055.036497	0.070645
1055.202424	0.070448
1055.368331	0.070038
1055.534221	0.070795
1055.700093	0.063838
1055.865946	0.064359
1056.031781	0.060421
1056.197598	0.055843
1056.363397	0.060676
1056.529177	0.062819
1056.694939	0.063644
1056.860683	0.063879
1057.026409	0.070781
1057.192116	0.078433
1057.357806	0.074563
1057.523477	0.078403
1057.689130	0.083593
1057.854764	0.078084
1058.020381	0.079199
1058.185979	0.079406
1058.351559	0.079615
1058.517120	0.071925
1058.682664	0.072641
1058.848189	0.077155
1059.013696	0.076759
1059.179185	0.077895
1059.344656	0.080091
1059.510108	0.084295
1059.675542	0.083579
1059.840958	0.085803
1060.006356	0.085600
1060.171735	0.081534
1060.337096	0.082633
1060.502439	0.084995
1060.667764	0.084541
1060.833071	0.086844
1060.998359	0.084763
1061.163629	0.084520
1061.328881	0.081779
1061.494115	0.083714
1061.659330	0.086620
1061.824527	0.083958
1061.989706	0.085318
1062.154867	0.087792
1062.320010	0.082395
1062.485134	0.079708
1062.650240	0.080465
1062.815328	0.086351
1062.980398	0.080941
1063.145449	0.081993
1063.310482	0.086333
1063.475497	0.086152
1063.640494	0.081635
1063.805473	0.082289
1063.970433	0.082638
1064.135375	0.079789
1064.300299	0.076128
1064.465204	0.085009
1064.630092	0.079456
1064.794961	0.077730
1064.959812	0.076125
1065.124645	0.075272
1065.289459	0.074553
1065.454256	0.079545
1065.619034	0.076329
1065.783793	0.075701
1065.948535	0.072776
1066.113258	0.078752
1066.277964	0.077888
1066.442651	0.078036
1066.607319	0.076852
1066.771970	0.080994
1066.936602	0.078384
1067.101216	0.082630
1067.265812	0.085258
1067.430389	0.086628
1067.594949	0.082237
1067.759490	0.083063
1067.924013	0.083241
1068.088518	0.083179
1068.253004	0.083165
1068.417472	0.083738
1068.581922	0.081499
1068.746354	0.076368
1068.910768	0.076173
1069.075163	0.081489
1069.239540	0.076940
1069.403899	0.074695
1069.568240	0.076427
1069.732562	0.070583
1069.896866	0.068287
1070.061152	0.075331
1070.225420	0.078724
1070.389670	0.076078
1070.553901	0.070639
1070.718114	0.077991
1070.882309	0.079139
1071.046486	0.077983
1071.210644	0.087542
1071.374784	0.086939
1071.538906	0.080376
1071.703010	0.081069
1071.867096	0.081396
1072.031163	0.083612
1072.195212	0.085836
1072.359243	0.093980
1072.523256	0.096653
1072.687250	0.093090
1072.851226	0.097423
1073.015184	0.101496
1073.179124	0.091997
1073.343045	0.093509
1073.506949	0.093083
1073.670834	0.090229
1073.834701	0.081504
1073.998549	0.081229
1074.162380	0.080718
1074.326192	0.079961
1074.489986	0.083190
1074.653761	0.089420
1074.817519	0.084684
1074.981258	0.081729
1075.144979	0.080860
1075.308682	0.084959
1075.472367	0.084461
1075.636033	0.083898
1075.799681	0.082279
1075.963311	0.072158
1076.126923	0.072580
1076.290516	0.078536
1076.454092	0.084229
1076.617649	0.082775
1076.781187	0.077613
1076.944708	0.079132
1077.108210	0.080242
1077.271695	0.082007
1077.435160	0.090461
1077.598608	0.094365
1077.762038	0.094530
1077.925449	0.090566
1078.088842	0.084121
1078.252217	0.082187
1078.415573	0.082693
1078.578912	0.079842
1078.742232	0.080282
1078.905534	0.076816
1079.068817	0.076805
1079.232083	0.078228
1079.395330	0.081373
1079.558559	0.085247
1079.721770	0.087441
1079.884962	0.084879
1080.048136	0.087594
1080.211293	0.087351
1080.374430	0.089770
1080.537550	0.085938
1080.700651	0.081685
1080.863735	0.079212
1081.026800	0.086493
1081.189846	0.093521
1081.352875	0.094642
1081.515885	0.091664
1081.678877	0.088990
1081.841851	0.088973
1082.004807	0.084699
1082.167744	0.085655
1082.330663	0.082472
1082.493564	0.075733
1082.656447	0.067951
1082.819312	0.068267
1082.982158	0.069108
1083.144986	0.068896
1083.307796	0.063395
1083.470587	0.068564
1083.633361	0.070618
1083.796116	0.069851
1083.958853	0.075366
1084.121571	0.078090
1084.284272	0.081544
1084.446954	0.085484
1084.609618	0.089781
1084.772264	0.097167
1084.934892	0.095070
1085.097501	0.093422
1085.260092	0.091054
1085.422665	0.084424
1085.585220	0.088898
1085.747756	0.085603
1085.910274	0.086112
1086.072774	0.079736
1086.235256	0.079953
1086.397720	0.085786
1086.560165	0.086597
1086.722592	0.091759
1086.885001	0.099263
1087.047392	0.089296
1087.209764	0.087196
1087.372119	0.085026
1087.534455	0.081871
1087.696772	0.077990
1087.859072	0.077951
1088.021353	0.076616
1088.183616	0.079287
1088.345861	0.074890
1088.508088	0.082188
1088.670296	0.081053
1088.832486	0.076063
1088.994658	0.081832
1089.156812	0.080833
1089.318948	0.074827
1089.481065	0.072788
1089.643164	0.065243
1089.805245	0.060325
1089.967308	0.058171
1090.129352	0.058793
1090.291378	0.062586
1090.453386	0.062503
1090.615376	0.057006
1090.777347	0.061750
1090.939301	0.069084
1091.101236	0.069761
1091.263153	0.079845
1091.425051	0.078107
1091.586932	0.076468
1091.748794	0.069970
1091.910638	0.068718
1092.072463	0.077799
1092.234271	0.075440
1092.396060	0.059655
1092.557831	0.068268
1092.719584	0.061161
1092.881319	0.059608
1093.043035	0.064692
1093.204733	0.064484
1093.366413	0.067512
1093.528075	0.068416
1093.689718	0.066992
1093.851343	0.070657
1094.012950	0.072306
1094.174539	0.081181
1094.336110	0.088791
1094.497662	0.081526
1094.659196	0.084141
1094.820712	0.075901
1094.982210	0.072388
1095.143689	0.071214
1095.305151	0.081343
1095.466594	0.082115
1095.628018	0.072113
1095.789425	0.068929
1095.950813	0.084663
1096.112183	0.084324
1096.273535	0.107718
1096.434869	0.099905
1096.596184	0.099974
1096.757482	0.094786
1096.918761	0.090910
1097.080021	0.083916
1097.241264	0.077589
1097.402488	0.068140
1097.563694	0.065444
1097.724882	0.047948
1097.886052	0.047832
1098.047203	0.051643
1098.208336	0.050250
1098.369451	0.041719
1098.530548	0.053010
1098.691627	0.053322
1098.852687	0.050550
1099.013729	0.059027
1099.174753	0.066125
1099.335758	0.072436
1099.496746	0.070506
1099.657715	0.070625
1099.818666	0.080403
1099.979599	0.072577
1100.140513	0.076071
1100.301409	0.084264
1100.462287	0.093171
1100.623147	0.082769
1100.783989	0.091448
1100.944812	0.091550
1101.105617	0.084592
1101.266404	0.089912
1101.427173	0.094903
1101.587923	0.095440
1101.748656	0.086784
1101.909370	0.075875
1102.070066	0.083636
1102.230743	0.068982
1102.391403	0.070243
1102.552044	0.078166
1102.712667	0.064733
1102.873271	0.063289
1103.033858	0.068252
1103.194426	0.076253
1103.354976	0.073701
1103.515508	0.072988
1103.676021	0.078436
1103.836517	0.081246
1103.996994	0.081972
1104.157453	0.080380
1104.317893	0.078999
1104.478316	0.069790
1104.638720	0.065953
1104.799106	0.058513
1104.959474	0.053703
1105.119823	0.051451
1105.280155	0.042199
1105.440468	0.038561
1105.600763	0.051882
1105.761039	0.051447
1105.921298	0.047824
1106.081538	0.048737
1106.241760	0.056768
1106.401964	0.063625
1106.562149	0.054943
1106.722316	0.056691
1106.882465	0.061617
1107.042596	0.056182
1107.202709	0.056019
1107.362803	0.065625
1107.522879	0.065723
1107.682937	0.063346
1107.842977	0.056582
1108.002999	0.066776
1108.163002	0.065165
1108.322987	0.069479
1108.482954	0.066794
1108.642902	0.073817
1108.802833	0.069174
1108.962745	0.061148
1109.122639	0.054604
1109.282515	0.057636
1109.442372	0.053211
1109.602211	0.061529
1109.762032	0.040310
1109.921835	0.045343
1110.081620	0.032227
1110.241386	0.046886
1110.401134	0.051718
1110.560864	0.054678
1110.720576	0.056865
1110.880269	0.058729
1111.039945	0.056580
1111.199602	0.076485
1111.359240	0.064089
1111.518861	0.083749
1111.678463	0.079571
1111.838047	0.078872
1111.997613	0.083066
1112.157161	0.075421
1112.316690	0.075632
1112.476202	0.077702
1112.635695	0.083106
1112.795169	0.075389
1112.954626	0.067703
1113.114064	0.070335
1113.273484	0.071095
1113.432886	0.070704
1113.592270	0.084228
1113.751635	0.091150
1113.910983	0.082756
1114.070312	0.088652
1114.229622	0.104818
1114.388915	0.107898
1114.548189	0.090736
1114.707445	0.088705
1114.866683	0.081721
1115.025903	0.075005
1115.185104	0.073143
1115.344287	0.084231
1115.503452	0.070529
1115.662599	0.062715
1115.821727	0.055782
1115.980838	0.058346
1116.139930	0.055033
1116.299004	0.056102
1116.458059	0.056061
1116.617097	0.058550
1116.776116	0.052280
1116.935117	0.057896
1117.094099	0.059916
1117.253064	0.067136
1117.412010	0.072348
1117.570938	0.076619
1117.729848	0.080078
1117.888740	0.076563
1118.047613	0.057291
1118.206468	0.065196
1118.365305	0.061999
1118.524124	0.055836
1118.682924	0.040694
1118.841707	0.038874
1119.000471	0.036618
1119.159216	0.045728
1119.317944	0.041310
1119.476653	0.050967
1119.635344	0.028720
1119.794017	0.037510
1119.952672	0.044710
1120.111308	0.061859
1120.269927	0.078535
1120.428527	0.071566
1120.587108	0.054174
1120.745672	0.058279
1120.904217	0.053304
1121.062744	0.065560
1121.221253	0.064286
1121.379744	0.064388
1121.538216	0.058699
1121.696671	0.040215
1121.855107	0.058558
1122.013524	0.070105
1122.171924	0.059540
1122.330305	0.069414
1122.488668	0.074492
1122.647013	0.066059
1122.805340	0.064661
1122.963648	0.068642
1123.121938	0.067561
1123.280210	0.069522
1123.438464	0.062995
1123.596700	0.067109
1123.754917	0.071054
1123.913116	0.064894
1124.071297	0.047204
1124.229459	0.046293
1124.387604	0.029181
1124.545730	0.039394
1124.703838	0.029773
1124.861928	0.041832
1125.019999	0.050624
1125.178052	0.047644
1125.336088	0.046640
1125.494104	0.049285
1125.652103	0.053591
1125.810083	0.073615
1125.968045	0.069096
1126.125989	0.067033
1126.283915	0.071122
1126.441823	0.060845
1126.599712	0.055249
1126.757583	0.052860
1126.915436	0.052934
1127.073270	0.055992
1127.231087	0.057061
1127.388885	0.075526
1127.546665	0.076576
1127.704426	0.067901
1127.862170	0.078813
1128.019895	0.079840
1128.177602	0.091462
1128.335291	0.098721
1128.492961	0.088554
1128.650614	0.081064
1128.808248	0.041313
1128.965864	0.047584
1129.123461	0.037934
1129.281041	0.018188
1129.438602	0.030902
1129.596145	0.034796
1129.753670	0.028295
1129.911176	0.040954
1130.068665	0.051258
1130.226135	0.082818
1130.383587	0.072291
1130.541020	0.094027
1130.698436	0.110809
1130.855833	0.102638
1131.013212	0.095295
1131.170573	0.110129
1131.327915	0.116756
1131.485239	0.097087
1131.642545	0.088052
1131.799833	0.107903
1131.957103	0.110833
1132.114354	0.133408
1132.271588	0.128061
1132.428803	0.122827
1132.585999	0.127223
1132.743178	0.111017
1132.900338	0.118608
1133.057480	0.125991
1133.214604	0.103458
1133.371710	0.094360
1133.528797	0.074262
1133.685866	0.070966
1133.842917	0.057631
1133.999950	0.052472
1134.156964	0.055098
1134.313960	0.055928
1134.470938	0.050350
1134.627898	0.039854
1134.784840	0.050580
1134.941763	0.058344
1135.098668	0.066888
1135.255555	0.069731
1135.412424	0.058286
1135.569274	0.062583
1135.726107	0.073611
1135.882921	0.062650
1136.039716	0.085188
1136.196494	0.063545
1136.353253	0.070999
1136.509995	0.058502
1136.666717	0.096159
1136.823422	0.100126
1136.980109	0.090342
1137.136777	0.077921
1137.293427	0.085971
1137.450059	0.070966
1137.606672	0.076548
1137.763267	0.050095
1137.919844	0.067189
1138.076403	0.056420
1138.232944	0.073432
1138.389466	0.099460
1138.545971	0.111206
1138.702457	0.109568
1138.858924	0.124714
1139.015374	0.112606
1139.171805	0.119385
1139.328218	0.110735
1139.484613	0.099878
1139.640990	0.075124
1139.797348	0.055470
1139.953688	0.051190
1140.110010	0.049791
1140.266314	0.038456
1140.422600	0.043019
1140.578867	0.044979
1140.735116	0.046107
1140.891347	0.044878
1141.047559	0.054174
1141.203754	0.050670
1141.359930	0.045805
1141.516088	0.052414
1141.672228	0.071214
1141.828349	0.080888
1141.984452	0.090001
1142.140537	0.083397
1142.296604	0.079529
1142.452653	0.082718
1142.608683	0.082205
1142.764695	0.083295
1142.920689	0.062502
1143.076665	0.038363
1143.232622	0.068061
1143.388562	0.079287
1143.544483	0.077408
1143.700385	0.058891
1143.856270	0.061873
1144.012136	0.073886
1144.167985	0.078629
1144.323814	0.082403
1144.479626	0.107846
1144.635420	0.084730
1144.791195	0.056209
1144.946952	0.047395
1145.102691	0.060658
1145.258411	0.041859
1145.414113	0.029215
1145.569798	0.036989
1145.725463	0.045926
1145.881111	0.037184
1146.036741	0.025709
1146.192352	0.045723
1146.347945	0.055095
1146.503519	0.058656
1146.659076	0.061108
1146.814614	0.074582
1146.970134	0.061340
1147.125636	0.066628
1147.281120	0.074170
1147.436585	0.082829
1147.592032	0.092400
1147.747461	0.105902
1147.902872	0.098513
1148.058265	0.125289
1148.213639	0.113328
1148.368995	0.127869
1148.524333	0.127286
1148.679653	0.126149
1148.834954	0.115202
1148.990237	0.100986
1149.145502	0.074688
1149.300749	0.084219
1149.455977	0.075448
1149.611188	0.067965
1149.766380	0.055830
1149.921553	0.042281
1150.076709	0.045606
1150.231846	0.026889
1150.386966	0.041364
1150.542066	0.053027
1150.697149	0.057970
1150.852214	0.042345
1151.007260	0.050517
1151.162288	0.041426
1151.317298	0.067547
1151.472289	0.060436
1151.627263	0.086124
1151.782218	0.059519
1151.937155	0.075697
1152.092073	0.070532
1152.246974	0.061489
1152.401856	0.043476
1152.556720	0.069997
1152.711566	0.076417
1152.866393	0.045689
1153.021203	0.037861
1153.175994	0.029872
1153.330767	0.023879
1153.485521	0.012441
1153.640258	0.049474
1153.794976	0.042061
1153.949676	0.027226
1154.104358	0.010903
1154.259021	0.022098
1154.413667	0.057011
1154.568294	0.069995
1154.722903	0.083511
1154.877493	0.080130
1155.032066	0.041023
1155.186620	0.076399
1155.341156	0.097099
1155.495674	0.093982
1155.650173	0.101807
1155.804654	0.072539
1155.959118	0.072188
1156.113562	0.044318
1156.267989	0.060783
1156.422397	0.071347
1156.576788	0.052034
1156.731160	0.012564
1156.885513	0.039303
1157.039849	0.047047
1157.194166	0.063460
1157.348465	0.087422
1157.502746	0.122766
1157.657009	0.129768
1157.811253	0.128289
1157.965479	0.159857
1158.119687	0.181823
1158.273877	0.119700
1158.428048	0.078144
1158.582201	0.061970
1158.736337	0.047357
1158.890453	0.026797
1159.044552	0.024861
1159.198632	0.063287
1159.352694	0.056603
1159.506738	0.061986
1159.660764	0.099956
1159.814771	0.145736
1159.968761	0.149011
1160.122732	0.142467
1160.276685	0.149485
1160.430619	0.163109
1160.584535	0.136221
1160.738434	0.127907
1160.892313	0.105980
1161.046175	0.110365
1161.200019	0.093848
1161.353844	0.096104
1161.507651	0.112418
1161.661440	0.088692
1161.815210	0.074517
1161.968962	0.089298
1162.122697	0.078905
1162.276412	0.109221
1162.430110	0.083157
1162.583789	0.089699
1162.737451	0.093951
1162.891094	0.087965
1163.044718	0.105819
1163.198325	0.098652
1163.351913	0.064736
1163.505483	0.078120
1163.659035	0.053586
1163.812569	0.023480
1163.966084	0.049264
1164.119581	0.051161
1164.273060	0.065290
1164.426521	0.070757
1164.579964	0.054179
1164.733388	0.035926
1164.886794	0.015712
1165.040182	0.036783
1165.193551	0.085124
1165.346903	0.052949
1165.500236	0.032927
1165.653551	-0.001062
1165.806848	0.005992
1165.960126	0.050064
1166.113386	0.098649
1166.266628	0.116388
1166.419852	0.108191
1166.573058	0.074780
1166.726245	0.064948
1166.879414	0.071431
1167.032565	0.066747
1167.185698	0.050155
1167.338812	0.032371
1167.491909	0.037000
1167.644987	0.041209
1167.798046	0.068993
1167.951088	0.116789
1168.104111	0.157797
1168.257117	0.153402
1168.410103	0.220156
1168.563072	0.243653
1168.716023	0.241124
1168.868955	0.186028
1169.021869	0.150914
1169.174765	0.119012
1169.327642	0.071178
1169.480501	0.038882
1169.633343	0.034130
1169.786165	0.017357
1169.938970	-0.009923
1170.091757	-0.035363
1170.244525	-0.024031
1170.397275	0.017320
1170.550007	0.046755
1170.702720	0.057821
1170.855415	0.094899
1171.008092	0.081401
1171.160751	0.059139
1171.313392	0.059793
1171.466014	0.259844
1171.618619	-0.068440
1171.771205	-0.068440
1171.923772	-0.068440
