sample name	sample
index	160
start time	 02-15-2021  03:07:14 PM
880	0.397033
Peak Time (s)	92.535
Peak Height 	0.397
calc peak height	90,93
Baseline Time (s)	8.536
Baseline Value 	-0.002247
subtract baseline	10,4
Abs	0.337253
Peak Time (s)	90.039
Peak Height 	0.3373
calc peak height	90,93
Baseline Time (s)	9.036
Baseline Value 	9.1926E-4
subtract baseline	10,3
PK_550	0.159027
Peak Time (s)	92.535
Peak Height 	0.159
calc peak height	90,93
Baseline Time (s)	11.035
Baseline Value 	0.001063
subtract baseline	10,2
PK_880	0.310039
Peak Time (s)	91.037
Peak Height 	0.31
calc peak height	90,93
Baseline Time (s)	9.036
Baseline Value 	0.003965
subtract baseline	10,1


Time (s)	A880-A510	A880-A775	A880-A975	A880	I510	I775	I975	I880	
0.036500	-0.002096	-0.000171	0.007397	0.002257	3953.823426	12875.098067	3208.880740	7649.743698
0.537000	-0.004827	-0.001050	-0.002037	0.004903	3942.504098	12795.813141	3202.854578	7621.612565
1.040000	-0.003330	-0.003557	0.006394	0.002352	3951.012480	12796.807612	3208.326112	7648.729832
1.552000	-0.000354	-0.000171	0.006988	0.001288	3959.585143	12897.001850	3209.164371	7660.087373
2.035500	0.000042	-0.000238	-0.013576	0.001985	3958.942932	12879.731877	3198.654745	7652.644012
2.535500	-0.006028	-0.001326	-0.002314	0.001288	3947.569255	12870.915139	3204.503296	7660.089359
3.036000	-0.002121	-0.001657	0.002175	-0.002050	3962.938248	12939.007938	3208.418223	7695.895533
3.536000	-0.005393	0.000057	0.008748	0.001754	3947.925045	12891.636088	3209.820870	7655.115618
4.036500	0.002595	0.000966	0.007260	0.002319	3963.681203	12899.424371	3208.780367	7649.085533
4.536500	-0.000302	0.000590	0.004030	0.001659	3958.903356	12905.832339	3207.484548	7656.121785
5.036500	-0.005805	0.000139	0.022964	0.001447	3947.702905	12900.427375	3217.323164	7658.387908
5.537500	0.000150	-0.002333	-0.008931	-0.000362	3964.187392	12885.432980	3202.054723	7677.754598
6.034500	-0.001110	0.002466	-0.006045	0.001864	3956.749246	12943.765656	3202.378238	7653.937178
6.535000	0.001867	0.000267	-0.003668	0.001398	3964.093665	12904.441625	3203.778114	7658.910529
7.035500	0.001409	0.000925	0.003271	0.001361	3963.193640	12920.195290	3207.252920	7659.305998
7.534500	0.000509	0.000334	-0.013048	0.000699	3962.683794	12921.799892	3199.531322	7666.382798
8.036000	-0.004830	-0.001171	-0.016009	-0.000157	3953.145196	12907.090100	3198.514401	7675.553540
8.535500	-0.000552	-0.000169	-0.011424	0.000000	3961.910947	12926.245505	3200.659891	7673.873956
9.036000	0.000000	-0.000833	0.000000	-0.000357	3963.855269	12919.284664	3206.474771	7677.702830
9.536500	-0.001673	0.001084	0.010942	0.000887	3957.630249	12934.567378	3211.381832	7664.381021
10.036500	0.000036	-0.001228	-0.003228	-0.000823	3964.931088	12920.888038	3205.097223	7682.704456
10.540000	-0.002951	0.001604	0.000613	0.001027	3954.617173	12943.194729	3206.089045	7662.873352
11.035000	0.000662	0.000000	-0.002993	-0.000298	3965.145768	12936.850372	3204.952885	7677.065661
11.535000	0.006424	0.001432	0.000170	0.001246	3974.236923	12934.315186	3205.759057	7660.537169
12.035500	0.002651	0.001305	0.018656	0.001162	3966.280680	12933.326354	3215.219831	7661.432398
12.535000	0.002393	0.001244	-0.034240	0.000355	3967.462580	12950.307622	3189.673031	7670.074562
13.036000	-0.004128	0.001328	-0.026075	-0.000155	3954.628981	12963.823228	3193.717940	7675.538196
13.536000	0.002337	0.000085	0.019904	-0.000478	3969.132981	12942.890241	3216.728188	7678.999968
14.036500	-0.008458	-0.001113	-0.000940	0.001702	3941.605210	12866.381049	3204.979411	7655.667658
14.536000	-0.000411	-0.001565	0.016189	-0.000028	3962.271036	12895.232635	3214.555879	7674.169318
15.087000	-0.009287	0.000481	0.005312	-0.000550	3944.585034	12953.516422	3209.246412	7679.771475
15.534500	0.000542	0.002088	0.000475	0.000458	3963.270421	12967.172288	3206.304596	7668.966151
16.035000	-0.003727	-0.001467	0.007921	0.000687	3953.694964	12881.296433	3209.942967	7666.517411
16.535000	-0.000409	-0.000699	0.006882	-0.001250	3964.893390	12942.622044	3210.399924	7687.294490
17.035500	-0.001997	0.000287	-0.005936	-0.002529	3964.229637	12994.246091	3204.599917	7701.064078
17.536000	0.001249	0.001250	-0.003178	-0.000620	3967.096809	12972.643152	3205.020811	7680.519910
18.036000	0.002547	-0.000725	-0.004316	-0.000510	3969.655574	12925.208699	3204.402165	7679.348030
18.536000	0.001938	-0.001007	-0.007914	-0.001517	3970.513601	12941.667985	3203.121684	7690.162436
19.036500	-0.006275	0.000284	-0.007689	-0.000800	3951.451079	12954.739209	3202.879676	7682.455148
19.536500	-0.000889	-0.000872	0.001104	-0.000692	3962.670207	12925.994502	3207.195890	7681.299269
20.037500	0.003397	0.001841	-0.017577	0.000586	3969.124779	12958.644657	3197.403941	7667.601092
20.534500	0.001028	-0.000874	-0.010227	-0.000837	3967.091572	12929.258160	3201.652541	7682.857476
21.035000	-0.002273	-0.000664	0.011554	-0.001156	3960.703405	12941.267622	3212.743837	7686.278005
21.535000	0.002469	0.000467	0.003970	0.000753	3966.770911	12923.603731	3207.910555	7665.813008
22.035500	0.001122	-0.000535	0.012108	-0.000605	3966.792750	12931.674877	3212.745334	7680.361024
22.536000	-0.007210	-0.000490	0.019332	-0.000056	3947.909580	12920.239932	3216.207747	7674.470577
23.036500	0.000186	0.002606	0.021738	0.001498	3960.287237	12955.278825	3216.653583	7657.840832
23.536500	-0.000267	0.000066	0.011475	0.001582	3959.143975	12895.712631	3211.298655	7656.947466
24.036500	0.002142	0.000590	0.000008	0.000960	3965.622708	12921.689423	3205.821044	7663.596880
24.539500	-0.003384	0.000018	0.003427	-0.000230	3956.367961	12935.724247	3208.132199	7676.339696
25.037000	0.000078	-0.000662	0.016992	-0.000946	3965.285891	12936.549106	3215.451236	7684.027011
25.534500	0.003586	0.001876	-0.002675	0.002291	3965.867033	12920.672155	3203.828154	7649.385317
26.035000	0.000746	-0.000304	0.009238	-0.000604	3965.983933	12936.910907	3211.272438	7680.354738
26.535000	0.001555	0.002481	-0.001463	0.002154	3961.810105	12937.511442	3204.495481	7650.844769
27.035500	-0.002094	-0.000308	0.015556	0.000022	3958.573950	12922.599647	3214.201861	7673.636410
27.536000	-0.001387	0.000871	-0.002957	-0.002516	3965.509167	13007.294005	3206.075739	7700.917947
28.036500	-0.007058	-0.000648	-0.013385	0.003010	3941.797853	12847.365409	3198.253320	7641.723451
28.536000	-0.004639	-0.000165	0.006793	-0.000163	3953.563093	12930.037207	3209.801642	7675.623867
29.037000	0.003719	0.000657	0.005014	0.000245	3970.553424	12939.454810	3208.693506	7671.248398
29.537000	-0.002319	-0.001236	0.021267	-0.001933	3962.263526	12945.912015	3218.209054	7694.634613
30.037000	-0.003584	0.000638	0.010295	0.002463	3950.243092	12888.745418	3210.246876	7647.551842
30.543000	-0.000805	-0.000831	0.015166	-0.001371	3964.302415	12942.346780	3214.722078	7688.589702
31.037500	-0.002513	-0.000009	0.001563	0.000936	3955.740820	12908.655736	3206.610158	7663.853497
31.565500	-0.001718	-0.000073	0.007849	-0.001376	3962.358143	12959.714019	3210.957030	7688.641500
32.036000	-0.004320	0.000888	0.001832	0.002604	3948.394030	12891.187312	3205.910229	7646.040233
32.536000	-0.001678	-0.001340	-0.019674	-0.002012	3963.805267	12945.373004	3197.644366	7695.492090
33.036500	0.003290	0.001561	0.035552	0.000662	3968.731043	12950.521729	3224.457377	7666.781246
33.540500	-0.000844	0.001484	-0.009307	-0.000666	3962.710080	12979.025174	3202.019263	7681.014706
34.039500	-0.003644	0.000325	0.000644	0.002631	3949.761063	12877.849503	3205.304958	7645.756090
34.537500	-0.000720	0.000036	-0.006736	0.001050	3959.311865	12907.094860	3202.438728	7662.634119
35.035000	0.005435	0.000041	0.013249	0.000659	3973.365803	12916.050320	3212.682074	7666.813011
35.534500	-0.000735	-0.000162	0.010466	0.000874	3959.654068	12906.583461	3211.144333	7664.515031
36.035500	0.001442	-0.000162	-0.006633	0.001631	3962.686759	12889.443623	3202.203863	7656.422952
36.535500	-0.004332	-0.000943	-0.001091	-0.000837	3955.641459	12927.674342	3206.168831	7682.850136
37.036000	-0.000185	0.000960	-0.003866	0.001298	3959.922356	12922.421960	3203.729881	7659.981187
37.536000	0.000978	0.001450	-0.006902	0.001723	3961.498486	12923.886503	3202.026923	7655.442173
38.036000	-0.006615	0.000735	-0.014701	0.002423	3943.952062	12891.809399	3197.902297	7647.969964
38.537000	-0.002673	-0.002556	0.003231	-0.001895	3961.427535	12915.081154	3208.873906	7694.225999
39.037000	0.000660	-0.000123	0.008112	0.000317	3963.824685	12920.106300	3210.227717	7670.474423
39.537000	-0.001388	0.000736	0.002836	0.000379	3959.316608	12938.187070	3207.527755	7669.809132
40.034500	0.002143	0.000114	0.006620	0.000837	3965.890205	12913.695988	3209.206442	7664.913058
40.535000	-0.001056	-0.000913	-0.003475	-0.000823	3962.593278	12928.039988	3204.974833	7682.705961
41.035500	-0.003409	-0.001052	0.003856	-0.000740	3957.396991	12923.008854	3208.605681	7681.810158
41.536000	-0.003030	0.001289	0.010430	0.001281	3953.914535	12930.284547	3210.918489	7660.166606
42.036000	-0.002840	0.000905	0.002624	0.000900	3955.125289	12930.219782	3207.159983	7664.241657
42.536500	-0.006219	0.000853	-0.002387	0.001539	3946.640030	12914.522807	3204.342743	7657.409535
43.036500	-0.010270	-0.001949	0.006749	-0.001110	3943.697411	12911.066080	3210.260854	7685.790067
43.539500	0.003320	-0.000274	0.008220	0.000063	3970.085329	12922.441461	3210.412473	7673.195849
44.037500	0.002508	0.002207	0.003447	-0.001660	3972.051192	13018.312822	3208.864215	7691.704489
44.537000	-0.002198	-0.001266	0.021257	-0.002313	3963.336727	12953.882727	3218.404241	7698.730843
45.034500	-0.008027	-0.001373	-0.000763	-0.000772	3947.697914	12916.451708	3206.300465	7682.153859
45.535500	0.002389	0.000574	-0.007150	-0.000266	3968.789197	12949.171682	3202.882086	7676.724969
46.035500	-0.006153	-0.000233	-0.007580	-0.001122	3952.389642	12950.297789	3203.091853	7685.917608
46.536000	0.000438	0.000059	0.005311	-0.001645	3967.557988	12968.876151	3209.801642	7691.542716
47.036000	-0.003043	0.001464	-0.006489	0.000643	3955.237990	12948.743597	3202.759920	7666.985583
47.536500	0.001368	-0.001562	-0.010915	-0.000439	3966.964888	12904.622901	3201.121874	7678.584794
48.039000	-0.000359	0.000046	-0.001237	0.002796	3956.364997	12867.820085	3204.289242	7643.996403
48.537000	-0.000599	0.000339	0.006676	-0.000933	3963.804230	12959.019257	3210.133128	7683.881599
49.037000	0.004495	0.000236	0.011299	-0.001181	3975.315806	12962.319079	3212.625200	7686.549454
49.535000	-0.001264	0.000354	-0.011982	-0.000792	3962.083136	12956.154551	3200.774087	7682.376038
50.035000	-0.001858	0.000372	0.000708	0.004424	3949.747229	12838.489894	3204.446645	7626.693034
50.535500	-0.001799	-0.000945	0.011833	-0.003555	3966.855795	12989.538196	3214.126654	7712.136636
51.035500	0.000711	-0.001624	0.001698	0.020680	3921.334800	12436.379650	3197.011829	7457.405157
51.536000	-0.038718	-0.020529	-0.019075	0.194681	3576.778289	9076.254858	3121.904640	5992.116230
52.036000	-0.015348	-0.018137	0.000487	-0.029468	3993.797631	13190.790642	3221.799261	8000.701122
52.536500	-0.004664	-0.013208	0.009500	-0.077694	4133.249330	14508.835682	3254.568564	8585.810723
53.036000	-0.015384	-0.013270	0.027712	-0.049632	4039.334881	13791.386699	3248.617385	8237.468058
53.537000	-0.001162	-0.009746	0.006498	-0.060432	4098.964460	14150.987146	3242.470640	8368.875823
54.034500	0.002282	-0.004666	0.033833	-0.042793	4064.712445	13835.055451	3248.188228	8155.921794
54.535000	0.029846	0.005747	0.053319	-0.038876	4122.397060	13997.327650	3257.641635	8109.799769
55.035000	0.055814	0.015242	0.093713	-0.024526	4151.909667	13875.802424	3274.232335	7944.324881
55.534500	0.089092	0.029359	0.108139	0.011798	4144.095128	13337.058209	3260.217107	7549.114703
56.035500	0.110134	0.042641	0.140094	0.076215	4038.572805	12196.383840	3240.697432	6924.602879
56.536500	0.136504	0.053925	0.163588	0.120996	3996.870836	11518.737749	3228.667056	6541.924620
57.036000	0.156504	0.067358	0.162696	0.175105	3924.132553	10763.151083	3200.180471	6129.210526
57.539500	0.177637	0.076878	0.186337	0.206883	3902.578363	10378.686236	3196.264407	5909.740489
58.037000	0.199690	0.094119	0.209682	0.232076	3896.320091	10246.037529	3195.385059	5746.803838
58.537500	0.205910	0.098447	0.227536	0.247664	3877.915443	10062.317191	3196.464035	5650.623375
59.037500	0.226090	0.106286	0.233623	0.288179	3839.306888	9555.341399	3180.667182	5416.198335
59.535000	0.231140	0.116390	0.256387	0.308447	3811.573923	9405.281892	3181.770877	5306.882085
60.035000	0.239326	0.117998	0.257469	0.327879	3791.694235	9150.444270	3173.803518	5206.757632
60.535500	0.254345	0.125857	0.260666	0.341985	3793.288201	9063.575336	3169.223967	5136.832025
61.036000	0.251973	0.129503	0.291182	0.355317	3766.319487	8931.332851	3176.490416	5072.798730
61.536000	0.261839	0.130917	0.289085	0.350426	3791.635241	9017.075295	3177.699218	5096.061674
62.036500	0.264413	0.135439	0.287366	0.351538	3794.189066	9063.968045	3176.474183	5090.747150
62.536500	0.271630	0.139149	0.304029	0.353200	3803.976089	9092.305761	3183.056023	5082.833898
63.037000	0.274052	0.144807	0.281973	0.348907	3815.976217	9231.950062	3175.287087	5103.340284
63.537000	0.273303	0.142572	0.290744	0.346398	3819.152439	9235.834911	3180.183475	5115.417656
64.034500	0.282428	0.145336	0.296956	0.345811	3836.911220	9283.621863	3183.197348	5118.252814
64.535000	0.270610	0.141780	0.281562	0.337800	3829.902137	9347.718063	3179.927283	5157.342290
65.035500	0.284487	0.148748	0.295328	0.340425	3850.795983	9410.835063	3184.883626	5144.455207
65.536000	0.290666	0.150093	0.294616	0.341289	3860.853321	9417.855048	3184.174299	5140.225930
66.036000	0.287214	0.150189	0.286508	0.340779	3855.271351	9426.723752	3180.793101	5142.722985
66.536000	0.285036	0.147129	0.278792	0.339829	3852.950686	9395.903492	3177.830697	5147.371675
67.039500	0.290775	0.149884	0.285581	0.342664	3858.446091	9394.726738	3179.555896	5133.519966
67.536500	0.293853	0.151926	0.301995	0.345206	3859.465240	9387.449983	3185.734727	5121.180051
68.037000	0.286909	0.150109	0.309150	0.343323	3849.901641	9388.414608	3189.867994	5130.316530
68.535000	0.292786	0.153501	0.296430	0.346912	3854.210601	9385.541443	3182.471564	5112.936426
69.035000	0.287923	0.151054	0.329874	0.346392	3846.047930	9357.579535	3198.193881	5115.446923
69.535000	0.290910	0.152730	0.305988	0.348523	3847.650246	9350.992470	3186.041114	5105.183534
70.035500	0.294114	0.156890	0.305016	0.355354	3840.881387	9312.455853	3182.535806	5072.620261
70.536000	0.296221	0.157469	0.294823	0.353038	3849.143765	9354.229890	3179.060708	5083.604834
71.036500	0.293420	0.156724	0.299952	0.353868	3842.354648	9331.474038	3180.949230	5079.659790
71.536500	0.289498	0.154048	0.319415	0.349716	3842.784600	9352.794369	3191.665163	5099.459221
72.036500	0.292812	0.156301	0.318874	0.357587	3834.340350	9272.014394	3187.780962	5062.087860
72.537000	0.290948	0.153838	0.301278	0.352865	3839.624584	9304.370901	3181.980576	5084.425856
73.034500	0.294791	0.154457	0.308915	0.356271	3840.436809	9264.489236	3183.868203	5068.290877
73.535000	0.297229	0.156918	0.311458	0.359412	3839.131883	9254.777491	3183.599909	5053.517619
74.035000	0.288909	0.155364	0.291969	0.362919	3817.499430	9183.113615	3173.573990	5037.155894
74.535500	0.292090	0.156807	0.311633	0.364064	3821.181051	9187.301103	3181.606194	5031.840676
75.035500	0.292284	0.153356	0.320453	0.362580	3824.230491	9159.651465	3186.226317	5038.732088
75.535500	0.297092	0.153265	0.321321	0.363658	3831.047425	9143.278130	3186.130970	5033.724024
76.036500	0.291844	0.155490	0.293457	0.370479	3809.198810	9079.311221	3171.013769	5002.322526
76.539000	0.296264	0.152540	0.319873	0.367634	3822.278215	9077.868175	3183.686460	5015.360193
77.036500	0.298237	0.156678	0.311420	0.370633	3820.415961	9093.639401	3178.624631	5001.618940
77.537500	0.293734	0.155350	0.322216	0.371420	3810.894014	9064.362823	3183.041374	4998.028787
78.037000	0.294888	0.153003	0.307605	0.374371	3807.687405	8991.656686	3175.358765	4984.626965
78.535000	0.293988	0.155095	0.305193	0.375942	3803.295043	8998.763371	3173.659044	4977.525770
79.035000	0.297575	0.156816	0.304925	0.377144	3807.533745	9005.870203	3173.036198	4972.115379
79.535000	0.301709	0.154512	0.308622	0.376488	3816.113720	8983.364512	3174.887831	4975.065475
80.035500	0.295713	0.152889	0.310733	0.378929	3801.063016	8928.261748	3174.746661	4964.099913
80.536000	0.302211	0.158135	0.308047	0.380461	3809.886229	8978.603204	3172.953244	4957.250706
81.039000	0.297398	0.152125	0.307751	0.375335	3810.445286	8966.584002	3175.008345	4980.266267
81.536000	0.303054	0.157113	0.312621	0.381412	3809.693191	8951.805710	3174.492861	4953.009368
82.037000	0.300944	0.154820	0.302953	0.381596	3805.604493	8918.340656	3170.336304	4952.188888
82.537500	0.297959	0.152045	0.317661	0.377936	3806.806551	8930.281837	3178.162114	4968.555096
83.034500	0.301348	0.154607	0.328221	0.380659	3807.993194	8928.116672	3181.603404	4956.367628
83.534500	0.302545	0.156801	0.320591	0.381351	3808.894306	8948.411258	3177.951366	4953.283101
84.038000	0.297299	0.153972	0.321881	0.382681	3797.246263	8892.362198	3177.933928	4947.366694
84.535000	0.305801	0.155060	0.322667	0.382792	3812.139008	8905.474749	3178.227474	4946.873280
85.035500	0.302246	0.159020	0.293756	0.384473	3802.812915	8936.203327	3165.370114	4939.425618
85.536000	0.305499	0.156899	0.332673	0.383897	3809.621647	8915.357242	3182.141507	4941.972876
86.036500	0.304220	0.153889	0.319196	0.384499	3806.268938	8866.916892	3175.986724	4939.307793
86.537000	0.306089	0.155897	0.314635	0.385835	3807.218667	8875.900422	3173.468057	4933.411869
87.037000	0.305775	0.154476	0.343566	0.384415	3809.188829	8875.886011	3186.806938	4939.681395
87.535000	0.304023	0.157477	0.315728	0.388708	3798.472581	8858.627867	3172.713801	4920.784412
88.038000	0.309241	0.156942	0.314968	0.387751	3809.420160	8864.263272	3172.797270	4924.980328
88.535000	0.308324	0.158778	0.308589	0.391533	3801.075319	8838.349798	3168.551529	4908.453218
89.035500	0.306487	0.156429	0.307123	0.389618	3801.213218	8832.578657	3168.737110	4916.804022
89.535500	0.306366	0.159046	0.332147	0.391795	3797.165875	8838.441242	3178.435520	4907.316082
90.039000	0.300815	0.155276	0.337253	0.390300	3790.069339	8808.271140	3181.333682	4913.825590
90.539000	0.301828	0.153576	0.331233	0.388598	3794.810327	8808.298368	3179.432524	4921.266996
91.036500	0.310039	0.156786	0.321988	0.391901	3803.459227	8807.079975	3174.014646	4906.854585
91.537000	0.306099	0.155237	0.330353	0.393191	3794.247022	8769.674995	3177.050225	4901.251557
92.037000	0.304980	0.156123	0.320050	0.395099	3788.965703	8756.277840	3171.841734	4892.998966
92.535000	0.307022	0.159027	0.319619	0.397033	3789.154048	8768.997847	3170.849911	4884.672588
93.035000	0.304717	0.155042	0.339840	0.394953	3788.763079	8744.046051	3180.421955	4893.632134
93.535000	0.305976	0.157662	0.327979	0.399053	3783.840564	8724.727772	3173.521247	4876.012857
94.035000	0.307140	0.157374	0.336616	0.398180	3787.365511	8732.358967	3177.602374	4879.751157
94.535500	0.307622	0.155350	0.325280	0.395729	3792.473159	8737.928545	3173.787062	4890.284972
95.036000	0.301449	0.157884	0.319351	0.399962	3774.512347	8715.788352	3169.517583	4872.131703
95.536000	0.310525	0.156492	0.294424	0.399557	3790.858491	8702.970823	3159.617892	4873.859626
96.040000	0.317041	0.156960	0.326066	0.401813	3798.319760	8679.817428	3171.548566	4864.248865
96.537000	0.311211	0.156472	0.327693	0.399845	3791.553322	8698.973547	3173.064290	4872.631342
