sample name	sample
index	178
start time	 02-18-2021  11:03:51 AM


Wavelength (nm)	Absorbance
494.344910	-0.158508
494.563924	-0.158508
494.782919	-0.158508
495.001897	-0.161797
495.220856	-0.066995
495.439797	-0.044002
495.658719	-0.039303
495.877624	-0.032038
496.096510	-0.011753
496.315378	-0.026714
496.534227	-0.034361
496.753059	-0.054210
496.971872	-0.058963
497.190667	0.094903
497.409444	0.142704
497.628203	0.154260
497.846943	0.161303
498.065665	0.166488
498.284369	0.170761
498.503055	0.172640
498.721723	0.173991
498.940372	0.174966
499.159003	0.176206
499.377616	0.175076
499.596210	0.176000
499.814787	0.175819
500.033345	0.175956
500.251885	0.174997
500.470406	0.174345
500.688910	0.174710
500.907395	0.174843
501.125862	0.174845
501.344311	0.176536
501.562742	0.177339
501.781154	0.178095
501.999548	0.177281
502.217924	0.179421
502.436282	0.180429
502.654621	0.181150
502.872942	0.181546
503.091245	0.181274
503.309530	0.180049
503.527797	0.178865
503.746045	0.178332
503.964275	0.178721
504.182487	0.177861
504.400681	0.178091
504.618856	0.178017
504.837013	0.178199
505.055152	0.178612
505.273273	0.179386
505.491376	0.180633
505.709460	0.181454
505.927526	0.180824
506.145574	0.180837
506.363604	0.179921
506.581615	0.180184
506.799608	0.180724
507.017583	0.180184
507.235540	0.180079
507.453478	0.178583
507.671399	0.177780
507.889301	0.178803
508.107185	0.178949
508.325050	0.180073
508.542898	0.179156
508.760727	0.178997
508.978538	0.180522
509.196330	0.180473
509.414105	0.181825
509.631861	0.182353
509.849599	0.181802
510.067319	0.182147
510.285021	0.182887
510.502704	0.184146
510.720369	0.184961
510.938016	0.184390
511.155645	0.185024
511.373255	0.185492
511.590848	0.186104
511.808422	0.186900
512.025977	0.186495
512.243515	0.185170
512.461034	0.184896
512.678536	0.184487
512.896018	0.184202
513.113483	0.184480
513.330930	0.183872
513.548358	0.183789
513.765768	0.184272
513.983160	0.185235
514.200533	0.186403
514.417889	0.186667
514.635226	0.186337
514.852545	0.188019
515.069845	0.188482
515.287128	0.189256
515.504392	0.188993
515.721638	0.188334
515.938866	0.188128
516.156075	0.189016
516.373267	0.188793
516.590440	0.189953
516.807594	0.189020
517.024731	0.189231
517.241850	0.189524
517.458950	0.190755
517.676032	0.192383
517.893095	0.191755
518.110141	0.191685
518.327168	0.191634
518.544177	0.192172
518.761168	0.191971
518.978141	0.192011
519.195095	0.192199
519.412031	0.192125
519.628949	0.191677
519.845849	0.192385
520.062731	0.191854
520.279594	0.193021
520.496439	0.193085
520.713266	0.193823
520.930074	0.193192
521.146865	0.193387
521.363637	0.193389
521.580391	0.193507
521.797127	0.193814
522.013844	0.194414
522.230543	0.193751
522.447224	0.194665
522.663887	0.195194
522.880532	0.196475
523.097158	0.197632
523.313766	0.197477
523.530356	0.198295
523.746928	0.198515
523.963481	0.198922
524.180017	0.199517
524.396534	0.199439
524.613032	0.199556
524.829513	0.199252
525.045975	0.198786
525.262420	0.199640
525.478845	0.199355
525.695253	0.199565
525.911643	0.199374
526.128014	0.199170
526.344367	0.198542
526.560702	0.199283
526.777018	0.200407
526.993316	0.200880
527.209597	0.200550
527.425858	0.200560
527.642102	0.201042
527.858328	0.201714
528.074535	0.202983
528.290724	0.203373
528.506894	0.202539
528.723047	0.202024
528.939181	0.201952
529.155297	0.202893
529.371395	0.203061
529.587475	0.204049
529.803536	0.203876
530.019579	0.204141
530.235604	0.204307
530.451611	0.205817
530.667600	0.206842
530.883570	0.207104
531.099522	0.207036
531.315456	0.207823
531.531372	0.207374
531.747269	0.208215
531.963148	0.208399
532.179009	0.209025
532.394852	0.208374
532.610676	0.207849
532.826482	0.208285
533.042271	0.209716
533.258040	0.209788
533.473792	0.210621
533.689525	0.210664
533.905240	0.210397
534.120937	0.210314
534.336616	0.210831
534.552277	0.211135
534.767919	0.211465
534.983543	0.211016
535.199149	0.211883
535.414736	0.211074
535.630306	0.211615
535.845857	0.212954
536.061390	0.213898
536.276904	0.214849
536.492401	0.215562
536.707879	0.216291
536.923339	0.217276
537.138781	0.217331
537.354204	0.217901
537.569610	0.218569
537.784997	0.217960
538.000366	0.218120
538.215716	0.217741
538.431049	0.217807
538.646363	0.217361
538.861659	0.216734
539.076937	0.217121
539.292196	0.217669
539.507438	0.217689
539.722661	0.218462
539.937866	0.218814
540.153052	0.220015
540.368221	0.220367
540.583371	0.221207
540.798503	0.221786
541.013617	0.222309
541.228712	0.222916
541.443789	0.223658
541.658848	0.223712
541.873889	0.224203
542.088912	0.223774
542.303916	0.224551
542.518902	0.224660
542.733870	0.225662
542.948820	0.225726
543.163752	0.225694
543.378665	0.225516
543.593560	0.225516
543.808437	0.225800
544.023295	0.226815
544.238136	0.227040
544.452958	0.227934
544.667762	0.227255
544.882548	0.227634
545.097315	0.227568
545.312064	0.228201
545.526795	0.228936
545.741508	0.228977
545.956203	0.229001
546.170879	0.228666
546.385537	0.227845
546.600177	0.228703
546.814799	0.228982
547.029402	0.229992
547.243988	0.230107
547.458555	0.230798
547.673103	0.231461
547.887634	0.231610
548.102146	0.232079
548.316640	0.233261
548.531116	0.233557
548.745574	0.233888
548.960013	0.234038
549.174435	0.233789
549.388838	0.233594
549.603222	0.233563
549.817589	0.233804
550.031937	0.234254
550.246267	0.233867
550.460579	0.234050
550.674873	0.234103
550.889148	0.234280
551.103405	0.234801
551.317644	0.234865
551.531865	0.235540
551.746068	0.235812
551.960252	0.236097
552.174418	0.236802
552.388566	0.237000
552.602696	0.237315
552.816807	0.237772
553.030900	0.237952
553.244975	0.238742
553.459032	0.238518
553.673070	0.238959
553.887091	0.238881
554.101093	0.238922
554.315077	0.239060
554.529042	0.239386
554.742990	0.239110
554.956919	0.239070
555.170830	0.238722
555.384722	0.238830
555.598597	0.238208
555.812453	0.238730
556.026291	0.239013
556.240111	0.239207
556.453913	0.239376
556.667696	0.239963
556.881461	0.241012
557.095208	0.241288
557.308937	0.241711
557.522647	0.242470
557.736339	0.243099
557.950013	0.243468
558.163669	0.244043
558.377307	0.244197
558.590926	0.244272
558.804527	0.243548
559.018110	0.243877
559.231675	0.244171
559.445221	0.244609
559.658749	0.244409
559.872259	0.244402
560.085751	0.244601
560.299225	0.244817
560.512680	0.245373
560.726117	0.246278
560.939536	0.246711
561.152937	0.246411
561.366319	0.246207
561.579683	0.246428
561.793029	0.246911
562.006357	0.246972
562.219667	0.247050
562.432958	0.247257
562.646231	0.247351
562.859486	0.247393
563.072723	0.247812
563.285941	0.248107
563.499141	0.248160
563.712323	0.248091
563.925487	0.248255
564.138632	0.248435
564.351760	0.248046
564.564869	0.247998
564.777960	0.248557
564.991032	0.248999
565.204087	0.249498
565.417123	0.250011
565.630141	0.250266
565.843140	0.250290
566.056122	0.250969
566.269085	0.251584
566.482030	0.251634
566.694957	0.251866
566.907866	0.252092
567.120756	0.252315
567.333628	0.252237
567.546482	0.252607
567.759318	0.253205
567.972135	0.253063
568.184935	0.253460
568.397716	0.254639
568.610478	0.254636
568.823223	0.254516
569.035949	0.254936
569.248657	0.255401
569.461347	0.255882
569.674019	0.255753
569.886672	0.255802
570.099308	0.255867
570.311925	0.255732
570.524523	0.255742
570.737104	0.256160
570.949666	0.256091
571.162210	0.256197
571.374736	0.255997
571.587244	0.256332
571.799733	0.256522
572.012205	0.256749
572.224658	0.256687
572.437092	0.256885
572.649509	0.257621
572.861907	0.258085
573.074287	0.258277
573.286649	0.258661
573.498993	0.258299
573.711318	0.258960
573.923625	0.258987
574.135914	0.259242
574.348185	0.259085
574.560438	0.258800
574.772672	0.258765
574.984888	0.258960
575.197086	0.258867
575.409266	0.259793
575.621427	0.260005
575.833570	0.260179
576.045695	0.260574
576.257802	0.261227
576.469890	0.261341
576.681961	0.261574
576.894013	0.261914
577.106046	0.262353
577.318062	0.262309
577.530059	0.262282
577.742039	0.262641
577.954000	0.262538
578.165942	0.262303
578.377867	0.262678
578.589773	0.262811
578.801661	0.262935
579.013531	0.262940
579.225382	0.263277
579.437216	0.263402
579.649031	0.263307
579.860828	0.263296
580.072606	0.264061
580.284367	0.264004
580.496109	0.263939
580.707833	0.263815
580.919539	0.263908
581.131227	0.264029
581.342896	0.264424
581.554547	0.264870
581.766180	0.265044
581.977795	0.264764
582.189391	0.265385
582.400969	0.265378
582.612529	0.266071
582.824071	0.265951
583.035595	0.266028
583.247100	0.266221
583.458587	0.266405
583.670056	0.267024
583.881506	0.267526
584.092939	0.267798
584.304353	0.268559
584.515749	0.268552
584.727127	0.269262
584.938486	0.269150
585.149828	0.269282
585.361151	0.269493
585.572456	0.269681
585.783742	0.269986
585.995011	0.269988
586.206261	0.270146
586.417493	0.270295
586.628706	0.270798
586.839902	0.271227
587.051079	0.271202
587.262238	0.271191
587.473379	0.271068
587.684502	0.271393
587.895606	0.271527
588.106692	0.271695
588.317760	0.271845
588.528810	0.271586
588.739841	0.272374
588.950855	0.272696
589.161850	0.273113
589.372827	0.273946
589.583785	0.274008
589.794726	0.274162
590.005648	0.274374
590.216552	0.274571
590.427437	0.275252
590.638305	0.275064
590.849154	0.275782
591.059985	0.276096
591.270798	0.275946
591.481592	0.276116
591.692369	0.276241
591.903127	0.276569
592.113867	0.277218
592.324588	0.277149
592.535292	0.277534
592.745977	0.277203
592.956644	0.277322
593.167293	0.276986
593.377923	0.277245
593.588536	0.277403
593.799130	0.277340
594.009706	0.277572
594.220263	0.277992
594.430803	0.278185
594.641324	0.278269
594.851827	0.278495
595.062312	0.278711
595.272778	0.278643
595.483227	0.278925
595.693657	0.279334
595.904069	0.279228
596.114462	0.279461
596.324838	0.279447
596.535195	0.279690
596.745534	0.279925
596.955855	0.280504
597.166157	0.280764
597.376441	0.280890
597.586707	0.280907
597.796955	0.280943
598.007185	0.281039
598.217396	0.281225
598.427589	0.281498
598.637764	0.281428
598.847921	0.281746
599.058060	0.282070
599.268180	0.282367
599.478282	0.283027
599.688366	0.283183
599.898431	0.283629
600.108479	0.283910
600.318508	0.284056
600.528519	0.284673
600.738511	0.284959
600.948486	0.285075
601.158442	0.285272
601.368380	0.284862
601.578300	0.285188
601.788202	0.284957
601.998085	0.285241
602.207950	0.285569
602.417797	0.285275
602.627626	0.285223
602.837436	0.285372
603.047228	0.285578
603.257002	0.285748
603.466758	0.286151
603.676496	0.286279
603.886215	0.286370
604.095916	0.286506
604.305599	0.286840
604.515264	0.287106
604.724910	0.287359
604.934538	0.287477
605.144148	0.288103
605.353740	0.288314
605.563314	0.288583
605.772869	0.288329
605.982406	0.288187
606.191925	0.288507
606.401425	0.288566
606.610908	0.288958
606.820372	0.289215
607.029818	0.289296
607.239246	0.289161
607.448655	0.289260
607.658047	0.289677
607.867420	0.289887
608.076775	0.290112
608.286111	0.290550
608.495430	0.290662
608.704730	0.290843
608.914012	0.290788
609.123275	0.291097
609.332521	0.291546
609.541748	0.291798
609.750957	0.292194
609.960148	0.292313
610.169321	0.292359
610.378475	0.292558
610.587611	0.292610
610.796729	0.292865
611.005829	0.292824
611.214910	0.292528
611.423974	0.292808
611.633019	0.293170
611.842045	0.293236
612.051054	0.293625
612.260044	0.293765
612.469017	0.293855
612.677970	0.293852
612.886906	0.294020
613.095824	0.294284
613.304723	0.294278
613.513604	0.294516
613.722467	0.294749
613.931311	0.294661
614.140138	0.294432
614.348946	0.294624
614.557736	0.295176
614.766507	0.295471
614.975261	0.295463
615.183996	0.295653
615.392713	0.295653
615.601412	0.295573
615.810092	0.295700
616.018754	0.296021
616.227399	0.296241
616.436024	0.296422
616.644632	0.296699
616.853222	0.297353
617.061793	0.297405
617.270346	0.297454
617.478880	0.297917
617.687397	0.297975
617.895895	0.298082
618.104375	0.298316
618.312837	0.298182
618.521281	0.298345
618.729706	0.298279
618.938113	0.298669
619.146502	0.298853
619.354873	0.298922
619.563226	0.299103
619.771560	0.299534
619.979876	0.299613
620.188174	0.299692
620.396453	0.299590
620.604715	0.299961
620.812958	0.300269
621.021183	0.300410
621.229390	0.300750
621.437578	0.301036
621.645748	0.301025
621.853900	0.301162
622.062034	0.301687
622.270150	0.302118
622.478247	0.302236
622.686326	0.302245
622.894387	0.302523
623.102430	0.302661
623.310454	0.303264
623.518461	0.303454
623.726449	0.303713
623.934418	0.303666
624.142370	0.303733
624.350303	0.303745
624.558218	0.303884
624.766115	0.304068
624.973994	0.304060
625.181855	0.304051
625.389697	0.304513
625.597521	0.304641
625.805327	0.304653
626.013114	0.305127
626.220883	0.305184
626.428634	0.305303
626.636367	0.305477
626.844082	0.305581
627.051778	0.305727
627.259457	0.305521
627.467117	0.305700
627.674758	0.306028
627.882382	0.305863
628.089987	0.306203
628.297574	0.306375
628.505143	0.306495
628.712694	0.306880
628.920226	0.306788
629.127740	0.306865
629.335236	0.307147
629.542714	0.307506
629.750174	0.307918
629.957615	0.307990
630.165038	0.308324
630.372443	0.308425
630.579829	0.308628
630.787198	0.308822
630.994548	0.309130
631.201880	0.309496
631.409194	0.309430
631.616489	0.309506
631.823766	0.309616
632.031025	0.309213
632.238266	0.309534
632.445489	0.309632
632.652693	0.310004
632.859879	0.310039
633.067047	0.309929
633.274197	0.309952
633.481329	0.310198
633.688442	0.310334
633.895537	0.310813
634.102614	0.310956
634.309672	0.311198
634.516713	0.311269
634.723735	0.311709
634.930739	0.312117
635.137724	0.312376
635.344692	0.312328
635.551641	0.312824
635.758572	0.313308
635.965485	0.313232
636.172379	0.313302
636.379256	0.313049
636.586114	0.313308
636.792954	0.313434
636.999775	0.313771
637.206579	0.313889
637.413364	0.313882
637.620131	0.314031
637.826880	0.314532
638.033610	0.314587
638.240323	0.315118
638.447017	0.315172
638.653692	0.315173
638.860350	0.315559
639.066990	0.315798
639.273611	0.316005
639.480214	0.316232
639.686798	0.316534
639.893365	0.316999
640.099913	0.317357
640.306443	0.317469
640.512955	0.317626
640.719449	0.317782
640.925924	0.318113
641.132381	0.318703
641.338820	0.318772
641.545241	0.318605
641.751644	0.318640
641.958028	0.318689
642.164394	0.319011
642.370742	0.319388
642.577071	0.319404
642.783383	0.319540
642.989676	0.319299
643.195951	0.319352
643.402207	0.319770
643.608446	0.319931
643.814666	0.320253
644.020868	0.320477
644.227052	0.320263
644.433218	0.320507
644.639365	0.320484
644.845494	0.320743
645.051605	0.321015
645.257698	0.321236
645.463772	0.321303
645.669828	0.321117
645.875866	0.321076
646.081886	0.321571
646.287888	0.321632
646.493871	0.321768
646.699836	0.322045
646.905783	0.322139
647.111712	0.322267
647.317622	0.322812
647.523514	0.323530
647.729388	0.324024
647.935244	0.324210
648.141082	0.324565
648.346901	0.325033
648.552702	0.325269
648.758485	0.325778
648.964250	0.325868
649.169996	0.326085
649.375724	0.326146
649.581434	0.326417
649.787126	0.326780
649.992800	0.326915
650.198455	0.327144
650.404092	0.327596
650.609711	0.327691
650.815311	0.327924
651.020894	0.327836
651.226458	0.327852
651.432004	0.327970
651.637532	0.328077
651.843041	0.328051
652.048532	0.328219
652.254006	0.328083
652.459460	0.328143
652.664897	0.328575
652.870315	0.328918
653.075716	0.329156
653.281097	0.329382
653.486461	0.329637
653.691807	0.330260
653.897134	0.330449
654.102443	0.330879
654.307734	0.331419
654.513006	0.331706
654.718261	0.331880
654.923497	0.332166
655.128715	0.332421
655.333915	0.332657
655.539096	0.332699
655.744259	0.333003
655.949404	0.333054
656.154531	0.332975
656.359640	0.332722
656.564730	0.332997
656.769802	0.333060
656.974856	0.333171
657.179892	0.333388
657.384909	0.333830
657.589908	0.334094
657.794889	0.334326
657.999852	0.334520
658.204797	0.334925
658.409723	0.334981
658.614631	0.335312
658.819521	0.335487
659.024393	0.335643
659.229246	0.335677
659.434081	0.335860
659.638898	0.336289
659.843697	0.336671
660.048478	0.337156
660.253240	0.337598
660.457984	0.338030
660.662710	0.338423
660.867417	0.338561
661.072107	0.338790
661.276778	0.338758
661.481431	0.338734
661.686066	0.338966
661.890682	0.339081
662.095281	0.339246
662.299861	0.339509
662.504422	0.339505
662.708966	0.339687
662.913491	0.339827
663.117999	0.340350
663.322488	0.340656
663.526958	0.341020
663.731411	0.341300
663.935845	0.341776
664.140261	0.341862
664.344659	0.342338
664.549038	0.342527
664.753400	0.342848
664.957743	0.342865
665.162068	0.343290
665.366375	0.343201
665.570663	0.343397
665.774933	0.343435
665.979185	0.343596
666.183419	0.343716
666.387635	0.344385
666.591832	0.344550
666.796011	0.345037
667.000172	0.345152
667.204315	0.345693
667.408439	0.345778
667.612545	0.346143
667.816634	0.346160
668.020703	0.346282
668.224755	0.346369
668.428788	0.346739
668.632803	0.346746
668.836800	0.346722
669.040779	0.346787
669.244739	0.346743
669.448681	0.346879
669.652605	0.347477
669.856511	0.347838
670.060399	0.347902
670.264268	0.348114
670.468119	0.348228
670.671952	0.348469
670.875767	0.348896
671.079563	0.349590
671.283341	0.349567
671.487101	0.349783
671.690843	0.350095
671.894567	0.350333
672.098272	0.350389
672.301959	0.350982
672.505628	0.351124
672.709278	0.351534
672.912911	0.351743
673.116525	0.352022
673.320121	0.352441
673.523699	0.352553
673.727258	0.352486
673.930799	0.352745
674.134322	0.353046
674.337827	0.353418
674.541314	0.353272
674.744782	0.353442
674.948232	0.353754
675.151664	0.353913
675.355078	0.354199
675.558474	0.354691
675.761851	0.354814
675.965210	0.354927
676.168551	0.355222
676.371873	0.355394
676.575178	0.355875
676.778464	0.356354
676.981732	0.356522
677.184981	0.356877
677.388213	0.357208
677.591426	0.357418
677.794621	0.357527
677.997798	0.357943
678.200956	0.358326
678.404097	0.358337
678.607219	0.358565
678.810323	0.358840
679.013408	0.359127
679.216476	0.359523
679.419525	0.359879
679.622556	0.360511
679.825569	0.360842
680.028563	0.361336
680.231540	0.361518
680.434498	0.361605
680.637438	0.361625
680.840359	0.361713
681.043263	0.362085
681.246148	0.362386
681.449015	0.362269
681.651864	0.362349
681.854694	0.362433
682.057506	0.362683
682.260301	0.362900
682.463076	0.363209
682.665834	0.363493
682.868573	0.363806
683.071295	0.364317
683.273998	0.364739
683.476682	0.365086
683.679349	0.365394
683.881997	0.365762
684.084627	0.366052
684.287239	0.366001
684.489833	0.366127
684.692408	0.365935
684.894965	0.365955
685.097504	0.366013
685.300025	0.366070
685.502527	0.366208
685.705012	0.366419
685.907478	0.366588
686.109925	0.367099
686.312355	0.367446
686.514766	0.367833
686.717159	0.368343
686.919534	0.368654
687.121891	0.369011
687.324230	0.368978
687.526550	0.369187
687.728852	0.369430
687.931136	0.369516
688.133401	0.369637
688.335649	0.369715
688.537878	0.369772
688.740089	0.369915
688.942281	0.369977
689.144456	0.370218
689.346612	0.370190
689.548750	0.370542
689.750870	0.371156
689.952971	0.371331
690.155055	0.371612
690.357120	0.371775
690.559167	0.372021
690.761195	0.372388
690.963206	0.372496
691.165198	0.372613
691.367172	0.372699
691.569128	0.372563
691.771065	0.372690
691.972984	0.372798
692.174885	0.372950
692.376768	0.373095
692.578633	0.373094
692.780479	0.373288
692.982308	0.373550
693.184118	0.373748
693.385909	0.373944
693.587683	0.374460
693.789438	0.374670
693.991175	0.374740
694.192894	0.375123
694.394595	0.375332
694.596277	0.375638
694.797941	0.376114
694.999587	0.376402
695.201215	0.376558
695.402824	0.376685
695.604416	0.376624
695.805989	0.376724
696.007543	0.376804
696.209080	0.376994
696.410598	0.377228
696.612099	0.377432
696.813580	0.377335
697.015044	0.377491
697.216490	0.377542
697.417917	0.377957
697.619326	0.378279
697.820717	0.378208
698.022089	0.378417
698.223444	0.378677
698.424780	0.378881
698.626098	0.379173
698.827397	0.379591
699.028679	0.379620
699.229942	0.379658
699.431187	0.379824
699.632414	0.380132
699.833622	0.380171
700.034813	0.380346
700.235985	0.380121
700.437139	0.380248
700.638274	0.380149
700.839392	0.380477
701.040491	0.380830
701.241572	0.381036
701.442635	0.381143
701.643679	0.381509
701.844706	0.381448
702.045714	0.381551
702.246704	0.381557
702.447675	0.381603
702.648629	0.381467
702.849564	0.381667
703.050481	0.381877
703.251380	0.382038
703.452260	0.381915
703.653122	0.382049
703.853966	0.382282
704.054792	0.382597
704.255600	0.382648
704.456389	0.382576
704.657160	0.382218
704.857913	0.382127
705.058648	0.382008
705.259365	0.381855
705.460063	0.381662
705.660743	0.381756
705.861405	0.381490
706.062048	0.381883
706.262674	0.381958
706.463281	0.382026
706.663870	0.382020
706.864441	0.382255
707.064993	0.382649
707.265527	0.382863
707.466043	0.383017
707.666541	0.383140
707.867021	0.383154
708.067482	0.383519
708.267925	0.383698
708.468350	0.383678
708.668757	0.383687
708.869145	0.383554
709.069516	0.383600
709.269868	0.383491
709.470201	0.383747
709.670517	0.383659
709.870814	0.383613
710.071093	0.383764
710.271354	0.383835
710.471597	0.383603
710.671821	0.383892
710.872028	0.384019
711.072216	0.384155
711.272385	0.383905
711.472537	0.384123
711.672670	0.384048
711.872785	0.383960
712.072882	0.383749
712.272961	0.384055
712.473021	0.383855
712.673063	0.384042
712.873087	0.384099
713.073093	0.384335
713.273081	0.383938
713.473050	0.384002
713.673001	0.384078
713.872934	0.384166
714.072849	0.384091
714.272745	0.383932
714.472623	0.383697
714.672483	0.383513
714.872325	0.383288
715.072148	0.383406
715.271954	0.383346
715.471741	0.383232
715.671509	0.383601
715.871260	0.383210
716.070992	0.383266
716.270707	0.383251
716.470403	0.383489
716.670080	0.383694
716.869740	0.383830
717.069381	0.383829
717.269004	0.383826
717.468609	0.383431
717.668195	0.383584
717.867764	0.383682
718.067314	0.383613
718.266846	0.383553
718.466360	0.383354
718.665855	0.383194
718.865332	0.383009
719.064791	0.383020
719.264232	0.383232
719.463655	0.383493
719.663059	0.383396
719.862445	0.383348
720.061813	0.383037
720.261163	0.382979
720.460494	0.383010
720.659807	0.383138
720.859102	0.383132
721.058379	0.382883
721.257638	0.383063
721.456878	0.383097
721.656100	0.382883
721.855304	0.382800
722.054490	0.382682
722.253657	0.382686
722.452806	0.382662
722.651937	0.382580
722.851050	0.382730
723.050145	0.382423
723.249221	0.382054
723.448279	0.381973
723.647319	0.381809
723.846340	0.381913
724.045344	0.381596
724.244329	0.381388
724.443296	0.381208
724.642245	0.381352
724.841175	0.381058
725.040088	0.381273
725.238982	0.381338
725.437857	0.381043
725.636715	0.380830
725.835554	0.380876
726.034376	0.381066
726.233179	0.381172
726.431963	0.380485
726.630730	0.380249
726.829478	0.380029
727.028208	0.380091
727.226920	0.380135
727.425614	0.379983
727.624289	0.379582
727.822946	0.379150
728.021585	0.378798
728.220206	0.379104
728.418808	0.379194
728.617392	0.379110
728.815958	0.378905
729.014506	0.378663
729.213036	0.378590
729.411547	0.378540
729.610040	0.378557
729.808515	0.378418
730.006972	0.377992
730.205410	0.377709
730.403831	0.377470
730.602233	0.377488
730.800616	0.377489
730.998982	0.377358
731.197329	0.377284
731.395658	0.377062
731.593969	0.376920
731.792262	0.376488
731.990536	0.376356
732.188793	0.376461
732.387031	0.375825
732.585250	0.375745
732.783452	0.375541
732.981635	0.375271
733.179800	0.375175
733.377947	0.375175
733.576076	0.375063
733.774186	0.375262
733.972278	0.374862
734.170352	0.375026
734.368408	0.374723
734.566446	0.374457
734.764465	0.374184
734.962466	0.373989
735.160449	0.373689
735.358413	0.373628
735.556360	0.373303
735.754288	0.372997
735.952198	0.372484
736.150090	0.372227
736.347963	0.371977
736.545818	0.372237
736.743655	0.372169
736.941474	0.371881
737.139275	0.371649
737.337057	0.371363
737.534821	0.371400
737.732567	0.371479
737.930295	0.371482
738.128005	0.371379
738.325696	0.371052
738.523369	0.370793
738.721024	0.370675
738.918660	0.370715
739.116279	0.370600
739.313879	0.370105
739.511461	0.369787
739.709024	0.369721
739.906570	0.369775
740.104097	0.369431
740.301606	0.369237
740.499097	0.369235
740.696569	0.369060
740.894024	0.368826
741.091460	0.368939
741.288878	0.368862
741.486277	0.368469
741.683659	0.368182
741.881022	0.368005
742.078367	0.367591
742.275694	0.367380
742.473002	0.367113
742.670293	0.366859
742.867565	0.366747
743.064819	0.366552
743.262054	0.366737
743.459272	0.366477
743.656471	0.366725
743.853652	0.366751
744.050815	0.366265
744.247959	0.366080
744.445085	0.365953
744.642194	0.365703
744.839283	0.365494
745.036355	0.364965
745.233408	0.364649
745.430444	0.363885
745.627461	0.363384
745.824459	0.363248
746.021440	0.363027
746.218402	0.362522
746.415346	0.362130
746.612272	0.361624
746.809180	0.361552
747.006069	0.361527
747.202940	0.361282
747.399793	0.361373
747.596628	0.361012
747.793444	0.360558
747.990243	0.360492
748.187023	0.360564
748.383784	0.360512
748.580528	0.360416
748.777253	0.360079
748.973960	0.360055
749.170649	0.359924
749.367320	0.360076
749.563973	0.360209
749.760607	0.360350
749.957223	0.360012
750.153821	0.359878
750.350400	0.359749
750.546962	0.359555
750.743505	0.359160
750.940030	0.358483
751.136536	0.358168
751.333025	0.357696
751.529495	0.356911
751.725947	0.356619
751.922381	0.356583
752.118796	0.356015
752.315194	0.355723
752.511573	0.355402
752.707934	0.355544
752.904276	0.355612
753.100601	0.355369
753.296907	0.355419
753.493195	0.355300
753.689465	0.355029
753.885716	0.355135
754.081949	0.355283
754.278164	0.355602
754.474361	0.355508
754.670540	0.354954
754.866700	0.354923
755.062843	0.354815
755.258967	0.354432
755.455072	0.354370
755.651160	0.353897
755.847229	0.353640
756.043280	0.353384
756.239313	0.352914
756.435328	0.352890
756.631324	0.352699
756.827302	0.352681
757.023262	0.352851
757.219204	0.352404
757.415127	0.352636
757.611033	0.352485
757.806920	0.352385
758.002788	0.352191
758.198639	0.352209
758.394471	0.352213
758.590286	0.351758
758.786081	0.351385
758.981859	0.351265
759.177619	0.350809
759.373360	0.350572
759.569083	0.350336
759.764788	0.350177
759.960474	0.349668
760.156143	0.349513
760.351793	0.349474
760.547425	0.349281
760.743038	0.349540
760.938634	0.349229
761.134211	0.348840
761.329770	0.348126
761.525311	0.347999
761.720833	0.347997
761.916338	0.347694
762.111824	0.347523
762.307292	0.347459
762.502741	0.347028
762.698173	0.346961
762.893586	0.346949
763.088981	0.347197
763.284358	0.347128
763.479716	0.346905
763.675057	0.346833
763.870379	0.346874
764.065683	0.346780
764.260968	0.346547
764.456236	0.346501
764.651485	0.346596
764.846716	0.346678
765.041929	0.346428
765.237123	0.346633
765.432299	0.346192
765.627457	0.345859
765.822597	0.345587
766.017719	0.345609
766.212822	0.345600
766.407907	0.345137
766.602974	0.344758
766.798023	0.344694
766.993054	0.344192
767.188066	0.344427
767.383060	0.344222
767.578036	0.344198
767.772993	0.343792
767.967933	0.343572
768.162854	0.343674
768.357757	0.343574
768.552642	0.343484
768.747508	0.343465
768.942356	0.343160
769.137186	0.343225
769.331998	0.343002
769.526792	0.343096
769.721567	0.342974
769.916324	0.342574
770.111063	0.342418
770.305784	0.342419
770.500486	0.342142
770.695171	0.342317
770.889837	0.342260
771.084484	0.341945
771.279114	0.341736
771.473725	0.341604
771.668318	0.341711
771.862893	0.341621
772.057450	0.341493
772.251988	0.341572
772.446509	0.341285
772.641011	0.341080
772.835494	0.341251
773.029960	0.341203
773.224407	0.341370
773.418836	0.341595
773.613247	0.341546
773.807640	0.341175
774.002014	0.341180
774.196370	0.341474
774.390708	0.341528
774.585028	0.341598
774.779330	0.341468
774.973613	0.341152
775.167878	0.340678
775.362125	0.340707
775.556354	0.341023
775.750564	0.340792
775.944756	0.340305
776.138930	0.339852
776.333086	0.339897
776.527223	0.340267
776.721343	0.340354
776.915444	0.340451
777.109526	0.340196
777.303591	0.339941
777.497637	0.340316
777.691666	0.340595
777.885676	0.340733
778.079667	0.340518
778.273641	0.340090
778.467596	0.339848
778.661533	0.339665
778.855452	0.339643
779.049352	0.339569
779.243235	0.339471
779.437099	0.339069
779.630945	0.339110
779.824773	0.338666
780.018582	0.338718
780.212373	0.338417
780.406146	0.338260
780.599901	0.338432
780.793638	0.338437
780.987356	0.338210
781.181056	0.338264
781.374738	0.338413
781.568402	0.338564
781.762047	0.338282
781.955674	0.338628
782.149283	0.338773
782.342874	0.338645
782.536447	0.338549
782.730001	0.338325
782.923537	0.338417
783.117055	0.338182
783.310555	0.338214
783.504036	0.338390
783.697499	0.338430
783.890944	0.338412
784.084371	0.338456
784.277780	0.338807
784.471170	0.338716
784.664542	0.338437
784.857896	0.338373
785.051231	0.338412
785.244549	0.338342
785.437848	0.338186
785.631129	0.338239
785.824392	0.338157
786.017636	0.338104
786.210863	0.338352
786.404071	0.338682
786.597260	0.338788
786.790432	0.338915
786.983585	0.339114
787.176721	0.339168
787.369838	0.339337
787.562936	0.339603
787.756017	0.339511
787.949079	0.339389
788.142123	0.339409
788.335149	0.339520
788.528156	0.339237
788.721146	0.339261
788.914117	0.339425
789.107070	0.339212
789.300005	0.339235
789.492921	0.339105
789.685819	0.338886
789.878699	0.338689
790.071561	0.338814
790.264405	0.339175
790.457230	0.338944
790.650037	0.338667
790.842826	0.338869
791.035597	0.338750
791.228349	0.339276
791.421084	0.339905
791.613800	0.340079
791.806497	0.340094
791.999177	0.340149
792.191838	0.340403
792.384481	0.340796
792.577106	0.340860
792.769713	0.341040
792.962301	0.340698
793.154871	0.340463
793.347423	0.340550
793.539957	0.340453
793.732473	0.340315
793.924970	0.340482
794.117449	0.340569
794.309910	0.340951
794.502353	0.341002
794.694777	0.341103
794.887183	0.341450
795.079571	0.341522
795.271941	0.341740
795.464293	0.342075
795.656626	0.342324
795.848941	0.342355
796.041238	0.342200
796.233516	0.342466
796.425777	0.342811
796.618019	0.342754
796.810243	0.343120
797.002449	0.343367
797.194636	0.343651
797.386805	0.343783
797.578956	0.344172
797.771089	0.344472
797.963204	0.344474
798.155300	0.344673
798.347378	0.345043
798.539438	0.345120
798.731480	0.345149
798.923503	0.345167
799.115509	0.345346
799.307496	0.345504
799.499465	0.345341
799.691415	0.345746
799.883348	0.345905
800.075262	0.345867
800.267158	0.346050
800.459035	0.346281
800.650895	0.346507
800.842736	0.346680
801.034559	0.346653
801.226364	0.346906
801.418150	0.346788
801.609919	0.346805
801.801669	0.346889
801.993401	0.347037
802.185114	0.347053
802.376810	0.346989
802.568487	0.347086
802.760146	0.347128
802.951787	0.347327
803.143409	0.347449
803.335014	0.347663
803.526600	0.348234
803.718168	0.348295
803.909717	0.348470
804.101249	0.348543
804.292762	0.348676
804.484257	0.348999
804.675734	0.349344
804.867192	0.349645
805.058632	0.349874
805.250054	0.349791
805.441458	0.350056
805.632844	0.350542
805.824211	0.351140
806.015561	0.351522
806.206891	0.351867
806.398204	0.352121
806.589499	0.352457
806.780775	0.352967
806.972033	0.353246
807.163273	0.353546
807.354495	0.353785
807.545698	0.354254
807.736883	0.354507
807.928050	0.354819
808.119199	0.355327
808.310329	0.355599
808.501441	0.355804
808.692535	0.356070
808.883611	0.356438
809.074669	0.356854
809.265708	0.357104
809.456729	0.357255
809.647732	0.357576
809.838717	0.357447
810.029683	0.357583
810.220632	0.357971
810.411562	0.358259
810.602474	0.358119
810.793367	0.358158
810.984242	0.358321
811.175100	0.358632
811.365938	0.358896
811.556759	0.359358
811.747562	0.359695
811.938346	0.359617
812.129112	0.360067
812.319860	0.360550
812.510589	0.360707
812.701300	0.360856
812.891994	0.361297
813.082668	0.361574
813.273325	0.361878
813.463964	0.362515
813.654584	0.363111
813.845186	0.363386
814.035769	0.363874
814.226335	0.364183
814.416882	0.364508
814.607411	0.364554
814.797922	0.364696
814.988415	0.364848
815.178889	0.364844
815.369345	0.364882
815.559783	0.364955
815.750203	0.365083
815.940605	0.365312
816.130988	0.365627
816.321353	0.365597
816.511700	0.365861
816.702028	0.366118
816.892339	0.366205
817.082631	0.366549
817.272905	0.366982
817.463161	0.367379
817.653398	0.367361
817.843617	0.367620
818.033819	0.368179
818.224001	0.368529
818.414166	0.368937
818.604312	0.369477
818.794440	0.369889
818.984550	0.370142
819.174642	0.370486
819.364716	0.371447
819.554771	0.371593
819.744808	0.372310
819.934827	0.372544
820.124827	0.372845
820.314810	0.373257
820.504774	0.373945
820.694720	0.374220
820.884647	0.374609
821.074557	0.374768
821.264448	0.375297
821.454321	0.375556
821.644176	0.375936
821.834012	0.376522
822.023831	0.376525
822.213631	0.376481
822.403413	0.376858
822.593176	0.377160
822.782922	0.377638
822.972649	0.378009
823.162358	0.378142
823.352049	0.378441
823.541721	0.378638
823.731376	0.379220
823.921012	0.379492
824.110629	0.380024
824.300229	0.380627
824.489811	0.381015
824.679374	0.381313
824.868919	0.381929
825.058445	0.382519
825.247954	0.383018
825.437444	0.383320
825.626916	0.383765
825.816370	0.384105
826.005806	0.384387
826.195223	0.384359
826.384622	0.384762
826.574003	0.384772
826.763366	0.385324
826.952711	0.385448
827.142037	0.386182
827.331345	0.386197
827.520635	0.386556
827.709906	0.386693
827.899160	0.387432
828.088395	0.387796
828.277612	0.388411
828.466810	0.388376
828.655991	0.388585
828.845153	0.388414
829.034297	0.389164
829.223423	0.389467
829.412531	0.389835
829.601620	0.390335
829.790691	0.390927
829.979744	0.391044
830.168779	0.391602
830.357795	0.392221
830.546793	0.392862
830.735773	0.392968
830.924735	0.393285
831.113679	0.393980
831.302604	0.394130
831.491511	0.394529
831.680400	0.395448
831.869271	0.396073
832.058123	0.396454
832.246957	0.396837
832.435773	0.397653
832.624571	0.398199
832.813351	0.397956
833.002112	0.398361
833.190855	0.398565
833.379580	0.398563
833.568287	0.398728
833.756975	0.399131
833.945645	0.399380
834.134297	0.399486
834.322931	0.399746
834.511547	0.400635
834.700144	0.401152
834.888723	0.401724
835.077284	0.402280
835.265826	0.402611
835.454351	0.402808
835.642857	0.403604
835.831345	0.403688
836.019815	0.404224
836.208266	0.404732
836.396699	0.404974
836.585114	0.405226
836.773511	0.405468
836.961890	0.406243
837.150250	0.406947
837.338592	0.407268
837.526916	0.408187
837.715222	0.408847
837.903510	0.409033
838.091779	0.409438
838.280030	0.410277
838.468263	0.410688
838.656477	0.410951
838.844674	0.411276
839.032852	0.411370
839.221012	0.411903
839.409153	0.412022
839.597277	0.412741
839.785382	0.413437
839.973469	0.413449
840.161538	0.413957
840.349589	0.414231
840.537621	0.414533
840.725635	0.415141
840.913631	0.415550
841.101609	0.416333
841.289568	0.416549
841.477509	0.417036
841.665432	0.417648
841.853337	0.418081
842.041224	0.418479
842.229092	0.419055
842.416942	0.419586
842.604774	0.420184
842.792588	0.420280
842.980383	0.420779
843.168160	0.420822
843.355919	0.421199
843.543660	0.421601
843.731382	0.422066
843.919087	0.422206
844.106773	0.422691
844.294441	0.422850
844.482090	0.423488
844.669722	0.424078
844.857335	0.424823
845.044930	0.424957
845.232507	0.425720
845.420065	0.426204
845.607605	0.427156
845.795127	0.427460
845.982631	0.428045
846.170117	0.428362
846.357584	0.428317
846.545033	0.428547
846.732464	0.429157
846.919877	0.429128
847.107272	0.429691
847.294648	0.429943
847.482006	0.430461
847.669346	0.430566
847.856667	0.430737
848.043971	0.431586
848.231256	0.432378
848.418523	0.432793
848.605771	0.433403
848.793002	0.433689
848.980214	0.433958
849.167408	0.434145
849.354584	0.434843
849.541742	0.435594
849.728881	0.435774
849.916002	0.436057
850.103105	0.436386
850.290190	0.437238
850.477256	0.437544
850.664304	0.438008
850.851334	0.439058
851.038346	0.439583
851.225340	0.439880
851.412315	0.440506
851.599272	0.441062
851.786211	0.441541
851.973132	0.441700
852.160034	0.442320
852.346918	0.443180
852.533784	0.444152
852.720632	0.444210
852.907462	0.444947
853.094273	0.445413
853.281066	0.445708
853.467841	0.446186
853.654598	0.446778
853.841336	0.447041
854.028056	0.447256
854.214758	0.446592
854.401442	0.446992
854.588107	0.446918
854.774755	0.447395
854.961384	0.447853
855.147995	0.448237
855.334587	0.448284
855.521162	0.448809
855.707718	0.448982
855.894256	0.449540
856.080775	0.450213
856.267277	0.450947
856.453760	0.450854
856.640225	0.451191
856.826672	0.451829
857.013101	0.452056
857.199511	0.452085
857.385903	0.452747
857.572277	0.452987
857.758633	0.453362
857.944970	0.453850
858.131290	0.454768
858.317591	0.455003
858.503873	0.455623
858.690138	0.456429
858.876384	0.457560
859.062612	0.458020
859.248822	0.458330
859.435014	0.458657
859.621188	0.458794
859.807343	0.458657
859.993480	0.459267
860.179599	0.459499
860.365699	0.459841
860.551781	0.460067
860.737846	0.460615
860.923891	0.461255
861.109919	0.461507
861.295929	0.462146
861.481920	0.463018
861.667893	0.463306
861.853848	0.463690
862.039784	0.463907
862.225702	0.463970
862.411603	0.463938
862.597484	0.464131
862.783348	0.464897
862.969193	0.464857
863.155021	0.465284
863.340830	0.465817
863.526620	0.466025
863.712393	0.466482
863.898147	0.467334
864.083883	0.467687
864.269601	0.468067
864.455301	0.468368
864.640982	0.468816
864.826645	0.469131
865.012290	0.469351
865.197917	0.469793
865.383526	0.469752
865.569116	0.469881
865.754688	0.470399
865.940242	0.471261
866.125777	0.471812
866.311295	0.472194
866.496794	0.472633
866.682275	0.473142
866.867737	0.473318
867.053182	0.474051
867.238608	0.474507
867.424016	0.475119
867.609406	0.475076
867.794778	0.474712
867.980131	0.475698
868.165466	0.476219
868.350783	0.476802
868.536082	0.477114
868.721362	0.477522
868.906625	0.477745
869.091869	0.477572
869.277094	0.477993
869.462302	0.478192
869.647491	0.477989
869.832662	0.477898
870.017815	0.477504
870.202950	0.477735
870.388066	0.477971
870.573165	0.478226
870.758245	0.478664
870.943306	0.478843
871.128350	0.479661
871.313375	0.480176
871.498382	0.480402
871.683371	0.481213
871.868342	0.481222
872.053294	0.481357
872.238229	0.481859
872.423144	0.482226
872.608042	0.482733
872.792922	0.483060
872.977783	0.483358
873.162626	0.483771
873.347451	0.483973
873.532258	0.484577
873.717046	0.484800
873.901816	0.484563
874.086568	0.484697
874.271302	0.484961
874.456017	0.485238
874.640715	0.485397
874.825394	0.485534
875.010055	0.486079
875.194697	0.486625
875.379322	0.487262
875.563928	0.487678
875.748516	0.487933
875.933085	0.488186
876.117637	0.487811
876.302170	0.488065
876.486685	0.488216
876.671182	0.487838
876.855661	0.487996
877.040121	0.488200
877.224563	0.488368
877.408987	0.488593
877.593393	0.488469
877.777780	0.489008
877.962150	0.489187
878.146501	0.489431
878.330833	0.490051
878.515148	0.490355
878.699444	0.490504
878.883722	0.490925
879.067982	0.491402
879.252224	0.491803
879.436447	0.492159
879.620653	0.491807
879.804840	0.492105
879.989008	0.492198
880.173159	0.492606
880.357291	0.492702
880.541405	0.492293
880.725501	0.492179
880.909579	0.492133
881.093638	0.492828
881.277680	0.493378
881.461703	0.493723
881.645707	0.493621
881.829694	0.493192
882.013662	0.493549
882.197612	0.493881
882.381544	0.494132
882.565458	0.494991
882.749353	0.494475
882.933230	0.495068
883.117089	0.494962
883.300930	0.495245
883.484753	0.495462
883.668557	0.495741
883.852343	0.496214
884.036111	0.496488
884.219861	0.496060
884.403592	0.496987
884.587305	0.496395
884.771000	0.496212
884.954677	0.496714
885.138335	0.496864
885.321976	0.496201
885.505598	0.495744
885.689201	0.495305
885.872787	0.495075
886.056354	0.494180
886.239904	0.494457
886.423434	0.494459
886.606947	0.493752
886.790442	0.493685
886.973918	0.493997
887.157376	0.494314
887.340816	0.495029
887.524237	0.495621
887.707641	0.496279
887.891026	0.495766
888.074393	0.496311
888.257741	0.496217
888.441072	0.496288
888.624384	0.496317
888.807678	0.496271
888.990954	0.495974
889.174211	0.495602
889.357451	0.495549
889.540672	0.495993
889.723875	0.495685
889.907059	0.495690
890.090226	0.495523
890.273374	0.495578
890.456504	0.495024
890.639616	0.494638
890.822709	0.494416
891.005785	0.493462
891.188842	0.493192
891.371881	0.493081
891.554901	0.493302
891.737904	0.493646
891.920888	0.492948
892.103854	0.493490
892.286802	0.493845
892.469731	0.493658
892.652643	0.494096
892.835536	0.494018
893.018410	0.492993
893.201267	0.492400
893.384106	0.491212
893.566926	0.491215
893.749728	0.490483
893.932511	0.490307
894.115277	0.490663
894.298024	0.490282
894.480753	0.490223
894.663464	0.490631
894.846157	0.491233
895.028831	0.491017
895.211487	0.491205
895.394125	0.491456
895.576745	0.490982
895.759346	0.490861
895.941930	0.490929
896.124495	0.490642
896.307041	0.490432
896.489570	0.489774
896.672080	0.490280
896.854573	0.489905
897.037046	0.489814
897.219502	0.489775
897.401940	0.489044
897.584359	0.488752
897.766760	0.488613
897.949143	0.489063
898.131507	0.489174
898.313854	0.488995
898.496182	0.488985
898.678492	0.489039
898.860783	0.488527
899.043057	0.488125
899.225312	0.488470
899.407549	0.488505
899.589768	0.488125
899.771968	0.487592
899.954151	0.487064
900.136315	0.486947
900.318461	0.486379
900.500588	0.485759
900.682698	0.485908
900.864789	0.484860
901.046862	0.484962
901.228917	0.484483
901.410953	0.484667
901.592971	0.485038
901.774972	0.484287
901.956953	0.484023
902.138917	0.483999
902.320862	0.483389
902.502790	0.482758
902.684699	0.481698
902.866589	0.480919
903.048462	0.479185
903.230316	0.478361
903.412152	0.477901
903.593970	0.477320
903.775770	0.476906
903.957551	0.476682
904.139314	0.476558
904.321059	0.476158
904.502786	0.476191
904.684494	0.476009
904.866185	0.475921
905.047857	0.475822
905.229510	0.475590
905.411146	0.475708
905.592763	0.475215
905.774363	0.474809
905.955943	0.474005
906.137506	0.473393
906.319051	0.473602
906.500577	0.472350
906.682085	0.472105
906.863575	0.471991
907.045046	0.471197
907.226500	0.470483
907.407935	0.469727
907.589352	0.469768
907.770750	0.469436
907.952131	0.468536
908.133493	0.468619
908.314837	0.467796
908.496163	0.466655
908.677470	0.466036
908.858760	0.465586
909.040031	0.465149
909.221284	0.464065
909.402518	0.463971
909.583735	0.464136
909.764933	0.463969
909.946113	0.463607
910.127275	0.463240
910.308418	0.462846
910.489544	0.462702
910.670651	0.462818
910.851740	0.462386
911.032810	0.461290
911.213863	0.461110
911.394897	0.459612
911.575913	0.459069
911.756911	0.458556
911.937890	0.457531
912.118851	0.456054
912.299794	0.455351
912.480719	0.455396
912.661626	0.454842
912.842514	0.453871
913.023384	0.453905
913.204236	0.453781
913.385070	0.453156
913.565886	0.452995
913.746683	0.453718
913.927462	0.452541
914.108223	0.451628
914.288965	0.450947
914.469690	0.449951
914.650396	0.449602
914.831084	0.448992
915.011754	0.448207
915.192405	0.447337
915.373038	0.446373
915.553653	0.446267
915.734250	0.445406
915.914829	0.444802
916.095389	0.444653
916.275931	0.444030
916.456455	0.442261
916.636961	0.441517
916.817448	0.440830
916.997917	0.440036
917.178368	0.439132
917.358801	0.438328
917.539216	0.437985
917.719612	0.436653
917.899990	0.435611
918.080350	0.435625
918.260692	0.435505
918.441015	0.434848
918.621320	0.433588
918.801607	0.432476
918.981876	0.431977
919.162127	0.431183
919.342359	0.430252
919.522573	0.429379
919.702769	0.428273
919.882947	0.427783
920.063106	0.427284
920.243247	0.427070
920.423370	0.427243
920.603475	0.426891
920.783562	0.425786
920.963630	0.425754
921.143680	0.425573
921.323712	0.424713
921.503725	0.423293
921.683721	0.422454
921.863698	0.421715
922.043657	0.420130
922.223598	0.419739
922.403520	0.419403
922.583424	0.418277
922.763311	0.416051
922.943178	0.415131
923.123028	0.414303
923.302859	0.414060
923.482673	0.412280
923.662467	0.411134
923.842244	0.409191
924.022003	0.408364
924.201743	0.407582
924.381465	0.407002
924.561169	0.406516
924.740854	0.405226
924.920522	0.404330
925.100171	0.404528
925.279802	0.404252
925.459414	0.403747
925.639009	0.403222
925.818585	0.402272
925.998143	0.401762
926.177683	0.400821
926.357205	0.400381
926.536708	0.398520
926.716193	0.396326
926.895660	0.395021
927.075109	0.393467
927.254539	0.391889
927.433951	0.391074
927.613345	0.389585
927.792721	0.388683
927.972079	0.387725
928.151418	0.386895
928.330739	0.386795
928.510042	0.385775
928.689327	0.384658
928.868593	0.383352
929.047841	0.382074
929.227071	0.381709
929.406283	0.380729
929.585476	0.379562
929.764652	0.378733
929.943809	0.377670
930.122948	0.377229
930.302068	0.376683
930.481171	0.375227
930.660255	0.375092
930.839321	0.374787
931.018369	0.373367
931.197398	0.372192
931.376409	0.371117
931.555402	0.370705
931.734377	0.369458
931.913334	0.368266
932.092272	0.368298
932.271192	0.366158
932.450094	0.363875
932.628978	0.363623
932.807844	0.361966
932.986691	0.361226
933.165520	0.359356
933.344331	0.358851
933.523123	0.358470
933.701898	0.357105
933.880654	0.356264
934.059392	0.355836
934.238111	0.354161
934.416813	0.353794
934.595496	0.352608
934.774161	0.351386
934.952808	0.349174
935.131437	0.348312
935.310047	0.347292
935.488639	0.345490
935.667213	0.344201
935.845769	0.342219
936.024306	0.341689
936.202825	0.339400
936.381326	0.338566
936.559809	0.338089
936.738274	0.336640
936.916720	0.335479
937.095148	0.334551
937.273558	0.333749
937.451950	0.334146
937.630323	0.333563
937.808678	0.333105
937.987015	0.332337
938.165334	0.331709
938.343635	0.330404
938.521917	0.329154
938.700181	0.328004
938.878427	0.327092
939.056655	0.325980
939.234864	0.322967
939.413055	0.322528
939.591228	0.321297
939.769383	0.319010
939.947519	0.317313
940.125638	0.315128
940.303738	0.314463
940.481820	0.313469
940.659883	0.311720
940.837929	0.310407
941.015956	0.308616
941.193965	0.308248
941.371955	0.307252
941.549928	0.306754
941.727882	0.305783
941.905818	0.305500
942.083736	0.302161
942.261636	0.300715
942.439517	0.300517
942.617380	0.299740
942.795225	0.297352
942.973052	0.295897
943.150860	0.294675
943.328651	0.294424
943.506423	0.292191
943.684176	0.292726
943.861912	0.290319
944.039629	0.288584
944.217328	0.287341
944.395009	0.286830
944.572672	0.286202
944.750317	0.285057
944.927943	0.284506
945.105551	0.283053
945.283141	0.281064
945.460712	0.279657
945.638265	0.278532
945.815801	0.276179
945.993317	0.274844
946.170816	0.273441
946.348297	0.270601
946.525759	0.268529
946.703203	0.267378
946.880629	0.264716
947.058036	0.265119
947.235425	0.263841
947.412797	0.262827
947.590149	0.259850
947.767484	0.257625
947.944800	0.257081
948.122099	0.255681
948.299379	0.253763
948.476640	0.255445
948.653884	0.253267
948.831109	0.251888
949.008316	0.250918
949.185505	0.250557
949.362676	0.250005
949.539828	0.249104
949.716962	0.247590
949.894078	0.247154
950.071176	0.242801
950.248256	0.242610
950.425317	0.242882
950.602360	0.242202
950.779385	0.241509
950.956391	0.241170
951.133380	0.242186
951.310350	0.240653
951.487302	0.239528
951.664235	0.238491
951.841151	0.235759
952.018048	0.233058
952.194927	0.230584
952.371788	0.230096
952.548631	0.227736
952.725455	0.225445
952.902261	0.223928
953.079049	0.223851
953.255819	0.225871
953.432570	0.226183
953.609303	0.225123
953.786018	0.226039
953.962715	0.225463
954.139394	0.224867
954.316054	0.224026
954.492696	0.223442
954.669320	0.221957
954.845926	0.219698
955.022513	0.218454
955.199083	0.217320
955.375634	0.215392
955.552166	0.213096
955.728681	0.212265
955.905177	0.206937
956.081655	0.205684
956.258115	0.202491
956.434557	0.199959
956.610980	0.198979
956.787385	0.198360
956.963772	0.197640
957.140141	0.196618
957.316492	0.196929
957.492824	0.197421
957.669138	0.197941
957.845434	0.197339
958.021712	0.197494
958.197971	0.196117
958.374212	0.195715
958.550435	0.193914
958.726640	0.194867
958.902826	0.192990
959.078995	0.196061
959.255145	0.194517
959.431277	0.195334
959.607390	0.195280
959.783486	0.196625
959.959563	0.194875
960.135622	0.193248
960.311662	0.189212
960.487685	0.187229
960.663689	0.183503
960.839675	0.181664
961.015643	0.179794
961.191593	0.176763
961.367524	0.176469
961.543437	0.177339
961.719332	0.179004
961.895209	0.179676
962.071067	0.179381
962.246907	0.180356
962.422730	0.179791
962.598533	0.179993
962.774319	0.181369
962.950086	0.179794
963.125835	0.179191
963.301566	0.178481
963.477279	0.176336
963.652973	0.177040
963.828650	0.174309
964.004308	0.175363
964.179947	0.174427
964.355569	0.173209
964.531172	0.169123
964.706757	0.169918
964.882324	0.167456
965.057873	0.168435
965.233403	0.167664
965.408916	0.171487
965.584410	0.171825
965.759885	0.169923
965.935343	0.171932
966.110782	0.174149
966.286203	0.173142
966.461606	0.174282
966.636991	0.172583
966.812357	0.173054
966.987705	0.171006
967.163035	0.168433
967.338347	0.170473
967.513641	0.169123
967.688916	0.170979
967.864173	0.170103
968.039412	0.169740
968.214632	0.170200
968.389835	0.168419
968.565019	0.169017
968.740185	0.170051
968.915333	0.172195
969.090462	0.171851
969.265573	0.170233
969.440667	0.170821
969.615741	0.171296
969.790798	0.172226
969.965836	0.171738
970.140856	0.171852
970.315858	0.171922
970.490842	0.171278
970.665808	0.172870
970.840755	0.172178
971.015684	0.172004
971.190595	0.171961
971.365487	0.172529
971.540362	0.174277
971.715218	0.173140
971.890056	0.173450
972.064875	0.173424
972.239677	0.173877
972.414460	0.174146
972.589225	0.173796
972.763972	0.171549
972.938700	0.169881
973.113411	0.169230
973.288103	0.167779
973.462777	0.166013
973.637432	0.163868
973.812070	0.161059
973.986689	0.162425
974.161290	0.161948
974.335873	0.162821
974.510437	0.163070
974.684984	0.161582
974.859512	0.163083
975.034022	0.163920
975.208513	0.162546
975.382987	0.162568
975.557442	0.162413
975.731879	0.163225
975.906298	0.163662
976.080698	0.163783
976.255080	0.165918
976.429445	0.163662
976.603790	0.163853
976.778118	0.167830
976.952427	0.167191
977.126719	0.167738
977.300992	0.165320
977.475246	0.166071
977.649483	0.165140
977.823701	0.164116
977.997901	0.166776
978.172083	0.165789
978.346247	0.164951
978.520392	0.165371
978.694519	0.162651
978.868628	0.164400
979.042719	0.166784
979.216791	0.167495
979.390845	0.166354
979.564882	0.166077
979.738899	0.167389
979.912899	0.167850
980.086880	0.168098
980.260843	0.169776
980.434788	0.171024
980.608715	0.168125
980.782623	0.169587
980.956514	0.170949
981.130386	0.170242
981.304240	0.171903
981.478075	0.171132
981.651892	0.172449
981.825692	0.172795
981.999472	0.170275
982.173235	0.170933
982.346980	0.170440
982.520706	0.170462
982.694414	0.171239
982.868104	0.170094
983.041775	0.169159
983.215428	0.168072
983.389064	0.167746
983.562680	0.168974
983.736279	0.168697
983.909860	0.168340
984.083422	0.168804
984.256966	0.169255
984.430491	0.168823
984.603999	0.167502
984.777488	0.169088
984.950959	0.168162
985.124412	0.169188
985.297847	0.170441
985.471263	0.173199
985.644661	0.171790
985.818041	0.170248
985.991403	0.171984
986.164747	0.174651
986.338072	0.174100
986.511379	0.176140
986.684668	0.177100
986.857938	0.174603
987.031191	0.172527
987.204425	0.175081
987.377641	0.175247
987.550839	0.174130
987.724018	0.172964
987.897179	0.172498
988.070322	0.168680
988.243447	0.168123
988.416554	0.168826
988.589642	0.168002
988.762712	0.166392
988.935764	0.165428
989.108798	0.163691
989.281813	0.162586
989.454811	0.161470
989.627790	0.164579
989.800751	0.163634
989.973693	0.163477
990.146617	0.163049
990.319524	0.163311
990.492412	0.163893
990.665281	0.166757
990.838133	0.167521
991.010966	0.168420
991.183781	0.166773
991.356578	0.164626
991.529356	0.165855
991.702117	0.167647
991.874859	0.166006
992.047583	0.165159
992.220288	0.162356
992.392976	0.163832
992.565645	0.163568
992.738296	0.163989
992.910929	0.167454
993.083543	0.166275
993.256139	0.167114
993.428718	0.168082
993.601277	0.170548
993.773819	0.172669
993.946342	0.171742
994.118848	0.174678
994.291335	0.175814
994.463803	0.173568
994.636254	0.173466
994.808686	0.171240
994.981100	0.171469
995.153496	0.173138
995.325874	0.170687
995.498233	0.168801
995.670574	0.167665
995.842897	0.167235
996.015202	0.167724
996.187488	0.168411
996.359757	0.169476
996.532007	0.170293
996.704239	0.166936
996.876452	0.168255
997.048648	0.170552
997.220825	0.171071
997.392984	0.172151
997.565124	0.172901
997.737247	0.172662
997.909351	0.171172
998.081437	0.170005
998.253505	0.171434
998.425554	0.171208
998.597586	0.172416
998.769599	0.169531
998.941594	0.167807
999.113571	0.167526
999.285529	0.166471
999.457469	0.168195
999.629391	0.167897
999.801295	0.167079
999.973181	0.166635
1000.145048	0.165325
1000.316897	0.167205
1000.488728	0.168042
1000.660541	0.165419
1000.832335	0.166160
1001.004111	0.166473
1001.175869	0.166651
1001.347609	0.168031
1001.519331	0.169234
1001.691034	0.167503
1001.862719	0.167806
1002.034386	0.168218
1002.206035	0.171431
1002.377665	0.172380
1002.549277	0.170664
1002.720871	0.171799
1002.892447	0.170499
1003.064004	0.169639
1003.235544	0.168925
1003.407065	0.167620
1003.578568	0.166239
1003.750052	0.164576
1003.921519	0.165825
1004.092967	0.165249
1004.264397	0.165928
1004.435809	0.165313
1004.607202	0.164862
1004.778577	0.165417
1004.949934	0.167179
1005.121273	0.165586
1005.292594	0.166904
1005.463896	0.167389
1005.635180	0.168906
1005.806446	0.169047
1005.977694	0.169651
1006.148923	0.168733
1006.320135	0.169904
1006.491328	0.168924
1006.662503	0.169565
1006.833659	0.168124
1007.004798	0.165508
1007.175918	0.165113
1007.347020	0.163455
1007.518103	0.163897
1007.689169	0.164516
1007.860216	0.163673
1008.031245	0.162527
1008.202256	0.163519
1008.373248	0.164542
1008.544223	0.165451
1008.715179	0.166338
1008.886117	0.168790
1009.057036	0.168825
1009.227938	0.170055
1009.398821	0.170939
1009.569686	0.171405
1009.740533	0.172897
1009.911361	0.173515
1010.082172	0.173273
1010.252964	0.171880
1010.423738	0.170191
1010.594493	0.170279
1010.765231	0.169511
1010.935950	0.168297
1011.106651	0.168565
1011.277334	0.166258
1011.447998	0.165228
1011.618645	0.165150
1011.789273	0.164883
1011.959882	0.164579
1012.130474	0.164127
1012.301048	0.165191
1012.471603	0.165530
1012.642140	0.165333
1012.812658	0.165702
1012.983159	0.166465
1013.153641	0.164729
1013.324105	0.165203
1013.494551	0.163468
1013.664979	0.162305
1013.835388	0.161368
1014.005779	0.159728
1014.176152	0.160886
1014.346507	0.161226
1014.516843	0.159919
1014.687162	0.160847
1014.857462	0.160971
1015.027744	0.163328
1015.198007	0.163084
1015.368252	0.165150
1015.538480	0.168321
1015.708689	0.165409
1015.878879	0.166160
1016.049052	0.166878
1016.219206	0.168425
1016.389342	0.168730
1016.559460	0.169461
1016.729559	0.170422
1016.899641	0.169032
1017.069704	0.167570
1017.239749	0.169642
1017.409775	0.168798
1017.579784	0.168999
1017.749774	0.167645
1017.919746	0.167244
1018.089700	0.164920
1018.259635	0.166386
1018.429553	0.164361
1018.599452	0.164818
1018.769333	0.164328
1018.939195	0.165323
1019.109040	0.164717
1019.278866	0.164400
1019.448674	0.165431
1019.618464	0.165080
1019.788235	0.165051
1019.957989	0.166530
1020.127724	0.167159
1020.297441	0.168015
1020.467139	0.168712
1020.636820	0.168973
1020.806482	0.169615
1020.976126	0.169635
1021.145752	0.172134
1021.315359	0.171757
1021.484948	0.171747
1021.654519	0.171252
1021.824072	0.171309
1021.993607	0.169640
1022.163123	0.170259
1022.332621	0.170166
1022.502101	0.169500
1022.671563	0.169111
1022.841007	0.171115
1023.010432	0.170186
1023.179839	0.168971
1023.349228	0.168800
1023.518598	0.167917
1023.687951	0.167207
1023.857285	0.167047
1024.026601	0.167069
1024.195899	0.166691
1024.365178	0.162920
1024.534439	0.163839
1024.703682	0.165464
1024.872907	0.163316
1025.042114	0.163412
1025.211302	0.162541
1025.380472	0.163543
1025.549624	0.162570
1025.718758	0.160085
1025.887873	0.161951
1026.056970	0.162191
1026.226049	0.162428
1026.395110	0.164389
1026.564153	0.164833
1026.733177	0.165254
1026.902183	0.164127
1027.071171	0.164251
1027.240141	0.167764
1027.409092	0.166613
1027.578026	0.166043
1027.746940	0.164843
1027.915837	0.162432
1028.084716	0.164185
1028.253576	0.163608
1028.422418	0.163445
1028.591242	0.162538
1028.760048	0.161505
1028.928835	0.159353
1029.097604	0.159289
1029.266355	0.159960
1029.435088	0.161159
1029.603803	0.160854
1029.772499	0.162036
1029.941177	0.162359
1030.109837	0.163077
1030.278478	0.162083
1030.447102	0.163220
1030.615707	0.163771
1030.784294	0.164088
1030.952863	0.166184
1031.121413	0.163125
1031.289945	0.163504
1031.458460	0.165225
1031.626955	0.165174
1031.795433	0.165810
1031.963892	0.166643
1032.132334	0.165793
1032.300756	0.166747
1032.469161	0.165328
1032.637548	0.168418
1032.805916	0.167830
1032.974266	0.166332
1033.142598	0.167690
1033.310911	0.169231
1033.479207	0.167828
1033.647484	0.169295
1033.815743	0.166621
1033.983983	0.165547
1034.152206	0.165640
1034.320410	0.165561
1034.488596	0.165916
1034.656764	0.165504
1034.824914	0.163721
1034.993045	0.165307
1035.161158	0.165186
1035.329253	0.165345
1035.497330	0.165664
1035.665388	0.164537
1035.833428	0.163561
1036.001450	0.161804
1036.169454	0.162191
1036.337440	0.163776
1036.505407	0.165373
1036.673356	0.164677
1036.841287	0.166387
1037.009200	0.166503
1037.177094	0.166358
1037.344970	0.167836
1037.512828	0.169971
1037.680668	0.168944
1037.848489	0.167569
1038.016293	0.165606
1038.184078	0.165519
1038.351845	0.164884
1038.519593	0.166542
1038.687324	0.166170
1038.855036	0.165145
1039.022730	0.163932
1039.190406	0.162896
1039.358063	0.162210
1039.525702	0.162636
1039.693323	0.163141
1039.860926	0.163403
1040.028511	0.164052
1040.196077	0.163911
1040.363625	0.165355
1040.531155	0.166798
1040.698667	0.168612
1040.866161	0.167403
1041.033636	0.168246
1041.201093	0.167282
1041.368532	0.165579
1041.535952	0.162502
1041.703355	0.162767
1041.870739	0.162864
1042.038105	0.163920
1042.205452	0.162395
1042.372782	0.163759
1042.540093	0.162613
1042.707386	0.163585
1042.874661	0.163281
1043.041918	0.164048
1043.209156	0.162168
1043.376376	0.160869
1043.543578	0.158209
1043.710762	0.158849
1043.877927	0.158796
1044.045074	0.160694
1044.212203	0.161417
1044.379314	0.162238
1044.546407	0.163093
1044.713481	0.165863
1044.880537	0.166519
1045.047575	0.167397
1045.214595	0.168242
1045.381596	0.168325
1045.548579	0.168488
1045.715544	0.167715
1045.882491	0.166983
1046.049420	0.167103
1046.216330	0.167422
1046.383222	0.167658
1046.550096	0.168819
1046.716951	0.170016
1046.883789	0.167962
1047.050608	0.165728
1047.217409	0.163608
1047.384192	0.166499
1047.550956	0.165735
1047.717703	0.165402
1047.884431	0.165837
1048.051140	0.164741
1048.217832	0.163714
1048.384505	0.164308
1048.551161	0.165355
1048.717798	0.164322
1048.884416	0.161504
1049.051017	0.161810
1049.217599	0.162657
1049.384163	0.162210
1049.550709	0.162558
1049.717237	0.161186
1049.883746	0.164552
1050.050237	0.164568
1050.216710	0.166551
1050.383165	0.167606
1050.549601	0.167137
1050.716019	0.164680
1050.882420	0.164150
1051.048801	0.163417
1051.215165	0.164648
1051.381510	0.163163
1051.547837	0.160963
1051.714146	0.160325
1051.880437	0.159441
1052.046709	0.157747
1052.212964	0.158626
1052.379200	0.156669
1052.545417	0.156927
1052.711617	0.157930
1052.877798	0.158289
1053.043961	0.157522
1053.210106	0.160022
1053.376233	0.161618
1053.542341	0.163770
1053.708432	0.163085
1053.874504	0.166807
1054.040557	0.167319
1054.206593	0.164718
1054.372610	0.165777
1054.538609	0.169193
1054.704590	0.168452
1054.870553	0.165932
1055.036497	0.165010
1055.202424	0.168245
1055.368331	0.166004
1055.534221	0.165756
1055.700093	0.167232
1055.865946	0.167600
1056.031781	0.166943
1056.197598	0.166975
1056.363397	0.170344
1056.529177	0.171142
1056.694939	0.169189
1056.860683	0.169972
1057.026409	0.170225
1057.192116	0.169601
1057.357806	0.165891
1057.523477	0.165778
1057.689130	0.166499
1057.854764	0.164229
1058.020381	0.164238
1058.185979	0.163883
1058.351559	0.164225
1058.517120	0.163182
1058.682664	0.163432
1058.848189	0.164803
1059.013696	0.164949
1059.179185	0.166912
1059.344656	0.168734
1059.510108	0.169791
1059.675542	0.168571
1059.840958	0.168782
1060.006356	0.167169
1060.171735	0.166774
1060.337096	0.167268
1060.502439	0.167628
1060.667764	0.166450
1060.833071	0.165542
1060.998359	0.165173
1061.163629	0.168633
1061.328881	0.167789
1061.494115	0.167699
1061.659330	0.169034
1061.824527	0.169268
1061.989706	0.169847
1062.154867	0.166961
1062.320010	0.167151
1062.485134	0.166271
1062.650240	0.163528
1062.815328	0.163675
1062.980398	0.166636
1063.145449	0.167031
1063.310482	0.167940
1063.475497	0.167783
1063.640494	0.168929
1063.805473	0.169579
1063.970433	0.168176
1064.135375	0.170785
1064.300299	0.171145
1064.465204	0.171387
1064.630092	0.170813
1064.794961	0.169161
1064.959812	0.167821
1065.124645	0.168549
1065.289459	0.168712
1065.454256	0.170129
1065.619034	0.167537
1065.783793	0.167743
1065.948535	0.166728
1066.113258	0.167094
1066.277964	0.168485
1066.442651	0.168990
1066.607319	0.167649
1066.771970	0.167299
1066.936602	0.169673
1067.101216	0.168944
1067.265812	0.168516
1067.430389	0.170402
1067.594949	0.168522
1067.759490	0.168493
1067.924013	0.166031
1068.088518	0.164876
1068.253004	0.166238
1068.417472	0.163671
1068.581922	0.166386
1068.746354	0.165271
1068.910768	0.162228
1069.075163	0.162474
1069.239540	0.164003
1069.403899	0.166771
1069.568240	0.167481
1069.732562	0.167053
1069.896866	0.166448
1070.061152	0.165157
1070.225420	0.166543
1070.389670	0.169070
1070.553901	0.170659
1070.718114	0.167564
1070.882309	0.165405
1071.046486	0.167027
1071.210644	0.166147
1071.374784	0.168996
1071.538906	0.167175
1071.703010	0.168168
1071.867096	0.167963
1072.031163	0.165084
1072.195212	0.164522
1072.359243	0.165237
1072.523256	0.166900
1072.687250	0.168935
1072.851226	0.169240
1073.015184	0.170545
1073.179124	0.170438
1073.343045	0.168322
1073.506949	0.172242
1073.670834	0.176198
1073.834701	0.176685
1073.998549	0.173511
1074.162380	0.170699
1074.326192	0.168573
1074.489986	0.168636
1074.653761	0.169090
1074.817519	0.168890
1074.981258	0.169287
1075.144979	0.165880
1075.308682	0.166339
1075.472367	0.168603
1075.636033	0.169483
1075.799681	0.170627
1075.963311	0.172764
1076.126923	0.172986
1076.290516	0.176151
1076.454092	0.174631
1076.617649	0.179818
1076.781187	0.182002
1076.944708	0.181317
1077.108210	0.181783
1077.271695	0.182338
1077.435160	0.182436
1077.598608	0.182142
1077.762038	0.179616
1077.925449	0.176337
1078.088842	0.174796
1078.252217	0.173836
1078.415573	0.172628
1078.578912	0.171666
1078.742232	0.173821
1078.905534	0.170329
1079.068817	0.169043
1079.232083	0.169865
1079.395330	0.172715
1079.558559	0.170236
1079.721770	0.166914
1079.884962	0.169173
1080.048136	0.168934
1080.211293	0.164320
1080.374430	0.166434
1080.537550	0.170194
1080.700651	0.173696
1080.863735	0.175161
1081.026800	0.177639
1081.189846	0.182532
1081.352875	0.181950
1081.515885	0.185401
1081.678877	0.184735
1081.841851	0.185755
1082.004807	0.182000
1082.167744	0.179774
1082.330663	0.179079
1082.493564	0.175632
1082.656447	0.174652
1082.819312	0.173539
1082.982158	0.173914
1083.144986	0.176399
1083.307796	0.175761
1083.470587	0.174923
1083.633361	0.176566
1083.796116	0.177274
1083.958853	0.181344
1084.121571	0.181670
1084.284272	0.180426
1084.446954	0.174787
1084.609618	0.175080
1084.772264	0.174734
1084.934892	0.175367
1085.097501	0.173267
1085.260092	0.173929
1085.422665	0.168177
1085.585220	0.167795
1085.747756	0.171597
1085.910274	0.174540
1086.072774	0.174436
1086.235256	0.175463
1086.397720	0.176574
1086.560165	0.174797
1086.722592	0.172538
1086.885001	0.175773
1087.047392	0.176499
1087.209764	0.172786
1087.372119	0.174112
1087.534455	0.175450
1087.696772	0.175137
1087.859072	0.176688
1088.021353	0.180159
1088.183616	0.180339
1088.345861	0.180021
1088.508088	0.178853
1088.670296	0.182535
1088.832486	0.182826
1088.994658	0.180328
1089.156812	0.181293
1089.318948	0.182635
1089.481065	0.178736
1089.643164	0.179440
1089.805245	0.179790
1089.967308	0.181388
1090.129352	0.180301
1090.291378	0.178072
1090.453386	0.177982
1090.615376	0.175687
1090.777347	0.168347
1090.939301	0.171071
1091.101236	0.170190
1091.263153	0.169852
1091.425051	0.167952
1091.586932	0.166195
1091.748794	0.167439
1091.910638	0.165398
1092.072463	0.165813
1092.234271	0.172372
1092.396060	0.171949
1092.557831	0.174931
1092.719584	0.177338
1092.881319	0.180300
1093.043035	0.184802
1093.204733	0.183430
1093.366413	0.186160
1093.528075	0.188558
1093.689718	0.184856
1093.851343	0.184613
1094.012950	0.185542
1094.174539	0.184434
1094.336110	0.182923
1094.497662	0.180073
1094.659196	0.179959
1094.820712	0.180743
1094.982210	0.176320
1095.143689	0.178958
1095.305151	0.179974
1095.466594	0.173813
1095.628018	0.172545
1095.789425	0.172723
1095.950813	0.169988
1096.112183	0.168588
1096.273535	0.171153
1096.434869	0.175393
1096.596184	0.172385
1096.757482	0.172739
1096.918761	0.175187
1097.080021	0.177064
1097.241264	0.176839
1097.402488	0.178513
1097.563694	0.182003
1097.724882	0.179358
1097.886052	0.173749
1098.047203	0.175381
1098.208336	0.177255
1098.369451	0.174546
1098.530548	0.172849
1098.691627	0.171825
1098.852687	0.174081
1099.013729	0.172699
1099.174753	0.172527
1099.335758	0.178427
1099.496746	0.177211
1099.657715	0.171856
1099.818666	0.174449
1099.979599	0.173345
1100.140513	0.174183
1100.301409	0.170279
1100.462287	0.171176
1100.623147	0.173018
1100.783989	0.172426
1100.944812	0.171257
1101.105617	0.176233
1101.266404	0.177782
1101.427173	0.180647
1101.587923	0.177733
1101.748656	0.180393
1101.909370	0.180882
1102.070066	0.181860
1102.230743	0.178589
1102.391403	0.180067
1102.552044	0.177831
1102.712667	0.176598
1102.873271	0.178396
1103.033858	0.177973
1103.194426	0.176671
1103.354976	0.176257
1103.515508	0.175201
1103.676021	0.173414
1103.836517	0.174119
1103.996994	0.171644
1104.157453	0.172766
1104.317893	0.169336
1104.478316	0.172194
1104.638720	0.174674
1104.799106	0.175725
1104.959474	0.172698
1105.119823	0.179033
1105.280155	0.178538
1105.440468	0.179335
1105.600763	0.179719
1105.761039	0.181729
1105.921298	0.179400
1106.081538	0.177690
1106.241760	0.179713
1106.401964	0.183305
1106.562149	0.182793
1106.722316	0.181927
1106.882465	0.185518
1107.042596	0.187591
1107.202709	0.185158
1107.362803	0.188060
1107.522879	0.184127
1107.682937	0.180761
1107.842977	0.179611
1108.002999	0.177520
1108.163002	0.178182
1108.322987	0.173437
1108.482954	0.169292
1108.642902	0.170950
1108.802833	0.172442
1108.962745	0.179130
1109.122639	0.178838
1109.282515	0.182566
1109.442372	0.183101
1109.602211	0.189014
1109.762032	0.193808
1109.921835	0.193675
1110.081620	0.193293
1110.241386	0.190582
1110.401134	0.187969
1110.560864	0.186173
1110.720576	0.179319
1110.880269	0.182451
1111.039945	0.181149
1111.199602	0.178353
1111.359240	0.179857
1111.518861	0.184514
1111.678463	0.183610
1111.838047	0.181513
1111.997613	0.188249
1112.157161	0.193486
1112.316690	0.192647
1112.476202	0.187527
1112.635695	0.187416
1112.795169	0.186969
1112.954626	0.181298
1113.114064	0.179982
1113.273484	0.184584
1113.432886	0.180488
1113.592270	0.181625
1113.751635	0.176399
1113.910983	0.180604
1114.070312	0.182701
1114.229622	0.184971
1114.388915	0.187029
1114.548189	0.191476
1114.707445	0.193107
1114.866683	0.195755
1115.025903	0.200037
1115.185104	0.204429
1115.344287	0.204713
1115.503452	0.204612
1115.662599	0.206186
1115.821727	0.204894
1115.980838	0.208045
1116.139930	0.204412
1116.299004	0.198747
1116.458059	0.196006
1116.617097	0.198785
1116.776116	0.197500
1116.935117	0.199122
1117.094099	0.202427
1117.253064	0.200488
1117.412010	0.199637
1117.570938	0.204775
1117.729848	0.203391
1117.888740	0.205180
1118.047613	0.197100
1118.206468	0.193557
1118.365305	0.189820
1118.524124	0.183857
1118.682924	0.188183
1118.841707	0.188753
1119.000471	0.182945
1119.159216	0.188133
1119.317944	0.182055
1119.476653	0.190364
1119.635344	0.194329
1119.794017	0.195896
1119.952672	0.197289
1120.111308	0.198513
1120.269927	0.194538
1120.428527	0.193845
1120.587108	0.191188
1120.745672	0.192465
1120.904217	0.192234
1121.062744	0.192846
1121.221253	0.195268
1121.379744	0.189973
1121.538216	0.184848
1121.696671	0.185065
1121.855107	0.188210
1122.013524	0.188754
1122.171924	0.187592
1122.330305	0.184705
1122.488668	0.182346
1122.647013	0.182505
1122.805340	0.189861
1122.963648	0.193573
1123.121938	0.195205
1123.280210	0.195700
1123.438464	0.193818
1123.596700	0.197287
1123.754917	0.200870
1123.913116	0.196807
1124.071297	0.194684
1124.229459	0.191022
1124.387604	0.189491
1124.545730	0.185816
1124.703838	0.184206
1124.861928	0.186899
1125.019999	0.182531
1125.178052	0.173637
1125.336088	0.178257
1125.494104	0.181829
1125.652103	0.183983
1125.810083	0.185079
1125.968045	0.185453
1126.125989	0.187925
1126.283915	0.191636
1126.441823	0.191715
1126.599712	0.202454
1126.757583	0.200985
1126.915436	0.193198
1127.073270	0.187077
1127.231087	0.183730
1127.388885	0.188389
1127.546665	0.186222
1127.704426	0.190180
1127.862170	0.193427
1128.019895	0.186981
1128.177602	0.188339
1128.335291	0.187509
1128.492961	0.197690
1128.650614	0.197647
1128.808248	0.190676
1128.965864	0.189555
1129.123461	0.183503
1129.281041	0.177382
1129.438602	0.178048
1129.596145	0.175051
1129.753670	0.184141
1129.911176	0.181293
1130.068665	0.184125
1130.226135	0.190141
1130.383587	0.192470
1130.541020	0.194170
1130.698436	0.195542
1130.855833	0.197862
1131.013212	0.206520
1131.170573	0.200384
1131.327915	0.198111
1131.485239	0.189439
1131.642545	0.187992
1131.799833	0.190031
1131.957103	0.187691
1132.114354	0.186436
1132.271588	0.178557
1132.428803	0.173309
1132.585999	0.172673
1132.743178	0.179238
1132.900338	0.184673
1133.057480	0.187313
1133.214604	0.185364
1133.371710	0.178839
1133.528797	0.186294
1133.685866	0.199445
1133.842917	0.196477
1133.999950	0.196557
1134.156964	0.185526
1134.313960	0.192751
1134.470938	0.198339
1134.627898	0.198441
1134.784840	0.204969
1134.941763	0.202896
1135.098668	0.195536
1135.255555	0.196915
1135.412424	0.194841
1135.569274	0.189355
1135.726107	0.189110
1135.882921	0.180664
1136.039716	0.182710
1136.196494	0.183097
1136.353253	0.181595
1136.509995	0.179646
1136.666717	0.178828
1136.823422	0.184226
1136.980109	0.192239
1137.136777	0.188303
1137.293427	0.185943
1137.450059	0.185444
1137.606672	0.184584
1137.763267	0.176870
1137.919844	0.180694
1138.076403	0.177452
1138.232944	0.177207
1138.389466	0.178253
1138.545971	0.175514
1138.702457	0.176899
1138.858924	0.172234
1139.015374	0.175384
1139.171805	0.184200
1139.328218	0.176827
1139.484613	0.189587
1139.640990	0.190157
1139.797348	0.187851
1139.953688	0.193443
1140.110010	0.189074
1140.266314	0.189490
1140.422600	0.190181
1140.578867	0.191648
1140.735116	0.205392
1140.891347	0.192447
1141.047559	0.192076
1141.203754	0.193420
1141.359930	0.186050
1141.516088	0.189494
1141.672228	0.193979
1141.828349	0.188109
1141.984452	0.188172
1142.140537	0.181174
1142.296604	0.187221
1142.452653	0.183664
1142.608683	0.178084
1142.764695	0.184220
1142.920689	0.180541
1143.076665	0.172027
1143.232622	0.170654
1143.388562	0.167194
1143.544483	0.166404
1143.700385	0.165595
1143.856270	0.167668
1144.012136	0.175456
1144.167985	0.166041
1144.323814	0.165643
1144.479626	0.171678
1144.635420	0.176348
1144.791195	0.172252
1144.946952	0.173122
1145.102691	0.167159
1145.258411	0.162241
1145.414113	0.163281
1145.569798	0.170128
1145.725463	0.180675
1145.881111	0.182775
1146.036741	0.175581
1146.192352	0.180418
1146.347945	0.175539
1146.503519	0.182288
1146.659076	0.182859
1146.814614	0.180087
1146.970134	0.178945
1147.125636	0.171514
1147.281120	0.168577
1147.436585	0.176327
1147.592032	0.172895
1147.747461	0.176221
1147.902872	0.179344
1148.058265	0.181102
1148.213639	0.175091
1148.368995	0.162177
1148.524333	0.163812
1148.679653	0.160071
1148.834954	0.164528
1148.990237	0.173051
1149.145502	0.168709
1149.300749	0.171352
1149.455977	0.172757
1149.611188	0.175861
1149.766380	0.190492
1149.921553	0.186149
1150.076709	0.193397
1150.231846	0.184838
1150.386966	0.181273
1150.542066	0.176279
1150.697149	0.170297
1150.852214	0.163970
1151.007260	0.164368
1151.162288	0.165179
1151.317298	0.166346
1151.472289	0.170042
1151.627263	0.171139
1151.782218	0.171205
1151.937155	0.183249
1152.092073	0.183732
1152.246974	0.196524
1152.401856	0.198800
1152.556720	0.198824
1152.711566	0.203011
1152.866393	0.193163
1153.021203	0.190740
1153.175994	0.194892
1153.330767	0.189485
1153.485521	0.185316
1153.640258	0.172812
1153.794976	0.170346
1153.949676	0.175045
1154.104358	0.179017
1154.259021	0.180510
1154.413667	0.189444
1154.568294	0.175517
1154.722903	0.179378
1154.877493	0.179452
1155.032066	0.179593
1155.186620	0.173666
1155.341156	0.160298
1155.495674	0.145948
1155.650173	0.142947
1155.804654	0.141058
1155.959118	0.146985
1156.113562	0.144643
1156.267989	0.151422
1156.422397	0.162847
1156.576788	0.172479
1156.731160	0.173077
1156.885513	0.181841
1157.039849	0.176971
1157.194166	0.178171
1157.348465	0.191596
1157.502746	0.188571
1157.657009	0.180817
1157.811253	0.173140
1157.965479	0.176724
1158.119687	0.188792
1158.273877	0.184996
1158.428048	0.198311
1158.582201	0.190004
1158.736337	0.175018
1158.890453	0.174838
1159.044552	0.165955
1159.198632	0.166957
1159.352694	0.156759
1159.506738	0.150593
1159.660764	0.156990
1159.814771	0.148241
1159.968761	0.152368
1160.122732	0.164810
1160.276685	0.172109
1160.430619	0.172205
1160.584535	0.178849
1160.738434	0.180276
1160.892313	0.192318
1161.046175	0.186344
1161.200019	0.178797
1161.353844	0.172828
1161.507651	0.157127
1161.661440	0.152004
1161.815210	0.168321
1161.968962	0.168181
1162.122697	0.172537
1162.276412	0.165048
1162.430110	0.176581
1162.583789	0.182293
1162.737451	0.186517
1162.891094	0.187222
1163.044718	0.191239
1163.198325	0.178564
1163.351913	0.170749
1163.505483	0.172460
1163.659035	0.166073
1163.812569	0.156789
1163.966084	0.156106
1164.119581	0.152878
1164.273060	0.154864
1164.426521	0.157479
1164.579964	0.155430
1164.733388	0.156819
1164.886794	0.154803
1165.040182	0.162705
1165.193551	0.169152
1165.346903	0.170064
1165.500236	0.171343
1165.653551	0.165577
1165.806848	0.154415
1165.960126	0.173158
1166.113386	0.169412
1166.266628	0.158482
1166.419852	0.141699
1166.573058	0.135610
1166.726245	0.137511
1166.879414	0.142857
1167.032565	0.150057
1167.185698	0.164533
1167.338812	0.145728
1167.491909	0.149586
1167.644987	0.149291
1167.798046	0.164132
1167.951088	0.151760
1168.104111	0.146452
1168.257117	0.131827
1168.410103	0.128244
1168.563072	0.128413
1168.716023	0.129947
1168.868955	0.123171
1169.021869	0.132553
1169.174765	0.127537
1169.327642	0.139635
1169.480501	0.156907
1169.633343	0.160622
1169.786165	0.162378
1169.938970	0.152646
1170.091757	0.163601
1170.244525	0.167533
1170.397275	0.168242
1170.550007	0.179120
1170.702720	0.177705
1170.855415	0.173557
1171.008092	0.167031
1171.160751	0.155959
1171.313392	0.144941
1171.466014	0.218334
1171.618619	0.066947
1171.771205	0.066947
1171.923772	0.066947
