sample name	sample
index	354
start time	 03-01-2021  12:11:58 PM
880	0.285278
Peak Time (s)	92.537
Peak Height 	0.2853
calc peak height	90,93
Baseline Time (s)	8.536
Baseline Value 	-0.002574
subtract baseline	10,4
Abs	0.213760
Peak Time (s)	92.537
Peak Height 	0.2138
calc peak height	90,93
Baseline Time (s)	10.54
Baseline Value 	0.001369
subtract baseline	10,3
PK_550	0.117323
Peak Time (s)	92.537
Peak Height 	0.1173
calc peak height	90,93
Baseline Time (s)	11.537
Baseline Value 	3.157E-4
subtract baseline	10,2
PK_880	0.200841
Peak Time (s)	92.537
Peak Height 	0.2008
calc peak height	90,93
Baseline Time (s)	10.037
Baseline Value 	7.5135E-4
subtract baseline	10,1


Time (s)	A880-A510	A880-A775	A880-A975	A880	I510	I775	I975	I880	
0.039000	-0.002152	-0.000517	0.000593	0.007048	6863.410583	47300.233626	3994.456148	24968.531222
0.540000	-0.000825	0.000190	-0.001227	0.004933	6895.137825	47589.741785	3995.234520	25076.475793
1.037000	-0.000669	-0.000025	0.000216	0.004069	6904.584721	47656.647100	4001.338368	25120.708306
1.541500	-0.001145	0.000221	-0.004194	0.001337	6925.561079	47964.523213	3996.896079	25261.128944
2.037000	-0.001848	-0.000125	-0.002977	0.004790	6886.995312	47572.012160	3991.001930	25083.768449
2.537500	-0.000848	-0.000432	-0.004318	0.000488	6936.256972	47984.982412	3998.813470	25304.973778
3.035500	-0.001300	-0.000291	-0.005588	-0.000376	6940.107965	48089.372486	3997.736215	25349.614301
3.535500	-0.000724	-0.000011	-0.003675	0.000366	6938.559504	48041.302653	4000.838738	25311.254730
4.038500	-0.000380	-0.000430	-0.000712	0.000692	6938.723886	47963.902280	4007.848753	25294.399866
4.536000	-0.000306	-0.000053	-0.000816	0.000158	6944.411935	48058.602014	4008.996258	25321.997609
5.036500	0.000500	-0.000536	-0.002006	-0.000554	6958.658764	48082.436749	4007.724040	25358.870951
5.536500	-0.001141	0.000152	-0.002670	0.000207	6936.143826	48074.791016	4003.926682	25319.474831
6.037000	-0.000590	0.000647	0.001547	0.000456	6938.963567	48100.451582	4014.523909	25306.608446
6.540000	-0.000687	-0.000574	-0.001337	-0.000271	6944.864122	48048.981876	4008.751099	25344.199938
7.034500	0.000020	0.000000	-0.000843	0.000322	6945.932629	48047.022469	4008.487229	25313.509062
7.541000	-0.000565	-0.000237	-0.001202	-0.000263	6945.930850	48083.201605	4009.090176	25343.781816
8.035500	0.001610	-0.000036	-0.000430	0.000016	6963.736717	48075.121139	4010.408974	25329.350755
8.536000	-0.000251	0.000200	0.003376	0.000000	6946.409717	48101.319307	4020.670498	25330.181072
9.036500	0.001768	0.000652	0.003238	0.000549	6960.207669	48091.207583	4018.818262	25301.785831
9.537000	0.000712	0.000187	0.003250	0.000091	6954.587063	48090.516849	4020.085368	25325.480522
10.037000	0.000000	-0.000644	-0.000826	-0.000701	6955.337380	48086.394877	4011.266616	25366.455455
10.539500	0.000071	-0.000433	0.000000	-0.000759	6956.556484	48114.427793	4013.634043	25369.485832
11.038000	-0.000438	-0.000218	-0.001933	-0.000335	6947.801751	48092.748902	4007.334698	25347.536270
11.537500	-0.002149	0.000000	-0.004148	0.001895	6911.023334	47883.796852	3995.543249	25232.369340
12.038000	-0.000404	-0.000703	-0.000832	-0.000416	6948.872234	48050.653989	4010.488536	25351.698886
12.535500	-0.002087	0.000034	-0.007246	-0.000472	6933.649490	48133.162144	3993.616168	25354.602630
13.036000	-0.000024	0.000390	-0.001822	-0.000478	6953.026645	48170.893385	4008.010821	25354.926931
13.535500	-0.001887	0.000923	0.005925	0.002313	6909.572899	47936.136168	4021.308303	25210.873302
14.036000	-0.000146	0.000065	-0.002249	0.002634	6922.775134	47814.006525	3998.607369	25194.337287
14.560500	-0.000085	-0.000182	-0.001637	0.000129	6946.760418	48048.270562	4006.886538	25323.526572
15.037000	-0.001396	-0.000480	0.002132	-0.000727	6942.487921	48106.199505	4019.275443	25367.794371
15.539500	-0.001138	0.000690	-0.002857	0.002663	6913.285105	47875.718492	3996.925756	25192.875367
16.403000	-0.000101	0.000116	-0.000536	-0.000437	6951.910656	48138.041372	4011.333698	25352.773937
16.865500	0.000328	0.000414	0.003387	0.000082	6951.069131	48115.129239	4020.479064	25325.955766
17.071000	-0.000292	-0.000303	-0.000696	-0.000771	6953.255060	48129.276692	4011.800054	25370.094787
17.538500	-0.001324	-0.000290	-0.000644	-0.000108	6937.376122	48061.576785	4010.165021	25335.744246
18.039000	0.000258	-0.000040	0.001866	-0.002585	6975.505416	48346.077505	4023.570846	25464.298135
18.536000	0.000296	0.000121	-0.002906	0.001220	6940.110633	47966.295742	4000.613186	25267.156861
19.036000	-0.002085	-0.000029	-0.000549	0.000535	6924.267813	48021.860795	4008.702040	25302.500637
19.536500	0.000524	0.000269	-0.000205	0.001527	6939.366591	47949.857861	4006.975189	25251.331084
20.037000	-0.002235	0.000262	-0.001161	0.000810	6920.314495	48023.602580	4006.338744	25288.334708
20.534500	-0.001527	-0.000466	0.001052	0.000757	6927.396010	47953.457374	4012.389315	25291.036849
21.037500	-0.001250	0.000334	-0.007334	0.000779	6929.784267	48034.235866	3990.092302	25289.915263
21.535000	-0.000620	-0.000324	-0.000501	0.001250	6931.262765	47917.031356	4006.925080	25265.600280
22.035500	-0.000825	0.000346	0.002713	0.001171	6930.087733	47994.736345	4015.733848	25269.670818
22.538000	-0.000691	0.000897	-0.008815	0.001279	6930.334726	48040.870759	3984.902592	25264.129066
23.036000	-0.000857	-0.000230	-0.004786	0.001147	6930.016635	47937.565610	3995.835057	25270.953337
23.536000	-0.001978	-0.000398	-0.004215	0.001618	6915.180561	47871.242721	3996.097498	25246.626861
24.036500	-0.001287	0.000031	0.000607	0.001044	6926.959981	47975.224138	4010.432041	25276.220515
24.539500	0.000580	0.000510	-0.000534	0.000957	6945.225100	48034.035584	4007.618777	25280.726565
25.037000	-0.000636	-0.000141	-0.004285	0.001178	6931.789015	47943.497848	3997.075275	25269.328476
25.542500	0.000797	0.000375	0.000717	0.001515	6942.040873	47962.097195	4009.468913	25251.952093
26.034500	-0.000212	0.000020	-0.000720	0.001042	6937.027694	47974.407720	4006.897435	25276.361986
26.535000	-0.002272	0.000445	0.003605	0.001519	6913.376955	47968.949270	4017.196605	25251.767613
27.038500	-0.001860	0.000180	-0.001688	0.000760	6924.276262	48020.236492	4005.070279	25290.920948
27.535500	0.000784	0.000718	0.002515	0.001650	6940.653830	47983.658147	4013.916159	25244.986144
28.036000	-0.000365	-0.000236	-0.002471	-0.002243	6966.408924	48289.865223	4010.990955	25446.529780
28.536000	0.001143	0.000657	0.001049	-0.000040	6959.866059	48153.108735	4014.519846	25332.253475
29.036500	-0.000027	0.000422	0.002069	-0.000595	6954.089964	48186.501590	4018.752299	25360.988928
29.536500	0.000785	0.000069	0.000303	-0.000343	6959.352014	48123.383143	4013.331029	25347.911980
30.037500	0.000807	0.000657	-0.000333	0.000018	6956.175643	48147.068573	4010.662172	25329.275073
30.538000	-0.000390	-0.000560	0.000684	-0.000844	6953.028572	48110.154044	4015.698077	25373.896648
31.034500	0.002781	0.000710	-0.000984	0.000068	6974.282606	48147.435574	4008.791069	25326.676225
31.536000	-0.000302	0.000552	0.000766	0.003524	6913.045671	47772.316021	4004.243897	25148.615518
32.035500	-0.000387	0.000108	-0.001227	-0.000292	6947.865784	48122.098008	4009.100539	25345.272162
32.535500	-0.000123	0.000414	0.002763	-0.000210	6949.579961	48145.453920	4019.582209	25341.043756
33.037000	-0.000619	0.000210	-0.000891	-0.000347	6946.210946	48138.522559	4010.144881	25348.114088
33.536500	-0.002246	0.000526	-0.000163	0.000947	6918.929625	48036.740053	4008.632685	25281.235949
34.036000	-0.000081	0.000139	0.004028	-0.000931	6956.733465	48191.975897	4024.944885	25378.365907
34.534000	-0.001039	0.000442	-0.004656	0.001747	6922.727603	47945.014613	3994.595373	25240.007890
35.037500	-0.001621	0.000120	0.001007	0.001619	6918.497548	47924.800192	4009.965014	25246.580087
35.534500	-0.001422	0.000498	-0.000099	0.002474	6912.401138	47875.494479	4004.736917	25202.589939
36.035000	-0.001676	0.000046	-0.001438	0.001765	6916.624474	47902.027915	4003.061604	25239.062427
36.535500	-0.001708	0.000321	-0.000785	0.001649	6917.416096	47942.603811	4005.106720	25245.063872
37.035500	-0.001658	0.000941	-0.003154	0.002307	6911.759026	47938.624754	3997.081885	25211.177746
37.536000	-0.001247	0.000672	-0.001568	0.002409	6914.633017	47900.234531	4001.009292	25205.924254
38.036500	-0.001980	0.000402	-0.002366	0.001784	6913.622466	47937.002300	4000.549099	25238.095067
38.536500	-0.000910	-0.000201	-0.003269	0.001651	6924.821879	47888.253287	3998.510455	25244.920750
39.037000	-0.000224	0.000657	0.001477	0.002141	6926.647719	47926.345357	4009.825049	25219.682532
39.537500	-0.001075	0.000310	0.000162	0.002827	6912.341008	47819.329805	4004.491156	25184.398741
40.037500	-0.000346	0.000154	0.002753	0.002075	6926.122063	47881.080939	4013.416151	25223.098608
40.535000	-0.001199	0.000528	-0.002042	0.001933	6919.506963	47934.631378	4001.014095	25230.414519
41.038000	0.000457	0.000572	0.000795	0.002403	6930.559288	47890.491730	4007.307569	25206.235289
41.535500	-0.002402	-0.000482	-0.003416	0.001635	6911.090381	47860.839821	3998.163787	25245.763585
42.035500	-0.002115	0.000261	-0.000896	0.001936	6910.952186	47906.542230	4004.046145	25230.246759
42.536500	-0.000891	0.000833	0.002313	0.002377	6918.235881	47920.205201	4011.430026	25207.554537
43.036000	-0.000143	0.000543	-0.002896	0.002513	6923.942261	47876.064619	3997.219750	25200.590025
43.537000	-0.002493	0.000073	-0.001659	0.002457	6902.611891	47833.219682	4000.638663	25203.448226
44.037000	-0.000798	0.000250	0.002446	0.000285	6938.620672	48076.970316	4017.397954	25315.460125
44.537500	0.001260	0.000825	0.003703	-0.002330	6982.562474	48409.975016	4027.856714	25451.011794
45.040500	-0.002705	-0.000100	0.002948	-0.000423	6927.416910	48114.141304	4020.655333	25352.049690
45.540000	-0.001847	0.000991	-0.000231	0.003645	6897.589028	47805.193723	4001.275262	25142.397907
46.035500	0.000722	0.000262	0.000047	0.000077	6954.812810	48099.715731	4011.519658	25326.191211
46.535500	0.001132	0.000695	0.003898	0.000500	6954.693242	48100.864726	4020.728061	25304.331523
47.036000	-0.001200	0.001105	0.005316	0.000717	6930.828564	48120.949764	4023.972426	25293.114911
47.536500	-0.000619	0.001034	0.000673	0.003314	6912.061702	47843.997347	4004.557119	25159.428986
48.036500	-0.002504	0.000917	-0.001429	0.002904	6898.377834	47874.259680	4000.065547	25180.480675
48.537000	-0.000584	-0.000571	-0.002247	-0.000284	6945.951157	48050.686656	4006.360451	25344.893870
49.037000	-0.000038	0.000743	0.000875	0.000442	6944.261586	48111.899473	4012.760100	25307.325840
49.537500	-0.002369	0.000173	-0.000723	0.002870	6899.938498	47800.857902	4002.025679	25182.217472
50.037500	-0.000551	0.000293	0.002749	-0.000935	6952.365214	48208.492733	4021.501545	25378.600986
50.535500	-0.000446	0.000585	-0.000063	-0.000296	6947.362114	48172.282634	4012.225905	25345.518041
51.035500	0.001400	0.000371	0.000932	0.009812	6870.646154	47108.836902	3988.080322	24828.308538
51.536000	0.000737	-0.010764	0.006587	0.325075	4806.420121	23747.868352	3407.665008	13492.649697
52.036000	-0.016782	-0.014813	-0.008719	0.117774	5863.901067	36192.672140	3717.966841	19994.193210
52.536500	-0.026850	-0.040037	-0.017255	-0.141134	8174.493354	59923.921391	4395.186715	33956.614841
53.036500	-0.099495	-0.288940	-0.083281	-0.430793	11608.511900	65535.000000	5436.238805	63441.175360
53.537000	-0.097158	-0.303698	-0.084851	-0.445551	11959.051329	65535.000000	5515.991440	65535.000000
54.036500	-0.003229	-0.166055	0.008965	-0.307909	11089.411634	65535.000000	5260.039089	48512.572948
54.534500	-0.007148	-0.099595	0.004212	-0.241449	9860.766321	65535.000000	4895.481400	42035.387195
55.037500	-0.011252	-0.070098	0.002865	-0.207850	9280.051195	64946.303065	4737.301849	39119.288862
55.535000	-0.005123	-0.057359	-0.001906	-0.192846	9150.502579	64623.314874	4653.271473	37888.103988
56.037000	0.007048	-0.054601	0.003219	-0.192231	9319.691892	64928.729153	4672.100755	37838.594398
56.535500	0.016579	-0.039359	0.013186	-0.171943	9162.073989	64212.160327	4629.297271	36242.383902
57.036000	0.020439	-0.020729	0.016138	-0.144068	8823.957871	62920.812256	4530.038131	34167.407969
57.536500	0.023455	-0.011017	0.018552	-0.115091	8478.863055	60316.209036	4430.329384	32146.981059
58.036500	0.034329	-0.001280	0.027974	-0.103924	8475.098082	60127.585024	4423.991721	31403.682275
58.537000	0.035419	0.003677	0.030629	-0.087457	8280.347455	58630.602194	4374.706478	30341.826367
59.034500	0.040472	0.014803	0.036722	-0.037739	7752.231282	53891.463186	4228.942290	27369.641802
59.537500	0.043777	0.018198	0.041001	-0.010603	7491.929770	51178.666433	4158.222100	25885.422087
60.035000	0.050627	0.022849	0.050489	-0.003941	7493.922067	50955.565447	4166.764674	25534.977629
60.535500	0.058601	0.027542	0.055000	0.008809	7443.416945	50072.128515	4142.010826	24879.088695
61.035500	0.061967	0.031176	0.060096	0.015989	7403.494471	49688.566439	4135.823801	24518.161533
61.535500	0.064610	0.036198	0.067886	0.028541	7301.377873	48884.236125	4121.795422	23901.274273
62.036000	0.072151	0.039401	0.074519	0.022904	7437.693568	49829.911657	4158.254479	24176.120097
62.536500	0.077200	0.044747	0.074312	0.025160	7467.125244	50165.000899	4150.851302	24065.684520
63.037000	0.077063	0.047420	0.071326	0.028744	7427.960598	50066.093425	4131.315463	23891.474244
63.537000	0.082228	0.050283	0.081205	0.031471	7453.587378	50080.813636	4152.599033	23759.859559
64.040000	0.083864	0.052228	0.084508	0.036258	7420.495573	49773.052899	4148.153060	23530.814705
64.535000	0.085635	0.053952	0.087942	0.041952	7379.632017	49346.366887	4141.412165	23261.604040
65.035500	0.088598	0.055286	0.089094	0.048087	7346.876881	48835.769554	4126.675130	22975.531072
65.535500	0.089832	0.056878	0.089040	0.054632	7292.542357	48314.805722	4107.415125	22674.719766
66.036000	0.092501	0.058407	0.093970	0.061467	7250.387905	47763.267360	4101.910230	22365.395471
66.535500	0.095324	0.059799	0.094239	0.068611	7207.086190	47172.995615	4082.241278	22047.240882
67.036000	0.096108	0.060443	0.096846	0.074539	7156.103683	46637.472743	4072.849480	21787.194695
67.539500	0.098388	0.061037	0.093438	0.080245	7122.477526	46125.617943	4047.444073	21540.209371
68.037000	0.100182	0.063591	0.100513	0.088108	7063.556465	45600.361374	4045.272522	21205.121404
68.540000	0.104150	0.065666	0.105822	0.095684	7028.924352	45062.916412	4039.046731	20887.989287
69.037500	0.107893	0.066621	0.109568	0.101852	7005.794971	44559.716447	4032.430481	20633.815890
69.535000	0.104378	0.067195	0.106607	0.113315	6865.829818	43528.087735	3993.790250	20170.960099
70.035500	0.110070	0.068379	0.111159	0.113884	6913.164894	43585.725136	4004.332927	20148.313146
70.535000	0.111736	0.070358	0.112035	0.119794	6873.908742	43218.955198	3991.021915	19914.681810
71.035500	0.115781	0.071691	0.117755	0.126175	6852.463152	42753.002979	3989.286956	19666.014465
71.536500	0.115747	0.072851	0.118903	0.137169	6752.788270	41860.675957	3963.739467	19246.067273
72.039500	0.118480	0.074307	0.125168	0.137930	6770.418491	41923.088784	3977.949520	19217.365182
72.537000	0.122112	0.074824	0.122828	0.142827	6759.100546	41531.449886	3959.299743	19034.015180
73.037500	0.122699	0.076271	0.130408	0.148512	6713.799962	41156.259966	3964.155937	18823.761757
73.537500	0.121384	0.077932	0.127230	0.159626	6605.538138	40332.443116	3928.069679	18420.524596
74.035000	0.126661	0.078340	0.130143	0.157997	6665.305714	40508.423311	3939.409525	18478.987981
74.535500	0.130998	0.079693	0.140728	0.163712	6653.302376	40132.598632	3951.699399	18274.872120
75.035500	0.131712	0.081031	0.136272	0.168868	6614.878411	39806.645650	3927.574180	18093.006660
75.536000	0.131290	0.081652	0.138447	0.179088	6524.389301	38999.738876	3907.785764	17738.829829
76.036000	0.134685	0.082927	0.141372	0.178831	6555.190382	39127.293223	3915.568591	17747.629763
76.536500	0.137535	0.084405	0.144072	0.184258	6533.426700	38799.382243	3908.896001	17562.816070
77.036500	0.139359	0.084904	0.146419	0.189182	6507.422389	38435.407741	3902.627830	17397.130949
77.537000	0.137859	0.085405	0.144858	0.197773	6424.036288	37779.450959	3878.295100	17112.471141
78.037000	0.143730	0.085943	0.148006	0.198427	6466.902568	37770.172078	3884.222007	17091.040259
78.534500	0.147249	0.088001	0.155263	0.203793	6451.674240	37505.589330	3888.738298	16916.363827
79.035000	0.147347	0.089044	0.158650	0.208120	6417.034320	37244.884692	3886.491161	16777.069435
79.535500	0.147198	0.088878	0.150162	0.217449	6340.610759	36502.043486	3844.807604	16481.402883
80.036000	0.149918	0.090489	0.154978	0.215795	6375.664228	36755.582294	3859.745765	16533.352246
80.536000	0.151374	0.090192	0.160684	0.218957	6361.952098	36487.005493	3865.682072	16434.207190
81.036000	0.152871	0.091618	0.160933	0.222812	6343.082269	36299.644131	3857.280444	16314.293893
81.536500	0.153055	0.092058	0.162568	0.232675	6266.678175	35582.679410	3838.365661	16012.288031
82.036500	0.158567	0.092787	0.168032	0.229757	6333.128245	35858.325855	3857.636648	16100.928692
82.539500	0.160879	0.094788	0.164230	0.233690	6320.255910	35712.078631	3839.841122	15981.620952
83.037000	0.162863	0.095858	0.170687	0.237120	6308.803130	35534.134799	3846.768046	15878.412271
83.537000	0.165430	0.097580	0.175161	0.240784	6300.145435	35388.564942	3848.630284	15769.092354
84.035000	0.166525	0.097493	0.174067	0.243352	6288.560833	35190.573242	3840.241944	15693.035623
84.537500	0.170898	0.098160	0.177651	0.246347	6299.392450	35017.842662	3841.583293	15604.847973
85.035500	0.171040	0.099122	0.177382	0.248941	6280.126761	34897.420086	3835.067348	15529.000391
85.536500	0.173296	0.101332	0.186974	0.252880	6266.966918	34770.262404	3847.980154	15414.661068
86.036500	0.173182	0.102016	0.186035	0.254621	6252.513859	34692.735999	3841.837093	15364.450427
86.536500	0.178439	0.103720	0.189303	0.258005	6267.104472	34569.919650	3841.571192	15267.418170
87.039500	0.181511	0.105281	0.192805	0.260918	6268.346304	34471.514439	3842.919150	15184.530096
87.537500	0.182584	0.105850	0.193503	0.262727	6262.607561	34381.517180	3840.380722	15133.317077
88.037500	0.184118	0.105433	0.189853	0.263907	6265.369741	34265.962333	3829.420612	15100.034186
88.535000	0.184648	0.107319	0.189784	0.267397	6242.353060	34150.290025	3821.423490	15002.113229
89.035000	0.187388	0.108869	0.194280	0.269621	6246.350451	34101.803421	3826.521021	14940.094015
89.535500	0.185138	0.108917	0.193348	0.275136	6186.639052	33711.380335	3812.123734	14787.726281
90.036000	0.190862	0.110306	0.197584	0.273963	6239.618006	33893.719627	3824.188676	14819.973823
90.536000	0.192739	0.112150	0.200135	0.276703	6232.946037	33829.858645	3823.764700	14744.790515
91.036500	0.195222	0.113366	0.205298	0.278443	6238.691400	33792.558786	3831.472183	14697.282673
91.539000	0.195786	0.114478	0.201366	0.280537	6226.866278	33722.816342	3817.941850	14640.376112
92.036500	0.196444	0.115165	0.209306	0.282602	6216.029571	33625.144364	3831.131454	14584.520719
92.537000	0.200841	0.117323	0.213760	0.285278	6229.288774	33588.467470	3835.159614	14512.528843
93.034500	0.203210	0.117799	0.207955	0.287005	6234.254620	33500.254001	3818.212778	14466.324247
93.535000	0.199662	0.117757	0.209686	0.292503	6165.044495	33112.323034	3809.847523	14320.372468
94.035500	0.204546	0.119902	0.212515	0.290720	6215.913906	33386.895905	3820.100560	14367.506403
94.536000	0.206063	0.119930	0.210407	0.292587	6213.225839	33258.013870	3811.256711	14318.164490
95.036000	0.206826	0.121170	0.216095	0.294319	6205.783988	33223.653863	3820.056303	14272.572065
95.536000	0.203167	0.119928	0.218120	0.300626	6130.258080	32701.003398	3810.534679	14108.093147
96.036000	0.208105	0.123525	0.215922	0.298992	6179.878642	33062.182757	3809.288230	14150.495761
96.537000	0.212076	0.123923	0.221218	0.300254	6200.536019	33002.188551	3818.243212	14117.736215
