sample name	sample
index	1150
start time	 04-22-2021  03:29:15 PM
880	0.598262
Peak Time (s)	101.537
Peak Height 	0.5983
calc peak height	100,103
Baseline Time (s)	10.036
Baseline Value 	-0.002268
subtract baseline	10,4
Abs	0.358788
Peak Time (s)	102.037
Peak Height 	0.3588
calc peak height	100,103
Baseline Time (s)	10.036
Baseline Value 	0.002173
subtract baseline	10,3
PK_550	0.211846
Peak Time (s)	101.036
Peak Height 	0.2118
calc peak height	100,103
Baseline Time (s)	8.536
Baseline Value 	6.3827E-4
subtract baseline	10,2
PK_880	0.340156
Peak Time (s)	102.037
Peak Height 	0.3402
calc peak height	100,103
Baseline Time (s)	8.536
Baseline Value 	3.0058E-4
subtract baseline	10,1


Time (s)	A880-A510	A880-A775	A880-A975	A880	I510	I775	I975	I880	
0.035500	-0.005057	-0.001571	-0.004286	0.005668	6207.349247	42676.610903	3898.355493	22533.262878
0.536500	-0.001767	0.000046	-0.006541	0.004395	6241.750129	42941.411913	3896.154489	22590.744193
1.036500	-0.001142	-0.001349	-0.003416	0.003253	6255.168773	42918.137741	3905.758688	22642.461937
1.541500	-0.001219	-0.000828	-0.000846	0.001244	6269.895901	43151.256061	3916.173415	22733.747166
2.037000	-0.003064	0.000227	0.001423	0.006106	6219.030393	42800.956339	3910.261982	22513.515666
2.535000	-0.000773	-0.000895	-0.001644	0.000860	6276.248148	43180.660007	3915.228620	22751.264618
3.038000	-0.001204	-0.000875	0.000138	-0.001999	6294.890401	43447.804968	3925.883994	22882.043126
3.535000	-0.000514	-0.000435	-0.004010	0.000639	6279.922951	43243.655919	3910.338997	22761.333568
4.035500	-0.004069	-0.000166	-0.005963	0.004962	6220.069849	42869.758457	3896.175679	22565.088424
4.536000	-0.001674	-0.000945	-0.006660	0.002074	6260.087977	43063.837091	3901.097836	22695.962258
5.036000	-0.001297	-0.001094	0.001642	-0.000080	6279.430398	43249.211378	3924.925756	22794.132042
5.536500	0.000587	0.000705	-0.000075	0.001436	6282.261403	43275.505421	3917.497704	22725.025770
6.036500	0.000693	-0.000142	-0.000261	0.001145	6285.298393	43223.934164	3917.738198	22738.242928
6.537000	0.000533	-0.000487	-0.002743	0.000687	6287.587585	43234.329375	3913.113564	22759.130798
7.037000	0.000011	0.000338	0.001077	0.000298	6286.567597	43346.919667	3922.752018	22776.869970
7.534500	-0.000329	0.000496	0.002844	0.000798	6280.120486	43315.208630	3925.674004	22754.073158
8.035000	-0.000506	0.000048	0.001492	0.000412	6281.724136	43309.503718	3923.446473	22771.685095
8.535500	0.000000	0.000000	0.006614	0.000114	6287.899204	43332.702322	3936.007895	22785.297180
9.036000	0.000943	0.000151	0.001208	0.000595	6291.452611	43302.047152	3922.372076	22763.349903
9.535500	0.003278	0.000736	0.002241	0.000972	6306.539235	43321.284809	3923.880587	22746.123690
10.036000	-0.000705	0.000127	0.000000	0.000000	6283.358172	43355.028734	3920.962595	22790.495414
10.536500	-0.002550	-0.000647	-0.003251	-0.000503	6273.079732	43329.880720	3914.669861	22813.491812
11.039500	-0.002395	-0.000837	-0.000312	-0.000822	6276.700186	43341.839369	3922.133751	22828.060221
11.536500	0.001381	-0.000193	-0.003361	-0.000332	6301.968459	43356.174854	3914.030248	22805.683937
12.037500	0.000909	0.000284	-0.001642	0.000203	6294.207873	43350.882464	3916.733155	22781.244989
12.535000	0.000415	0.000362	0.001139	0.000266	6289.918528	43352.161282	3922.968637	22778.339229
13.035000	-0.000833	0.000570	0.002613	-0.000040	6282.685328	43399.996208	3927.075911	22792.331233
13.535000	-0.000580	0.000767	0.001053	0.000185	6282.899168	43397.359965	3922.960219	22782.058458
14.035500	-0.001552	-0.000284	0.005495	0.001455	6265.739563	43182.103969	3930.287363	22724.148588
14.535500	-0.003542	-0.000004	-0.008662	0.001596	6249.512246	43194.994485	3897.674121	22717.720329
15.036000	-0.000274	0.001136	-0.000439	0.000670	6281.527589	43386.544121	3918.417402	22759.906965
15.536500	0.001675	0.000242	-0.004402	0.000415	6298.472218	43327.279908	3909.957471	22771.564528
16.037000	-0.005743	-0.000772	-0.003333	0.004079	6214.126654	42895.292332	3904.078796	22605.037035
16.537500	-0.000962	0.000156	-0.003878	0.002274	6263.992678	43147.018365	3906.928346	22686.872552
17.035000	0.001305	-0.000363	-0.000472	-0.003203	6323.601357	43607.899569	3927.256070	22937.354032
17.534500	-0.002570	-0.000607	0.005586	0.000409	6265.958739	43249.070587	3932.927972	22771.821358
18.035000	-0.000506	-0.000281	-0.002541	0.001945	6269.986516	43137.079842	3910.709093	22701.846481
18.535500	-0.002086	0.000504	0.002454	0.001317	6262.722633	43267.875178	3923.577952	22730.437483
19.036000	-0.000024	-0.000367	-0.003429	0.000611	6283.896230	43252.548957	3911.723019	22762.590187
19.536000	0.000125	-0.001316	-0.003090	-0.000055	6290.160975	43226.385305	3914.013947	22793.013464
20.036500	-0.001617	0.000529	-0.000205	0.001683	6263.505659	43236.249927	3916.636310	22713.782473
20.539500	0.000643	0.000423	-0.001851	0.001557	6281.752348	43238.029834	3913.163294	22719.472554
21.037000	-0.001337	-0.000545	0.002168	0.000659	6273.467243	43231.600058	3924.434544	22760.396438
21.534500	-0.000179	-0.000485	-0.006301	0.000612	6282.702374	43241.555409	3905.208571	22762.575264
22.035000	0.000237	0.000365	0.002097	0.000980	6283.067898	43286.192833	3923.531595	22745.774817
22.535000	0.001018	-0.000065	-0.002547	0.001088	6288.237603	43236.319489	3912.648568	22740.870442
23.035500	-0.000269	-0.000901	0.005731	0.000507	6282.814828	43212.727205	3933.037900	22767.367113
23.536000	-0.001485	-0.000443	0.001370	0.000577	6272.961646	43248.603665	3922.785533	22764.136090
24.036000	-0.001159	-0.000917	0.002563	0.000591	6275.352570	43203.507065	3925.504655	22763.537666
24.536000	-0.000819	-0.000428	0.004119	0.000977	6274.993470	43212.908646	3928.204772	22745.892369
25.036500	-0.001708	-0.000430	0.001777	0.000588	6271.169255	43248.806420	3923.695763	22763.630616
25.537000	0.000429	-0.000252	0.000944	0.000733	6286.434095	43251.850295	3921.445769	22757.023980
26.037000	0.000122	-0.000156	0.000132	0.000874	6282.999516	43247.668960	3919.259103	22750.597097
26.535000	-0.001161	0.000168	0.005996	0.001112	6271.349991	43255.687023	3932.246376	22739.769516
27.035000	0.002351	-0.000458	-0.000163	-0.001834	6321.098670	43471.305186	3924.808323	22874.455589
27.538500	-0.000985	-0.000075	0.008890	-0.000769	6287.108471	43407.711138	3943.400331	22825.635601
28.035500	-0.003073	-0.001413	-0.002898	0.003216	6240.777277	42915.597867	3907.014605	22644.103317
28.535500	-0.001025	-0.000484	-0.005919	0.002407	6262.499851	43075.650720	3902.018738	22680.850684
29.038500	0.001818	0.000211	-0.004538	0.000162	6301.530947	43347.809273	3910.224112	22783.103790
29.536000	0.000337	0.000200	0.000668	0.000427	6288.083251	43322.233814	3921.515415	22770.999617
30.039500	0.000144	-0.000068	0.005239	0.002775	6268.613504	43080.153865	3926.640953	22664.151483
30.536500	-0.001777	-0.000858	-0.005455	0.002164	6258.616544	43063.604344	3903.611098	22691.879081
31.037000	-0.001264	-0.000375	-0.001884	0.001349	6268.748390	43183.397929	3913.561432	22728.947655
31.534500	0.002453	0.000781	0.000865	0.000293	6305.420973	43388.606087	3922.277934	22777.118919
32.035000	0.002509	0.000485	-0.001100	0.002269	6290.623932	43177.923678	3913.253236	22687.127908
32.535000	0.001275	0.000695	-0.001701	0.000330	6296.046609	43377.181579	3916.308198	22775.415933
33.035000	0.002236	0.000837	0.003135	0.000411	6302.835923	43382.883982	3927.240818	22771.748716
33.536000	-0.000991	-0.001450	0.004750	0.001094	6272.787234	43107.756260	3929.398100	22740.590149
34.039000	-0.002073	0.000191	-0.000307	0.002206	6256.049775	43156.601662	3915.207137	22689.987553
34.539000	-0.000691	0.000867	0.004540	0.002290	6265.940260	43211.298533	3926.145610	22686.149414
35.036500	-0.001041	0.001088	-0.004074	0.002371	6262.647039	43224.258117	3906.264480	22682.471695
35.537000	0.000250	0.000058	-0.000165	0.002149	6274.207925	43149.544470	3915.662131	22692.573013
36.037000	-0.001439	-0.000100	0.004473	0.002138	6261.395424	43136.033753	3926.342983	22693.088477
36.537500	-0.000394	-0.000016	0.001540	0.002140	6269.354384	43143.491564	3919.585339	22692.965832
37.035000	-0.003104	-0.000100	0.000272	0.002019	6249.627961	43146.924926	3916.957192	22698.467432
37.535500	-0.000848	0.000592	0.001071	0.002575	6262.565119	43159.466642	3917.512422	22673.195700
38.035500	-0.001084	-0.000857	-0.005328	0.002034	6264.889244	43075.617541	3904.192321	22697.787881
38.536500	-0.000389	-0.000802	0.001319	0.001688	6272.848500	43112.687400	3920.116297	22713.532355
39.036000	-0.002685	-0.000559	0.003408	0.001981	6253.100288	43108.049085	3924.247309	22700.214876
39.536500	-0.000409	-0.000366	-0.001961	0.002075	6269.741648	43117.254705	3911.734276	22695.943217
40.037000	-0.000254	0.000208	0.001262	0.001917	6272.125803	43184.842789	3919.458886	22703.120277
40.537500	-0.000210	0.000084	0.000787	0.001823	6273.186010	43182.091536	3918.586819	22707.399574
41.036500	-0.001656	-0.000127	0.001658	0.001627	6263.633034	43180.623606	3921.033361	22716.287105
41.535000	-0.001328	-0.000017	0.000262	0.001407	6267.820202	43211.193942	3918.335877	22726.322365
42.035000	-0.000150	-0.000956	-0.000734	0.000684	6282.372869	43191.252899	3917.710931	22759.281375
42.535500	0.000350	-0.000274	0.000568	0.001709	6278.344450	43159.507365	3918.344140	22712.575185
43.035500	0.000066	-0.000142	0.000993	0.001277	6279.482376	43211.679669	3920.309918	22732.257034
43.536500	0.003104	0.000244	0.004519	-0.003025	6336.216125	43648.046903	3938.444658	22929.173426
44.039500	0.000386	0.000053	0.000374	-0.000722	6297.301781	43415.309904	3923.482536	22823.502708
44.537000	-0.003096	0.000344	-0.001316	0.004848	6228.271652	42927.164466	3906.903404	22570.276492
45.037000	0.000470	-0.000154	-0.000062	-0.000426	6295.670610	43368.538444	3921.799271	22809.963264
45.537500	-0.001426	-0.000138	0.000321	-0.000581	6282.282896	43384.404665	3923.037526	22817.045297
46.034500	-0.002061	0.000394	0.002490	0.000867	6266.341556	43299.304652	3924.696296	22750.914783
46.535000	-0.003099	-0.000803	0.000056	0.005460	6223.633137	42765.782515	3908.625297	22542.635642
47.035000	-0.001523	-0.000545	0.001967	0.001520	6265.462678	43151.982060	3921.990102	22721.177044
47.536000	-0.000886	0.000364	0.007114	0.002292	6264.440269	43164.647740	3932.103020	22686.087900
48.036000	-0.000982	-0.000089	0.007932	0.000648	6276.262032	43274.804763	3937.836840	22760.897039
48.536500	-0.002818	-0.000112	0.000634	0.005060	6228.769244	42865.728936	3910.846063	22560.675928
49.037000	0.001290	-0.000227	0.001203	-0.000215	6300.361004	43342.146329	3924.224690	22800.311084
49.537000	0.002704	0.000018	0.002914	-0.002633	6330.046393	43590.279533	3933.787043	22911.147881
50.037500	0.000358	0.002095	0.003577	0.017030	6163.059264	41979.863880	3890.532627	22027.601872
50.537000	-0.011345	-0.007711	0.011142	0.236500	4837.176932	25995.260082	3517.064505	14459.772473
51.035000	0.018593	-0.005657	-0.023197	0.376484	4414.914810	19740.800777	3320.745111	11288.647299
51.535000	-0.022841	-0.026811	-0.044821	-0.130840	7231.203690	54259.919684	4139.503726	29765.610643
52.035500	-0.000670	-0.050942	-0.016626	-0.220901	8493.465872	62661.827522	4520.153158	35944.810241
52.536000	-0.010189	-0.048270	-0.014829	-0.224550	8419.051407	63536.413255	4540.304388	36223.185277
53.036500	0.007756	-0.019281	0.010102	-0.157433	7833.682993	58449.171056	4390.616098	31458.829903
53.539000	0.021958	-0.007754	0.027696	-0.112319	7498.201679	54323.135928	4300.517936	28646.070259
54.036500	0.023046	-0.000551	0.023465	-0.065869	7047.179342	49889.373058	4148.822418	26039.721508
54.536500	0.030498	0.004442	0.033171	-0.047096	6941.778663	48425.293912	4123.501685	25062.949287
55.037500	0.041478	0.010694	0.039108	-0.024336	6834.979576	46731.346172	4077.895318	23933.968668
55.537500	0.059229	0.021255	0.056817	0.007706	6709.238030	44621.430373	4040.412489	22441.574541
56.035000	0.074413	0.030466	0.072690	0.049323	6487.304701	41629.493242	3976.114480	20660.551101
56.535000	0.085770	0.038332	0.083546	0.088328	6269.173549	38957.415592	3910.037188	19139.342379
57.038500	0.092470	0.045834	0.094861	0.125098	6047.175692	36614.613801	3853.861531	17825.142761
57.536000	0.111974	0.056843	0.113769	0.143924	6052.018462	36015.185197	3854.038024	17194.150605
58.039000	0.125187	0.064741	0.125162	0.181411	5883.430400	33841.347113	3799.759995	16016.270406
58.537000	0.140057	0.071993	0.137458	0.200438	5855.492095	33016.596913	3786.279703	15456.217546
59.036500	0.156218	0.082472	0.157516	0.268613	5527.618941	29283.655154	3695.769891	13639.470472
59.553000	0.169486	0.091958	0.170610	0.295241	5449.552549	28266.760862	3672.067822	13003.808422
60.034500	0.179527	0.098750	0.180579	0.308716	5429.875090	27881.107487	3666.047151	12696.675257
60.535000	0.195894	0.105039	0.195581	0.338394	5355.043272	26577.064879	3641.365721	12052.937695
61.035000	0.210984	0.113219	0.220022	0.363654	5299.389393	25668.184418	3640.012202	11538.630974
61.535000	0.219138	0.119480	0.229842	0.378286	5264.617306	25235.633715	3632.114266	11254.121719
62.035500	0.232846	0.128808	0.237745	0.387164	5290.498787	25258.673840	3630.525745	11086.113742
62.536000	0.242194	0.131224	0.248529	0.399494	5274.487583	24756.547027	3628.011433	10858.387387
63.039500	0.251887	0.136769	0.263713	0.448000	5075.814468	22708.280024	3575.960557	10022.735754
63.536500	0.257209	0.141094	0.270704	0.450573	5089.314093	22787.907360	3582.634507	9980.972051
64.037000	0.263999	0.145655	0.270276	0.486107	4952.347737	21426.458394	3530.234347	9428.663628
64.537500	0.268372	0.147106	0.278802	0.473524	5032.042730	22031.339571	3560.464842	9619.093463
65.038000	0.280895	0.150804	0.291778	0.489024	5017.825152	21521.369288	3556.772523	9385.301652
65.535000	0.277160	0.148242	0.290623	0.603615	4524.831817	17144.590787	3408.558712	7893.063852
66.037500	0.276587	0.151936	0.299323	0.637450	4404.930103	16196.851624	3381.270033	7522.647872
66.535000	0.286101	0.155065	0.310159	0.654196	4380.914335	15789.789184	3375.078653	7349.719877
67.107000	0.283697	0.154722	0.303134	0.658765	4358.131504	15646.048326	3363.176537	7303.679972
67.539000	0.283858	0.160794	0.304959	0.668979	4325.925791	15526.096610	3354.760707	7202.501916
68.042000	0.288095	0.162238	0.317830	0.673613	4324.671755	15434.504875	3363.022508	7157.380191
68.536500	0.290043	0.166384	0.308971	0.678399	4315.724329	15416.234315	3349.421564	7111.285180
69.034000	0.295235	0.166941	0.306950	0.679809	4327.662004	15391.842166	3346.066825	7097.790408
69.537000	0.295420	0.170232	0.310850	0.680135	4327.215005	15476.702035	3349.560858	7094.683802
70.034500	0.303342	0.174478	0.318227	0.679222	4355.506285	15625.666820	3357.777059	7103.405947
70.535000	0.298853	0.174802	0.308833	0.672636	4362.304394	15828.001721	3354.976637	7166.856102
71.035000	0.301201	0.179768	0.323398	0.667302	4387.497121	16135.661182	3375.217654	7218.956140
71.535500	0.304655	0.181383	0.324292	0.661855	4417.249162	16350.837215	3381.864786	7272.825550
72.036500	0.304163	0.181444	0.322198	0.653167	4445.185590	16622.315947	3388.880964	7360.151087
72.536500	0.305245	0.183919	0.318871	0.647728	4467.795293	16872.645022	3391.150272	7415.720596
73.036500	0.310756	0.185259	0.321653	0.640692	4512.264926	17142.603914	3401.848699	7488.641751
73.537000	0.309203	0.186467	0.324777	0.634029	4530.745663	17401.119070	3412.756221	7558.802742
74.037500	0.301983	0.187103	0.318687	0.627405	4528.582561	17643.719995	3413.358634	7629.624510
74.534500	0.307093	0.189507	0.325403	0.623427	4561.946211	17860.367072	3425.576693	7672.678162
75.035000	0.307386	0.190279	0.328037	0.617637	4584.673901	18086.439698	3435.415085	7736.047427
75.535500	0.309639	0.191674	0.327363	0.614732	4604.194143	18236.427867	3438.053061	7768.159217
76.035000	0.311925	0.191582	0.317630	0.610420	4629.510046	18385.161351	3431.667992	7816.234139
76.536000	0.312339	0.192695	0.329104	0.608124	4640.018631	18506.291579	3448.045241	7842.022863
77.044000	0.309980	0.192459	0.330503	0.603174	4650.122906	18675.409298	3455.772622	7898.083525
77.536000	0.314380	0.194903	0.328089	0.603009	4668.079568	18769.788046	3453.021948	7899.963024
78.037000	0.310947	0.196646	0.320307	0.601094	4662.091560	18903.119979	3445.914331	7921.839852
78.537000	0.315326	0.195675	0.334322	0.600485	4681.861562	18889.886595	3463.813312	7928.816363
79.037500	0.310831	0.195433	0.333418	0.596418	4680.152128	19030.364930	3467.764389	7975.646214
79.535000	0.314867	0.196502	0.328117	0.596492	4696.003694	19067.129861	3461.067061	7974.795205
80.035000	0.312778	0.197557	0.337955	0.595776	4690.492526	19132.700236	3474.295964	7983.076430
80.535500	0.317568	0.197458	0.340550	0.596166	4708.211336	19114.578285	3477.101189	7978.567646
81.035500	0.319100	0.198756	0.329901	0.593483	4725.350535	19262.904540	3467.035833	8009.722333
81.536500	0.315384	0.198505	0.332156	0.594735	4705.167874	19206.740105	3468.293247	7995.160241
82.036500	0.316985	0.197990	0.329270	0.592248	4721.756713	19280.431192	3467.791431	8024.124846
82.536500	0.314155	0.199927	0.329075	0.594388	4701.607798	19272.850644	3464.872837	7999.193964
83.037000	0.318932	0.198895	0.337688	0.592167	4730.048291	19317.400268	3478.552603	8025.069980
83.537000	0.315392	0.199713	0.332953	0.594796	4704.952207	19249.555030	3469.216318	7994.445886
84.035000	0.323143	0.202579	0.334950	0.595210	4734.838934	19341.492434	3471.209897	7989.639784
84.537500	0.319062	0.202152	0.336539	0.596704	4712.086441	19269.446909	3471.331150	7972.343633
85.035000	0.324809	0.203839	0.343504	0.596153	4737.811446	19353.412960	3480.897032	7978.710317
85.535500	0.320021	0.203408	0.341615	0.595918	4719.172700	19346.051134	3478.777242	7981.429848
86.036000	0.325967	0.204100	0.343475	0.597873	4735.503083	19298.642462	3478.656728	7958.841491
86.539000	0.325185	0.203188	0.337648	0.598409	4730.091029	19244.389313	3470.579150	7952.661967
87.036000	0.327298	0.203838	0.335997	0.596434	4746.922018	19342.811791	3470.987271	7975.462452
87.536500	0.326749	0.204543	0.340173	0.598026	4738.086700	19309.501317	3474.255168	7957.074494
88.037000	0.327661	0.205594	0.343038	0.598433	4740.168575	19333.702961	3477.382858	7952.385859
88.537000	0.327102	0.206852	0.346474	0.599866	4731.980112	19327.118808	3479.945024	7935.913946
89.034500	0.329122	0.206988	0.338551	0.600217	4738.837313	19319.027868	3469.438789	7931.880344
89.537500	0.329719	0.208675	0.346800	0.601065	4737.804578	19350.604853	3478.827506	7922.173296
90.035500	0.335317	0.209677	0.348927	0.602305	4755.824779	19341.621011	3479.961791	7907.990580
90.535500	0.331533	0.208897	0.352333	0.601579	4743.161492	19339.597535	3485.284925	7916.285163
91.037000	0.335070	0.207347	0.345188	0.600067	4764.121792	19338.164102	3478.041853	7933.605288
91.536500	0.333501	0.208684	0.349666	0.600880	4754.201563	19357.879978	3482.744018	7924.284987
92.036500	0.332598	0.207839	0.351764	0.599612	4755.721318	19373.817410	3487.096072	7938.827527
92.536500	0.334423	0.209482	0.351821	0.601543	4755.278075	19362.951029	3484.668397	7916.694319
93.037000	0.337444	0.208781	0.344529	0.600171	4773.625261	19388.223775	3477.068052	7932.406906
93.534500	0.332588	0.209640	0.354027	0.603993	4737.563020	19276.880550	3484.353660	7888.766202
94.038000	0.335302	0.209946	0.350786	0.600053	4765.149142	19436.701553	3485.257056	7933.762791
94.535000	0.333730	0.209018	0.350613	0.600553	4756.515707	19382.770324	3484.387623	7928.035469
95.035500	0.336515	0.210015	0.352238	0.598795	4775.501646	19486.943198	3488.774311	7948.216743
95.535500	0.332357	0.209131	0.354026	0.601468	4747.023948	19352.591909	3487.624707	7917.557997
96.038500	0.335281	0.210504	0.360771	0.597797	4774.512686	19543.477289	3501.323252	7959.716206
96.536500	0.336748	0.211110	0.352356	0.597345	4782.586620	19583.807035	3490.821373	7964.934412
97.036500	0.335397	0.211417	0.352588	0.596961	4778.512449	19610.207829	3491.625892	7969.369019
97.539500	0.328610	0.209191	0.352139	0.598694	4743.006596	19459.563808	3488.777685	7949.385858
98.037500	0.333333	0.211363	0.351994	0.595359	4776.570005	19669.476070	3492.946722	7987.913816
98.537000	0.333401	0.210823	0.355379	0.594356	4781.079761	19687.253798	3498.733062	7999.565398
99.035500	0.334763	0.209196	0.358140	0.592961	4792.732053	19678.330639	3504.264845	8015.799491
99.538500	0.333423	0.210157	0.348165	0.599828	4758.254736	19453.213976	3482.165497	7936.353606
100.036000	0.334753	0.208789	0.348948	0.591985	4796.834585	19700.187088	3493.376257	8027.193944
100.541000	0.335681	0.211111	0.353474	0.593549	4794.134858	19729.363708	3497.279617	8008.951246
101.036000	0.339740	0.211846	0.352129	0.594031	4809.378897	19739.102059	3494.868915	8003.338381
101.536500	0.335838	0.211569	0.357048	0.598262	4774.897825	19566.325592	3495.776063	7954.356230
102.037000	0.340156	0.211683	0.358788	0.592496	4817.748738	19792.017191	3505.755850	8021.228892
102.536500	0.338140	0.210524	0.353367	0.592390	4809.557113	19751.387059	3498.671746	8022.467945
103.034500	0.340994	0.211991	0.358177	0.591406	4826.056423	19846.129238	3506.399438	8033.969845
103.535000	0.337599	0.208602	0.353725	0.588882	4822.300541	19812.644702	3503.815927	8063.599504
104.035000	0.339718	0.210183	0.353847	0.589752	4827.691744	19840.174605	3502.817718	8053.371248
104.535000	0.338657	0.211557	0.357955	0.590943	4817.983181	19847.267246	3506.722661	8039.394465
105.035500	0.341149	0.212499	0.362375	0.591262	4827.349344	19871.457832	3512.258196	8035.657548
105.535500	0.334197	0.210822	0.356516	0.595667	4778.909791	19636.969343	3498.501881	7984.349051
106.035500	0.341551	0.211160	0.349937	0.588852	4839.539051	19913.066706	3498.814655	8063.955448
106.537500	0.341108	0.211830	0.359374	0.589090	4836.583783	19929.912036	3511.135945	8061.156477
107.037000	0.344807	0.212217	0.358169	0.589618	4850.400066	19924.415793	3508.794287	8054.946059
107.534500	0.337976	0.211701	0.359829	0.595079	4797.386033	19693.180269	3503.691058	7991.160207
108.035000	0.343441	0.212508	0.362254	0.589185	4846.323227	19952.638682	3514.918343	8060.037808
108.538000	0.345374	0.212508	0.361935	0.590809	4847.671188	19889.375819	3512.276529	8040.960012
109.035000	0.344822	0.212333	0.356931	0.588644	4854.731656	19966.918906	3508.438461	8066.404462
109.535500	0.339455	0.212571	0.354446	0.594178	4807.534381	19761.380515	3497.732822	8001.628987
110.039000	0.344141	0.211823	0.368305	0.587512	4856.706364	19991.191303	3525.534127	8079.750185
