sample name	sample
index	1349
start time	 05-03-2021  01:01:47 PM


Wavelength (nm)	Absorbance
494.344910	1.006625
494.563924	1.006625
494.782919	1.006625
495.001897	-0.299424
495.220856	0.318908
495.439797	0.422568
495.658719	0.260919
495.877624	0.218187
496.096510	0.181996
496.315378	0.051911
496.534227	0.154040
496.753059	0.074132
496.971872	-0.030640
497.190667	0.134287
497.409444	0.144875
497.628203	0.152855
497.846943	0.158246
498.065665	0.158800
498.284369	0.160031
498.503055	0.160430
498.721723	0.160868
498.940372	0.161530
499.159003	0.163989
499.377616	0.164173
499.596210	0.163282
499.814787	0.161666
500.033345	0.162909
500.251885	0.163280
500.470406	0.163390
500.688910	0.162887
500.907395	0.164386
501.125862	0.162406
501.344311	0.162001
501.562742	0.163374
501.781154	0.163475
501.999548	0.163977
502.217924	0.163707
502.436282	0.163568
502.654621	0.164327
502.872942	0.164275
503.091245	0.164816
503.309530	0.166291
503.527797	0.166129
503.746045	0.166212
503.964275	0.166150
504.182487	0.166729
504.400681	0.166876
504.618856	0.167490
504.837013	0.167014
505.055152	0.167117
505.273273	0.166164
505.491376	0.165952
505.709460	0.165716
505.927526	0.165162
506.145574	0.165514
506.363604	0.165182
506.581615	0.165455
506.799608	0.165439
507.017583	0.165828
507.235540	0.166070
507.453478	0.166070
507.671399	0.167858
507.889301	0.169562
508.107185	0.168075
508.325050	0.169101
508.542898	0.168970
508.760727	0.168570
508.978538	0.169065
509.196330	0.169301
509.414105	0.169478
509.631861	0.168309
509.849599	0.167939
510.067319	0.167831
510.285021	0.167490
510.502704	0.167005
510.720369	0.166607
510.938016	0.165990
511.155645	0.166330
511.373255	0.166055
511.590848	0.167089
511.808422	0.166720
512.025977	0.168619
512.243515	0.168502
512.461034	0.167953
512.678536	0.169309
512.896018	0.170342
513.113483	0.169427
513.330930	0.170432
513.548358	0.168435
513.765768	0.168520
513.983160	0.168007
514.200533	0.168356
514.417889	0.169071
514.635226	0.169602
514.852545	0.167662
515.069845	0.169137
515.287128	0.169704
515.504392	0.171246
515.721638	0.171930
515.938866	0.171709
516.156075	0.171927
516.373267	0.172333
516.590440	0.172514
516.807594	0.172883
517.024731	0.173032
517.241850	0.172684
517.458950	0.172637
517.676032	0.171764
517.893095	0.172042
518.110141	0.172693
518.327168	0.173154
518.544177	0.172427
518.761168	0.173505
518.978141	0.173529
519.195095	0.173753
519.412031	0.174599
519.628949	0.175416
519.845849	0.175894
520.062731	0.175709
520.279594	0.175709
520.496439	0.176469
520.713266	0.176829
520.930074	0.177139
521.146865	0.176992
521.363637	0.176818
521.580391	0.175621
521.797127	0.175124
522.013844	0.175568
522.230543	0.175629
522.447224	0.175710
522.663887	0.174978
522.880532	0.175593
523.097158	0.175670
523.313766	0.175757
523.530356	0.176884
523.746928	0.177208
523.963481	0.177605
524.180017	0.177039
524.396534	0.176444
524.613032	0.176994
524.829513	0.176414
525.045975	0.176710
525.262420	0.177467
525.478845	0.177829
525.695253	0.179057
525.911643	0.178625
526.128014	0.179168
526.344367	0.179552
526.560702	0.180473
526.777018	0.180738
526.993316	0.181733
527.209597	0.181289
527.425858	0.181605
527.642102	0.181063
527.858328	0.181783
528.074535	0.181887
528.290724	0.182911
528.506894	0.183690
528.723047	0.184236
528.939181	0.184022
529.155297	0.184294
529.371395	0.184330
529.587475	0.185019
529.803536	0.184929
530.019579	0.185167
530.235604	0.185606
530.451611	0.184966
530.667600	0.184257
530.883570	0.184006
531.099522	0.184308
531.315456	0.184871
531.531372	0.184909
531.747269	0.185374
531.963148	0.185817
532.179009	0.185442
532.394852	0.185465
532.610676	0.186859
532.826482	0.187859
533.042271	0.188726
533.258040	0.189419
533.473792	0.189587
533.689525	0.189420
533.905240	0.189447
534.120937	0.190016
534.336616	0.190673
534.552277	0.190948
534.767919	0.190865
534.983543	0.190770
535.199149	0.190644
535.414736	0.191269
535.630306	0.191691
535.845857	0.192855
536.061390	0.192728
536.276904	0.192713
536.492401	0.192850
536.707879	0.193577
536.923339	0.193618
537.138781	0.193671
537.354204	0.194034
537.569610	0.194190
537.784997	0.194869
538.000366	0.195248
538.215716	0.195508
538.431049	0.195446
538.646363	0.195310
538.861659	0.195905
539.076937	0.196834
539.292196	0.197020
539.507438	0.197871
539.722661	0.197115
539.937866	0.197295
540.153052	0.197651
540.368221	0.197932
540.583371	0.198489
540.798503	0.198162
541.013617	0.198074
541.228712	0.198026
541.443789	0.198176
541.658848	0.198176
541.873889	0.198396
542.088912	0.198814
542.303916	0.199263
542.518902	0.199188
542.733870	0.199714
542.948820	0.199454
543.163752	0.199426
543.378665	0.199506
543.593560	0.199872
543.808437	0.199921
544.023295	0.199853
544.238136	0.199897
544.452958	0.200670
544.667762	0.201719
544.882548	0.201929
545.097315	0.202365
545.312064	0.202991
545.526795	0.204034
545.741508	0.203940
545.956203	0.204501
546.170879	0.204092
546.385537	0.204108
546.600177	0.203996
546.814799	0.204845
547.029402	0.204973
547.243988	0.204465
547.458555	0.204136
547.673103	0.205009
547.887634	0.204854
548.102146	0.205710
548.316640	0.205546
548.531116	0.205283
548.745574	0.205088
548.960013	0.205420
549.174435	0.205657
549.388838	0.205956
549.603222	0.205842
549.817589	0.206156
550.031937	0.206499
550.246267	0.206970
550.460579	0.206883
550.674873	0.207351
550.889148	0.207348
551.103405	0.207790
551.317644	0.208062
551.531865	0.208427
551.746068	0.208704
551.960252	0.208626
552.174418	0.208588
552.388566	0.209186
552.602696	0.209052
552.816807	0.209409
553.030900	0.209674
553.244975	0.209634
553.459032	0.210093
553.673070	0.210203
553.887091	0.210394
554.101093	0.210821
554.315077	0.211622
554.529042	0.212381
554.742990	0.212319
554.956919	0.212993
555.170830	0.213448
555.384722	0.213564
555.598597	0.214003
555.812453	0.214378
556.026291	0.214532
556.240111	0.214502
556.453913	0.214005
556.667696	0.214642
556.881461	0.214679
557.095208	0.215127
557.308937	0.214845
557.522647	0.215243
557.736339	0.215413
557.950013	0.215427
558.163669	0.215449
558.377307	0.215904
558.590926	0.216116
558.804527	0.216148
559.018110	0.215556
559.231675	0.216073
559.445221	0.215753
559.658749	0.216282
559.872259	0.216228
560.085751	0.216121
560.299225	0.216584
560.512680	0.216555
560.726117	0.216261
560.939536	0.216483
561.152937	0.216369
561.366319	0.216484
561.579683	0.216117
561.793029	0.216412
562.006357	0.216318
562.219667	0.216205
562.432958	0.216258
562.646231	0.216621
562.859486	0.217369
563.072723	0.217913
563.285941	0.218381
563.499141	0.218701
563.712323	0.219291
563.925487	0.219662
564.138632	0.219892
564.351760	0.220239
564.564869	0.219803
564.777960	0.219541
564.991032	0.219927
565.204087	0.219742
565.417123	0.219936
565.630141	0.219678
565.843140	0.219984
566.056122	0.219840
566.269085	0.220042
566.482030	0.220719
566.694957	0.221033
566.907866	0.220441
567.120756	0.220544
567.333628	0.220456
567.546482	0.220894
567.759318	0.220846
567.972135	0.221034
568.184935	0.221023
568.397716	0.221262
568.610478	0.221211
568.823223	0.221605
569.035949	0.221721
569.248657	0.221940
569.461347	0.221641
569.674019	0.221361
569.886672	0.221480
570.099308	0.221311
570.311925	0.221317
570.524523	0.221633
570.737104	0.221726
570.949666	0.222171
571.162210	0.222580
571.374736	0.222805
571.587244	0.223207
571.799733	0.223212
572.012205	0.223459
572.224658	0.223558
572.437092	0.223413
572.649509	0.223586
572.861907	0.223571
573.074287	0.222980
573.286649	0.223134
573.498993	0.223623
573.711318	0.224319
573.923625	0.224761
574.135914	0.224909
574.348185	0.225025
574.560438	0.225072
574.772672	0.225096
574.984888	0.225393
575.197086	0.225633
575.409266	0.225831
575.621427	0.225455
575.833570	0.225210
576.045695	0.225084
576.257802	0.225458
576.469890	0.225603
576.681961	0.225752
576.894013	0.226144
577.106046	0.226135
577.318062	0.225871
577.530059	0.226073
577.742039	0.226508
577.954000	0.226918
578.165942	0.227086
578.377867	0.227493
578.589773	0.227920
578.801661	0.227685
579.013531	0.228043
579.225382	0.228120
579.437216	0.228337
579.649031	0.228441
579.860828	0.228217
580.072606	0.228488
580.284367	0.228278
580.496109	0.228063
580.707833	0.228409
580.919539	0.228140
581.131227	0.228218
581.342896	0.228235
581.554547	0.227989
581.766180	0.228251
581.977795	0.227977
582.189391	0.228468
582.400969	0.228824
582.612529	0.228979
582.824071	0.229312
583.035595	0.229548
583.247100	0.229841
583.458587	0.229818
583.670056	0.229903
583.881506	0.230344
584.092939	0.230385
584.304353	0.230109
584.515749	0.230179
584.727127	0.230415
584.938486	0.230549
585.149828	0.230402
585.361151	0.231221
585.572456	0.231333
585.783742	0.231359
585.995011	0.231252
586.206261	0.231869
586.417493	0.231948
586.628706	0.231598
586.839902	0.232072
587.051079	0.232444
587.262238	0.232567
587.473379	0.232700
587.684502	0.232558
587.895606	0.232813
588.106692	0.232470
588.317760	0.232513
588.528810	0.232887
588.739841	0.232800
588.950855	0.232683
589.161850	0.232455
589.372827	0.233083
589.583785	0.233200
589.794726	0.233448
590.005648	0.233547
590.216552	0.234038
590.427437	0.234679
590.638305	0.235043
590.849154	0.235419
591.059985	0.235680
591.270798	0.235797
591.481592	0.236462
591.692369	0.236357
591.903127	0.236556
592.113867	0.236865
592.324588	0.236363
592.535292	0.236433
592.745977	0.236571
592.956644	0.236969
593.167293	0.236591
593.377923	0.236616
593.588536	0.237033
593.799130	0.237501
594.009706	0.237482
594.220263	0.237425
594.430803	0.237257
594.641324	0.237267
594.851827	0.237094
595.062312	0.237386
595.272778	0.237466
595.483227	0.237345
595.693657	0.237226
595.904069	0.236902
596.114462	0.237614
596.324838	0.238154
596.535195	0.238512
596.745534	0.238741
596.955855	0.239071
597.166157	0.239157
597.376441	0.239412
597.586707	0.239611
597.796955	0.239844
598.007185	0.239948
598.217396	0.239805
598.427589	0.240058
598.637764	0.240187
598.847921	0.240264
599.058060	0.240038
599.268180	0.240049
599.478282	0.240372
599.688366	0.240743
599.898431	0.240940
600.108479	0.240605
600.318508	0.240408
600.528519	0.240493
600.738511	0.240597
600.948486	0.241207
601.158442	0.241258
601.368380	0.241259
601.578300	0.241467
601.788202	0.241599
601.998085	0.242156
602.207950	0.242308
602.417797	0.242352
602.627626	0.242400
602.837436	0.242227
603.047228	0.242522
603.257002	0.242857
603.466758	0.242670
603.676496	0.242921
603.886215	0.243222
604.095916	0.243533
604.305599	0.243973
604.515264	0.244019
604.724910	0.244407
604.934538	0.244818
605.144148	0.244897
605.353740	0.245715
605.563314	0.245712
605.772869	0.245879
605.982406	0.245680
606.191925	0.245897
606.401425	0.246035
606.610908	0.246181
606.820372	0.246240
607.029818	0.246165
607.239246	0.245741
607.448655	0.245771
607.658047	0.245612
607.867420	0.245974
608.076775	0.245718
608.286111	0.246058
608.495430	0.245870
608.704730	0.245951
608.914012	0.246215
609.123275	0.246553
609.332521	0.246738
609.541748	0.246846
609.750957	0.246781
609.960148	0.247282
610.169321	0.247287
610.378475	0.247927
610.587611	0.247817
610.796729	0.247783
611.005829	0.247599
611.214910	0.247520
611.423974	0.247859
611.633019	0.248215
611.842045	0.247853
612.051054	0.247658
612.260044	0.247132
612.469017	0.246926
612.677970	0.247223
612.886906	0.247827
613.095824	0.248084
613.304723	0.247866
613.513604	0.247774
613.722467	0.248275
613.931311	0.248265
614.140138	0.248573
614.348946	0.248938
614.557736	0.248757
614.766507	0.248501
614.975261	0.248419
615.183996	0.248620
615.392713	0.248814
615.601412	0.248714
615.810092	0.249235
616.018754	0.249340
616.227399	0.249641
616.436024	0.249893
616.644632	0.249807
616.853222	0.249736
617.061793	0.250067
617.270346	0.250087
617.478880	0.250328
617.687397	0.250435
617.895895	0.250770
618.104375	0.250718
618.312837	0.250883
618.521281	0.251349
618.729706	0.251583
618.938113	0.251741
619.146502	0.251631
619.354873	0.251781
619.563226	0.252114
619.771560	0.252111
619.979876	0.252380
620.188174	0.252533
620.396453	0.252364
620.604715	0.252847
620.812958	0.252801
621.021183	0.253051
621.229390	0.252738
621.437578	0.252741
621.645748	0.252840
621.853900	0.252698
622.062034	0.252723
622.270150	0.253053
622.478247	0.252836
622.686326	0.253165
622.894387	0.253521
623.102430	0.253903
623.310454	0.254105
623.518461	0.254031
623.726449	0.254270
623.934418	0.254458
624.142370	0.254740
624.350303	0.255184
624.558218	0.254679
624.766115	0.254847
624.973994	0.254780
625.181855	0.254637
625.389697	0.255003
625.597521	0.255307
625.805327	0.255087
626.013114	0.255055
626.220883	0.254754
626.428634	0.255363
626.636367	0.255470
626.844082	0.255841
627.051778	0.255955
627.259457	0.255879
627.467117	0.255779
627.674758	0.256602
627.882382	0.256937
628.089987	0.257463
628.297574	0.257620
628.505143	0.257724
628.712694	0.257902
628.920226	0.258330
629.127740	0.258795
629.335236	0.259145
629.542714	0.258939
629.750174	0.258750
629.957615	0.258954
630.165038	0.259299
630.372443	0.259526
630.579829	0.259417
630.787198	0.259563
630.994548	0.259513
631.201880	0.259672
631.409194	0.260148
631.616489	0.260575
631.823766	0.260634
632.031025	0.260596
632.238266	0.260801
632.445489	0.261150
632.652693	0.261230
632.859879	0.261221
633.067047	0.261378
633.274197	0.261265
633.481329	0.261224
633.688442	0.261061
633.895537	0.261159
634.102614	0.261051
634.309672	0.260845
634.516713	0.260867
634.723735	0.260873
634.930739	0.261019
635.137724	0.260993
635.344692	0.261365
635.551641	0.261856
635.758572	0.261683
635.965485	0.261811
636.172379	0.262186
636.379256	0.262354
636.586114	0.262635
636.792954	0.262535
636.999775	0.262635
637.206579	0.262382
637.413364	0.262238
637.620131	0.262711
637.826880	0.262871
638.033610	0.262949
638.240323	0.262773
638.447017	0.262919
638.653692	0.263149
638.860350	0.263426
639.066990	0.263938
639.273611	0.264322
639.480214	0.264278
639.686798	0.264176
639.893365	0.264310
640.099913	0.264742
640.306443	0.265045
640.512955	0.265326
640.719449	0.265359
640.925924	0.265360
641.132381	0.265480
641.338820	0.265652
641.545241	0.266239
641.751644	0.266459
641.958028	0.266725
642.164394	0.267042
642.370742	0.267394
642.577071	0.267630
642.783383	0.268016
642.989676	0.268125
643.195951	0.268515
643.402207	0.268430
643.608446	0.268760
643.814666	0.269072
644.020868	0.268876
644.227052	0.268789
644.433218	0.268891
644.639365	0.268853
644.845494	0.268986
645.051605	0.268793
645.257698	0.269013
645.463772	0.269214
645.669828	0.269115
645.875866	0.269109
646.081886	0.269230
646.287888	0.269567
646.493871	0.269725
646.699836	0.269872
646.905783	0.270376
647.111712	0.270364
647.317622	0.270328
647.523514	0.270483
647.729388	0.270894
647.935244	0.270918
648.141082	0.270986
648.346901	0.271078
648.552702	0.271140
648.758485	0.271073
648.964250	0.271463
649.169996	0.271748
649.375724	0.272073
649.581434	0.272383
649.787126	0.272561
649.992800	0.272692
650.198455	0.272823
650.404092	0.273022
650.609711	0.273416
650.815311	0.273489
651.020894	0.273698
651.226458	0.273714
651.432004	0.273743
651.637532	0.273951
651.843041	0.274107
652.048532	0.274300
652.254006	0.274696
652.459460	0.274782
652.664897	0.275063
652.870315	0.275316
653.075716	0.275361
653.281097	0.275453
653.486461	0.275807
653.691807	0.276279
653.897134	0.276467
654.102443	0.276707
654.307734	0.276807
654.513006	0.276854
654.718261	0.276794
654.923497	0.277065
655.128715	0.277428
655.333915	0.277623
655.539096	0.277314
655.744259	0.277873
655.949404	0.277751
656.154531	0.278164
656.359640	0.278466
656.564730	0.278801
656.769802	0.278872
656.974856	0.279113
657.179892	0.279203
657.384909	0.279604
657.589908	0.279326
657.794889	0.279466
657.999852	0.279342
658.204797	0.279362
658.409723	0.279213
658.614631	0.279381
658.819521	0.278997
659.024393	0.279151
659.229246	0.279214
659.434081	0.279237
659.638898	0.279493
659.843697	0.279713
660.048478	0.279925
660.253240	0.280205
660.457984	0.280403
660.662710	0.280962
660.867417	0.281111
661.072107	0.281419
661.276778	0.281688
661.481431	0.281635
661.686066	0.281716
661.890682	0.281805
662.095281	0.282050
662.299861	0.282134
662.504422	0.282302
662.708966	0.282517
662.913491	0.282663
663.117999	0.282873
663.322488	0.283425
663.526958	0.283705
663.731411	0.283949
663.935845	0.284264
664.140261	0.284516
664.344659	0.284697
664.549038	0.285106
664.753400	0.285204
664.957743	0.285256
665.162068	0.285299
665.366375	0.285482
665.570663	0.285497
665.774933	0.285512
665.979185	0.285837
666.183419	0.286103
666.387635	0.285943
666.591832	0.286133
666.796011	0.286445
667.000172	0.286544
667.204315	0.286606
667.408439	0.286967
667.612545	0.287222
667.816634	0.287179
668.020703	0.287288
668.224755	0.287526
668.428788	0.287626
668.632803	0.287857
668.836800	0.287987
669.040779	0.288368
669.244739	0.288595
669.448681	0.289136
669.652605	0.289462
669.856511	0.289725
670.060399	0.290083
670.264268	0.290378
670.468119	0.290867
670.671952	0.291390
670.875767	0.291500
671.079563	0.291714
671.283341	0.291617
671.487101	0.291850
671.690843	0.292275
671.894567	0.292476
672.098272	0.292585
672.301959	0.292547
672.505628	0.292546
672.709278	0.292937
672.912911	0.293152
673.116525	0.293405
673.320121	0.293682
673.523699	0.293584
673.727258	0.293768
673.930799	0.294025
674.134322	0.294585
674.337827	0.294846
674.541314	0.295028
674.744782	0.295288
674.948232	0.295376
675.151664	0.295629
675.355078	0.296063
675.558474	0.296161
675.761851	0.296531
675.965210	0.296678
676.168551	0.296586
676.371873	0.296871
676.575178	0.297045
676.778464	0.297434
676.981732	0.297358
677.184981	0.297335
677.388213	0.297641
677.591426	0.297674
677.794621	0.297457
677.997798	0.298073
678.200956	0.297941
678.404097	0.298167
678.607219	0.297972
678.810323	0.298272
679.013408	0.298742
679.216476	0.298821
679.419525	0.298881
679.622556	0.299154
679.825569	0.299269
680.028563	0.299387
680.231540	0.299423
680.434498	0.299758
680.637438	0.300157
680.840359	0.300249
681.043263	0.300673
681.246148	0.301033
681.449015	0.301006
681.651864	0.300981
681.854694	0.301486
682.057506	0.301890
682.260301	0.302158
682.463076	0.302170
682.665834	0.301971
682.868573	0.301815
683.071295	0.302063
683.273998	0.302539
683.476682	0.302766
683.679349	0.302656
683.881997	0.302857
684.084627	0.303117
684.287239	0.303480
684.489833	0.303740
684.692408	0.303956
684.894965	0.304136
685.097504	0.304205
685.300025	0.304360
685.502527	0.304689
685.705012	0.304667
685.907478	0.304656
686.109925	0.304616
686.312355	0.304937
686.514766	0.305065
686.717159	0.304948
686.919534	0.305211
687.121891	0.305383
687.324230	0.305772
687.526550	0.305989
687.728852	0.306228
687.931136	0.306390
688.133401	0.306665
688.335649	0.306860
688.537878	0.307252
688.740089	0.307434
688.942281	0.307702
689.144456	0.307688
689.346612	0.307874
689.548750	0.307956
689.750870	0.308385
689.952971	0.308551
690.155055	0.308758
690.357120	0.309001
690.559167	0.309231
690.761195	0.309557
690.963206	0.309680
691.165198	0.310111
691.367172	0.310410
691.569128	0.310341
691.771065	0.310548
691.972984	0.310705
692.174885	0.310901
692.376768	0.311156
692.578633	0.311123
692.780479	0.311200
692.982308	0.311160
693.184118	0.311330
693.385909	0.311710
693.587683	0.311865
693.789438	0.312067
693.991175	0.312218
694.192894	0.312185
694.394595	0.312403
694.596277	0.312426
694.797941	0.312493
694.999587	0.312683
695.201215	0.312745
695.402824	0.312737
695.604416	0.313019
695.805989	0.313237
696.007543	0.313620
696.209080	0.313995
696.410598	0.314595
696.612099	0.314819
696.813580	0.314945
697.015044	0.315032
697.216490	0.315475
697.417917	0.315537
697.619326	0.315725
697.820717	0.315541
698.022089	0.315249
698.223444	0.315199
698.424780	0.315430
698.626098	0.315458
698.827397	0.315641
699.028679	0.315384
699.229942	0.315217
699.431187	0.315113
699.632414	0.315156
699.833622	0.315545
700.034813	0.315693
700.235985	0.315589
700.437139	0.315880
700.638274	0.316222
700.839392	0.316492
701.040491	0.316943
701.241572	0.316990
701.442635	0.317272
701.643679	0.317058
701.844706	0.316913
702.045714	0.317050
702.246704	0.316833
702.447675	0.316595
702.648629	0.316650
702.849564	0.316583
703.050481	0.316846
703.251380	0.316776
703.452260	0.317111
703.653122	0.317508
703.853966	0.317260
704.054792	0.317243
704.255600	0.317059
704.456389	0.316926
704.657160	0.316925
704.857913	0.316621
705.058648	0.316582
705.259365	0.316236
705.460063	0.315692
705.660743	0.315950
705.861405	0.316096
706.062048	0.316148
706.262674	0.316303
706.463281	0.316432
706.663870	0.316723
706.864441	0.316578
707.064993	0.316716
707.265527	0.316980
707.466043	0.316965
707.666541	0.317196
707.867021	0.317342
708.067482	0.317099
708.267925	0.316960
708.468350	0.316934
708.668757	0.317393
708.869145	0.317613
709.069516	0.318023
709.269868	0.317980
709.470201	0.317924
709.670517	0.318021
709.870814	0.318501
710.071093	0.318692
710.271354	0.318707
710.471597	0.318288
710.671821	0.318263
710.872028	0.318122
711.072216	0.318339
711.272385	0.318319
711.472537	0.318612
711.672670	0.318494
711.872785	0.318513
712.072882	0.318498
712.272961	0.318892
712.473021	0.318793
712.673063	0.318668
712.873087	0.318593
713.073093	0.318213
713.273081	0.317909
713.473050	0.317748
713.673001	0.317586
713.872934	0.317684
714.072849	0.317474
714.272745	0.317586
714.472623	0.317529
714.672483	0.317553
714.872325	0.317691
715.072148	0.317509
715.271954	0.317445
715.471741	0.317506
715.671509	0.317341
715.871260	0.317281
716.070992	0.317076
716.270707	0.317138
716.470403	0.317094
716.670080	0.317089
716.869740	0.317147
717.069381	0.317326
717.269004	0.317170
717.468609	0.316897
717.668195	0.316740
717.867764	0.316910
718.067314	0.316792
718.266846	0.316591
718.466360	0.316544
718.665855	0.316512
718.865332	0.316293
719.064791	0.316139
719.264232	0.316242
719.463655	0.316391
719.663059	0.316214
719.862445	0.316144
720.061813	0.315888
720.261163	0.315670
720.460494	0.315400
720.659807	0.315088
720.859102	0.314953
721.058379	0.314761
721.257638	0.314417
721.456878	0.314241
721.656100	0.314132
721.855304	0.314143
722.054490	0.314149
722.253657	0.314029
722.452806	0.313968
722.651937	0.313990
722.851050	0.314157
723.050145	0.314102
723.249221	0.314107
723.448279	0.314024
723.647319	0.314014
723.846340	0.313941
724.045344	0.313886
724.244329	0.313946
724.443296	0.313736
724.642245	0.313378
724.841175	0.313324
725.040088	0.313065
725.238982	0.312592
725.437857	0.312255
725.636715	0.312125
725.835554	0.311903
726.034376	0.311526
726.233179	0.311171
726.431963	0.311049
726.630730	0.310942
726.829478	0.310567
727.028208	0.310789
727.226920	0.310764
727.425614	0.310479
727.624289	0.310325
727.822946	0.310277
728.021585	0.310261
728.220206	0.309981
728.418808	0.309939
728.617392	0.309954
728.815958	0.309565
729.014506	0.309298
729.213036	0.309196
729.411547	0.309021
729.610040	0.308823
729.808515	0.308830
730.006972	0.308789
730.205410	0.308279
730.403831	0.308591
730.602233	0.308547
730.800616	0.308560
730.998982	0.308238
731.197329	0.308385
731.395658	0.308327
731.593969	0.308022
731.792262	0.307967
731.990536	0.307948
732.188793	0.307237
732.387031	0.307118
732.585250	0.306855
732.783452	0.307034
732.981635	0.306594
733.179800	0.306337
733.377947	0.306442
733.576076	0.306020
733.774186	0.306016
733.972278	0.306097
734.170352	0.305830
734.368408	0.305598
734.566446	0.305484
734.764465	0.305427
734.962466	0.305366
735.160449	0.305016
735.358413	0.305112
735.556360	0.304727
735.754288	0.304381
735.952198	0.304531
736.150090	0.304854
736.347963	0.304450
736.545818	0.304131
736.743655	0.304037
736.941474	0.303945
737.139275	0.303831
737.337057	0.303738
737.534821	0.303810
737.732567	0.303382
737.930295	0.302614
738.128005	0.302406
738.325696	0.302619
738.523369	0.302523
738.721024	0.302358
738.918660	0.301954
739.116279	0.301844
739.313879	0.301878
739.511461	0.301846
739.709024	0.302121
739.906570	0.302124
740.104097	0.301879
740.301606	0.301430
740.499097	0.301147
740.696569	0.301114
740.894024	0.301018
741.091460	0.300431
741.288878	0.300206
741.486277	0.299988
741.683659	0.299702
741.881022	0.299428
742.078367	0.299401
742.275694	0.299508
742.473002	0.299249
742.670293	0.298909
742.867565	0.299085
743.064819	0.298707
743.262054	0.298567
743.459272	0.298422
743.656471	0.298127
743.853652	0.298109
744.050815	0.297884
744.247959	0.297608
744.445085	0.297565
744.642194	0.297249
744.839283	0.297481
745.036355	0.297117
745.233408	0.297238
745.430444	0.297015
745.627461	0.296656
745.824459	0.296348
746.021440	0.296253
746.218402	0.296308
746.415346	0.295839
746.612272	0.295386
746.809180	0.295259
747.006069	0.294779
747.202940	0.294667
747.399793	0.294300
747.596628	0.294169
747.793444	0.294044
747.990243	0.293511
748.187023	0.293502
748.383784	0.293412
748.580528	0.293242
748.777253	0.293063
748.973960	0.292953
749.170649	0.292816
749.367320	0.292445
749.563973	0.292120
749.760607	0.292091
749.957223	0.291804
750.153821	0.291505
750.350400	0.291312
750.546962	0.291215
750.743505	0.291147
750.940030	0.291254
751.136536	0.291280
751.333025	0.291201
751.529495	0.291052
751.725947	0.291003
751.922381	0.290696
752.118796	0.290483
752.315194	0.290593
752.511573	0.290481
752.707934	0.290010
752.904276	0.289818
753.100601	0.289967
753.296907	0.289878
753.493195	0.289756
753.689465	0.289714
753.885716	0.289735
754.081949	0.289503
754.278164	0.289379
754.474361	0.289509
754.670540	0.289311
754.866700	0.288996
755.062843	0.288673
755.258967	0.288416
755.455072	0.288408
755.651160	0.288357
755.847229	0.287958
756.043280	0.287743
756.239313	0.287582
756.435328	0.287770
756.631324	0.287525
756.827302	0.287512
757.023262	0.287525
757.219204	0.287504
757.415127	0.287180
757.611033	0.287189
757.806920	0.287105
758.002788	0.286900
758.198639	0.286417
758.394471	0.286438
758.590286	0.286229
758.786081	0.285950
758.981859	0.285398
759.177619	0.285335
759.373360	0.285007
759.569083	0.284668
759.764788	0.284683
759.960474	0.284793
760.156143	0.284483
760.351793	0.284549
760.547425	0.284594
760.743038	0.284672
760.938634	0.284345
761.134211	0.284438
761.329770	0.284273
761.525311	0.283918
761.720833	0.283737
761.916338	0.283504
762.111824	0.283251
762.307292	0.283066
762.502741	0.282830
762.698173	0.282585
762.893586	0.282241
763.088981	0.281806
763.284358	0.281566
763.479716	0.281389
763.675057	0.281370
763.870379	0.281218
764.065683	0.281009
764.260968	0.281073
764.456236	0.280991
764.651485	0.280906
764.846716	0.281204
765.041929	0.281453
765.237123	0.281156
765.432299	0.281049
765.627457	0.280745
765.822597	0.280672
766.017719	0.280530
766.212822	0.280405
766.407907	0.280317
766.602974	0.280246
766.798023	0.279926
766.993054	0.279970
767.188066	0.280059
767.383060	0.280115
767.578036	0.280137
767.772993	0.279896
767.967933	0.279807
768.162854	0.279583
768.357757	0.279355
768.552642	0.279090
768.747508	0.278739
768.942356	0.278386
769.137186	0.277883
769.331998	0.277517
769.526792	0.277328
769.721567	0.277288
769.916324	0.277197
770.111063	0.276857
770.305784	0.277123
770.500486	0.277137
770.695171	0.276804
770.889837	0.277153
771.084484	0.277082
771.279114	0.277087
771.473725	0.276966
771.668318	0.276987
771.862893	0.277255
772.057450	0.277105
772.251988	0.276885
772.446509	0.277127
772.641011	0.276861
772.835494	0.276769
773.029960	0.276798
773.224407	0.276887
773.418836	0.276883
773.613247	0.276717
773.807640	0.276624
774.002014	0.276717
774.196370	0.276670
774.390708	0.276854
774.585028	0.277229
774.779330	0.277188
774.973613	0.277050
775.167878	0.276883
775.362125	0.276974
775.556354	0.277135
775.750564	0.277066
775.944756	0.277281
776.138930	0.277303
776.333086	0.276957
776.527223	0.277019
776.721343	0.277443
776.915444	0.277599
777.109526	0.277396
777.303591	0.277029
777.497637	0.277021
777.691666	0.276825
777.885676	0.276663
778.079667	0.276870
778.273641	0.277280
778.467596	0.277033
778.661533	0.277283
778.855452	0.277450
779.049352	0.277760
779.243235	0.278152
779.437099	0.278267
779.630945	0.278255
779.824773	0.278150
780.018582	0.277880
780.212373	0.277881
780.406146	0.277607
780.599901	0.277728
780.793638	0.277722
780.987356	0.277585
781.181056	0.277795
781.374738	0.277959
781.568402	0.278006
781.762047	0.278163
781.955674	0.278224
782.149283	0.278230
782.342874	0.278204
782.536447	0.278154
782.730001	0.278218
782.923537	0.277970
783.117055	0.277840
783.310555	0.277697
783.504036	0.277574
783.697499	0.277338
783.890944	0.277158
784.084371	0.277107
784.277780	0.276835
784.471170	0.276691
784.664542	0.276439
784.857896	0.276452
785.051231	0.276482
785.244549	0.276341
785.437848	0.276580
785.631129	0.276759
785.824392	0.276810
786.017636	0.277183
786.210863	0.277381
786.404071	0.277720
786.597260	0.277719
786.790432	0.277810
786.983585	0.277885
787.176721	0.277844
787.369838	0.278155
787.562936	0.278231
787.756017	0.278206
787.949079	0.277958
788.142123	0.277770
788.335149	0.278124
788.528156	0.278229
788.721146	0.278376
788.914117	0.278545
789.107070	0.278577
789.300005	0.278881
789.492921	0.279021
789.685819	0.279477
789.878699	0.279768
790.071561	0.279794
790.264405	0.280046
790.457230	0.280328
790.650037	0.280311
790.842826	0.280449
791.035597	0.280305
791.228349	0.280612
791.421084	0.280398
791.613800	0.280814
791.806497	0.280971
791.999177	0.281077
792.191838	0.280949
792.384481	0.281401
792.577106	0.281531
792.769713	0.282038
792.962301	0.282014
793.154871	0.282597
793.347423	0.282670
793.539957	0.282637
793.732473	0.282751
793.924970	0.282941
794.117449	0.283216
794.309910	0.283530
794.502353	0.283551
794.694777	0.283770
794.887183	0.283664
795.079571	0.283918
795.271941	0.284357
795.464293	0.284540
795.656626	0.284990
795.848941	0.285027
796.041238	0.285103
796.233516	0.285408
796.425777	0.285785
796.618019	0.286343
796.810243	0.286484
797.002449	0.286659
797.194636	0.287035
797.386805	0.287183
797.578956	0.287245
797.771089	0.287236
797.963204	0.287208
798.155300	0.287024
798.347378	0.287061
798.539438	0.287444
798.731480	0.287574
798.923503	0.287526
799.115509	0.287562
799.307496	0.287922
799.499465	0.288131
799.691415	0.288161
799.883348	0.288410
800.075262	0.288500
800.267158	0.288405
800.459035	0.288552
800.650895	0.288823
800.842736	0.289039
801.034559	0.289045
801.226364	0.289155
801.418150	0.289414
801.609919	0.289664
801.801669	0.289872
801.993401	0.290170
802.185114	0.290506
802.376810	0.291050
802.568487	0.291380
802.760146	0.291604
802.951787	0.292199
803.143409	0.292602
803.335014	0.292912
803.526600	0.293176
803.718168	0.293615
803.909717	0.293783
804.101249	0.294014
804.292762	0.294207
804.484257	0.294698
804.675734	0.294848
804.867192	0.295057
805.058632	0.295287
805.250054	0.295224
805.441458	0.295318
805.632844	0.295379
805.824211	0.295172
806.015561	0.295296
806.206891	0.295221
806.398204	0.295412
806.589499	0.295531
806.780775	0.295378
806.972033	0.295872
807.163273	0.296391
807.354495	0.296740
807.545698	0.297253
807.736883	0.297499
807.928050	0.297696
808.119199	0.298187
808.310329	0.298319
808.501441	0.299165
808.692535	0.299448
808.883611	0.299302
809.074669	0.299899
809.265708	0.300491
809.456729	0.300966
809.647732	0.301613
809.838717	0.301658
810.029683	0.302480
810.220632	0.302942
810.411562	0.303412
810.602474	0.303780
810.793367	0.304055
810.984242	0.304186
811.175100	0.304537
811.365938	0.304677
811.556759	0.305142
811.747562	0.305099
811.938346	0.305053
812.129112	0.305585
812.319860	0.306175
812.510589	0.306522
812.701300	0.306861
812.891994	0.307163
813.082668	0.307594
813.273325	0.307704
813.463964	0.308191
813.654584	0.308592
813.845186	0.308756
814.035769	0.308753
814.226335	0.308723
814.416882	0.308902
814.607411	0.309097
814.797922	0.309420
814.988415	0.309846
815.178889	0.310091
815.369345	0.310528
815.559783	0.310700
815.750203	0.311015
815.940605	0.311298
816.130988	0.311375
816.321353	0.311592
816.511700	0.311627
816.702028	0.312105
816.892339	0.312402
817.082631	0.312670
817.272905	0.312820
817.463161	0.313239
817.653398	0.313838
817.843617	0.314381
818.033819	0.315121
818.224001	0.315690
818.414166	0.316157
818.604312	0.316712
818.794440	0.317119
818.984550	0.317564
819.174642	0.318010
819.364716	0.318296
819.554771	0.318841
819.744808	0.319170
819.934827	0.319654
820.124827	0.320225
820.314810	0.320730
820.504774	0.321115
820.694720	0.321663
820.884647	0.322062
821.074557	0.322222
821.264448	0.322981
821.454321	0.322959
821.644176	0.323107
821.834012	0.323069
822.023831	0.323124
822.213631	0.323442
822.403413	0.323881
822.593176	0.323949
822.782922	0.324598
822.972649	0.324604
823.162358	0.325249
823.352049	0.325676
823.541721	0.326158
823.731376	0.326914
823.921012	0.327624
824.110629	0.327943
824.300229	0.328760
824.489811	0.329147
824.679374	0.329415
824.868919	0.330065
825.058445	0.330830
825.247954	0.331090
825.437444	0.331449
825.626916	0.331548
825.816370	0.332064
826.005806	0.332534
826.195223	0.332858
826.384622	0.333292
826.574003	0.333227
826.763366	0.333652
826.952711	0.334214
827.142037	0.334534
827.331345	0.335103
827.520635	0.335531
827.709906	0.335311
827.899160	0.335791
828.088395	0.336170
828.277612	0.336969
828.466810	0.337163
828.655991	0.337753
828.845153	0.337982
829.034297	0.338186
829.223423	0.338445
829.412531	0.339001
829.601620	0.339653
829.790691	0.339866
829.979744	0.340221
830.168779	0.340602
830.357795	0.340694
830.546793	0.341346
830.735773	0.341828
830.924735	0.342355
831.113679	0.343056
831.302604	0.343516
831.491511	0.344188
831.680400	0.344337
831.869271	0.344645
832.058123	0.345003
832.246957	0.345381
832.435773	0.346026
832.624571	0.346416
832.813351	0.346936
833.002112	0.346996
833.190855	0.347394
833.379580	0.348163
833.568287	0.349138
833.756975	0.349706
833.945645	0.350054
834.134297	0.350399
834.322931	0.350628
834.511547	0.350568
834.700144	0.351155
834.888723	0.351575
835.077284	0.351875
835.265826	0.351979
835.454351	0.352396
835.642857	0.353059
835.831345	0.353180
836.019815	0.354047
836.208266	0.354859
836.396699	0.355249
836.585114	0.356110
836.773511	0.356585
836.961890	0.357364
837.150250	0.358123
837.338592	0.358399
837.526916	0.359092
837.715222	0.359785
837.903510	0.360394
838.091779	0.361263
838.280030	0.361635
838.468263	0.362251
838.656477	0.362615
838.844674	0.363415
839.032852	0.364064
839.221012	0.364422
839.409153	0.364661
839.597277	0.365039
839.785382	0.365300
839.973469	0.365580
840.161538	0.365943
840.349589	0.366451
840.537621	0.366397
840.725635	0.366824
840.913631	0.367733
841.101609	0.367902
841.289568	0.368473
841.477509	0.369146
841.665432	0.369950
841.853337	0.370876
842.041224	0.371153
842.229092	0.371580
842.416942	0.372178
842.604774	0.372423
842.792588	0.373114
842.980383	0.373614
843.168160	0.374266
843.355919	0.374618
843.543660	0.374805
843.731382	0.375229
843.919087	0.376085
844.106773	0.376649
844.294441	0.377194
844.482090	0.377404
844.669722	0.378027
844.857335	0.378578
845.044930	0.379139
845.232507	0.379695
845.420065	0.380504
845.607605	0.380912
845.795127	0.381161
845.982631	0.382009
846.170117	0.383044
846.357584	0.383267
846.545033	0.383562
846.732464	0.383518
846.919877	0.383846
847.107272	0.384194
847.294648	0.384359
847.482006	0.384990
847.669346	0.385091
847.856667	0.385189
848.043971	0.385666
848.231256	0.386097
848.418523	0.386733
848.605771	0.387485
848.793002	0.387760
848.980214	0.388493
849.167408	0.388916
849.354584	0.389430
849.541742	0.389786
849.728881	0.390438
849.916002	0.390669
850.103105	0.391222
850.290190	0.391419
850.477256	0.392206
850.664304	0.392436
850.851334	0.392939
851.038346	0.393080
851.225340	0.393967
851.412315	0.394255
851.599272	0.395210
851.786211	0.395730
851.973132	0.396149
852.160034	0.396241
852.346918	0.396776
852.533784	0.397129
852.720632	0.397778
852.907462	0.398214
853.094273	0.398860
853.281066	0.399279
853.467841	0.399723
853.654598	0.400336
853.841336	0.401114
854.028056	0.401473
854.214758	0.402187
854.401442	0.402912
854.588107	0.403715
854.774755	0.404516
854.961384	0.404113
855.147995	0.404774
855.334587	0.405280
855.521162	0.406038
855.707718	0.406832
855.894256	0.407364
856.080775	0.408424
856.267277	0.408678
856.453760	0.408614
856.640225	0.409540
856.826672	0.410196
857.013101	0.410418
857.199511	0.410619
857.385903	0.410876
857.572277	0.410895
857.758633	0.410665
857.944970	0.410762
858.131290	0.411386
858.317591	0.412404
858.503873	0.412769
858.690138	0.413286
858.876384	0.413774
859.062612	0.414423
859.248822	0.415402
859.435014	0.416172
859.621188	0.416946
859.807343	0.417666
859.993480	0.418046
860.179599	0.418149
860.365699	0.418951
860.551781	0.419479
860.737846	0.419994
860.923891	0.420263
861.109919	0.420618
861.295929	0.420913
861.481920	0.421441
861.667893	0.421618
861.853848	0.422344
862.039784	0.422416
862.225702	0.422776
862.411603	0.422777
862.597484	0.423180
862.783348	0.423349
862.969193	0.423824
863.155021	0.423731
863.340830	0.423974
863.526620	0.423961
863.712393	0.424596
863.898147	0.424552
864.083883	0.425173
864.269601	0.425400
864.455301	0.425560
864.640982	0.426045
864.826645	0.426637
865.012290	0.427077
865.197917	0.427428
865.383526	0.427323
865.569116	0.427736
865.754688	0.427753
865.940242	0.428035
866.125777	0.428482
866.311295	0.428982
866.496794	0.429182
866.682275	0.429560
866.867737	0.430065
867.053182	0.430614
867.238608	0.431234
867.424016	0.432111
867.609406	0.432743
867.794778	0.432901
867.980131	0.432904
868.165466	0.433539
868.350783	0.434181
868.536082	0.434474
868.721362	0.435166
868.906625	0.435798
869.091869	0.436317
869.277094	0.436131
869.462302	0.436657
869.647491	0.437127
869.832662	0.437499
870.017815	0.437107
870.202950	0.437259
870.388066	0.437191
870.573165	0.437507
870.758245	0.437366
870.943306	0.438027
871.128350	0.438885
871.313375	0.439154
871.498382	0.439036
871.683371	0.439851
871.868342	0.440347
872.053294	0.440904
872.238229	0.440714
872.423144	0.440730
872.608042	0.440591
872.792922	0.440531
872.977783	0.440315
873.162626	0.440733
873.347451	0.440836
873.532258	0.441305
873.717046	0.441511
873.901816	0.442190
874.086568	0.443183
874.271302	0.443532
874.456017	0.443984
874.640715	0.444506
874.825394	0.445133
875.010055	0.445275
875.194697	0.445496
875.379322	0.445585
875.563928	0.445861
875.748516	0.445868
875.933085	0.446445
876.117637	0.446396
876.302170	0.447343
876.486685	0.447211
876.671182	0.448185
876.855661	0.448723
877.040121	0.449105
877.224563	0.449426
877.408987	0.449515
877.593393	0.449507
877.777780	0.450068
877.962150	0.449438
878.146501	0.448868
878.330833	0.448456
878.515148	0.448407
878.699444	0.448710
878.883722	0.448221
879.067982	0.448399
879.252224	0.448697
879.436447	0.448791
879.620653	0.449159
879.804840	0.450279
879.989008	0.449906
880.173159	0.449777
880.357291	0.449268
880.541405	0.449712
880.725501	0.449983
880.909579	0.450482
881.093638	0.450428
881.277680	0.450368
881.461703	0.450471
881.645707	0.451453
881.829694	0.451722
882.013662	0.452356
882.197612	0.452880
882.381544	0.453030
882.565458	0.453158
882.749353	0.453245
882.933230	0.453568
883.117089	0.454196
883.300930	0.454194
883.484753	0.454268
883.668557	0.454576
883.852343	0.455117
884.036111	0.455152
884.219861	0.454893
884.403592	0.454669
884.587305	0.455247
884.771000	0.454832
884.954677	0.454857
885.138335	0.454874
885.321976	0.454965
885.505598	0.454542
885.689201	0.454948
885.872787	0.454983
886.056354	0.455621
886.239904	0.455373
886.423434	0.455652
886.606947	0.455379
886.790442	0.455447
886.973918	0.455674
887.157376	0.455280
887.340816	0.454996
887.524237	0.455094
887.707641	0.454479
887.891026	0.454889
888.074393	0.454503
888.257741	0.454770
888.441072	0.455084
888.624384	0.454245
888.807678	0.454030
888.990954	0.454147
889.174211	0.454464
889.357451	0.455171
889.540672	0.454732
889.723875	0.455312
889.907059	0.455055
890.090226	0.455381
890.273374	0.455577
890.456504	0.456000
890.639616	0.455576
890.822709	0.455491
891.005785	0.455328
891.188842	0.455447
891.371881	0.455037
891.554901	0.455148
891.737904	0.455128
891.920888	0.456003
892.103854	0.456247
892.286802	0.456834
892.469731	0.456367
892.652643	0.456021
892.835536	0.456049
893.018410	0.456090
893.201267	0.456205
893.384106	0.456115
893.566926	0.455504
893.749728	0.455157
893.932511	0.455031
894.115277	0.455054
894.298024	0.455121
894.480753	0.454780
894.663464	0.454561
894.846157	0.455059
895.028831	0.454307
895.211487	0.454367
895.394125	0.454083
895.576745	0.453563
895.759346	0.453898
895.941930	0.453929
896.124495	0.453203
896.307041	0.453180
896.489570	0.452798
896.672080	0.452496
896.854573	0.452404
897.037046	0.452554
897.219502	0.452397
897.401940	0.452465
897.584359	0.452305
897.766760	0.452823
897.949143	0.452075
898.131507	0.451471
898.313854	0.451453
898.496182	0.451038
898.678492	0.450341
898.860783	0.450874
899.043057	0.449854
899.225312	0.449647
899.407549	0.449237
899.589768	0.448869
899.771968	0.448861
899.954151	0.449190
900.136315	0.448763
900.318461	0.449142
900.500588	0.447899
900.682698	0.447884
900.864789	0.447185
901.046862	0.446557
901.228917	0.446939
901.410953	0.446313
901.592971	0.445693
901.774972	0.445788
901.956953	0.445232
902.138917	0.445001
902.320862	0.444407
902.502790	0.444455
902.684699	0.444157
902.866589	0.443785
903.048462	0.442838
903.230316	0.443030
903.412152	0.442103
903.593970	0.441962
903.775770	0.442028
903.957551	0.442083
904.139314	0.441859
904.321059	0.442058
904.502786	0.441640
904.684494	0.442336
904.866185	0.441190
905.047857	0.441516
905.229510	0.440729
905.411146	0.440488
905.592763	0.440294
905.774363	0.439332
905.955943	0.438963
906.137506	0.438768
906.319051	0.438873
906.500577	0.438568
906.682085	0.438165
906.863575	0.437439
907.045046	0.436886
907.226500	0.436746
907.407935	0.436243
907.589352	0.435992
907.770750	0.435409
907.952131	0.434564
908.133493	0.434544
908.314837	0.433262
908.496163	0.433588
908.677470	0.433038
908.858760	0.431978
909.040031	0.432090
909.221284	0.431365
909.402518	0.431158
909.583735	0.429813
909.764933	0.429199
909.946113	0.429078
910.127275	0.428319
910.308418	0.427522
910.489544	0.427234
910.670651	0.426604
910.851740	0.425723
911.032810	0.424720
911.213863	0.424575
911.394897	0.423525
911.575913	0.423010
911.756911	0.422094
911.937890	0.422129
912.118851	0.420793
912.299794	0.420427
912.480719	0.419663
912.661626	0.419467
912.842514	0.418741
913.023384	0.418750
913.204236	0.418364
913.385070	0.418019
913.565886	0.416905
913.746683	0.416634
913.927462	0.415582
914.108223	0.415433
914.288965	0.414317
914.469690	0.413531
914.650396	0.412517
914.831084	0.412212
915.011754	0.411280
915.192405	0.410751
915.373038	0.410158
915.553653	0.409787
915.734250	0.408437
915.914829	0.407518
916.095389	0.406585
916.275931	0.406222
916.456455	0.405060
916.636961	0.404812
916.817448	0.404066
916.997917	0.403406
917.178368	0.401971
917.358801	0.401983
917.539216	0.401659
917.719612	0.401452
917.899990	0.400005
918.080350	0.399223
918.260692	0.398726
918.441015	0.398380
918.621320	0.397105
918.801607	0.396683
918.981876	0.395888
919.162127	0.395152
919.342359	0.394377
919.522573	0.394640
919.702769	0.394563
919.882947	0.392828
920.063106	0.391479
920.243247	0.391393
920.423370	0.390920
920.603475	0.390339
920.783562	0.389622
920.963630	0.388866
921.143680	0.387560
921.323712	0.386774
921.503725	0.386486
921.683721	0.385744
921.863698	0.384861
922.043657	0.384407
922.223598	0.383440
922.403520	0.382466
922.583424	0.381872
922.763311	0.380527
922.943178	0.378532
923.123028	0.377545
923.302859	0.377232
923.482673	0.376318
923.662467	0.375333
923.842244	0.374170
924.022003	0.373759
924.201743	0.372283
924.381465	0.372027
924.561169	0.371094
924.740854	0.370561
924.920522	0.369559
925.100171	0.369142
925.279802	0.367902
925.459414	0.368069
925.639009	0.367192
925.818585	0.367109
925.998143	0.366034
926.177683	0.365629
926.357205	0.365064
926.536708	0.363199
926.716193	0.362048
926.895660	0.361331
927.075109	0.359125
927.254539	0.358717
927.433951	0.356630
927.613345	0.355851
927.792721	0.355289
927.972079	0.353925
928.151418	0.353602
928.330739	0.352218
928.510042	0.351445
928.689327	0.351258
928.868593	0.349514
929.047841	0.349523
929.227071	0.349074
929.406283	0.347670
929.585476	0.346242
929.764652	0.345725
929.943809	0.344570
930.122948	0.343529
930.302068	0.342435
930.481171	0.342086
930.660255	0.340409
930.839321	0.339441
931.018369	0.339059
931.197398	0.338652
931.376409	0.337106
931.555402	0.336956
931.734377	0.335791
931.913334	0.334770
932.092272	0.332488
932.271192	0.332184
932.450094	0.330404
932.628978	0.328688
932.807844	0.327355
932.986691	0.326516
933.165520	0.324568
933.344331	0.323382
933.523123	0.322613
933.701898	0.321841
933.880654	0.320476
934.059392	0.319665
934.238111	0.318098
934.416813	0.316761
934.595496	0.315731
934.774161	0.315202
934.952808	0.314056
935.131437	0.313009
935.310047	0.311990
935.488639	0.311483
935.667213	0.310181
935.845769	0.309916
936.024306	0.309392
936.202825	0.308523
936.381326	0.307646
936.559809	0.306412
936.738274	0.304673
936.916720	0.303889
937.095148	0.301933
937.273558	0.301024
937.451950	0.299563
937.630323	0.298254
937.808678	0.296136
937.987015	0.294752
938.165334	0.294655
938.343635	0.293892
938.521917	0.292825
938.700181	0.291989
938.878427	0.290664
939.056655	0.289713
939.234864	0.288421
939.413055	0.287906
939.591228	0.286979
939.769383	0.286603
939.947519	0.285479
940.125638	0.284218
940.303738	0.282869
940.481820	0.281700
940.659883	0.280675
940.837929	0.279773
941.015956	0.279649
941.193965	0.277879
941.371955	0.274363
941.549928	0.273296
941.727882	0.271831
941.905818	0.270259
942.083736	0.269586
942.261636	0.268797
942.439517	0.267168
942.617380	0.265655
942.795225	0.264575
942.973052	0.265405
943.150860	0.263875
943.328651	0.262650
943.506423	0.262573
943.684176	0.261322
943.861912	0.259261
944.039629	0.259191
944.217328	0.257531
944.395009	0.258393
944.572672	0.257188
944.750317	0.255549
944.927943	0.254431
945.105551	0.252539
945.283141	0.252556
945.460712	0.253229
945.638265	0.250655
945.815801	0.249221
945.993317	0.245721
946.170816	0.243242
946.348297	0.243558
946.525759	0.243053
946.703203	0.241893
946.880629	0.238394
947.058036	0.235867
947.235425	0.234686
947.412797	0.234899
947.590149	0.236333
947.767484	0.235176
947.944800	0.231877
948.122099	0.229378
948.299379	0.229077
948.476640	0.228872
948.653884	0.228644
948.831109	0.229007
949.008316	0.226783
949.185505	0.224792
949.362676	0.223652
949.539828	0.224011
949.716962	0.225153
949.894078	0.222759
950.071176	0.221365
950.248256	0.219979
950.425317	0.218015
950.602360	0.216006
950.779385	0.213549
950.956391	0.212509
951.133380	0.211684
951.310350	0.210175
951.487302	0.209226
951.664235	0.207806
951.841151	0.205845
952.018048	0.206491
952.194927	0.206427
952.371788	0.205922
952.548631	0.205283
952.725455	0.203561
952.902261	0.202694
953.079049	0.202765
953.255819	0.204239
953.432570	0.204153
953.609303	0.200464
953.786018	0.198791
953.962715	0.196046
954.139394	0.195852
954.316054	0.193749
954.492696	0.191610
954.669320	0.192379
954.845926	0.189741
955.022513	0.189025
955.199083	0.191653
955.375634	0.192355
955.552166	0.193327
955.728681	0.191148
955.905177	0.193068
956.081655	0.192732
956.258115	0.190525
956.434557	0.188338
956.610980	0.187553
956.787385	0.184147
956.963772	0.181336
957.140141	0.182382
957.316492	0.181320
957.492824	0.180258
957.669138	0.180877
957.845434	0.179641
958.021712	0.181774
958.197971	0.181570
958.374212	0.179995
958.550435	0.179111
958.726640	0.176796
958.902826	0.179103
959.078995	0.177668
959.255145	0.177640
959.431277	0.179403
959.607390	0.177422
959.783486	0.176171
959.959563	0.175584
960.135622	0.174077
960.311662	0.173866
960.487685	0.169217
960.663689	0.167944
960.839675	0.164603
961.015643	0.162458
961.191593	0.162664
961.367524	0.162315
961.543437	0.161976
961.719332	0.164813
961.895209	0.164791
962.071067	0.165248
962.246907	0.164348
962.422730	0.165338
962.598533	0.165421
962.774319	0.164425
962.950086	0.163325
963.125835	0.164567
963.301566	0.163427
963.477279	0.161830
963.652973	0.161383
963.828650	0.163556
964.004308	0.165065
964.179947	0.165498
964.355569	0.167733
964.531172	0.168767
964.706757	0.169612
964.882324	0.170597
965.057873	0.170102
965.233403	0.171726
965.408916	0.170233
965.584410	0.167784
965.759885	0.167755
965.935343	0.166419
966.110782	0.163329
966.286203	0.162155
966.461606	0.160970
966.636991	0.162606
966.812357	0.161765
966.987705	0.160648
967.163035	0.162399
967.338347	0.159181
967.513641	0.157107
967.688916	0.158213
967.864173	0.157743
968.039412	0.156633
968.214632	0.155647
968.389835	0.154728
968.565019	0.155278
968.740185	0.151275
968.915333	0.154158
969.090462	0.156526
969.265573	0.155732
969.440667	0.157440
969.615741	0.158123
969.790798	0.156402
969.965836	0.157702
970.140856	0.159449
970.315858	0.162278
970.490842	0.160876
970.665808	0.159549
970.840755	0.159879
971.015684	0.159941
971.190595	0.159902
971.365487	0.161695
971.540362	0.159034
971.715218	0.159324
971.890056	0.157015
972.064875	0.157889
972.239677	0.158606
972.414460	0.160746
972.589225	0.158600
972.763972	0.158377
972.938700	0.158645
973.113411	0.161656
973.288103	0.158359
973.462777	0.160801
973.637432	0.161279
973.812070	0.161221
973.986689	0.161359
974.161290	0.164382
974.335873	0.166377
974.510437	0.165521
974.684984	0.163420
974.859512	0.165824
975.034022	0.165341
975.208513	0.163162
975.382987	0.163845
975.557442	0.163199
975.731879	0.162489
975.906298	0.159324
976.080698	0.161050
976.255080	0.161073
976.429445	0.159589
976.603790	0.157632
976.778118	0.157566
976.952427	0.155838
977.126719	0.153815
977.300992	0.153488
977.475246	0.155666
977.649483	0.150707
977.823701	0.152700
977.997901	0.152529
978.172083	0.153936
978.346247	0.157641
978.520392	0.155158
978.694519	0.156676
978.868628	0.155994
979.042719	0.155290
979.216791	0.159873
979.390845	0.158709
979.564882	0.161501
979.738899	0.161013
979.912899	0.157834
980.086880	0.158314
980.260843	0.159556
980.434788	0.160607
980.608715	0.161968
980.782623	0.160742
980.956514	0.160643
981.130386	0.157756
981.304240	0.158503
981.478075	0.157964
981.651892	0.159747
981.825692	0.159350
981.999472	0.157464
982.173235	0.155570
982.346980	0.153781
982.520706	0.156072
982.694414	0.156190
982.868104	0.155533
983.041775	0.152468
983.215428	0.151537
983.389064	0.150771
983.562680	0.151380
983.736279	0.152255
983.909860	0.154082
984.083422	0.151855
984.256966	0.152813
984.430491	0.153989
984.603999	0.157617
984.777488	0.157401
984.950959	0.157684
985.124412	0.157967
985.297847	0.158210
985.471263	0.158152
985.644661	0.158259
985.818041	0.160426
985.991403	0.159847
986.164747	0.158148
986.338072	0.158187
986.511379	0.158333
986.684668	0.156228
986.857938	0.155985
987.031191	0.156725
987.204425	0.157695
987.377641	0.153957
987.550839	0.155145
987.724018	0.157108
987.897179	0.159383
988.070322	0.159253
988.243447	0.161123
988.416554	0.163563
988.589642	0.162438
988.762712	0.159823
988.935764	0.161671
989.108798	0.160153
989.281813	0.160237
989.454811	0.157086
989.627790	0.154862
989.800751	0.153023
989.973693	0.148688
990.146617	0.148640
990.319524	0.148039
990.492412	0.145430
990.665281	0.143509
990.838133	0.143021
991.010966	0.143933
991.183781	0.145190
991.356578	0.148419
991.529356	0.151763
991.702117	0.150566
991.874859	0.150957
992.047583	0.151448
992.220288	0.156057
992.392976	0.155443
992.565645	0.154995
992.738296	0.157370
992.910929	0.154997
993.083543	0.153231
993.256139	0.154818
993.428718	0.154176
993.601277	0.154574
993.773819	0.151085
993.946342	0.149599
994.118848	0.150628
994.291335	0.149108
994.463803	0.149851
994.636254	0.151072
994.808686	0.150364
994.981100	0.151953
995.153496	0.152968
995.325874	0.153914
995.498233	0.154756
995.670574	0.154665
995.842897	0.154841
996.015202	0.155283
996.187488	0.154135
996.359757	0.154059
996.532007	0.155726
996.704239	0.154186
996.876452	0.154069
997.048648	0.157392
997.220825	0.157867
997.392984	0.157235
997.565124	0.157241
997.737247	0.153861
997.909351	0.153992
998.081437	0.153288
998.253505	0.155395
998.425554	0.156585
998.597586	0.155338
998.769599	0.155065
998.941594	0.155796
999.113571	0.155702
999.285529	0.158956
999.457469	0.160165
999.629391	0.158888
999.801295	0.159541
999.973181	0.159931
1000.145048	0.158036
1000.316897	0.157952
1000.488728	0.158050
1000.660541	0.155038
1000.832335	0.154387
1001.004111	0.153961
1001.175869	0.157068
1001.347609	0.155344
1001.519331	0.155834
1001.691034	0.154862
1001.862719	0.155688
1002.034386	0.155501
1002.206035	0.156369
1002.377665	0.155845
1002.549277	0.156317
1002.720871	0.154712
1002.892447	0.153082
1003.064004	0.152955
1003.235544	0.155244
1003.407065	0.155439
1003.578568	0.154716
1003.750052	0.157249
1003.921519	0.160889
1004.092967	0.159980
1004.264397	0.159841
1004.435809	0.160493
1004.607202	0.158882
1004.778577	0.159704
1004.949934	0.159218
1005.121273	0.159704
1005.292594	0.159969
1005.463896	0.159794
1005.635180	0.158235
1005.806446	0.158815
1005.977694	0.161039
1006.148923	0.160376
1006.320135	0.159050
1006.491328	0.158662
1006.662503	0.155952
1006.833659	0.155188
1007.004798	0.152982
1007.175918	0.156395
1007.347020	0.155450
1007.518103	0.153708
1007.689169	0.153716
1007.860216	0.154377
1008.031245	0.154069
1008.202256	0.157609
1008.373248	0.159344
1008.544223	0.159054
1008.715179	0.156868
1008.886117	0.157077
1009.057036	0.160456
1009.227938	0.162324
1009.398821	0.162409
1009.569686	0.162006
1009.740533	0.160923
1009.911361	0.160074
1010.082172	0.159867
1010.252964	0.160196
1010.423738	0.159755
1010.594493	0.157081
1010.765231	0.155458
1010.935950	0.155954
1011.106651	0.156081
1011.277334	0.154878
1011.447998	0.152019
1011.618645	0.152671
1011.789273	0.153196
1011.959882	0.151807
1012.130474	0.151285
1012.301048	0.151876
1012.471603	0.151082
1012.642140	0.149672
1012.812658	0.152370
1012.983159	0.152707
1013.153641	0.151447
1013.324105	0.148888
1013.494551	0.150114
1013.664979	0.150841
1013.835388	0.151316
1014.005779	0.150997
1014.176152	0.152596
1014.346507	0.150991
1014.516843	0.153343
1014.687162	0.153535
1014.857462	0.155931
1015.027744	0.157176
1015.198007	0.157461
1015.368252	0.155467
1015.538480	0.153830
1015.708689	0.153519
1015.878879	0.153245
1016.049052	0.150440
1016.219206	0.152410
1016.389342	0.151797
1016.559460	0.149233
1016.729559	0.149011
1016.899641	0.148977
1017.069704	0.150416
1017.239749	0.150814
1017.409775	0.150799
1017.579784	0.152756
1017.749774	0.151314
1017.919746	0.150937
1018.089700	0.153191
1018.259635	0.153198
1018.429553	0.152709
1018.599452	0.152542
1018.769333	0.150857
1018.939195	0.150467
1019.109040	0.148787
1019.278866	0.146857
1019.448674	0.144523
1019.618464	0.144097
1019.788235	0.144229
1019.957989	0.145518
1020.127724	0.144688
1020.297441	0.145455
1020.467139	0.144288
1020.636820	0.144639
1020.806482	0.145760
1020.976126	0.147169
1021.145752	0.146860
1021.315359	0.146984
1021.484948	0.148245
1021.654519	0.149713
1021.824072	0.151322
1021.993607	0.151653
1022.163123	0.151457
1022.332621	0.151920
1022.502101	0.152483
1022.671563	0.153470
1022.841007	0.153837
1023.010432	0.151439
1023.179839	0.150297
1023.349228	0.148990
1023.518598	0.151282
1023.687951	0.151107
1023.857285	0.151568
1024.026601	0.151653
1024.195899	0.151856
1024.365178	0.149291
1024.534439	0.151288
1024.703682	0.152026
1024.872907	0.151435
1025.042114	0.149560
1025.211302	0.148829
1025.380472	0.149397
1025.549624	0.151212
1025.718758	0.149047
1025.887873	0.150704
1026.056970	0.149027
1026.226049	0.149750
1026.395110	0.149860
1026.564153	0.150974
1026.733177	0.151109
1026.902183	0.149831
1027.071171	0.147220
1027.240141	0.149751
1027.409092	0.149117
1027.578026	0.151141
1027.746940	0.150448
1027.915837	0.149378
1028.084716	0.148500
1028.253576	0.150260
1028.422418	0.148699
1028.591242	0.150895
1028.760048	0.149070
1028.928835	0.149628
1029.097604	0.147846
1029.266355	0.146672
1029.435088	0.149709
1029.603803	0.149966
1029.772499	0.148922
1029.941177	0.151251
1030.109837	0.151365
1030.278478	0.150963
1030.447102	0.150727
1030.615707	0.151581
1030.784294	0.152567
1030.952863	0.150017
1031.121413	0.148267
1031.289945	0.149503
1031.458460	0.150081
1031.626955	0.148298
1031.795433	0.148800
1031.963892	0.148992
1032.132334	0.147051
1032.300756	0.145896
1032.469161	0.146281
1032.637548	0.147955
1032.805916	0.146885
1032.974266	0.144577
1033.142598	0.146446
1033.310911	0.145633
1033.479207	0.145531
1033.647484	0.148442
1033.815743	0.149690
1033.983983	0.149532
1034.152206	0.150002
1034.320410	0.148116
1034.488596	0.149184
1034.656764	0.147889
1034.824914	0.149035
1034.993045	0.149049
1035.161158	0.147063
1035.329253	0.146741
1035.497330	0.147668
1035.665388	0.145860
1035.833428	0.148301
1036.001450	0.148134
1036.169454	0.148397
1036.337440	0.147457
1036.505407	0.147322
1036.673356	0.145215
1036.841287	0.146150
1037.009200	0.145229
1037.177094	0.146318
1037.344970	0.145601
1037.512828	0.144633
1037.680668	0.144780
1037.848489	0.144332
1038.016293	0.144865
1038.184078	0.147564
1038.351845	0.148378
1038.519593	0.147869
1038.687324	0.148085
1038.855036	0.147897
1039.022730	0.148205
1039.190406	0.147101
1039.358063	0.146396
1039.525702	0.144915
1039.693323	0.145471
1039.860926	0.145983
1040.028511	0.146978
1040.196077	0.146019
1040.363625	0.145932
1040.531155	0.147104
1040.698667	0.149728
1040.866161	0.149670
1041.033636	0.151565
1041.201093	0.151947
1041.368532	0.150312
1041.535952	0.151341
1041.703355	0.152708
1041.870739	0.153837
1042.038105	0.153785
1042.205452	0.152710
1042.372782	0.155922
1042.540093	0.155860
1042.707386	0.153678
1042.874661	0.152884
1043.041918	0.153001
1043.209156	0.152567
1043.376376	0.150665
1043.543578	0.149830
1043.710762	0.148600
1043.877927	0.146586
1044.045074	0.144195
1044.212203	0.147556
1044.379314	0.147532
1044.546407	0.146294
1044.713481	0.146130
1044.880537	0.148326
1045.047575	0.149322
1045.214595	0.149466
1045.381596	0.147901
1045.548579	0.150360
1045.715544	0.148683
1045.882491	0.147693
1046.049420	0.148624
1046.216330	0.148445
1046.383222	0.147808
1046.550096	0.146383
1046.716951	0.145738
1046.883789	0.148017
1047.050608	0.146172
1047.217409	0.143396
1047.384192	0.143798
1047.550956	0.142590
1047.717703	0.142136
1047.884431	0.142803
1048.051140	0.144450
1048.217832	0.144309
1048.384505	0.145489
1048.551161	0.144834
1048.717798	0.146089
1048.884416	0.143989
1049.051017	0.143902
1049.217599	0.144463
1049.384163	0.142227
1049.550709	0.143255
1049.717237	0.144890
1049.883746	0.143391
1050.050237	0.143474
1050.216710	0.146203
1050.383165	0.148227
1050.549601	0.149461
1050.716019	0.147314
1050.882420	0.150033
1051.048801	0.148441
1051.215165	0.149192
1051.381510	0.148506
1051.547837	0.149066
1051.714146	0.146856
1051.880437	0.147160
1052.046709	0.147301
1052.212964	0.148644
1052.379200	0.147826
1052.545417	0.148472
1052.711617	0.146340
1052.877798	0.145790
1053.043961	0.145700
1053.210106	0.144405
1053.376233	0.144587
1053.542341	0.142279
1053.708432	0.142053
1053.874504	0.141018
1054.040557	0.141694
1054.206593	0.142368
1054.372610	0.142538
1054.538609	0.143779
1054.704590	0.143035
1054.870553	0.142034
1055.036497	0.144598
1055.202424	0.144778
1055.368331	0.145210
1055.534221	0.142320
1055.700093	0.142503
1055.865946	0.142830
1056.031781	0.142206
1056.197598	0.144001
1056.363397	0.144292
1056.529177	0.143451
1056.694939	0.144113
1056.860683	0.144291
1057.026409	0.143982
1057.192116	0.142850
1057.357806	0.141777
1057.523477	0.143427
1057.689130	0.144296
1057.854764	0.143350
1058.020381	0.142463
1058.185979	0.144859
1058.351559	0.143158
1058.517120	0.142999
1058.682664	0.144746
1058.848189	0.145939
1059.013696	0.143739
1059.179185	0.142434
1059.344656	0.144078
1059.510108	0.145128
1059.675542	0.142168
1059.840958	0.144661
1060.006356	0.144490
1060.171735	0.142016
1060.337096	0.143537
1060.502439	0.144018
1060.667764	0.143481
1060.833071	0.143488
1060.998359	0.141168
1061.163629	0.142923
1061.328881	0.143458
1061.494115	0.145833
1061.659330	0.148090
1061.824527	0.147433
1061.989706	0.149640
1062.154867	0.149525
1062.320010	0.148616
1062.485134	0.151246
1062.650240	0.150451
1062.815328	0.148104
1062.980398	0.147814
1063.145449	0.147576
1063.310482	0.145797
1063.475497	0.144591
1063.640494	0.147559
1063.805473	0.145182
1063.970433	0.143903
1064.135375	0.142775
1064.300299	0.143548
1064.465204	0.145628
1064.630092	0.145617
1064.794961	0.150084
1064.959812	0.149598
1065.124645	0.148266
1065.289459	0.153046
1065.454256	0.152618
1065.619034	0.154134
1065.783793	0.155713
1065.948535	0.152152
1066.113258	0.152162
1066.277964	0.151461
1066.442651	0.151145
1066.607319	0.153297
1066.771970	0.150659
1066.936602	0.152026
1067.101216	0.150713
1067.265812	0.152497
1067.430389	0.155432
1067.594949	0.155672
1067.759490	0.153582
1067.924013	0.155130
1068.088518	0.152857
1068.253004	0.154344
1068.417472	0.153143
1068.581922	0.154585
1068.746354	0.150124
1068.910768	0.147364
1069.075163	0.146928
1069.239540	0.145065
1069.403899	0.144490
1069.568240	0.142198
1069.732562	0.142346
1069.896866	0.145030
1070.061152	0.144653
1070.225420	0.145207
1070.389670	0.146521
1070.553901	0.146740
1070.718114	0.151851
1070.882309	0.149328
1071.046486	0.150377
1071.210644	0.151292
1071.374784	0.151744
1071.538906	0.153470
1071.703010	0.152869
1071.867096	0.152585
1072.031163	0.151759
1072.195212	0.146752
1072.359243	0.145933
1072.523256	0.147347
1072.687250	0.146718
1072.851226	0.147430
1073.015184	0.145105
1073.179124	0.147632
1073.343045	0.150025
1073.506949	0.151783
1073.670834	0.153580
1073.834701	0.157465
1073.998549	0.155674
1074.162380	0.153530
1074.326192	0.152526
1074.489986	0.155129
1074.653761	0.154689
1074.817519	0.150496
1074.981258	0.148844
1075.144979	0.148909
1075.308682	0.146656
1075.472367	0.147273
1075.636033	0.151531
1075.799681	0.151656
1075.963311	0.151824
1076.126923	0.150901
1076.290516	0.151635
1076.454092	0.152282
1076.617649	0.152404
1076.781187	0.153122
1076.944708	0.156260
1077.108210	0.152365
1077.271695	0.150562
1077.435160	0.146191
1077.598608	0.147459
1077.762038	0.147794
1077.925449	0.148736
1078.088842	0.150346
1078.252217	0.150958
1078.415573	0.146736
1078.578912	0.149946
1078.742232	0.148462
1078.905534	0.150410
1079.068817	0.150027
1079.232083	0.151214
1079.395330	0.149950
1079.558559	0.152678
1079.721770	0.151821
1079.884962	0.153762
1080.048136	0.152321
1080.211293	0.154248
1080.374430	0.154550
1080.537550	0.152683
1080.700651	0.153748
1080.863735	0.155342
1081.026800	0.150033
1081.189846	0.151628
1081.352875	0.152998
1081.515885	0.151474
1081.678877	0.151402
1081.841851	0.151239
1082.004807	0.153159
1082.167744	0.153799
1082.330663	0.150734
1082.493564	0.152995
1082.656447	0.154207
1082.819312	0.152570
1082.982158	0.153756
1083.144986	0.154335
1083.307796	0.157611
1083.470587	0.155787
1083.633361	0.155680
1083.796116	0.155211
1083.958853	0.152510
1084.121571	0.148470
1084.284272	0.150145
1084.446954	0.149566
1084.609618	0.147919
1084.772264	0.146143
1084.934892	0.145589
1085.097501	0.144955
1085.260092	0.149653
1085.422665	0.150248
1085.585220	0.153137
1085.747756	0.152040
1085.910274	0.155088
1086.072774	0.157952
1086.235256	0.157472
1086.397720	0.162432
1086.560165	0.165272
1086.722592	0.160489
1086.885001	0.162677
1087.047392	0.159750
1087.209764	0.161377
1087.372119	0.162353
1087.534455	0.160660
1087.696772	0.160443
1087.859072	0.155723
1088.021353	0.152428
1088.183616	0.153959
1088.345861	0.152206
1088.508088	0.156207
1088.670296	0.156029
1088.832486	0.151606
1088.994658	0.149796
1089.156812	0.152213
1089.318948	0.154401
1089.481065	0.149894
1089.643164	0.152395
1089.805245	0.151873
1089.967308	0.152745
1090.129352	0.154409
1090.291378	0.157598
1090.453386	0.156081
1090.615376	0.152863
1090.777347	0.154595
1090.939301	0.158276
1091.101236	0.158547
1091.263153	0.160917
1091.425051	0.161668
1091.586932	0.159626
1091.748794	0.158357
1091.910638	0.159280
1092.072463	0.157840
1092.234271	0.156293
1092.396060	0.161475
1092.557831	0.162468
1092.719584	0.161346
1092.881319	0.161382
1093.043035	0.160266
1093.204733	0.160618
1093.366413	0.163211
1093.528075	0.166975
1093.689718	0.165278
1093.851343	0.161612
1094.012950	0.161760
1094.174539	0.162083
1094.336110	0.156599
1094.497662	0.159506
1094.659196	0.159301
1094.820712	0.161257
1094.982210	0.160946
1095.143689	0.164804
1095.305151	0.163867
1095.466594	0.161871
1095.628018	0.156603
1095.789425	0.157461
1095.950813	0.155120
1096.112183	0.151889
1096.273535	0.154556
1096.434869	0.151806
1096.596184	0.149059
1096.757482	0.154543
1096.918761	0.155200
1097.080021	0.159860
1097.241264	0.161547
1097.402488	0.164494
1097.563694	0.168588
1097.724882	0.165500
1097.886052	0.167127
1098.047203	0.170130
1098.208336	0.163980
1098.369451	0.161886
1098.530548	0.161076
1098.691627	0.161046
1098.852687	0.159384
1099.013729	0.158680
1099.174753	0.158159
1099.335758	0.158115
1099.496746	0.155204
1099.657715	0.155961
1099.818666	0.157554
1099.979599	0.159099
1100.140513	0.162566
1100.301409	0.163507
1100.462287	0.164650
1100.623147	0.159260
1100.783989	0.155858
1100.944812	0.159180
1101.105617	0.160050
1101.266404	0.159799
1101.427173	0.156961
1101.587923	0.156522
1101.748656	0.153657
1101.909370	0.148165
1102.070066	0.155384
1102.230743	0.162725
1102.391403	0.154933
1102.552044	0.154822
1102.712667	0.153111
1102.873271	0.156377
1103.033858	0.151303
1103.194426	0.153054
1103.354976	0.155006
1103.515508	0.151655
1103.676021	0.149746
1103.836517	0.154645
1103.996994	0.155894
1104.157453	0.158362
1104.317893	0.158384
1104.478316	0.163730
1104.638720	0.159232
1104.799106	0.162854
1104.959474	0.162679
1105.119823	0.163446
1105.280155	0.166550
1105.440468	0.168080
1105.600763	0.168785
1105.761039	0.166570
1105.921298	0.167485
1106.081538	0.173081
1106.241760	0.171715
1106.401964	0.176426
1106.562149	0.176995
1106.722316	0.173195
1106.882465	0.172957
1107.042596	0.168794
1107.202709	0.169651
1107.362803	0.163380
1107.522879	0.162156
1107.682937	0.164262
1107.842977	0.159310
1108.002999	0.155874
1108.163002	0.158763
1108.322987	0.155531
1108.482954	0.160245
1108.642902	0.157746
1108.802833	0.160851
1108.962745	0.162033
1109.122639	0.166526
1109.282515	0.169995
1109.442372	0.169194
1109.602211	0.167312
1109.762032	0.170078
1109.921835	0.167180
1110.081620	0.168319
1110.241386	0.167480
1110.401134	0.166004
1110.560864	0.163260
1110.720576	0.162191
1110.880269	0.163093
1111.039945	0.160902
1111.199602	0.160464
1111.359240	0.160717
1111.518861	0.163979
1111.678463	0.165562
1111.838047	0.170986
1111.997613	0.171358
1112.157161	0.173721
1112.316690	0.171368
1112.476202	0.174790
1112.635695	0.174419
1112.795169	0.181497
1112.954626	0.180266
1113.114064	0.176122
1113.273484	0.168493
1113.432886	0.167809
1113.592270	0.164073
1113.751635	0.167888
1113.910983	0.166702
1114.070312	0.164020
1114.229622	0.155736
1114.388915	0.157407
1114.548189	0.164741
1114.707445	0.172902
1114.866683	0.169986
1115.025903	0.167338
1115.185104	0.167117
1115.344287	0.168947
1115.503452	0.168281
1115.662599	0.172426
1115.821727	0.173156
1115.980838	0.172558
1116.139930	0.167367
1116.299004	0.168421
1116.458059	0.170526
1116.617097	0.175523
1116.776116	0.172673
1116.935117	0.177373
1117.094099	0.173520
1117.253064	0.165539
1117.412010	0.162685
1117.570938	0.164620
1117.729848	0.160299
1117.888740	0.167494
1118.047613	0.169332
1118.206468	0.171681
1118.365305	0.166747
1118.524124	0.171678
1118.682924	0.177302
1118.841707	0.173904
1119.000471	0.175500
1119.159216	0.180104
1119.317944	0.178700
1119.476653	0.168114
1119.635344	0.170397
1119.794017	0.175639
1119.952672	0.178884
1120.111308	0.178269
1120.269927	0.180637
1120.428527	0.178441
1120.587108	0.175242
1120.745672	0.171978
1120.904217	0.175007
1121.062744	0.178086
1121.221253	0.175574
1121.379744	0.168555
1121.538216	0.175319
1121.696671	0.173530
1121.855107	0.175618
1122.013524	0.178885
1122.171924	0.184723
1122.330305	0.180892
1122.488668	0.178411
1122.647013	0.176958
1122.805340	0.178166
1122.963648	0.173736
1123.121938	0.176692
1123.280210	0.166682
1123.438464	0.167675
1123.596700	0.162154
1123.754917	0.168753
1123.913116	0.169813
1124.071297	0.170094
1124.229459	0.175707
1124.387604	0.178125
1124.545730	0.177361
1124.703838	0.188823
1124.861928	0.185371
1125.019999	0.183882
1125.178052	0.181660
1125.336088	0.175245
1125.494104	0.170421
1125.652103	0.169989
1125.810083	0.165961
1125.968045	0.171388
1126.125989	0.170943
1126.283915	0.172597
1126.441823	0.176177
1126.599712	0.173959
1126.757583	0.176993
1126.915436	0.178659
1127.073270	0.170588
1127.231087	0.175424
1127.388885	0.178895
1127.546665	0.174469
1127.704426	0.178232
1127.862170	0.174235
1128.019895	0.182174
1128.177602	0.187839
1128.335291	0.189870
1128.492961	0.195182
1128.650614	0.193041
1128.808248	0.185112
1128.965864	0.184143
1129.123461	0.180799
1129.281041	0.183155
1129.438602	0.179580
1129.596145	0.171512
1129.753670	0.175355
1129.911176	0.177184
1130.068665	0.183656
1130.226135	0.186839
1130.383587	0.187024
1130.541020	0.190556
1130.698436	0.189877
1130.855833	0.190797
1131.013212	0.191957
1131.170573	0.198507
1131.327915	0.188912
1131.485239	0.181974
1131.642545	0.175034
1131.799833	0.175939
1131.957103	0.167401
1132.114354	0.167893
1132.271588	0.170465
1132.428803	0.172513
1132.585999	0.168986
1132.743178	0.175044
1132.900338	0.171113
1133.057480	0.175690
1133.214604	0.183863
1133.371710	0.196032
1133.528797	0.195533
1133.685866	0.190941
1133.842917	0.181700
1133.999950	0.175297
1134.156964	0.177315
1134.313960	0.177121
1134.470938	0.165798
1134.627898	0.158924
1134.784840	0.147591
1134.941763	0.145138
1135.098668	0.150053
1135.255555	0.157769
1135.412424	0.159127
1135.569274	0.153335
1135.726107	0.156389
1135.882921	0.163504
1136.039716	0.165776
1136.196494	0.165796
1136.353253	0.171481
1136.509995	0.169153
1136.666717	0.174554
1136.823422	0.184915
1136.980109	0.191481
1137.136777	0.192914
1137.293427	0.198857
1137.450059	0.203294
1137.606672	0.206598
1137.763267	0.194275
1137.919844	0.193411
1138.076403	0.186225
1138.232944	0.184153
1138.389466	0.187236
1138.545971	0.186222
1138.702457	0.181493
1138.858924	0.181161
1139.015374	0.181485
1139.171805	0.187498
1139.328218	0.193788
1139.484613	0.206792
1139.640990	0.203113
1139.797348	0.193765
1139.953688	0.209685
1140.110010	0.210465
1140.266314	0.207463
1140.422600	0.214011
1140.578867	0.217505
1140.735116	0.219516
1140.891347	0.205631
1141.047559	0.203774
1141.203754	0.204489
1141.359930	0.194322
1141.516088	0.186897
1141.672228	0.178494
1141.828349	0.180869
1141.984452	0.184128
1142.140537	0.171912
1142.296604	0.172420
1142.452653	0.164699
1142.608683	0.166464
1142.764695	0.164492
1142.920689	0.176884
1143.076665	0.183929
1143.232622	0.184943
1143.388562	0.182157
1143.544483	0.177435
1143.700385	0.187997
1143.856270	0.196221
1144.012136	0.199811
1144.167985	0.189347
1144.323814	0.181591
1144.479626	0.169916
1144.635420	0.163530
1144.791195	0.159012
1144.946952	0.166735
1145.102691	0.151899
1145.258411	0.143750
1145.414113	0.133274
1145.569798	0.142852
1145.725463	0.146298
1145.881111	0.153316
1146.036741	0.149847
1146.192352	0.152973
1146.347945	0.156347
1146.503519	0.153394
1146.659076	0.159380
1146.814614	0.171451
1146.970134	0.165771
1147.125636	0.165497
1147.281120	0.173619
1147.436585	0.176076
1147.592032	0.173766
1147.747461	0.162936
1147.902872	0.178795
1148.058265	0.179417
1148.213639	0.180529
1148.368995	0.186904
1148.524333	0.187340
1148.679653	0.182452
1148.834954	0.178641
1148.990237	0.186257
1149.145502	0.182727
1149.300749	0.171172
1149.455977	0.176443
1149.611188	0.179780
1149.766380	0.182364
1149.921553	0.185191
1150.076709	0.184061
1150.231846	0.184831
1150.386966	0.181137
1150.542066	0.194047
1150.697149	0.208396
1150.852214	0.209155
1151.007260	0.198121
1151.162288	0.184406
1151.317298	0.181497
1151.472289	0.182736
1151.627263	0.189505
1151.782218	0.190721
1151.937155	0.193727
1152.092073	0.180415
1152.246974	0.177649
1152.401856	0.182678
1152.556720	0.187898
1152.711566	0.177822
1152.866393	0.182906
1153.021203	0.179896
1153.175994	0.183263
1153.330767	0.176499
1153.485521	0.179481
1153.640258	0.176304
1153.794976	0.184689
1153.949676	0.182585
1154.104358	0.184426
1154.259021	0.169230
1154.413667	0.178465
1154.568294	0.161739
1154.722903	0.172787
1154.877493	0.177855
1155.032066	0.182271
1155.186620	0.174398
1155.341156	0.172860
1155.495674	0.179523
1155.650173	0.191027
1155.804654	0.168195
1155.959118	0.179217
1156.113562	0.165913
1156.267989	0.173580
1156.422397	0.170823
1156.576788	0.159069
1156.731160	0.161298
1156.885513	0.158394
1157.039849	0.157929
1157.194166	0.167704
1157.348465	0.171354
1157.502746	0.174414
1157.657009	0.163079
1157.811253	0.169911
1157.965479	0.181886
1158.119687	0.180242
1158.273877	0.199068
1158.428048	0.197378
1158.582201	0.208954
1158.736337	0.186323
1158.890453	0.188472
1159.044552	0.182298
1159.198632	0.163302
1159.352694	0.150527
1159.506738	0.165165
1159.660764	0.159765
1159.814771	0.160236
1159.968761	0.145894
1160.122732	0.175969
1160.276685	0.160327
1160.430619	0.176153
1160.584535	0.195058
1160.738434	0.210139
1160.892313	0.199567
1161.046175	0.201083
1161.200019	0.200007
1161.353844	0.223891
1161.507651	0.206967
1161.661440	0.217170
1161.815210	0.202060
1161.968962	0.205364
1162.122697	0.202910
1162.276412	0.206548
1162.430110	0.178412
1162.583789	0.175852
1162.737451	0.164964
1162.891094	0.164361
1163.044718	0.172508
1163.198325	0.171095
1163.351913	0.158189
1163.505483	0.164624
1163.659035	0.169459
1163.812569	0.187678
1163.966084	0.192157
1164.119581	0.173975
1164.273060	0.189961
1164.426521	0.190165
1164.579964	0.189339
1164.733388	0.201971
1164.886794	0.197379
1165.040182	0.196439
1165.193551	0.198440
1165.346903	0.178335
1165.500236	0.196788
1165.653551	0.194044
1165.806848	0.180615
1165.960126	0.199593
1166.113386	0.182345
1166.266628	0.166430
1166.419852	0.145204
1166.573058	0.139553
1166.726245	0.147543
1166.879414	0.154028
1167.032565	0.117501
1167.185698	0.111650
1167.338812	0.100754
1167.491909	0.110357
1167.644987	0.125822
1167.798046	0.140709
1167.951088	0.148841
1168.104111	0.158178
1168.257117	0.161027
1168.410103	0.201919
1168.563072	0.220097
1168.716023	0.205246
1168.868955	0.189417
1169.021869	0.175406
1169.174765	0.178085
1169.327642	0.160338
1169.480501	0.159035
1169.633343	0.145901
1169.786165	0.125020
1169.938970	0.128842
1170.091757	0.144103
1170.244525	0.144102
1170.397275	0.136939
1170.550007	0.157242
1170.702720	0.159429
1170.855415	0.162040
1171.008092	0.173613
1171.160751	0.202305
1171.313392	0.213899
1171.466014	0.195023
1171.618619	0.333164
1171.771205	0.333164
1171.923772	0.333164
