sample name	sample
index	615
start time	 03-19-2021  02:11:25 PM


Wavelength (nm)	Absorbance
494.344910	0.017270
494.563924	0.017270
494.782919	0.017270
495.001897	0.040000
495.220856	0.031579
495.439797	0.023144
495.658719	0.054032
495.877624	0.076527
496.096510	0.037389
496.315378	0.012252
496.534227	0.003806
496.753059	0.029433
496.971872	0.046731
497.190667	0.128001
497.409444	0.139356
497.628203	0.138780
497.846943	0.141238
498.065665	0.143864
498.284369	0.143345
498.503055	0.144045
498.721723	0.143765
498.940372	0.143926
499.159003	0.143833
499.377616	0.144068
499.596210	0.144668
499.814787	0.144259
500.033345	0.143967
500.251885	0.144842
500.470406	0.145419
500.688910	0.144039
500.907395	0.143962
501.125862	0.143882
501.344311	0.143436
501.562742	0.143143
501.781154	0.143556
501.999548	0.144062
502.217924	0.144591
502.436282	0.144573
502.654621	0.145244
502.872942	0.144750
503.091245	0.144280
503.309530	0.144363
503.527797	0.143960
503.746045	0.143792
503.964275	0.142928
504.182487	0.142026
504.400681	0.142826
504.618856	0.143331
504.837013	0.143334
505.055152	0.143800
505.273273	0.143902
505.491376	0.143841
505.709460	0.142869
505.927526	0.143165
506.145574	0.143217
506.363604	0.143017
506.581615	0.142192
506.799608	0.141679
507.017583	0.141715
507.235540	0.141791
507.453478	0.142724
507.671399	0.144137
507.889301	0.144410
508.107185	0.144870
508.325050	0.143917
508.542898	0.144879
508.760727	0.146196
508.978538	0.146180
509.196330	0.146444
509.414105	0.146443
509.631861	0.146465
509.849599	0.146115
510.067319	0.146476
510.285021	0.147076
510.502704	0.147316
510.720369	0.147274
510.938016	0.147470
511.155645	0.147406
511.373255	0.147161
511.590848	0.147420
511.808422	0.146917
512.025977	0.147551
512.243515	0.147456
512.461034	0.147732
512.678536	0.147764
512.896018	0.147951
513.113483	0.147928
513.330930	0.148263
513.548358	0.148371
513.765768	0.150861
513.983160	0.151442
514.200533	0.151534
514.417889	0.151421
514.635226	0.151050
514.852545	0.151256
515.069845	0.151624
515.287128	0.151784
515.504392	0.151975
515.721638	0.150632
515.938866	0.150772
516.156075	0.151466
516.373267	0.151441
516.590440	0.151777
516.807594	0.152143
517.024731	0.152384
517.241850	0.152517
517.458950	0.152791
517.676032	0.153754
517.893095	0.152476
518.110141	0.152621
518.327168	0.153073
518.544177	0.153676
518.761168	0.153474
518.978141	0.153677
519.195095	0.153788
519.412031	0.154048
519.628949	0.153855
519.845849	0.154569
520.062731	0.154608
520.279594	0.154696
520.496439	0.154917
520.713266	0.155440
520.930074	0.155301
521.146865	0.156071
521.363637	0.155778
521.580391	0.155864
521.797127	0.156510
522.013844	0.156988
522.230543	0.156814
522.447224	0.157410
522.663887	0.157490
522.880532	0.158214
523.097158	0.157884
523.313766	0.157828
523.530356	0.158350
523.746928	0.157668
523.963481	0.156917
524.180017	0.157769
524.396534	0.157800
524.613032	0.157670
524.829513	0.157449
525.045975	0.157710
525.262420	0.158694
525.478845	0.158567
525.695253	0.159076
525.911643	0.159858
526.128014	0.159305
526.344367	0.159907
526.560702	0.160009
526.777018	0.160267
526.993316	0.160784
527.209597	0.160963
527.425858	0.161323
527.642102	0.161609
527.858328	0.162428
528.074535	0.163047
528.290724	0.162097
528.506894	0.163194
528.723047	0.163470
528.939181	0.163699
529.155297	0.162796
529.371395	0.163232
529.587475	0.163495
529.803536	0.162868
530.019579	0.163479
530.235604	0.164062
530.451611	0.164098
530.667600	0.164422
530.883570	0.164636
531.099522	0.164660
531.315456	0.164896
531.531372	0.164652
531.747269	0.165212
531.963148	0.165237
532.179009	0.165841
532.394852	0.165795
532.610676	0.166352
532.826482	0.166231
533.042271	0.168095
533.258040	0.168069
533.473792	0.168983
533.689525	0.168631
533.905240	0.168793
534.120937	0.168647
534.336616	0.168763
534.552277	0.168453
534.767919	0.168897
534.983543	0.168161
535.199149	0.167729
535.414736	0.167606
535.630306	0.168219
535.845857	0.168375
536.061390	0.168563
536.276904	0.168561
536.492401	0.169034
536.707879	0.169488
536.923339	0.169554
537.138781	0.170464
537.354204	0.170698
537.569610	0.171172
537.784997	0.171306
538.000366	0.171827
538.215716	0.172277
538.431049	0.172701
538.646363	0.172583
538.861659	0.173206
539.076937	0.173819
539.292196	0.174556
539.507438	0.174413
539.722661	0.175164
539.937866	0.175380
540.153052	0.176001
540.368221	0.176092
540.583371	0.176092
540.798503	0.176277
541.013617	0.176148
541.228712	0.176006
541.443789	0.176370
541.658848	0.175943
541.873889	0.175686
542.088912	0.175402
542.303916	0.175322
542.518902	0.175622
542.733870	0.175785
542.948820	0.175985
543.163752	0.176184
543.378665	0.176258
543.593560	0.176565
543.808437	0.177364
544.023295	0.177843
544.238136	0.178022
544.452958	0.178801
544.667762	0.179343
544.882548	0.179789
545.097315	0.180223
545.312064	0.180709
545.526795	0.181477
545.741508	0.181471
545.956203	0.181736
546.170879	0.182211
546.385537	0.182212
546.600177	0.182293
546.814799	0.182501
547.029402	0.182850
547.243988	0.183175
547.458555	0.183231
547.673103	0.183400
547.887634	0.183751
548.102146	0.184063
548.316640	0.183992
548.531116	0.184010
548.745574	0.184003
548.960013	0.184222
549.174435	0.184164
549.388838	0.184369
549.603222	0.184769
549.817589	0.184671
550.031937	0.184599
550.246267	0.185635
550.460579	0.185879
550.674873	0.186388
550.889148	0.186860
551.103405	0.186957
551.317644	0.186995
551.531865	0.187193
551.746068	0.187755
551.960252	0.188224
552.174418	0.187795
552.388566	0.188059
552.602696	0.188108
552.816807	0.187459
553.030900	0.187795
553.244975	0.187759
553.459032	0.187605
553.673070	0.187520
553.887091	0.187541
554.101093	0.187471
554.315077	0.187243
554.529042	0.187423
554.742990	0.187768
554.956919	0.187688
555.170830	0.188195
555.384722	0.188783
555.598597	0.188848
555.812453	0.189086
556.026291	0.189283
556.240111	0.189521
556.453913	0.189644
556.667696	0.189822
556.881461	0.190306
557.095208	0.190760
557.308937	0.190728
557.522647	0.190928
557.736339	0.191111
557.950013	0.191340
558.163669	0.191481
558.377307	0.191438
558.590926	0.191416
558.804527	0.191345
559.018110	0.191284
559.231675	0.191874
559.445221	0.192356
559.658749	0.192502
559.872259	0.192627
560.085751	0.193070
560.299225	0.193377
560.512680	0.193612
560.726117	0.193634
560.939536	0.193923
561.152937	0.193746
561.366319	0.193594
561.579683	0.193471
561.793029	0.194041
562.006357	0.193866
562.219667	0.193504
562.432958	0.193398
562.646231	0.194162
562.859486	0.193851
563.072723	0.193794
563.285941	0.193835
563.499141	0.194089
563.712323	0.193976
563.925487	0.194407
564.138632	0.195061
564.351760	0.195231
564.564869	0.195074
564.777960	0.195058
564.991032	0.195150
565.204087	0.195613
565.417123	0.196038
565.630141	0.195912
565.843140	0.196151
566.056122	0.196145
566.269085	0.196285
566.482030	0.196356
566.694957	0.196594
566.907866	0.196840
567.120756	0.196793
567.333628	0.196682
567.546482	0.196779
567.759318	0.196566
567.972135	0.196941
568.184935	0.197206
568.397716	0.197589
568.610478	0.197999
568.823223	0.198167
569.035949	0.198309
569.248657	0.198395
569.461347	0.198788
569.674019	0.199054
569.886672	0.198962
570.099308	0.199446
570.311925	0.199384
570.524523	0.199459
570.737104	0.199425
570.949666	0.199529
571.162210	0.199737
571.374736	0.200038
571.587244	0.200167
571.799733	0.200426
572.012205	0.200468
572.224658	0.200428
572.437092	0.200482
572.649509	0.200537
572.861907	0.200788
573.074287	0.200895
573.286649	0.200646
573.498993	0.200670
573.711318	0.201086
573.923625	0.201113
574.135914	0.201074
574.348185	0.201560
574.560438	0.201997
574.772672	0.202094
574.984888	0.202101
575.197086	0.202289
575.409266	0.202728
575.621427	0.202522
575.833570	0.202744
576.045695	0.202964
576.257802	0.203095
576.469890	0.202888
576.681961	0.203121
576.894013	0.203324
577.106046	0.203505
577.318062	0.203551
577.530059	0.203638
577.742039	0.203811
577.954000	0.204415
578.165942	0.203981
578.377867	0.204419
578.589773	0.204590
578.801661	0.204503
579.013531	0.204805
579.225382	0.204767
579.437216	0.204939
579.649031	0.205052
579.860828	0.205211
580.072606	0.205695
580.284367	0.205506
580.496109	0.205246
580.707833	0.205670
580.919539	0.205912
581.131227	0.205719
581.342896	0.205781
581.554547	0.205714
581.766180	0.205739
581.977795	0.205708
582.189391	0.206217
582.400969	0.206467
582.612529	0.206715
582.824071	0.206407
583.035595	0.206615
583.247100	0.206779
583.458587	0.206785
583.670056	0.206553
583.881506	0.206858
584.092939	0.206783
584.304353	0.206708
584.515749	0.206552
584.727127	0.206615
584.938486	0.206860
585.149828	0.207087
585.361151	0.207323
585.572456	0.207549
585.783742	0.207565
585.995011	0.207662
586.206261	0.208182
586.417493	0.208089
586.628706	0.208232
586.839902	0.208678
587.051079	0.208713
587.262238	0.209004
587.473379	0.209138
587.684502	0.209147
587.895606	0.209079
588.106692	0.208908
588.317760	0.209139
588.528810	0.209525
588.739841	0.209450
588.950855	0.209612
589.161850	0.209271
589.372827	0.209344
589.583785	0.209475
589.794726	0.209755
590.005648	0.209760
590.216552	0.210093
590.427437	0.209972
590.638305	0.210180
590.849154	0.210060
591.059985	0.210603
591.270798	0.210572
591.481592	0.210818
591.692369	0.211240
591.903127	0.211538
592.113867	0.212025
592.324588	0.212492
592.535292	0.212492
592.745977	0.212846
592.956644	0.213197
593.167293	0.213633
593.377923	0.213682
593.588536	0.213686
593.799130	0.213813
594.009706	0.213672
594.220263	0.213582
594.430803	0.213475
594.641324	0.213372
594.851827	0.213303
595.062312	0.213186
595.272778	0.213404
595.483227	0.213444
595.693657	0.213851
595.904069	0.213758
596.114462	0.214217
596.324838	0.214997
596.535195	0.215168
596.745534	0.215071
596.955855	0.215520
597.166157	0.215700
597.376441	0.215627
597.586707	0.215802
597.796955	0.216343
598.007185	0.216049
598.217396	0.215771
598.427589	0.215950
598.637764	0.216085
598.847921	0.216266
599.058060	0.216326
599.268180	0.216626
599.478282	0.216366
599.688366	0.216335
599.898431	0.216547
600.108479	0.216680
600.318508	0.216965
600.528519	0.217217
600.738511	0.217078
600.948486	0.217117
601.158442	0.217229
601.368380	0.217299
601.578300	0.217290
601.788202	0.217319
601.998085	0.217393
602.207950	0.217417
602.417797	0.217350
602.627626	0.217218
602.837436	0.217185
603.047228	0.217122
603.257002	0.217411
603.466758	0.217557
603.676496	0.217801
603.886215	0.218122
604.095916	0.218151
604.305599	0.218545
604.515264	0.219043
604.724910	0.219411
604.934538	0.219516
605.144148	0.219279
605.353740	0.219344
605.563314	0.219687
605.772869	0.219703
605.982406	0.219628
606.191925	0.219502
606.401425	0.219394
606.610908	0.219158
606.820372	0.219358
607.029818	0.220000
607.239246	0.220246
607.448655	0.220093
607.658047	0.220127
607.867420	0.220507
608.076775	0.220482
608.286111	0.220690
608.495430	0.220935
608.704730	0.221038
608.914012	0.220922
609.123275	0.220726
609.332521	0.220838
609.541748	0.221192
609.750957	0.221142
609.960148	0.221445
610.169321	0.221587
610.378475	0.221770
610.587611	0.221698
610.796729	0.222061
611.005829	0.222447
611.214910	0.222309
611.423974	0.222219
611.633019	0.222412
611.842045	0.222476
612.051054	0.222558
612.260044	0.222472
612.469017	0.222672
612.677970	0.222361
612.886906	0.222168
613.095824	0.222689
613.304723	0.222793
613.513604	0.222810
613.722467	0.223006
613.931311	0.223046
614.140138	0.222949
614.348946	0.223263
614.557736	0.223726
614.766507	0.223874
614.975261	0.223750
615.183996	0.223946
615.392713	0.224112
615.601412	0.224241
615.810092	0.224590
616.018754	0.225052
616.227399	0.225282
616.436024	0.225090
616.644632	0.225304
616.853222	0.225229
617.061793	0.225102
617.270346	0.225168
617.478880	0.225171
617.687397	0.225170
617.895895	0.225100
618.104375	0.225082
618.312837	0.225279
618.521281	0.225380
618.729706	0.225544
618.938113	0.225502
619.146502	0.225833
619.354873	0.225865
619.563226	0.225710
619.771560	0.225632
619.979876	0.225577
620.188174	0.225701
620.396453	0.225785
620.604715	0.225948
620.812958	0.226412
621.021183	0.226246
621.229390	0.226354
621.437578	0.226690
621.645748	0.226887
621.853900	0.227043
622.062034	0.227073
622.270150	0.226958
622.478247	0.226977
622.686326	0.226787
622.894387	0.227055
623.102430	0.227198
623.310454	0.226943
623.518461	0.227286
623.726449	0.227262
623.934418	0.227548
624.142370	0.227820
624.350303	0.227900
624.558218	0.228149
624.766115	0.227866
624.973994	0.227843
625.181855	0.228236
625.389697	0.228267
625.597521	0.228305
625.805327	0.228232
626.013114	0.228301
626.220883	0.228515
626.428634	0.228660
626.636367	0.229092
626.844082	0.229304
627.051778	0.229337
627.259457	0.229354
627.467117	0.229550
627.674758	0.229821
627.882382	0.230052
628.089987	0.230205
628.297574	0.230109
628.505143	0.230161
628.712694	0.230272
628.920226	0.230279
629.127740	0.230448
629.335236	0.230762
629.542714	0.230727
629.750174	0.230730
629.957615	0.230855
630.165038	0.231202
630.372443	0.231138
630.579829	0.231361
630.787198	0.231397
630.994548	0.231718
631.201880	0.231840
631.409194	0.231802
631.616489	0.231888
631.823766	0.231968
632.031025	0.231908
632.238266	0.232329
632.445489	0.232189
632.652693	0.232465
632.859879	0.232370
633.067047	0.232349
633.274197	0.232389
633.481329	0.232821
633.688442	0.232888
633.895537	0.232918
634.102614	0.232945
634.309672	0.233123
634.516713	0.233234
634.723735	0.233246
634.930739	0.233325
635.137724	0.233708
635.344692	0.233482
635.551641	0.233535
635.758572	0.234008
635.965485	0.234231
636.172379	0.234503
636.379256	0.234929
636.586114	0.235255
636.792954	0.235420
636.999775	0.235266
637.206579	0.235459
637.413364	0.235923
637.620131	0.235861
637.826880	0.235721
638.033610	0.235726
638.240323	0.235660
638.447017	0.235746
638.653692	0.235785
638.860350	0.235947
639.066990	0.236060
639.273611	0.235825
639.480214	0.236021
639.686798	0.236403
639.893365	0.236634
640.099913	0.236802
640.306443	0.236871
640.512955	0.237148
640.719449	0.237434
640.925924	0.237634
641.132381	0.237773
641.338820	0.237686
641.545241	0.237660
641.751644	0.237806
641.958028	0.237497
642.164394	0.237758
642.370742	0.237879
642.577071	0.237668
642.783383	0.237590
642.989676	0.237825
643.195951	0.238229
643.402207	0.238309
643.608446	0.238349
643.814666	0.238662
644.020868	0.238547
644.227052	0.238401
644.433218	0.238417
644.639365	0.238806
644.845494	0.239040
645.051605	0.239213
645.257698	0.239194
645.463772	0.239332
645.669828	0.239530
645.875866	0.239632
646.081886	0.240211
646.287888	0.240680
646.493871	0.240626
646.699836	0.240467
646.905783	0.240400
647.111712	0.240776
647.317622	0.241016
647.523514	0.241251
647.729388	0.241542
647.935244	0.241212
648.141082	0.241638
648.346901	0.241733
648.552702	0.241995
648.758485	0.242143
648.964250	0.242299
649.169996	0.242350
649.375724	0.242250
649.581434	0.242304
649.787126	0.242479
649.992800	0.242403
650.198455	0.242805
650.404092	0.243112
650.609711	0.243226
650.815311	0.243238
651.020894	0.243518
651.226458	0.243900
651.432004	0.244074
651.637532	0.244274
651.843041	0.244534
652.048532	0.244604
652.254006	0.244629
652.459460	0.244674
652.664897	0.244775
652.870315	0.244839
653.075716	0.245008
653.281097	0.245145
653.486461	0.245474
653.691807	0.245436
653.897134	0.245391
654.102443	0.245563
654.307734	0.245644
654.513006	0.245959
654.718261	0.246145
654.923497	0.246116
655.128715	0.246209
655.333915	0.246182
655.539096	0.246534
655.744259	0.246638
655.949404	0.246822
656.154531	0.247251
656.359640	0.247175
656.564730	0.247325
656.769802	0.247624
656.974856	0.247762
657.179892	0.247957
657.384909	0.248103
657.589908	0.248475
657.794889	0.248710
657.999852	0.248896
658.204797	0.249308
658.409723	0.249422
658.614631	0.249546
658.819521	0.249740
659.024393	0.249947
659.229246	0.249944
659.434081	0.249988
659.638898	0.250123
659.843697	0.249626
660.048478	0.249650
660.253240	0.249701
660.457984	0.249847
660.662710	0.249971
660.867417	0.250131
661.072107	0.250432
661.276778	0.250430
661.481431	0.250321
661.686066	0.250831
661.890682	0.250889
662.095281	0.251051
662.299861	0.250936
662.504422	0.250968
662.708966	0.251148
662.913491	0.251395
663.117999	0.251642
663.322488	0.252132
663.526958	0.252370
663.731411	0.252485
663.935845	0.252463
664.140261	0.252922
664.344659	0.253305
664.549038	0.253296
664.753400	0.253175
664.957743	0.253340
665.162068	0.253238
665.366375	0.253328
665.570663	0.253396
665.774933	0.253857
665.979185	0.253681
666.183419	0.253790
666.387635	0.254167
666.591832	0.254476
666.796011	0.254558
667.000172	0.254709
667.204315	0.255012
667.408439	0.255146
667.612545	0.255357
667.816634	0.255578
668.020703	0.255557
668.224755	0.255566
668.428788	0.255448
668.632803	0.255806
668.836800	0.255911
669.040779	0.255964
669.244739	0.256145
669.448681	0.256067
669.652605	0.256265
669.856511	0.256550
670.060399	0.256818
670.264268	0.257218
670.468119	0.257421
670.671952	0.257792
670.875767	0.257957
671.079563	0.258191
671.283341	0.258317
671.487101	0.258600
671.690843	0.258797
671.894567	0.258867
672.098272	0.258975
672.301959	0.259072
672.505628	0.258920
672.709278	0.259173
672.912911	0.259292
673.116525	0.259508
673.320121	0.259584
673.523699	0.259712
673.727258	0.259572
673.930799	0.259486
674.134322	0.259482
674.337827	0.259717
674.541314	0.259796
674.744782	0.260182
674.948232	0.260353
675.151664	0.260498
675.355078	0.260791
675.558474	0.260999
675.761851	0.261259
675.965210	0.261497
676.168551	0.261513
676.371873	0.261550
676.575178	0.261579
676.778464	0.261645
676.981732	0.261802
677.184981	0.261781
677.388213	0.262289
677.591426	0.262369
677.794621	0.262542
677.997798	0.263122
678.200956	0.263259
678.404097	0.263407
678.607219	0.263476
678.810323	0.263645
679.013408	0.263822
679.216476	0.263773
679.419525	0.264045
679.622556	0.264203
679.825569	0.264058
680.028563	0.264085
680.231540	0.264122
680.434498	0.264330
680.637438	0.264583
680.840359	0.264746
681.043263	0.264949
681.246148	0.265106
681.449015	0.265123
681.651864	0.265450
681.854694	0.265971
682.057506	0.266465
682.260301	0.266871
682.463076	0.267054
682.665834	0.267279
682.868573	0.267363
683.071295	0.267628
683.273998	0.267806
683.476682	0.267836
683.679349	0.267973
683.881997	0.267927
684.084627	0.267972
684.287239	0.267961
684.489833	0.268045
684.692408	0.268230
684.894965	0.268279
685.097504	0.268556
685.300025	0.268771
685.502527	0.268962
685.705012	0.269100
685.907478	0.268968
686.109925	0.268933
686.312355	0.269021
686.514766	0.269217
686.717159	0.269174
686.919534	0.269251
687.121891	0.269277
687.324230	0.269254
687.526550	0.269467
687.728852	0.269669
687.931136	0.269993
688.133401	0.270131
688.335649	0.270320
688.537878	0.270446
688.740089	0.270552
688.942281	0.270864
689.144456	0.270929
689.346612	0.270980
689.548750	0.271087
689.750870	0.271395
689.952971	0.271623
690.155055	0.271724
690.357120	0.271751
690.559167	0.271884
690.761195	0.271832
690.963206	0.271662
691.165198	0.271933
691.367172	0.272119
691.569128	0.271875
691.771065	0.272139
691.972984	0.272065
692.174885	0.272532
692.376768	0.272720
692.578633	0.272841
692.780479	0.273266
692.982308	0.273249
693.184118	0.273479
693.385909	0.273757
693.587683	0.273790
693.789438	0.273795
693.991175	0.273572
694.192894	0.273513
694.394595	0.273846
694.596277	0.273963
694.797941	0.274001
694.999587	0.273997
695.201215	0.274079
695.402824	0.273996
695.604416	0.274255
695.805989	0.274578
696.007543	0.274731
696.209080	0.274564
696.410598	0.274465
696.612099	0.274560
696.813580	0.274478
697.015044	0.274563
697.216490	0.274674
697.417917	0.274836
697.619326	0.274715
697.820717	0.274926
698.022089	0.274840
698.223444	0.275193
698.424780	0.275338
698.626098	0.275350
698.827397	0.275471
699.028679	0.275616
699.229942	0.275484
699.431187	0.275632
699.632414	0.275674
699.833622	0.276167
700.034813	0.276247
700.235985	0.276472
700.437139	0.276818
700.638274	0.276793
700.839392	0.277124
701.040491	0.277702
701.241572	0.278112
701.442635	0.278253
701.643679	0.278165
701.844706	0.278060
702.045714	0.277774
702.246704	0.277955
702.447675	0.278234
702.648629	0.278070
702.849564	0.277678
703.050481	0.277618
703.251380	0.277533
703.452260	0.277587
703.653122	0.277722
703.853966	0.277880
704.054792	0.277937
704.255600	0.277858
704.456389	0.277976
704.657160	0.278302
704.857913	0.278139
705.058648	0.277956
705.259365	0.277909
705.460063	0.277811
705.660743	0.277881
705.861405	0.277981
706.062048	0.278002
706.262674	0.277666
706.463281	0.277491
706.663870	0.277698
706.864441	0.278198
707.064993	0.278212
707.265527	0.278541
707.466043	0.278526
707.666541	0.278451
707.867021	0.278485
708.067482	0.278587
708.267925	0.278854
708.468350	0.278740
708.668757	0.278505
708.869145	0.279006
709.069516	0.279148
709.269868	0.279338
709.470201	0.279356
709.670517	0.279558
709.870814	0.279851
710.071093	0.279532
710.271354	0.279747
710.471597	0.279818
710.671821	0.279631
710.872028	0.279280
711.072216	0.279340
711.272385	0.279482
711.472537	0.279512
711.672670	0.279039
711.872785	0.279150
712.072882	0.279116
712.272961	0.279164
712.473021	0.278945
712.673063	0.278813
712.873087	0.278591
713.073093	0.278529
713.273081	0.278330
713.473050	0.278546
713.673001	0.278672
713.872934	0.278673
714.072849	0.278655
714.272745	0.278767
714.472623	0.279219
714.672483	0.279363
714.872325	0.279277
715.072148	0.279458
715.271954	0.279519
715.471741	0.279536
715.671509	0.279369
715.871260	0.279181
716.070992	0.278937
716.270707	0.278821
716.470403	0.278835
716.670080	0.278847
716.869740	0.278713
717.069381	0.278495
717.269004	0.278320
717.468609	0.278472
717.668195	0.278523
717.867764	0.278618
718.067314	0.278310
718.266846	0.278146
718.466360	0.278012
718.665855	0.277826
718.865332	0.278107
719.064791	0.277716
719.264232	0.277599
719.463655	0.277593
719.663059	0.277631
719.862445	0.277541
720.061813	0.277349
720.261163	0.277270
720.460494	0.277477
720.659807	0.277248
720.859102	0.277530
721.058379	0.277694
721.257638	0.277356
721.456878	0.277284
721.656100	0.277356
721.855304	0.277430
722.054490	0.277688
722.253657	0.277450
722.452806	0.277681
722.651937	0.277592
722.851050	0.277409
723.050145	0.277745
723.249221	0.277751
723.448279	0.277614
723.647319	0.277611
723.846340	0.277254
724.045344	0.277187
724.244329	0.276855
724.443296	0.276892
724.642245	0.276837
724.841175	0.276582
725.040088	0.276357
725.238982	0.276403
725.437857	0.276332
725.636715	0.276220
725.835554	0.276112
726.034376	0.276131
726.233179	0.275945
726.431963	0.275791
726.630730	0.275837
726.829478	0.275880
727.028208	0.275895
727.226920	0.275813
727.425614	0.275810
727.624289	0.275936
727.822946	0.275936
728.021585	0.275888
728.220206	0.275872
728.418808	0.275710
728.617392	0.275437
728.815958	0.275203
729.014506	0.275304
729.213036	0.275109
729.411547	0.274754
729.610040	0.274680
729.808515	0.274786
730.006972	0.274613
730.205410	0.274535
730.403831	0.274724
730.602233	0.274444
730.800616	0.274235
730.998982	0.274336
731.197329	0.274311
731.395658	0.274069
731.593969	0.273698
731.792262	0.273599
731.990536	0.273566
732.188793	0.273219
732.387031	0.273319
732.585250	0.273042
732.783452	0.272621
732.981635	0.272389
733.179800	0.272381
733.377947	0.272139
733.576076	0.271880
733.774186	0.271833
733.972278	0.271763
734.170352	0.271549
734.368408	0.271544
734.566446	0.271560
734.764465	0.271445
734.962466	0.271123
735.160449	0.271171
735.358413	0.271143
735.556360	0.270699
735.754288	0.270478
735.952198	0.270430
736.150090	0.270162
736.347963	0.269876
736.545818	0.269797
736.743655	0.269796
736.941474	0.269698
737.139275	0.269314
737.337057	0.269275
737.534821	0.269113
737.732567	0.269008
737.930295	0.269064
738.128005	0.268752
738.325696	0.268811
738.523369	0.268727
738.721024	0.268601
738.918660	0.268677
739.116279	0.268612
739.313879	0.268411
739.511461	0.268098
739.709024	0.267612
739.906570	0.267739
740.104097	0.267330
740.301606	0.267074
740.499097	0.266990
740.696569	0.266755
740.894024	0.266568
741.091460	0.266593
741.288878	0.266761
741.486277	0.266533
741.683659	0.266413
741.881022	0.266251
742.078367	0.266100
742.275694	0.265650
742.473002	0.265583
742.670293	0.265503
742.867565	0.265094
743.064819	0.264725
743.262054	0.264930
743.459272	0.264819
743.656471	0.264469
743.853652	0.264453
744.050815	0.264759
744.247959	0.264392
744.445085	0.264044
744.642194	0.264107
744.839283	0.264051
745.036355	0.263868
745.233408	0.263622
745.430444	0.263826
745.627461	0.263499
745.824459	0.263245
746.021440	0.263267
746.218402	0.263050
746.415346	0.262787
746.612272	0.262595
746.809180	0.262517
747.006069	0.262466
747.202940	0.262243
747.399793	0.262094
747.596628	0.261602
747.793444	0.261514
747.990243	0.261615
748.187023	0.261624
748.383784	0.261514
748.580528	0.261123
748.777253	0.260725
748.973960	0.260660
749.170649	0.260398
749.367320	0.260390
749.563973	0.260119
749.760607	0.259842
749.957223	0.259723
750.153821	0.259480
750.350400	0.259099
750.546962	0.259132
750.743505	0.259005
750.940030	0.259146
751.136536	0.258730
751.333025	0.258666
751.529495	0.258561
751.725947	0.258207
751.922381	0.258025
752.118796	0.258168
752.315194	0.258027
752.511573	0.257794
752.707934	0.257371
752.904276	0.257503
753.100601	0.257262
753.296907	0.256953
753.493195	0.256996
753.689465	0.256986
753.885716	0.256755
754.081949	0.256608
754.278164	0.256205
754.474361	0.255944
754.670540	0.255687
754.866700	0.255626
755.062843	0.255807
755.258967	0.255412
755.455072	0.255103
755.651160	0.255016
755.847229	0.255107
756.043280	0.255144
756.239313	0.255032
756.435328	0.254947
756.631324	0.254812
756.827302	0.254575
757.023262	0.254496
757.219204	0.254414
757.415127	0.254307
757.611033	0.254119
757.806920	0.253846
758.002788	0.254113
758.198639	0.253876
758.394471	0.253689
758.590286	0.253352
758.786081	0.253351
758.981859	0.253227
759.177619	0.253210
759.373360	0.252874
759.569083	0.252766
759.764788	0.252557
759.960474	0.252543
760.156143	0.252300
760.351793	0.252348
760.547425	0.252500
760.743038	0.252452
760.938634	0.252468
761.134211	0.252520
761.329770	0.252595
761.525311	0.252296
761.720833	0.252106
761.916338	0.252217
762.111824	0.251860
762.307292	0.251470
762.502741	0.251414
762.698173	0.250993
762.893586	0.250628
763.088981	0.250483
763.284358	0.250415
763.479716	0.250311
763.675057	0.250122
763.870379	0.250190
764.065683	0.249830
764.260968	0.249359
764.456236	0.249054
764.651485	0.249188
764.846716	0.249264
765.041929	0.249029
765.237123	0.248861
765.432299	0.248927
765.627457	0.248637
765.822597	0.248717
766.017719	0.248901
766.212822	0.249092
766.407907	0.248830
766.602974	0.248796
766.798023	0.249110
766.993054	0.249219
767.188066	0.248984
767.383060	0.249035
767.578036	0.248962
767.772993	0.248930
767.967933	0.248760
768.162854	0.248798
768.357757	0.248574
768.552642	0.248115
768.747508	0.248100
768.942356	0.248138
769.137186	0.248271
769.331998	0.248419
769.526792	0.248590
769.721567	0.248811
769.916324	0.248703
770.111063	0.248420
770.305784	0.248486
770.500486	0.248225
770.695171	0.247906
770.889837	0.247709
771.084484	0.247251
771.279114	0.246643
771.473725	0.246237
771.668318	0.246124
771.862893	0.246400
772.057450	0.246320
772.251988	0.246265
772.446509	0.246367
772.641011	0.246197
772.835494	0.246561
773.029960	0.246704
773.224407	0.246683
773.418836	0.246787
773.613247	0.246578
773.807640	0.246555
774.002014	0.246602
774.196370	0.246514
774.390708	0.246572
774.585028	0.246393
774.779330	0.246347
774.973613	0.246615
775.167878	0.246511
775.362125	0.246283
775.556354	0.245987
775.750564	0.245959
775.944756	0.246074
776.138930	0.245935
776.333086	0.245712
776.527223	0.245923
776.721343	0.245712
776.915444	0.245758
777.109526	0.245927
777.303591	0.246165
777.497637	0.246005
777.691666	0.245833
777.885676	0.245851
778.079667	0.246052
778.273641	0.245838
778.467596	0.245834
778.661533	0.245650
778.855452	0.245669
779.049352	0.245777
779.243235	0.246051
779.437099	0.246137
779.630945	0.246300
779.824773	0.246252
780.018582	0.246444
780.212373	0.246322
780.406146	0.246557
780.599901	0.246519
780.793638	0.246644
780.987356	0.246684
781.181056	0.246828
781.374738	0.246667
781.568402	0.246636
781.762047	0.246463
781.955674	0.246628
782.149283	0.246649
782.342874	0.246775
782.536447	0.246458
782.730001	0.246456
782.923537	0.246424
783.117055	0.246626
783.310555	0.246898
783.504036	0.246750
783.697499	0.246706
783.890944	0.246439
784.084371	0.246488
784.277780	0.246661
784.471170	0.246949
784.664542	0.246866
784.857896	0.246826
785.051231	0.246744
785.244549	0.247124
785.437848	0.247334
785.631129	0.247697
785.824392	0.247795
786.017636	0.247955
786.210863	0.247769
786.404071	0.247963
786.597260	0.248018
786.790432	0.247999
786.983585	0.247850
787.176721	0.247842
787.369838	0.247850
787.562936	0.247573
787.756017	0.247414
787.949079	0.247527
788.142123	0.247530
788.335149	0.247659
788.528156	0.247729
788.721146	0.248156
788.914117	0.248084
789.107070	0.248139
789.300005	0.248408
789.492921	0.248710
789.685819	0.248850
789.878699	0.249132
790.071561	0.249198
790.264405	0.249573
790.457230	0.249331
790.650037	0.249339
790.842826	0.249483
791.035597	0.249794
791.228349	0.249668
791.421084	0.249606
791.613800	0.249467
791.806497	0.249709
791.999177	0.249772
792.191838	0.250005
792.384481	0.250495
792.577106	0.250407
792.769713	0.250392
792.962301	0.250577
793.154871	0.250628
793.347423	0.251021
793.539957	0.251061
793.732473	0.250914
793.924970	0.251179
794.117449	0.251264
794.309910	0.251561
794.502353	0.251932
794.694777	0.251909
794.887183	0.252261
795.079571	0.252074
795.271941	0.251972
795.464293	0.252059
795.656626	0.251869
795.848941	0.251729
796.041238	0.251810
796.233516	0.251718
796.425777	0.252063
796.618019	0.252213
796.810243	0.252478
797.002449	0.252633
797.194636	0.252917
797.386805	0.253229
797.578956	0.253552
797.771089	0.253922
797.963204	0.253899
798.155300	0.254215
798.347378	0.254091
798.539438	0.254160
798.731480	0.254647
798.923503	0.254824
799.115509	0.254993
799.307496	0.255278
799.499465	0.255321
799.691415	0.255522
799.883348	0.255588
800.075262	0.255975
800.267158	0.256133
800.459035	0.256178
800.650895	0.256377
800.842736	0.256524
801.034559	0.256632
801.226364	0.256708
801.418150	0.257267
801.609919	0.257526
801.801669	0.257633
801.993401	0.257954
802.185114	0.258149
802.376810	0.258297
802.568487	0.258522
802.760146	0.258639
802.951787	0.258853
803.143409	0.258814
803.335014	0.258784
803.526600	0.258945
803.718168	0.259230
803.909717	0.259573
804.101249	0.259839
804.292762	0.259805
804.484257	0.260076
804.675734	0.260429
804.867192	0.260785
805.058632	0.261362
805.250054	0.261825
805.441458	0.261805
805.632844	0.261863
805.824211	0.262175
806.015561	0.262716
806.206891	0.263168
806.398204	0.263424
806.589499	0.263660
806.780775	0.263883
806.972033	0.264014
807.163273	0.264221
807.354495	0.264735
807.545698	0.264977
807.736883	0.265450
807.928050	0.265614
808.119199	0.266008
808.310329	0.266278
808.501441	0.266483
808.692535	0.266772
808.883611	0.267115
809.074669	0.267155
809.265708	0.267236
809.456729	0.267214
809.647732	0.267413
809.838717	0.267318
810.029683	0.267486
810.220632	0.267636
810.411562	0.267882
810.602474	0.268203
810.793367	0.268476
810.984242	0.269020
811.175100	0.269452
811.365938	0.269836
811.556759	0.270276
811.747562	0.270494
811.938346	0.270710
812.129112	0.271016
812.319860	0.271431
812.510589	0.271796
812.701300	0.272114
812.891994	0.272205
813.082668	0.272276
813.273325	0.272762
813.463964	0.273172
813.654584	0.273521
813.845186	0.273822
814.035769	0.273919
814.226335	0.274247
814.416882	0.274453
814.607411	0.274978
814.797922	0.275457
814.988415	0.275441
815.178889	0.275689
815.369345	0.276070
815.559783	0.276540
815.750203	0.277048
815.940605	0.277452
816.130988	0.277799
816.321353	0.277993
816.511700	0.278208
816.702028	0.278677
816.892339	0.279123
817.082631	0.279476
817.272905	0.279440
817.463161	0.279456
817.653398	0.279389
817.843617	0.279694
818.033819	0.280036
818.224001	0.280235
818.414166	0.280549
818.604312	0.280862
818.794440	0.281274
818.984550	0.281878
819.174642	0.282539
819.364716	0.282994
819.554771	0.283212
819.744808	0.283362
819.934827	0.283710
820.124827	0.284106
820.314810	0.284329
820.504774	0.284564
820.694720	0.284806
820.884647	0.285047
821.074557	0.285481
821.264448	0.285729
821.454321	0.286237
821.644176	0.286698
821.834012	0.286949
822.023831	0.287335
822.213631	0.287625
822.403413	0.287812
822.593176	0.288094
822.782922	0.288304
822.972649	0.288518
823.162358	0.288884
823.352049	0.289126
823.541721	0.289624
823.731376	0.289759
823.921012	0.290018
824.110629	0.290397
824.300229	0.290986
824.489811	0.291539
824.679374	0.292099
824.868919	0.292292
825.058445	0.292750
825.247954	0.292320
825.437444	0.292829
825.626916	0.292986
825.816370	0.293375
826.005806	0.293605
826.195223	0.293901
826.384622	0.294115
826.574003	0.294515
826.763366	0.294762
826.952711	0.295574
827.142037	0.295631
827.331345	0.296422
827.520635	0.296681
827.709906	0.297277
827.899160	0.297730
828.088395	0.298110
828.277612	0.298701
828.466810	0.299198
828.655991	0.299750
828.845153	0.300531
829.034297	0.300826
829.223423	0.301270
829.412531	0.301316
829.601620	0.301565
829.790691	0.302308
829.979744	0.302649
830.168779	0.303246
830.357795	0.303700
830.546793	0.303982
830.735773	0.304114
830.924735	0.304809
831.113679	0.305288
831.302604	0.305833
831.491511	0.306027
831.680400	0.306428
831.869271	0.306491
832.058123	0.307032
832.246957	0.307268
832.435773	0.307727
832.624571	0.308083
832.813351	0.308491
833.002112	0.308706
833.190855	0.309159
833.379580	0.309381
833.568287	0.309760
833.756975	0.309776
833.945645	0.310358
834.134297	0.310655
834.322931	0.310710
834.511547	0.310909
834.700144	0.311494
834.888723	0.311802
835.077284	0.312280
835.265826	0.312972
835.454351	0.313461
835.642857	0.313698
835.831345	0.314285
836.019815	0.314884
836.208266	0.315410
836.396699	0.315513
836.585114	0.315949
836.773511	0.316454
836.961890	0.316659
837.150250	0.317355
837.338592	0.317946
837.526916	0.318465
837.715222	0.318794
837.903510	0.319074
838.091779	0.319611
838.280030	0.319874
838.468263	0.320314
838.656477	0.320329
838.844674	0.320486
839.032852	0.320957
839.221012	0.321216
839.409153	0.321827
839.597277	0.322440
839.785382	0.322829
839.973469	0.323297
840.161538	0.323750
840.349589	0.324514
840.537621	0.324863
840.725635	0.325208
840.913631	0.325558
841.101609	0.325756
841.289568	0.326161
841.477509	0.326678
841.665432	0.327169
841.853337	0.327253
842.041224	0.327590
842.229092	0.328096
842.416942	0.328417
842.604774	0.329029
842.792588	0.329524
842.980383	0.330074
843.168160	0.330285
843.355919	0.330402
843.543660	0.330794
843.731382	0.331181
843.919087	0.331699
844.106773	0.331873
844.294441	0.332075
844.482090	0.332213
844.669722	0.332701
844.857335	0.333509
845.044930	0.334334
845.232507	0.335228
845.420065	0.335660
845.607605	0.335602
845.795127	0.336116
845.982631	0.336651
846.170117	0.337238
846.357584	0.337526
846.545033	0.337811
846.732464	0.338162
846.919877	0.338213
847.107272	0.338983
847.294648	0.339616
847.482006	0.340101
847.669346	0.340480
847.856667	0.341209
848.043971	0.341780
848.231256	0.342302
848.418523	0.342482
848.605771	0.342749
848.793002	0.343040
848.980214	0.343718
849.167408	0.344231
849.354584	0.344529
849.541742	0.344907
849.728881	0.345086
849.916002	0.345366
850.103105	0.345749
850.290190	0.346098
850.477256	0.346186
850.664304	0.346627
850.851334	0.346942
851.038346	0.347384
851.225340	0.347443
851.412315	0.347852
851.599272	0.348519
851.786211	0.349058
851.973132	0.349512
852.160034	0.350268
852.346918	0.350635
852.533784	0.351445
852.720632	0.351971
852.907462	0.352490
853.094273	0.353022
853.281066	0.352877
853.467841	0.353438
853.654598	0.354497
853.841336	0.354991
854.028056	0.355142
854.214758	0.355544
854.401442	0.355969
854.588107	0.356531
854.774755	0.356816
854.961384	0.357864
855.147995	0.358191
855.334587	0.358138
855.521162	0.358312
855.707718	0.358770
855.894256	0.358900
856.080775	0.359216
856.267277	0.359404
856.453760	0.359456
856.640225	0.359419
856.826672	0.359673
857.013101	0.360299
857.199511	0.360621
857.385903	0.360931
857.572277	0.361117
857.758633	0.361545
857.944970	0.361846
858.131290	0.362430
858.317591	0.363049
858.503873	0.363756
858.690138	0.363825
858.876384	0.364525
859.062612	0.364787
859.248822	0.365123
859.435014	0.365506
859.621188	0.365668
859.807343	0.366110
859.993480	0.366309
860.179599	0.366547
860.365699	0.366613
860.551781	0.366653
860.737846	0.367126
860.923891	0.367405
861.109919	0.367258
861.295929	0.367945
861.481920	0.368278
861.667893	0.368462
861.853848	0.368769
862.039784	0.369463
862.225702	0.369604
862.411603	0.370141
862.597484	0.370505
862.783348	0.371768
862.969193	0.372057
863.155021	0.372779
863.340830	0.373239
863.526620	0.373293
863.712393	0.373677
863.898147	0.374284
864.083883	0.374533
864.269601	0.375442
864.455301	0.375251
864.640982	0.375412
864.826645	0.375545
865.012290	0.375893
865.197917	0.376446
865.383526	0.376577
865.569116	0.377178
865.754688	0.377502
865.940242	0.377197
866.125777	0.377724
866.311295	0.378458
866.496794	0.378750
866.682275	0.378956
866.867737	0.379289
867.053182	0.379850
867.238608	0.379666
867.424016	0.379982
867.609406	0.380483
867.794778	0.380961
867.980131	0.381220
868.165466	0.381519
868.350783	0.381707
868.536082	0.381965
868.721362	0.382651
868.906625	0.383195
869.091869	0.383359
869.277094	0.383471
869.462302	0.383677
869.647491	0.383731
869.832662	0.383508
870.017815	0.384171
870.202950	0.384674
870.388066	0.384511
870.573165	0.384977
870.758245	0.385394
870.943306	0.385499
871.128350	0.385691
871.313375	0.385918
871.498382	0.386419
871.683371	0.386573
871.868342	0.386450
872.053294	0.386829
872.238229	0.387285
872.423144	0.387465
872.608042	0.388470
872.792922	0.388070
872.977783	0.388622
873.162626	0.388766
873.347451	0.388637
873.532258	0.389319
873.717046	0.389514
873.901816	0.389095
874.086568	0.389298
874.271302	0.389437
874.456017	0.390213
874.640715	0.390235
874.825394	0.390443
875.010055	0.390844
875.194697	0.390620
875.379322	0.390698
875.563928	0.391117
875.748516	0.391443
875.933085	0.391741
876.117637	0.392278
876.302170	0.392220
876.486685	0.392403
876.671182	0.392947
876.855661	0.393150
877.040121	0.393179
877.224563	0.393412
877.408987	0.393621
877.593393	0.393733
877.777780	0.393818
877.962150	0.394076
878.146501	0.394358
878.330833	0.394395
878.515148	0.394479
878.699444	0.394909
878.883722	0.395059
879.067982	0.395284
879.252224	0.395357
879.436447	0.395309
879.620653	0.395802
879.804840	0.396195
879.989008	0.396426
880.173159	0.397000
880.357291	0.397077
880.541405	0.397440
880.725501	0.397698
880.909579	0.397485
881.093638	0.398033
881.277680	0.397918
881.461703	0.398277
881.645707	0.398461
881.829694	0.398125
882.013662	0.398325
882.197612	0.398581
882.381544	0.398553
882.565458	0.398943
882.749353	0.398584
882.933230	0.399371
883.117089	0.398821
883.300930	0.398507
883.484753	0.398655
883.668557	0.398975
883.852343	0.398515
884.036111	0.398702
884.219861	0.398926
884.403592	0.399092
884.587305	0.398654
884.771000	0.399091
884.954677	0.398811
885.138335	0.399126
885.321976	0.398844
885.505598	0.399143
885.689201	0.398866
885.872787	0.398700
886.056354	0.398698
886.239904	0.398882
886.423434	0.398839
886.606947	0.399369
886.790442	0.399793
886.973918	0.400133
887.157376	0.400144
887.340816	0.400438
887.524237	0.400814
887.707641	0.400724
887.891026	0.400589
888.074393	0.400535
888.257741	0.400787
888.441072	0.400673
888.624384	0.400232
888.807678	0.400675
888.990954	0.400434
889.174211	0.400037
889.357451	0.400252
889.540672	0.400038
889.723875	0.400082
889.907059	0.400166
890.090226	0.399815
890.273374	0.400551
890.456504	0.399916
890.639616	0.400342
890.822709	0.400616
891.005785	0.400789
891.188842	0.401095
891.371881	0.401358
891.554901	0.401214
891.737904	0.401399
891.920888	0.401104
892.103854	0.401456
892.286802	0.400856
892.469731	0.400441
892.652643	0.400177
892.835536	0.400408
893.018410	0.399959
893.201267	0.399869
893.384106	0.399782
893.566926	0.399868
893.749728	0.399742
893.932511	0.399808
894.115277	0.399873
894.298024	0.399764
894.480753	0.399165
894.663464	0.399348
894.846157	0.399068
895.028831	0.399381
895.211487	0.398912
895.394125	0.398588
895.576745	0.398660
895.759346	0.397991
895.941930	0.398102
896.124495	0.397582
896.307041	0.397310
896.489570	0.397300
896.672080	0.396644
896.854573	0.396726
897.037046	0.396519
897.219502	0.396868
897.401940	0.397422
897.584359	0.397013
897.766760	0.397385
897.949143	0.396650
898.131507	0.396297
898.313854	0.396186
898.496182	0.395515
898.678492	0.395444
898.860783	0.394707
899.043057	0.394718
899.225312	0.394847
899.407549	0.394613
899.589768	0.395281
899.771968	0.394962
899.954151	0.394596
900.136315	0.394666
900.318461	0.394751
900.500588	0.394496
900.682698	0.393679
900.864789	0.393144
901.046862	0.393002
901.228917	0.392848
901.410953	0.393061
901.592971	0.393301
901.774972	0.392992
901.956953	0.392656
902.138917	0.392184
902.320862	0.392081
902.502790	0.391750
902.684699	0.391135
902.866589	0.390380
903.048462	0.389663
903.230316	0.388808
903.412152	0.388968
903.593970	0.388333
903.775770	0.388153
903.957551	0.388239
904.139314	0.387820
904.321059	0.387804
904.502786	0.387797
904.684494	0.388053
904.866185	0.388076
905.047857	0.387417
905.229510	0.387406
905.411146	0.387679
905.592763	0.387012
905.774363	0.386350
905.955943	0.386086
906.137506	0.385428
906.319051	0.384844
906.500577	0.384297
906.682085	0.384011
906.863575	0.383291
907.045046	0.382562
907.226500	0.382727
907.407935	0.383057
907.589352	0.382326
907.770750	0.381757
907.952131	0.381517
908.133493	0.381175
908.314837	0.380605
908.496163	0.380192
908.677470	0.380196
908.858760	0.379871
909.040031	0.379347
909.221284	0.379298
909.402518	0.379133
909.583735	0.378230
909.764933	0.377977
909.946113	0.377433
910.127275	0.377564
910.308418	0.376920
910.489544	0.375755
910.670651	0.375278
910.851740	0.374785
911.032810	0.374763
911.213863	0.375128
911.394897	0.375314
911.575913	0.375144
911.756911	0.374377
911.937890	0.373750
912.118851	0.373498
912.299794	0.372932
912.480719	0.372664
912.661626	0.372052
912.842514	0.371028
913.023384	0.369968
913.204236	0.369098
913.385070	0.368561
913.565886	0.368041
913.746683	0.367459
913.927462	0.366658
914.108223	0.366237
914.288965	0.365329
914.469690	0.364585
914.650396	0.363734
914.831084	0.363449
915.011754	0.362216
915.192405	0.361287
915.373038	0.360184
915.553653	0.359824
915.734250	0.358803
915.914829	0.358454
916.095389	0.357697
916.275931	0.356884
916.456455	0.356100
916.636961	0.356499
916.817448	0.356442
916.997917	0.356466
917.178368	0.356381
917.358801	0.356083
917.539216	0.356114
917.719612	0.356005
917.899990	0.355611
918.080350	0.355138
918.260692	0.354346
918.441015	0.353359
918.621320	0.352570
918.801607	0.351620
918.981876	0.351091
919.162127	0.349911
919.342359	0.349342
919.522573	0.348655
919.702769	0.348345
919.882947	0.347574
920.063106	0.347139
920.243247	0.346718
920.423370	0.346166
920.603475	0.345181
920.783562	0.344138
920.963630	0.342926
921.143680	0.341923
921.323712	0.341403
921.503725	0.341050
921.683721	0.339873
921.863698	0.338935
922.043657	0.338189
922.223598	0.337877
922.403520	0.338276
922.583424	0.338302
922.763311	0.338299
922.943178	0.337322
923.123028	0.336852
923.302859	0.336680
923.482673	0.336666
923.662467	0.335433
923.842244	0.334237
924.022003	0.332880
924.201743	0.332502
924.381465	0.331906
924.561169	0.331135
924.740854	0.329943
924.920522	0.329378
925.100171	0.328791
925.279802	0.328612
925.459414	0.328435
925.639009	0.328471
925.818585	0.327094
925.998143	0.326336
926.177683	0.325845
926.357205	0.325222
926.536708	0.324278
926.716193	0.322649
926.895660	0.322092
927.075109	0.321182
927.254539	0.320159
927.433951	0.319130
927.613345	0.317560
927.792721	0.315849
927.972079	0.315156
928.151418	0.314296
928.330739	0.314325
928.510042	0.312893
928.689327	0.312175
928.868593	0.310511
929.047841	0.309310
929.227071	0.308994
929.406283	0.308264
929.585476	0.308060
929.764652	0.307517
929.943809	0.306633
930.122948	0.306145
930.302068	0.305182
930.481171	0.304318
930.660255	0.304282
930.839321	0.304318
931.018369	0.304154
931.197398	0.302665
931.376409	0.301479
931.555402	0.300477
931.734377	0.300472
931.913334	0.299781
932.092272	0.299456
932.271192	0.299076
932.450094	0.297971
932.628978	0.298201
932.807844	0.297396
932.986691	0.297639
933.165520	0.296545
933.344331	0.295337
933.523123	0.294272
933.701898	0.293798
933.880654	0.292560
934.059392	0.291346
934.238111	0.289829
934.416813	0.288895
934.595496	0.287659
934.774161	0.286246
934.952808	0.284991
935.131437	0.284324
935.310047	0.283074
935.488639	0.282469
935.667213	0.281810
935.845769	0.280040
936.024306	0.278687
936.202825	0.277610
936.381326	0.277317
936.559809	0.276139
936.738274	0.273858
936.916720	0.272336
937.095148	0.271492
937.273558	0.270208
937.451950	0.269576
937.630323	0.268786
937.808678	0.266717
937.987015	0.265893
938.165334	0.264968
938.343635	0.265609
938.521917	0.265501
938.700181	0.265059
938.878427	0.264820
939.056655	0.263257
939.234864	0.262783
939.413055	0.262613
939.591228	0.261930
939.769383	0.261435
939.947519	0.260750
940.125638	0.259430
940.303738	0.257543
940.481820	0.256427
940.659883	0.256487
940.837929	0.255685
941.015956	0.255838
941.193965	0.254371
941.371955	0.252492
941.549928	0.250768
941.727882	0.249456
941.905818	0.247713
942.083736	0.246763
942.261636	0.246444
942.439517	0.245230
942.617380	0.242579
942.795225	0.241028
942.973052	0.240179
943.150860	0.239463
943.328651	0.239389
943.506423	0.238792
943.684176	0.237784
943.861912	0.235844
944.039629	0.234090
944.217328	0.235398
944.395009	0.234259
944.572672	0.234165
944.750317	0.233187
944.927943	0.230181
945.105551	0.228963
945.283141	0.227090
945.460712	0.226384
945.638265	0.226621
945.815801	0.223693
945.993317	0.222116
946.170816	0.221550
946.348297	0.219640
946.525759	0.219170
946.703203	0.218685
946.880629	0.218137
947.058036	0.217434
947.235425	0.215767
947.412797	0.215358
947.590149	0.215285
947.767484	0.213510
947.944800	0.212470
948.122099	0.212013
948.299379	0.210406
948.476640	0.209224
948.653884	0.208002
948.831109	0.207372
949.008316	0.205927
949.185505	0.204357
949.362676	0.205201
949.539828	0.205063
949.716962	0.205354
949.894078	0.204996
950.071176	0.204652
950.248256	0.203335
950.425317	0.202547
950.602360	0.202224
950.779385	0.202662
950.956391	0.199386
951.133380	0.197633
951.310350	0.194459
951.487302	0.193437
951.664235	0.193353
951.841151	0.192365
952.018048	0.189806
952.194927	0.187605
952.371788	0.186483
952.548631	0.187298
952.725455	0.185335
952.902261	0.185907
953.079049	0.185637
953.255819	0.183342
953.432570	0.182917
953.609303	0.182976
953.786018	0.181403
953.962715	0.180560
954.139394	0.178099
954.316054	0.179294
954.492696	0.179040
954.669320	0.177852
954.845926	0.176877
955.022513	0.175849
955.199083	0.173995
955.375634	0.176081
955.552166	0.176061
955.728681	0.175294
955.905177	0.172846
956.081655	0.170018
956.258115	0.171339
956.434557	0.168288
956.610980	0.167435
956.787385	0.169027
956.963772	0.166152
957.140141	0.165005
957.316492	0.165146
957.492824	0.166366
957.669138	0.168463
957.845434	0.165158
958.021712	0.166234
958.197971	0.165661
958.374212	0.165104
958.550435	0.163715
958.726640	0.162386
958.902826	0.161898
959.078995	0.161613
959.255145	0.159258
959.431277	0.159125
959.607390	0.158197
959.783486	0.155992
959.959563	0.156208
960.135622	0.157127
960.311662	0.158202
960.487685	0.156267
960.663689	0.154768
960.839675	0.153600
961.015643	0.152076
961.191593	0.154410
961.367524	0.155297
961.543437	0.153614
961.719332	0.152025
961.895209	0.150467
962.071067	0.151593
962.246907	0.151092
962.422730	0.151763
962.598533	0.151800
962.774319	0.148656
962.950086	0.146663
963.125835	0.146551
963.301566	0.145827
963.477279	0.145408
963.652973	0.144203
963.828650	0.144755
964.004308	0.147613
964.179947	0.148564
964.355569	0.146305
964.531172	0.148114
964.706757	0.146290
964.882324	0.148718
965.057873	0.148037
965.233403	0.147810
965.408916	0.146431
965.584410	0.142750
965.759885	0.142016
965.935343	0.143354
966.110782	0.139569
966.286203	0.138457
966.461606	0.136161
966.636991	0.135693
966.812357	0.135440
966.987705	0.136874
967.163035	0.137943
967.338347	0.138156
967.513641	0.138957
967.688916	0.141124
967.864173	0.141230
968.039412	0.142917
968.214632	0.142295
968.389835	0.143320
968.565019	0.141806
968.740185	0.140817
968.915333	0.139133
969.090462	0.139213
969.265573	0.139785
969.440667	0.140316
969.615741	0.140314
969.790798	0.141677
969.965836	0.140822
970.140856	0.139841
970.315858	0.137978
970.490842	0.138972
970.665808	0.136767
970.840755	0.137080
971.015684	0.135960
971.190595	0.135223
971.365487	0.133249
971.540362	0.133177
971.715218	0.134406
971.890056	0.135037
972.064875	0.133474
972.239677	0.134048
972.414460	0.131263
972.589225	0.132367
972.763972	0.131298
972.938700	0.132545
973.113411	0.131557
973.288103	0.131758
973.462777	0.133686
973.637432	0.133129
973.812070	0.134848
973.986689	0.137458
974.161290	0.138671
974.335873	0.140555
974.510437	0.141066
974.684984	0.140878
974.859512	0.138391
975.034022	0.137635
975.208513	0.137905
975.382987	0.137219
975.557442	0.137688
975.731879	0.136753
975.906298	0.136934
976.080698	0.136829
976.255080	0.135914
976.429445	0.136577
976.603790	0.136459
976.778118	0.139324
976.952427	0.139907
977.126719	0.138851
977.300992	0.136724
977.475246	0.135889
977.649483	0.134394
977.823701	0.137686
977.997901	0.140683
978.172083	0.140462
978.346247	0.140208
978.520392	0.140660
978.694519	0.140173
978.868628	0.143107
979.042719	0.142409
979.216791	0.142927
979.390845	0.140925
979.564882	0.139323
979.738899	0.139416
979.912899	0.136525
980.086880	0.135767
980.260843	0.138073
980.434788	0.136792
980.608715	0.138905
980.782623	0.140049
980.956514	0.139191
981.130386	0.139228
981.304240	0.140259
981.478075	0.141277
981.651892	0.139973
981.825692	0.138712
981.999472	0.136496
982.173235	0.134266
982.346980	0.132274
982.520706	0.131926
982.694414	0.132263
982.868104	0.129668
983.041775	0.130348
983.215428	0.132804
983.389064	0.132611
983.562680	0.133889
983.736279	0.134636
983.909860	0.134179
984.083422	0.133917
984.256966	0.133513
984.430491	0.135248
984.603999	0.134401
984.777488	0.134287
984.950959	0.134343
985.124412	0.134744
985.297847	0.134139
985.471263	0.135580
985.644661	0.137180
985.818041	0.136732
985.991403	0.135812
986.164747	0.137026
986.338072	0.136577
986.511379	0.134747
986.684668	0.134623
986.857938	0.135468
987.031191	0.136356
987.204425	0.136666
987.377641	0.136931
987.550839	0.138128
987.724018	0.135802
987.897179	0.134196
988.070322	0.133398
988.243447	0.134394
988.416554	0.133703
988.589642	0.132101
988.762712	0.133708
988.935764	0.133800
989.108798	0.132915
989.281813	0.135021
989.454811	0.135303
989.627790	0.137093
989.800751	0.135674
989.973693	0.135664
990.146617	0.134929
990.319524	0.134796
990.492412	0.135126
990.665281	0.135602
990.838133	0.134306
991.010966	0.135509
991.183781	0.135038
991.356578	0.136489
991.529356	0.137593
991.702117	0.139880
991.874859	0.138281
992.047583	0.138161
992.220288	0.137942
992.392976	0.139194
992.565645	0.137599
992.738296	0.137979
992.910929	0.138187
993.083543	0.139322
993.256139	0.137609
993.428718	0.137660
993.601277	0.136733
993.773819	0.136485
993.946342	0.135504
994.118848	0.136550
994.291335	0.135897
994.463803	0.133812
994.636254	0.131784
994.808686	0.131584
994.981100	0.130607
995.153496	0.131628
995.325874	0.132081
995.498233	0.133205
995.670574	0.133305
995.842897	0.135076
996.015202	0.137305
996.187488	0.135892
996.359757	0.137841
996.532007	0.138284
996.704239	0.137545
996.876452	0.135432
997.048648	0.135032
997.220825	0.135031
997.392984	0.133813
997.565124	0.132326
997.737247	0.133577
997.909351	0.133806
998.081437	0.133783
998.253505	0.136215
998.425554	0.136438
998.597586	0.136734
998.769599	0.136283
998.941594	0.137708
999.113571	0.138523
999.285529	0.137947
999.457469	0.137497
999.629391	0.137531
999.801295	0.135717
999.973181	0.136947
1000.145048	0.136103
1000.316897	0.136945
1000.488728	0.136449
1000.660541	0.135459
1000.832335	0.136244
1001.004111	0.136833
1001.175869	0.137936
1001.347609	0.138384
1001.519331	0.139754
1001.691034	0.141878
1001.862719	0.141205
1002.034386	0.140956
1002.206035	0.139176
1002.377665	0.140028
1002.549277	0.139688
1002.720871	0.138983
1002.892447	0.138728
1003.064004	0.138127
1003.235544	0.136163
1003.407065	0.136666
1003.578568	0.136258
1003.750052	0.140801
1003.921519	0.139008
1004.092967	0.138077
1004.264397	0.137139
1004.435809	0.137020
1004.607202	0.136558
1004.778577	0.136724
1004.949934	0.136052
1005.121273	0.137437
1005.292594	0.134739
1005.463896	0.134492
1005.635180	0.134578
1005.806446	0.134970
1005.977694	0.133566
1006.148923	0.132904
1006.320135	0.132188
1006.491328	0.133374
1006.662503	0.131751
1006.833659	0.132450
1007.004798	0.133683
1007.175918	0.134868
1007.347020	0.135070
1007.518103	0.136011
1007.689169	0.137837
1007.860216	0.138180
1008.031245	0.136526
1008.202256	0.137418
1008.373248	0.137158
1008.544223	0.135201
1008.715179	0.134831
1008.886117	0.134139
1009.057036	0.134342
1009.227938	0.134088
1009.398821	0.134429
1009.569686	0.134762
1009.740533	0.133236
1009.911361	0.133492
1010.082172	0.135788
1010.252964	0.135290
1010.423738	0.136914
1010.594493	0.137881
1010.765231	0.137088
1010.935950	0.136774
1011.106651	0.136587
1011.277334	0.137451
1011.447998	0.136883
1011.618645	0.135608
1011.789273	0.136187
1011.959882	0.135440
1012.130474	0.134858
1012.301048	0.135807
1012.471603	0.135593
1012.642140	0.136280
1012.812658	0.138691
1012.983159	0.139558
1013.153641	0.139024
1013.324105	0.138829
1013.494551	0.140112
1013.664979	0.140326
1013.835388	0.138333
1014.005779	0.138547
1014.176152	0.137529
1014.346507	0.134473
1014.516843	0.133721
1014.687162	0.133365
1014.857462	0.132603
1015.027744	0.130461
1015.198007	0.129618
1015.368252	0.129792
1015.538480	0.131448
1015.708689	0.133332
1015.878879	0.134750
1016.049052	0.135307
1016.219206	0.135424
1016.389342	0.134021
1016.559460	0.134082
1016.729559	0.135182
1016.899641	0.136038
1017.069704	0.135223
1017.239749	0.133971
1017.409775	0.133185
1017.579784	0.134649
1017.749774	0.135477
1017.919746	0.136268
1018.089700	0.136737
1018.259635	0.135766
1018.429553	0.135800
1018.599452	0.134838
1018.769333	0.133863
1018.939195	0.133680
1019.109040	0.131316
1019.278866	0.131499
1019.448674	0.131611
1019.618464	0.132211
1019.788235	0.132698
1019.957989	0.133586
1020.127724	0.134407
1020.297441	0.136437
1020.467139	0.136504
1020.636820	0.136211
1020.806482	0.135915
1020.976126	0.136931
1021.145752	0.137261
1021.315359	0.137345
1021.484948	0.135234
1021.654519	0.135819
1021.824072	0.135655
1021.993607	0.135767
1022.163123	0.137393
1022.332621	0.138811
1022.502101	0.135544
1022.671563	0.134418
1022.841007	0.135162
1023.010432	0.136158
1023.179839	0.134647
1023.349228	0.133503
1023.518598	0.132611
1023.687951	0.132337
1023.857285	0.131576
1024.026601	0.134274
1024.195899	0.134825
1024.365178	0.132131
1024.534439	0.130870
1024.703682	0.132407
1024.872907	0.132798
1025.042114	0.132475
1025.211302	0.132311
1025.380472	0.130476
1025.549624	0.129573
1025.718758	0.129433
1025.887873	0.129492
1026.056970	0.129962
1026.226049	0.129766
1026.395110	0.128770
1026.564153	0.129063
1026.733177	0.128284
1026.902183	0.127998
1027.071171	0.128257
1027.240141	0.129214
1027.409092	0.129522
1027.578026	0.129647
1027.746940	0.128447
1027.915837	0.129835
1028.084716	0.128635
1028.253576	0.129239
1028.422418	0.131484
1028.591242	0.130163
1028.760048	0.129500
1028.928835	0.129628
1029.097604	0.129800
1029.266355	0.128948
1029.435088	0.125947
1029.603803	0.127545
1029.772499	0.127328
1029.941177	0.125705
1030.109837	0.127638
1030.278478	0.127403
1030.447102	0.128140
1030.615707	0.129958
1030.784294	0.133456
1030.952863	0.135317
1031.121413	0.133952
1031.289945	0.132884
1031.458460	0.133933
1031.626955	0.133395
1031.795433	0.132826
1031.963892	0.131700
1032.132334	0.129128
1032.300756	0.126883
1032.469161	0.127351
1032.637548	0.128929
1032.805916	0.130045
1032.974266	0.130028
1033.142598	0.130647
1033.310911	0.130654
1033.479207	0.132907
1033.647484	0.134357
1033.815743	0.133938
1033.983983	0.133032
1034.152206	0.132118
1034.320410	0.130400
1034.488596	0.131292
1034.656764	0.130843
1034.824914	0.131527
1034.993045	0.130509
1035.161158	0.130322
1035.329253	0.131342
1035.497330	0.132770
1035.665388	0.132956
1035.833428	0.135694
1036.001450	0.133741
1036.169454	0.132928
1036.337440	0.131448
1036.505407	0.130974
1036.673356	0.128472
1036.841287	0.127488
1037.009200	0.127093
1037.177094	0.127313
1037.344970	0.125184
1037.512828	0.125059
1037.680668	0.126605
1037.848489	0.127444
1038.016293	0.128290
1038.184078	0.130034
1038.351845	0.129493
1038.519593	0.129544
1038.687324	0.129432
1038.855036	0.128979
1039.022730	0.128042
1039.190406	0.126692
1039.358063	0.126202
1039.525702	0.124590
1039.693323	0.124017
1039.860926	0.124961
1040.028511	0.124418
1040.196077	0.125317
1040.363625	0.127247
1040.531155	0.128462
1040.698667	0.129265
1040.866161	0.130655
1041.033636	0.131706
1041.201093	0.134311
1041.368532	0.135099
1041.535952	0.134343
1041.703355	0.134826
1041.870739	0.133165
1042.038105	0.134444
1042.205452	0.134402
1042.372782	0.135562
1042.540093	0.135171
1042.707386	0.133086
1042.874661	0.132656
1043.041918	0.132522
1043.209156	0.133666
1043.376376	0.134176
1043.543578	0.135723
1043.710762	0.135789
1043.877927	0.134081
1044.045074	0.134885
1044.212203	0.134642
1044.379314	0.134394
1044.546407	0.137590
1044.713481	0.135888
1044.880537	0.136707
1045.047575	0.135278
1045.214595	0.136564
1045.381596	0.135260
1045.548579	0.135593
1045.715544	0.136424
1045.882491	0.134742
1046.049420	0.130312
1046.216330	0.128510
1046.383222	0.129820
1046.550096	0.129676
1046.716951	0.128746
1046.883789	0.128779
1047.050608	0.127369
1047.217409	0.127530
1047.384192	0.129283
1047.550956	0.131737
1047.717703	0.131862
1047.884431	0.131493
1048.051140	0.130130
1048.217832	0.130848
1048.384505	0.131771
1048.551161	0.133528
1048.717798	0.132425
1048.884416	0.133165
1049.051017	0.132381
1049.217599	0.134451
1049.384163	0.133125
1049.550709	0.133930
1049.717237	0.133802
1049.883746	0.133720
1050.050237	0.132410
1050.216710	0.134634
1050.383165	0.133922
1050.549601	0.134842
1050.716019	0.134698
1050.882420	0.134637
1051.048801	0.135076
1051.215165	0.134417
1051.381510	0.134969
1051.547837	0.134118
1051.714146	0.130998
1051.880437	0.130080
1052.046709	0.132124
1052.212964	0.132014
1052.379200	0.132140
1052.545417	0.131620
1052.711617	0.130408
1052.877798	0.131391
1053.043961	0.131927
1053.210106	0.133172
1053.376233	0.134059
1053.542341	0.132868
1053.708432	0.131374
1053.874504	0.130909
1054.040557	0.132589
1054.206593	0.134747
1054.372610	0.135673
1054.538609	0.136166
1054.704590	0.137455
1054.870553	0.137330
1055.036497	0.135980
1055.202424	0.136729
1055.368331	0.136898
1055.534221	0.134725
1055.700093	0.134382
1055.865946	0.133006
1056.031781	0.134411
1056.197598	0.133968
1056.363397	0.132147
1056.529177	0.131403
1056.694939	0.133136
1056.860683	0.133580
1057.026409	0.133178
1057.192116	0.132596
1057.357806	0.133046
1057.523477	0.129399
1057.689130	0.128864
1057.854764	0.129722
1058.020381	0.132241
1058.185979	0.132745
1058.351559	0.132716
1058.517120	0.133104
1058.682664	0.131187
1058.848189	0.130106
1059.013696	0.132898
1059.179185	0.131917
1059.344656	0.134108
1059.510108	0.133987
1059.675542	0.134079
1059.840958	0.133403
1060.006356	0.135085
1060.171735	0.135989
1060.337096	0.136921
1060.502439	0.135245
1060.667764	0.136106
1060.833071	0.134372
1060.998359	0.134194
1061.163629	0.131665
1061.328881	0.131404
1061.494115	0.129575
1061.659330	0.130674
1061.824527	0.128217
1061.989706	0.131890
1062.154867	0.130480
1062.320010	0.131811
1062.485134	0.128635
1062.650240	0.127267
1062.815328	0.130947
1062.980398	0.130850
1063.145449	0.130271
1063.310482	0.130821
1063.475497	0.128579
1063.640494	0.129693
1063.805473	0.128821
1063.970433	0.132758
1064.135375	0.136869
1064.300299	0.135127
1064.465204	0.135919
1064.630092	0.136264
1064.794961	0.139626
1064.959812	0.140782
1065.124645	0.142725
1065.289459	0.140712
1065.454256	0.139190
1065.619034	0.135841
1065.783793	0.135276
1065.948535	0.134976
1066.113258	0.133637
1066.277964	0.130994
1066.442651	0.129654
1066.607319	0.128466
1066.771970	0.130396
1066.936602	0.128555
1067.101216	0.130649
1067.265812	0.130087
1067.430389	0.131621
1067.594949	0.133106
1067.759490	0.133519
1067.924013	0.134996
1068.088518	0.135996
1068.253004	0.136767
1068.417472	0.140739
1068.581922	0.141087
1068.746354	0.142890
1068.910768	0.143366
1069.075163	0.144252
1069.239540	0.144419
1069.403899	0.144083
1069.568240	0.143138
1069.732562	0.142046
1069.896866	0.142335
1070.061152	0.141497
1070.225420	0.140009
1070.389670	0.139538
1070.553901	0.137723
1070.718114	0.138600
1070.882309	0.138940
1071.046486	0.141768
1071.210644	0.144033
1071.374784	0.142713
1071.538906	0.142489
1071.703010	0.146075
1071.867096	0.146818
1072.031163	0.148848
1072.195212	0.148199
1072.359243	0.148604
1072.523256	0.146775
1072.687250	0.146446
1072.851226	0.144165
1073.015184	0.143585
1073.179124	0.139679
1073.343045	0.139547
1073.506949	0.142023
1073.670834	0.143273
1073.834701	0.141611
1073.998549	0.140271
1074.162380	0.137955
1074.326192	0.136866
1074.489986	0.139039
1074.653761	0.140595
1074.817519	0.138692
1074.981258	0.136437
1075.144979	0.135966
1075.308682	0.134866
1075.472367	0.135796
1075.636033	0.135790
1075.799681	0.139767
1075.963311	0.138334
1076.126923	0.136410
1076.290516	0.138077
1076.454092	0.138982
1076.617649	0.137095
1076.781187	0.136211
1076.944708	0.133681
1077.108210	0.133984
1077.271695	0.132432
1077.435160	0.131446
1077.598608	0.132169
1077.762038	0.129833
1077.925449	0.128685
1078.088842	0.130365
1078.252217	0.133436
1078.415573	0.136415
1078.578912	0.135623
1078.742232	0.135818
1078.905534	0.138875
1079.068817	0.139140
1079.232083	0.140556
1079.395330	0.142072
1079.558559	0.139896
1079.721770	0.138967
1079.884962	0.139257
1080.048136	0.141068
1080.211293	0.140589
1080.374430	0.140600
1080.537550	0.141925
1080.700651	0.142725
1080.863735	0.140685
1081.026800	0.142518
1081.189846	0.143117
1081.352875	0.142605
1081.515885	0.143219
1081.678877	0.141201
1081.841851	0.139862
1082.004807	0.141315
1082.167744	0.140144
1082.330663	0.139533
1082.493564	0.142309
1082.656447	0.142357
1082.819312	0.141204
1082.982158	0.140833
1083.144986	0.143271
1083.307796	0.142551
1083.470587	0.142494
1083.633361	0.142793
1083.796116	0.144057
1083.958853	0.142176
1084.121571	0.143334
1084.284272	0.144124
1084.446954	0.144340
1084.609618	0.145849
1084.772264	0.145579
1084.934892	0.145530
1085.097501	0.143068
1085.260092	0.141463
1085.422665	0.141325
1085.585220	0.140222
1085.747756	0.139985
1085.910274	0.140015
1086.072774	0.140495
1086.235256	0.142615
1086.397720	0.140901
1086.560165	0.145366
1086.722592	0.147649
1086.885001	0.147641
1087.047392	0.147769
1087.209764	0.146502
1087.372119	0.144309
1087.534455	0.144073
1087.696772	0.143496
1087.859072	0.142493
1088.021353	0.143974
1088.183616	0.143319
1088.345861	0.142618
1088.508088	0.143073
1088.670296	0.143891
1088.832486	0.147012
1088.994658	0.147607
1089.156812	0.145406
1089.318948	0.145303
1089.481065	0.144041
1089.643164	0.144005
1089.805245	0.143376
1089.967308	0.142644
1090.129352	0.142690
1090.291378	0.143372
1090.453386	0.142927
1090.615376	0.145045
1090.777347	0.144973
1090.939301	0.143184
1091.101236	0.142410
1091.263153	0.143907
1091.425051	0.147127
1091.586932	0.149556
1091.748794	0.149828
1091.910638	0.151144
1092.072463	0.154667
1092.234271	0.154853
1092.396060	0.154979
1092.557831	0.152745
1092.719584	0.152023
1092.881319	0.148004
1093.043035	0.145977
1093.204733	0.144215
1093.366413	0.142478
1093.528075	0.140034
1093.689718	0.138115
1093.851343	0.139522
1094.012950	0.141255
1094.174539	0.141833
1094.336110	0.144867
1094.497662	0.144791
1094.659196	0.144338
1094.820712	0.143852
1094.982210	0.143594
1095.143689	0.148372
1095.305151	0.146750
1095.466594	0.149098
1095.628018	0.151225
1095.789425	0.150117
1095.950813	0.148395
1096.112183	0.149490
1096.273535	0.148153
1096.434869	0.148890
1096.596184	0.149734
1096.757482	0.152093
1096.918761	0.150480
1097.080021	0.148640
1097.241264	0.150687
1097.402488	0.154758
1097.563694	0.154743
1097.724882	0.156074
1097.886052	0.153875
1098.047203	0.150006
1098.208336	0.147990
1098.369451	0.147576
1098.530548	0.149863
1098.691627	0.145075
1098.852687	0.143193
1099.013729	0.143200
1099.174753	0.147506
1099.335758	0.146436
1099.496746	0.150749
1099.657715	0.150664
1099.818666	0.153509
1099.979599	0.151665
1100.140513	0.155214
1100.301409	0.157638
1100.462287	0.156807
1100.623147	0.149513
1100.783989	0.151773
1100.944812	0.148961
1101.105617	0.148292
1101.266404	0.150231
1101.427173	0.148636
1101.587923	0.148562
1101.748656	0.145539
1101.909370	0.146989
1102.070066	0.150868
1102.230743	0.151856
1102.391403	0.152978
1102.552044	0.155067
1102.712667	0.151170
1102.873271	0.154410
1103.033858	0.155935
1103.194426	0.156624
1103.354976	0.157651
1103.515508	0.155857
1103.676021	0.153698
1103.836517	0.150290
1103.996994	0.151710
1104.157453	0.155050
1104.317893	0.152107
1104.478316	0.150277
1104.638720	0.152834
1104.799106	0.155532
1104.959474	0.157706
1105.119823	0.158352
1105.280155	0.159901
1105.440468	0.158661
1105.600763	0.155693
1105.761039	0.155213
1105.921298	0.154136
1106.081538	0.152300
1106.241760	0.148726
1106.401964	0.151300
1106.562149	0.151023
1106.722316	0.153835
1106.882465	0.153620
1107.042596	0.154153
1107.202709	0.158124
1107.362803	0.157649
1107.522879	0.155095
1107.682937	0.151864
1107.842977	0.147405
1108.002999	0.147902
1108.163002	0.147431
1108.322987	0.146120
1108.482954	0.144427
1108.642902	0.141561
1108.802833	0.141933
1108.962745	0.145025
1109.122639	0.148172
1109.282515	0.149656
1109.442372	0.149844
1109.602211	0.149070
1109.762032	0.156809
1109.921835	0.162385
1110.081620	0.166139
1110.241386	0.168134
1110.401134	0.167420
1110.560864	0.167523
1110.720576	0.169689
1110.880269	0.169842
1111.039945	0.171840
1111.199602	0.163979
1111.359240	0.159156
1111.518861	0.156190
1111.678463	0.155016
1111.838047	0.158067
1111.997613	0.158439
1112.157161	0.161092
1112.316690	0.160840
1112.476202	0.156346
1112.635695	0.158457
1112.795169	0.163078
1112.954626	0.162676
1113.114064	0.166097
1113.273484	0.157961
1113.432886	0.156044
1113.592270	0.153348
1113.751635	0.153227
1113.910983	0.158476
1114.070312	0.158732
1114.229622	0.152971
1114.388915	0.152717
1114.548189	0.150457
1114.707445	0.155277
1114.866683	0.155246
1115.025903	0.151922
1115.185104	0.153929
1115.344287	0.150387
1115.503452	0.145943
1115.662599	0.151268
1115.821727	0.149092
1115.980838	0.154273
1116.139930	0.159756
1116.299004	0.158694
1116.458059	0.159280
1116.617097	0.155587
1116.776116	0.156824
1116.935117	0.162695
1117.094099	0.157801
1117.253064	0.158497
1117.412010	0.152445
1117.570938	0.146765
1117.729848	0.154680
1117.888740	0.153257
1118.047613	0.149767
1118.206468	0.149492
1118.365305	0.148781
1118.524124	0.153979
1118.682924	0.156086
1118.841707	0.159147
1119.000471	0.159718
1119.159216	0.154807
1119.317944	0.156910
1119.476653	0.161944
1119.635344	0.163979
1119.794017	0.163400
1119.952672	0.159529
1120.111308	0.157356
1120.269927	0.153163
1120.428527	0.155278
1120.587108	0.154064
1120.745672	0.156505
1120.904217	0.151998
1121.062744	0.150882
1121.221253	0.148708
1121.379744	0.146425
1121.538216	0.150116
1121.696671	0.150600
1121.855107	0.147510
1122.013524	0.150229
1122.171924	0.145548
1122.330305	0.152323
1122.488668	0.152241
1122.647013	0.153104
1122.805340	0.155334
1122.963648	0.157762
1123.121938	0.159401
1123.280210	0.163183
1123.438464	0.159179
1123.596700	0.161607
1123.754917	0.155741
1123.913116	0.157779
1124.071297	0.162411
1124.229459	0.165913
1124.387604	0.159828
1124.545730	0.157942
1124.703838	0.153447
1124.861928	0.155935
1125.019999	0.157414
1125.178052	0.160563
1125.336088	0.155943
1125.494104	0.148378
1125.652103	0.147655
1125.810083	0.149942
1125.968045	0.148921
1126.125989	0.153545
1126.283915	0.148115
1126.441823	0.147436
1126.599712	0.147589
1126.757583	0.150704
1126.915436	0.150500
1127.073270	0.147074
1127.231087	0.146218
1127.388885	0.147727
1127.546665	0.150522
1127.704426	0.154686
1127.862170	0.152913
1128.019895	0.157348
1128.177602	0.154230
1128.335291	0.159398
1128.492961	0.158715
1128.650614	0.157981
1128.808248	0.161026
1128.965864	0.151489
1129.123461	0.149931
1129.281041	0.156518
1129.438602	0.151807
1129.596145	0.153569
1129.753670	0.149518
1129.911176	0.151241
1130.068665	0.154346
1130.226135	0.152551
1130.383587	0.160371
1130.541020	0.161857
1130.698436	0.156898
1130.855833	0.158098
1131.013212	0.162531
1131.170573	0.163437
1131.327915	0.171514
1131.485239	0.170306
1131.642545	0.168039
1131.799833	0.168917
1131.957103	0.169228
1132.114354	0.168937
1132.271588	0.173338
1132.428803	0.167405
1132.585999	0.168811
1132.743178	0.160206
1132.900338	0.158717
1133.057480	0.160281
1133.214604	0.154246
1133.371710	0.156294
1133.528797	0.159226
1133.685866	0.153787
1133.842917	0.157100
1133.999950	0.161761
1134.156964	0.161300
1134.313960	0.162334
1134.470938	0.162699
1134.627898	0.164412
1134.784840	0.167164
1134.941763	0.164314
1135.098668	0.167370
1135.255555	0.166039
1135.412424	0.166162
1135.569274	0.166836
1135.726107	0.167357
1135.882921	0.163988
1136.039716	0.161602
1136.196494	0.152670
1136.353253	0.147982
1136.509995	0.146471
1136.666717	0.143538
1136.823422	0.144840
1136.980109	0.145762
1137.136777	0.149056
1137.293427	0.157380
1137.450059	0.159883
1137.606672	0.163220
1137.763267	0.167381
1137.919844	0.168651
1138.076403	0.171889
1138.232944	0.163584
1138.389466	0.164679
1138.545971	0.167691
1138.702457	0.167679
1138.858924	0.162492
1139.015374	0.163394
1139.171805	0.163321
1139.328218	0.158768
1139.484613	0.160699
1139.640990	0.160161
1139.797348	0.159925
1139.953688	0.153107
1140.110010	0.156991
1140.266314	0.163258
1140.422600	0.165678
1140.578867	0.158439
1140.735116	0.161245
1140.891347	0.158308
1141.047559	0.164520
1141.203754	0.159439
1141.359930	0.154196
1141.516088	0.141396
1141.672228	0.141294
1141.828349	0.139575
1141.984452	0.147382
1142.140537	0.144973
1142.296604	0.141214
1142.452653	0.139150
1142.608683	0.148144
1142.764695	0.153369
1142.920689	0.152234
1143.076665	0.152160
1143.232622	0.152470
1143.388562	0.153163
1143.544483	0.152409
1143.700385	0.156071
1143.856270	0.158771
1144.012136	0.153425
1144.167985	0.152762
1144.323814	0.160059
1144.479626	0.159188
1144.635420	0.154418
1144.791195	0.151885
1144.946952	0.158374
1145.102691	0.160183
1145.258411	0.154737
1145.414113	0.154390
1145.569798	0.160497
1145.725463	0.157307
1145.881111	0.149358
1146.036741	0.160870
1146.192352	0.154403
1146.347945	0.153716
1146.503519	0.149968
1146.659076	0.157586
1146.814614	0.162989
1146.970134	0.152967
1147.125636	0.157587
1147.281120	0.167841
1147.436585	0.156158
1147.592032	0.159476
1147.747461	0.160073
1147.902872	0.164605
1148.058265	0.160236
1148.213639	0.154421
1148.368995	0.160399
1148.524333	0.154373
1148.679653	0.142607
1148.834954	0.146529
1148.990237	0.147923
1149.145502	0.147157
1149.300749	0.140287
1149.455977	0.138480
1149.611188	0.137692
1149.766380	0.138345
1149.921553	0.139976
1150.076709	0.146201
1150.231846	0.146602
1150.386966	0.150901
1150.542066	0.149657
1150.697149	0.161217
1150.852214	0.162382
1151.007260	0.164864
1151.162288	0.163184
1151.317298	0.161377
1151.472289	0.170033
1151.627263	0.167440
1151.782218	0.168811
1151.937155	0.172865
1152.092073	0.158859
1152.246974	0.158387
1152.401856	0.154274
1152.556720	0.156146
1152.711566	0.150933
1152.866393	0.141123
1153.021203	0.141806
1153.175994	0.141504
1153.330767	0.137178
1153.485521	0.144042
1153.640258	0.149452
1153.794976	0.152126
1153.949676	0.146607
1154.104358	0.158998
1154.259021	0.163201
1154.413667	0.167794
1154.568294	0.160029
1154.722903	0.165575
1154.877493	0.160357
1155.032066	0.147465
1155.186620	0.149776
1155.341156	0.156619
1155.495674	0.142107
1155.650173	0.148288
1155.804654	0.145725
1155.959118	0.154264
1156.113562	0.142197
1156.267989	0.143814
1156.422397	0.153121
1156.576788	0.153644
1156.731160	0.156590
1156.885513	0.168481
1157.039849	0.162462
1157.194166	0.161142
1157.348465	0.155888
1157.502746	0.167434
1157.657009	0.170417
1157.811253	0.166825
1157.965479	0.159858
1158.119687	0.155643
1158.273877	0.145990
1158.428048	0.152395
1158.582201	0.149234
1158.736337	0.146273
1158.890453	0.141762
1159.044552	0.141863
1159.198632	0.140548
1159.352694	0.141539
1159.506738	0.143031
1159.660764	0.155963
1159.814771	0.145893
1159.968761	0.153359
1160.122732	0.158658
1160.276685	0.153817
1160.430619	0.158486
1160.584535	0.153618
1160.738434	0.157609
1160.892313	0.154643
1161.046175	0.145889
1161.200019	0.143129
1161.353844	0.146872
1161.507651	0.146525
1161.661440	0.147793
1161.815210	0.148566
1161.968962	0.153305
1162.122697	0.149778
1162.276412	0.149355
1162.430110	0.149019
1162.583789	0.155631
1162.737451	0.134031
1162.891094	0.127616
1163.044718	0.139377
1163.198325	0.131451
1163.351913	0.139859
1163.505483	0.145113
1163.659035	0.151897
1163.812569	0.154284
1163.966084	0.151907
1164.119581	0.167734
1164.273060	0.160787
1164.426521	0.151616
1164.579964	0.151909
1164.733388	0.141342
1164.886794	0.138289
1165.040182	0.130258
1165.193551	0.139558
1165.346903	0.147709
1165.500236	0.153820
1165.653551	0.167580
1165.806848	0.166793
1165.960126	0.182502
1166.113386	0.183019
1166.266628	0.180351
1166.419852	0.169242
1166.573058	0.162498
1166.726245	0.155102
1166.879414	0.151999
1167.032565	0.154704
1167.185698	0.154883
1167.338812	0.139762
1167.491909	0.137293
1167.644987	0.137212
1167.798046	0.142967
1167.951088	0.135589
1168.104111	0.145079
1168.257117	0.148810
1168.410103	0.144991
1168.563072	0.135478
1168.716023	0.137684
1168.868955	0.145333
1169.021869	0.150870
1169.174765	0.153690
1169.327642	0.154921
1169.480501	0.143575
1169.633343	0.138090
1169.786165	0.142024
1169.938970	0.158808
1170.091757	0.163610
1170.244525	0.150975
1170.397275	0.148537
1170.550007	0.154865
1170.702720	0.159081
1170.855415	0.157217
1171.008092	0.154248
1171.160751	0.152647
1171.313392	0.147764
1171.466014	0.101852
1171.618619	0.158633
1171.771205	0.158633
1171.923772	0.158633
