sample name	sample
index	870
start time	 04-08-2021  01:26:50 PM


Wavelength (nm)	Absorbance
494.344910	-0.032037
494.563924	-0.032037
494.782919	-0.032037
495.001897	0.023965
495.220856	-0.001978
495.439797	-0.006842
495.658719	0.000131
495.877624	0.003731
496.096510	-0.004492
496.315378	-0.007788
496.534227	-0.007833
496.753059	-0.008469
496.971872	-0.010563
497.190667	0.016816
497.409444	0.036846
497.628203	0.042509
497.846943	0.047107
498.065665	0.050808
498.284369	0.052541
498.503055	0.054414
498.721723	0.054539
498.940372	0.055678
499.159003	0.056141
499.377616	0.055885
499.596210	0.055645
499.814787	0.055266
500.033345	0.055282
500.251885	0.055925
500.470406	0.056360
500.688910	0.056302
500.907395	0.055332
501.125862	0.055217
501.344311	0.055508
501.562742	0.056200
501.781154	0.056492
501.999548	0.057153
502.217924	0.056375
502.436282	0.056902
502.654621	0.057800
502.872942	0.058615
503.091245	0.058428
503.309530	0.059342
503.527797	0.059824
503.746045	0.059964
503.964275	0.058995
504.182487	0.060156
504.400681	0.059699
504.618856	0.059789
504.837013	0.060364
505.055152	0.061419
505.273273	0.061062
505.491376	0.061423
505.709460	0.061401
505.927526	0.061865
506.145574	0.061333
506.363604	0.061035
506.581615	0.061345
506.799608	0.061133
507.017583	0.061236
507.235540	0.060872
507.453478	0.060383
507.671399	0.060059
507.889301	0.060702
508.107185	0.061242
508.325050	0.061427
508.542898	0.061098
508.760727	0.061655
508.978538	0.061297
509.196330	0.062327
509.414105	0.062753
509.631861	0.063481
509.849599	0.063789
510.067319	0.064233
510.285021	0.063956
510.502704	0.064217
510.720369	0.063776
510.938016	0.063349
511.155645	0.062474
511.373255	0.062648
511.590848	0.062777
511.808422	0.062442
512.025977	0.062490
512.243515	0.064251
512.461034	0.064524
512.678536	0.064369
512.896018	0.064836
513.113483	0.066469
513.330930	0.066491
513.548358	0.067319
513.765768	0.067630
513.983160	0.067304
514.200533	0.066007
514.417889	0.065794
514.635226	0.066225
514.852545	0.067180
515.069845	0.066827
515.287128	0.067094
515.504392	0.067149
515.721638	0.067321
515.938866	0.067360
516.156075	0.068377
516.373267	0.068614
516.590440	0.068911
516.807594	0.068414
517.024731	0.068499
517.241850	0.068090
517.458950	0.067508
517.676032	0.067272
517.893095	0.067459
518.110141	0.067976
518.327168	0.068390
518.544177	0.068375
518.761168	0.068450
518.978141	0.068572
519.195095	0.069351
519.412031	0.069676
519.628949	0.069899
519.845849	0.069781
520.062731	0.069538
520.279594	0.069726
520.496439	0.069722
520.713266	0.070565
520.930074	0.070622
521.146865	0.070224
521.363637	0.070244
521.580391	0.070536
521.797127	0.071056
522.013844	0.070618
522.230543	0.070288
522.447224	0.071080
522.663887	0.071280
522.880532	0.071351
523.097158	0.071725
523.313766	0.071726
523.530356	0.072347
523.746928	0.072835
523.963481	0.073630
524.180017	0.073748
524.396534	0.073087
524.613032	0.072821
524.829513	0.072744
525.045975	0.072653
525.262420	0.073293
525.478845	0.072895
525.695253	0.073085
525.911643	0.072873
526.128014	0.073142
526.344367	0.073635
526.560702	0.073661
526.777018	0.073414
526.993316	0.074045
527.209597	0.074036
527.425858	0.074176
527.642102	0.074270
527.858328	0.074742
528.074535	0.075658
528.290724	0.075804
528.506894	0.076867
528.723047	0.077926
528.939181	0.078117
529.155297	0.078370
529.371395	0.078858
529.587475	0.078951
529.803536	0.078701
530.019579	0.078528
530.235604	0.078706
530.451611	0.078223
530.667600	0.078232
530.883570	0.078470
531.099522	0.079125
531.315456	0.079077
531.531372	0.079627
531.747269	0.080077
531.963148	0.080420
532.179009	0.080583
532.394852	0.080496
532.610676	0.081003
532.826482	0.080805
533.042271	0.080188
533.258040	0.080322
533.473792	0.079986
533.689525	0.080141
533.905240	0.079947
534.120937	0.080039
534.336616	0.080116
534.552277	0.080560
534.767919	0.080608
534.983543	0.080978
535.199149	0.081040
535.414736	0.081195
535.630306	0.081112
535.845857	0.081825
536.061390	0.082369
536.276904	0.082985
536.492401	0.082329
536.707879	0.082893
536.923339	0.083219
537.138781	0.083729
537.354204	0.084543
537.569610	0.084879
537.784997	0.084862
538.000366	0.085290
538.215716	0.085403
538.431049	0.085969
538.646363	0.086144
538.861659	0.086718
539.076937	0.086600
539.292196	0.085978
539.507438	0.086378
539.722661	0.086476
539.937866	0.086588
540.153052	0.087102
540.368221	0.087243
540.583371	0.087676
540.798503	0.087464
541.013617	0.088083
541.228712	0.088372
541.443789	0.088487
541.658848	0.088585
541.873889	0.088971
542.088912	0.089287
542.303916	0.089166
542.518902	0.089123
542.733870	0.089462
542.948820	0.089361
543.163752	0.089552
543.378665	0.089905
543.593560	0.090231
543.808437	0.089615
544.023295	0.089443
544.238136	0.090024
544.452958	0.089744
544.667762	0.089706
544.882548	0.090145
545.097315	0.090221
545.312064	0.090275
545.526795	0.090423
545.741508	0.091177
545.956203	0.091497
546.170879	0.091368
546.385537	0.091920
546.600177	0.092225
546.814799	0.092147
547.029402	0.092482
547.243988	0.092315
547.458555	0.092337
547.673103	0.092378
547.887634	0.092194
548.102146	0.092631
548.316640	0.092917
548.531116	0.092954
548.745574	0.093073
548.960013	0.093137
549.174435	0.093406
549.388838	0.093595
549.603222	0.092863
549.817589	0.093136
550.031937	0.093105
550.246267	0.093139
550.460579	0.093332
550.674873	0.093796
550.889148	0.093790
551.103405	0.093642
551.317644	0.093528
551.531865	0.094355
551.746068	0.094377
551.960252	0.094414
552.174418	0.094244
552.388566	0.094329
552.602696	0.094055
552.816807	0.094249
553.030900	0.094693
553.244975	0.095366
553.459032	0.095311
553.673070	0.095617
553.887091	0.096057
554.101093	0.096363
554.315077	0.096491
554.529042	0.096349
554.742990	0.096481
554.956919	0.096818
555.170830	0.096412
555.384722	0.096544
555.598597	0.096571
555.812453	0.096522
556.026291	0.096977
556.240111	0.097212
556.453913	0.097589
556.667696	0.097769
556.881461	0.097627
557.095208	0.098411
557.308937	0.098501
557.522647	0.098418
557.736339	0.098332
557.950013	0.098114
558.163669	0.097892
558.377307	0.097773
558.590926	0.097810
558.804527	0.098009
559.018110	0.097464
559.231675	0.097843
559.445221	0.098584
559.658749	0.099228
559.872259	0.099289
560.085751	0.099780
560.299225	0.100672
560.512680	0.101047
560.726117	0.101033
560.939536	0.101329
561.152937	0.101244
561.366319	0.100887
561.579683	0.100847
561.793029	0.101066
562.006357	0.100756
562.219667	0.100495
562.432958	0.100520
562.646231	0.100616
562.859486	0.100866
563.072723	0.100964
563.285941	0.100990
563.499141	0.100604
563.712323	0.100736
563.925487	0.100981
564.138632	0.100977
564.351760	0.100875
564.564869	0.100875
564.777960	0.100824
564.991032	0.100891
565.204087	0.100925
565.417123	0.101189
565.630141	0.101312
565.843140	0.101477
566.056122	0.101590
566.269085	0.101901
566.482030	0.102128
566.694957	0.102060
566.907866	0.102244
567.120756	0.102344
567.333628	0.102317
567.546482	0.102247
567.759318	0.102357
567.972135	0.102615
568.184935	0.102476
568.397716	0.102374
568.610478	0.102556
568.823223	0.102653
569.035949	0.103140
569.248657	0.103147
569.461347	0.103283
569.674019	0.103295
569.886672	0.103236
570.099308	0.103493
570.311925	0.103740
570.524523	0.103996
570.737104	0.103830
570.949666	0.103961
571.162210	0.104353
571.374736	0.104069
571.587244	0.104140
571.799733	0.104102
572.012205	0.104091
572.224658	0.104059
572.437092	0.104108
572.649509	0.104151
572.861907	0.104210
573.074287	0.104445
573.286649	0.105056
573.498993	0.105175
573.711318	0.105632
573.923625	0.105958
574.135914	0.106094
574.348185	0.106261
574.560438	0.106600
574.772672	0.106525
574.984888	0.106568
575.197086	0.106288
575.409266	0.106828
575.621427	0.106841
575.833570	0.107023
576.045695	0.107254
576.257802	0.106950
576.469890	0.106996
576.681961	0.107110
576.894013	0.106947
577.106046	0.107138
577.318062	0.107106
577.530059	0.107096
577.742039	0.106951
577.954000	0.107117
578.165942	0.107349
578.377867	0.107464
578.589773	0.107687
578.801661	0.108335
579.013531	0.108577
579.225382	0.108519
579.437216	0.108445
579.649031	0.108486
579.860828	0.108412
580.072606	0.108493
580.284367	0.108821
580.496109	0.108800
580.707833	0.108459
580.919539	0.108474
581.131227	0.108448
581.342896	0.108697
581.554547	0.108825
581.766180	0.108918
581.977795	0.109134
582.189391	0.109113
582.400969	0.108784
582.612529	0.109242
582.824071	0.109472
583.035595	0.109457
583.247100	0.109635
583.458587	0.109713
583.670056	0.109819
583.881506	0.110128
584.092939	0.110634
584.304353	0.111061
584.515749	0.110859
584.727127	0.110578
584.938486	0.110675
585.149828	0.110666
585.361151	0.110861
585.572456	0.110724
585.783742	0.110594
585.995011	0.110393
586.206261	0.110516
586.417493	0.110442
586.628706	0.110753
586.839902	0.110944
587.051079	0.111109
587.262238	0.111160
587.473379	0.111414
587.684502	0.111444
587.895606	0.111484
588.106692	0.111348
588.317760	0.111409
588.528810	0.111348
588.739841	0.111579
588.950855	0.111278
589.161850	0.111475
589.372827	0.111531
589.583785	0.111640
589.794726	0.111653
590.005648	0.111818
590.216552	0.111905
590.427437	0.111803
590.638305	0.112004
590.849154	0.112316
591.059985	0.112324
591.270798	0.112639
591.481592	0.112870
591.692369	0.112783
591.903127	0.113110
592.113867	0.113267
592.324588	0.113807
592.535292	0.113572
592.745977	0.113825
592.956644	0.113877
593.167293	0.114164
593.377923	0.114388
593.588536	0.114734
593.799130	0.114646
594.009706	0.114679
594.220263	0.114429
594.430803	0.114860
594.641324	0.114942
594.851827	0.114932
595.062312	0.114747
595.272778	0.114459
595.483227	0.114428
595.693657	0.114621
595.904069	0.114914
596.114462	0.115103
596.324838	0.114711
596.535195	0.114617
596.745534	0.114708
596.955855	0.114813
597.166157	0.115240
597.376441	0.115054
597.586707	0.114945
597.796955	0.114892
598.007185	0.115246
598.217396	0.115720
598.427589	0.115826
598.637764	0.116002
598.847921	0.116169
599.058060	0.116107
599.268180	0.116527
599.478282	0.116770
599.688366	0.116643
599.898431	0.116558
600.108479	0.116424
600.318508	0.116768
600.528519	0.116912
600.738511	0.116731
600.948486	0.116795
601.158442	0.116843
601.368380	0.117018
601.578300	0.117404
601.788202	0.117360
601.998085	0.117465
602.207950	0.117393
602.417797	0.117553
602.627626	0.117841
602.837436	0.117855
603.047228	0.118016
603.257002	0.117909
603.466758	0.117870
603.676496	0.117777
603.886215	0.117939
604.095916	0.117712
604.305599	0.117735
604.515264	0.117838
604.724910	0.118106
604.934538	0.118170
605.144148	0.118319
605.353740	0.118495
605.563314	0.118713
605.772869	0.118771
605.982406	0.119105
606.191925	0.119141
606.401425	0.119325
606.610908	0.119224
606.820372	0.119265
607.029818	0.119188
607.239246	0.119246
607.448655	0.119806
607.658047	0.119712
607.867420	0.119709
608.076775	0.119787
608.286111	0.119704
608.495430	0.119689
608.704730	0.119738
608.914012	0.119842
609.123275	0.119952
609.332521	0.119747
609.541748	0.119759
609.750957	0.120127
609.960148	0.120113
610.169321	0.120302
610.378475	0.120445
610.587611	0.120612
610.796729	0.120559
611.005829	0.120724
611.214910	0.120768
611.423974	0.121144
611.633019	0.121000
611.842045	0.120829
612.051054	0.120640
612.260044	0.120610
612.469017	0.120670
612.677970	0.120894
612.886906	0.120578
613.095824	0.120830
613.304723	0.120805
613.513604	0.120767
613.722467	0.121107
613.931311	0.121420
614.140138	0.121782
614.348946	0.121825
614.557736	0.122007
614.766507	0.122314
614.975261	0.122120
615.183996	0.122186
615.392713	0.122451
615.601412	0.122268
615.810092	0.122315
616.018754	0.122185
616.227399	0.122207
616.436024	0.122173
616.644632	0.122110
616.853222	0.122196
617.061793	0.122242
617.270346	0.122149
617.478880	0.122408
617.687397	0.122476
617.895895	0.122655
618.104375	0.122799
618.312837	0.122948
618.521281	0.123121
618.729706	0.123195
618.938113	0.123297
619.146502	0.123462
619.354873	0.123589
619.563226	0.123774
619.771560	0.124090
619.979876	0.123973
620.188174	0.124079
620.396453	0.124140
620.604715	0.124617
620.812958	0.124835
621.021183	0.125013
621.229390	0.125216
621.437578	0.125174
621.645748	0.124951
621.853900	0.125388
622.062034	0.125532
622.270150	0.125608
622.478247	0.125392
622.686326	0.125423
622.894387	0.125467
623.102430	0.125418
623.310454	0.125418
623.518461	0.125491
623.726449	0.125318
623.934418	0.125262
624.142370	0.125602
624.350303	0.125543
624.558218	0.125762
624.766115	0.125597
624.973994	0.125841
625.181855	0.125924
625.389697	0.126077
625.597521	0.126370
625.805327	0.126546
626.013114	0.126473
626.220883	0.126747
626.428634	0.126578
626.636367	0.126930
626.844082	0.126856
627.051778	0.126938
627.259457	0.127039
627.467117	0.126991
627.674758	0.127272
627.882382	0.127253
628.089987	0.127152
628.297574	0.127310
628.505143	0.127446
628.712694	0.127553
628.920226	0.127558
629.127740	0.127592
629.335236	0.127445
629.542714	0.127179
629.750174	0.127242
629.957615	0.127495
630.165038	0.127649
630.372443	0.127280
630.579829	0.127255
630.787198	0.127409
630.994548	0.127417
631.201880	0.127670
631.409194	0.127825
631.616489	0.128020
631.823766	0.128172
632.031025	0.128266
632.238266	0.128852
632.445489	0.129110
632.652693	0.129257
632.859879	0.129552
633.067047	0.129648
633.274197	0.129662
633.481329	0.129710
633.688442	0.129710
633.895537	0.129549
634.102614	0.129136
634.309672	0.129173
634.516713	0.129510
634.723735	0.129774
634.930739	0.129892
635.137724	0.130262
635.344692	0.130453
635.551641	0.130573
635.758572	0.130581
635.965485	0.130890
636.172379	0.131022
636.379256	0.130902
636.586114	0.130938
636.792954	0.131116
636.999775	0.130969
637.206579	0.130977
637.413364	0.131097
637.620131	0.131267
637.826880	0.131436
638.033610	0.131478
638.240323	0.131356
638.447017	0.131112
638.653692	0.131109
638.860350	0.131095
639.066990	0.131205
639.273611	0.131378
639.480214	0.131572
639.686798	0.131615
639.893365	0.131520
640.099913	0.131731
640.306443	0.132064
640.512955	0.132082
640.719449	0.132365
640.925924	0.132536
641.132381	0.132439
641.338820	0.132652
641.545241	0.132816
641.751644	0.133141
641.958028	0.133320
642.164394	0.133488
642.370742	0.133791
642.577071	0.134116
642.783383	0.134176
642.989676	0.134300
643.195951	0.134340
643.402207	0.134490
643.608446	0.134607
643.814666	0.134842
644.020868	0.134641
644.227052	0.134707
644.433218	0.134609
644.639365	0.134732
644.845494	0.135016
645.051605	0.135190
645.257698	0.135093
645.463772	0.135215
645.669828	0.135232
645.875866	0.135203
646.081886	0.135264
646.287888	0.135377
646.493871	0.135304
646.699836	0.135289
646.905783	0.135295
647.111712	0.135756
647.317622	0.135870
647.523514	0.135838
647.729388	0.136115
647.935244	0.136089
648.141082	0.136277
648.346901	0.136674
648.552702	0.136911
648.758485	0.136949
648.964250	0.136919
649.169996	0.137105
649.375724	0.137427
649.581434	0.137309
649.787126	0.137650
649.992800	0.137713
650.198455	0.137568
650.404092	0.137409
650.609711	0.137596
650.815311	0.137722
651.020894	0.137865
651.226458	0.137736
651.432004	0.138188
651.637532	0.138286
651.843041	0.138385
652.048532	0.138591
652.254006	0.138977
652.459460	0.139293
652.664897	0.139343
652.870315	0.139288
653.075716	0.139497
653.281097	0.139704
653.486461	0.139675
653.691807	0.139618
653.897134	0.139841
654.102443	0.139835
654.307734	0.139855
654.513006	0.139991
654.718261	0.140303
654.923497	0.140205
655.128715	0.140167
655.333915	0.140407
655.539096	0.140657
655.744259	0.140547
655.949404	0.140743
656.154531	0.140772
656.359640	0.140791
656.564730	0.140779
656.769802	0.141241
656.974856	0.141365
657.179892	0.141393
657.384909	0.141472
657.589908	0.141926
657.794889	0.142001
657.999852	0.142183
658.204797	0.142232
658.409723	0.142200
658.614631	0.142148
658.819521	0.142414
659.024393	0.142450
659.229246	0.142434
659.434081	0.142323
659.638898	0.142467
659.843697	0.142556
660.048478	0.142828
660.253240	0.142928
660.457984	0.143022
660.662710	0.143019
660.867417	0.143090
661.072107	0.143522
661.276778	0.143592
661.481431	0.143544
661.686066	0.143716
661.890682	0.143835
662.095281	0.144161
662.299861	0.144581
662.504422	0.144919
662.708966	0.145129
662.913491	0.145107
663.117999	0.145187
663.322488	0.145440
663.526958	0.145615
663.731411	0.145571
663.935845	0.145431
664.140261	0.145271
664.344659	0.145391
664.549038	0.145460
664.753400	0.145489
664.957743	0.145677
665.162068	0.145801
665.366375	0.145646
665.570663	0.145942
665.774933	0.146200
665.979185	0.146332
666.183419	0.146305
666.387635	0.146475
666.591832	0.146789
666.796011	0.146958
667.000172	0.147123
667.204315	0.147561
667.408439	0.147817
667.612545	0.147904
667.816634	0.148384
668.020703	0.148438
668.224755	0.148499
668.428788	0.148463
668.632803	0.148677
668.836800	0.148503
669.040779	0.148386
669.244739	0.148401
669.448681	0.148509
669.652605	0.148377
669.856511	0.148451
670.060399	0.148645
670.264268	0.148815
670.468119	0.148906
670.671952	0.149357
670.875767	0.149554
671.079563	0.149713
671.283341	0.149870
671.487101	0.149756
671.690843	0.149767
671.894567	0.149755
672.098272	0.149718
672.301959	0.149603
672.505628	0.149595
672.709278	0.149746
672.912911	0.149794
673.116525	0.149950
673.320121	0.150283
673.523699	0.150402
673.727258	0.150584
673.930799	0.150821
674.134322	0.150957
674.337827	0.151007
674.541314	0.150994
674.744782	0.151137
674.948232	0.151171
675.151664	0.151130
675.355078	0.151426
675.558474	0.151727
675.761851	0.151946
675.965210	0.152043
676.168551	0.152318
676.371873	0.152463
676.575178	0.152571
676.778464	0.152745
676.981732	0.152885
677.184981	0.153036
677.388213	0.153152
677.591426	0.153097
677.794621	0.153218
677.997798	0.153044
678.200956	0.153191
678.404097	0.153272
678.607219	0.153332
678.810323	0.153466
679.013408	0.153617
679.216476	0.153453
679.419525	0.153513
679.622556	0.153677
679.825569	0.153964
680.028563	0.154027
680.231540	0.153838
680.434498	0.154011
680.637438	0.154183
680.840359	0.154097
681.043263	0.154209
681.246148	0.154499
681.449015	0.154683
681.651864	0.154642
681.854694	0.154810
682.057506	0.155153
682.260301	0.155217
682.463076	0.155128
682.665834	0.155349
682.868573	0.155470
683.071295	0.155544
683.273998	0.155540
683.476682	0.155828
683.679349	0.155965
683.881997	0.156239
684.084627	0.156307
684.287239	0.156550
684.489833	0.156520
684.692408	0.156779
684.894965	0.156705
685.097504	0.156860
685.300025	0.156975
685.502527	0.156951
685.705012	0.157056
685.907478	0.157157
686.109925	0.157482
686.312355	0.157531
686.514766	0.157517
686.717159	0.157758
686.919534	0.157826
687.121891	0.157790
687.324230	0.158038
687.526550	0.157996
687.728852	0.158101
687.931136	0.157865
688.133401	0.158170
688.335649	0.158328
688.537878	0.158409
688.740089	0.158591
688.942281	0.158918
689.144456	0.158889
689.346612	0.159006
689.548750	0.159269
689.750870	0.159643
689.952971	0.159654
690.155055	0.159764
690.357120	0.159880
690.559167	0.159832
690.761195	0.159906
690.963206	0.160033
691.165198	0.160088
691.367172	0.160176
691.569128	0.160079
691.771065	0.160390
691.972984	0.160548
692.174885	0.160792
692.376768	0.161068
692.578633	0.160993
692.780479	0.160955
692.982308	0.161134
693.184118	0.161050
693.385909	0.161280
693.587683	0.161196
693.789438	0.161258
693.991175	0.161110
694.192894	0.161100
694.394595	0.161331
694.596277	0.161679
694.797941	0.161882
694.999587	0.162108
695.201215	0.162115
695.402824	0.162172
695.604416	0.162284
695.805989	0.162600
696.007543	0.162738
696.209080	0.162652
696.410598	0.162588
696.612099	0.162500
696.813580	0.162368
697.015044	0.162249
697.216490	0.162158
697.417917	0.162192
697.619326	0.162324
697.820717	0.162358
698.022089	0.162482
698.223444	0.162682
698.424780	0.163027
698.626098	0.163059
698.827397	0.163365
699.028679	0.163576
699.229942	0.163466
699.431187	0.163261
699.632414	0.163311
699.833622	0.163451
700.034813	0.163488
700.235985	0.163102
700.437139	0.163452
700.638274	0.163564
700.839392	0.163775
701.040491	0.164019
701.241572	0.164295
701.442635	0.164245
701.643679	0.164462
701.844706	0.164427
702.045714	0.164604
702.246704	0.164593
702.447675	0.164703
702.648629	0.164802
702.849564	0.164947
703.050481	0.164936
703.251380	0.165215
703.452260	0.165066
703.653122	0.165217
703.853966	0.165181
704.054792	0.165182
704.255600	0.165167
704.456389	0.165173
704.657160	0.164944
704.857913	0.165059
705.058648	0.164975
705.259365	0.164951
705.460063	0.165024
705.660743	0.165152
705.861405	0.165018
706.062048	0.165000
706.262674	0.164731
706.463281	0.164808
706.663870	0.164613
706.864441	0.164495
707.064993	0.164541
707.265527	0.164382
707.466043	0.164371
707.666541	0.164553
707.867021	0.164489
708.067482	0.164590
708.267925	0.164655
708.468350	0.164892
708.668757	0.165028
708.869145	0.165015
709.069516	0.165140
709.269868	0.164985
709.470201	0.165042
709.670517	0.165148
709.870814	0.165100
710.071093	0.164983
710.271354	0.164587
710.471597	0.164704
710.671821	0.164870
710.872028	0.164683
711.072216	0.164813
711.272385	0.164778
711.472537	0.164699
711.672670	0.164628
711.872785	0.164740
712.072882	0.164906
712.272961	0.164891
712.473021	0.164778
712.673063	0.164775
712.873087	0.164776
713.073093	0.164860
713.273081	0.164814
713.473050	0.165130
713.673001	0.165191
713.872934	0.165160
714.072849	0.165261
714.272745	0.165147
714.472623	0.165066
714.672483	0.165212
714.872325	0.165113
715.072148	0.165290
715.271954	0.164927
715.471741	0.164758
715.671509	0.164805
715.871260	0.164553
716.070992	0.164508
716.270707	0.164585
716.470403	0.164595
716.670080	0.164358
716.869740	0.164052
717.069381	0.164252
717.269004	0.164338
717.468609	0.164212
717.668195	0.164258
717.867764	0.164122
718.067314	0.164128
718.266846	0.163822
718.466360	0.163977
718.665855	0.164001
718.865332	0.163904
719.064791	0.163776
719.264232	0.163811
719.463655	0.163835
719.663059	0.163884
719.862445	0.163775
720.061813	0.163741
720.261163	0.163700
720.460494	0.163663
720.659807	0.163797
720.859102	0.163694
721.058379	0.163675
721.257638	0.163443
721.456878	0.163275
721.656100	0.163468
721.855304	0.163508
722.054490	0.163359
722.253657	0.163243
722.452806	0.163003
722.651937	0.163179
722.851050	0.162935
723.050145	0.163133
723.249221	0.163305
723.448279	0.163093
723.647319	0.163109
723.846340	0.163137
724.045344	0.162993
724.244329	0.162894
724.443296	0.162507
724.642245	0.162486
724.841175	0.162325
725.040088	0.162140
725.238982	0.162036
725.437857	0.161909
725.636715	0.161823
725.835554	0.162097
726.034376	0.162087
726.233179	0.162475
726.431963	0.162457
726.630730	0.162350
726.829478	0.162324
727.028208	0.162337
727.226920	0.162377
727.425614	0.162283
727.624289	0.161699
727.822946	0.161668
728.021585	0.161484
728.220206	0.161576
728.418808	0.161322
728.617392	0.161399
728.815958	0.161275
729.014506	0.161067
729.213036	0.161020
729.411547	0.161356
729.610040	0.161097
729.808515	0.160830
730.006972	0.160540
730.205410	0.160619
730.403831	0.160349
730.602233	0.160273
730.800616	0.160169
730.998982	0.159938
731.197329	0.159869
731.395658	0.159917
731.593969	0.159884
731.792262	0.159929
731.990536	0.159871
732.188793	0.159951
732.387031	0.159996
732.585250	0.160056
732.783452	0.159998
732.981635	0.159990
733.179800	0.159774
733.377947	0.159491
733.576076	0.159112
733.774186	0.158946
733.972278	0.158762
734.170352	0.158379
734.368408	0.158175
734.566446	0.158190
734.764465	0.157917
734.962466	0.157675
735.160449	0.157845
735.358413	0.158029
735.556360	0.158099
735.754288	0.157954
735.952198	0.157905
736.150090	0.157589
736.347963	0.157456
736.545818	0.157237
736.743655	0.157328
736.941474	0.156983
737.139275	0.156770
737.337057	0.156392
737.534821	0.156156
737.732567	0.155973
737.930295	0.156130
738.128005	0.155993
738.325696	0.155941
738.523369	0.155846
738.721024	0.155708
738.918660	0.155538
739.116279	0.155509
739.313879	0.155502
739.511461	0.155477
739.709024	0.155302
739.906570	0.155360
740.104097	0.155233
740.301606	0.155247
740.499097	0.155254
740.696569	0.155213
740.894024	0.155038
741.091460	0.155034
741.288878	0.154892
741.486277	0.154826
741.683659	0.154551
741.881022	0.154530
742.078367	0.154253
742.275694	0.154167
742.473002	0.153864
742.670293	0.153784
742.867565	0.153654
743.064819	0.153552
743.262054	0.153556
743.459272	0.153566
743.656471	0.153351
743.853652	0.153338
744.050815	0.153011
744.247959	0.153231
744.445085	0.153153
744.642194	0.152963
744.839283	0.153007
745.036355	0.152648
745.233408	0.152429
745.430444	0.152358
745.627461	0.152182
745.824459	0.152186
746.021440	0.151952
746.218402	0.151586
746.415346	0.151572
746.612272	0.151394
746.809180	0.151576
747.006069	0.151511
747.202940	0.151397
747.399793	0.151334
747.596628	0.151500
747.793444	0.151408
747.990243	0.151618
748.187023	0.151469
748.383784	0.151423
748.580528	0.151068
748.777253	0.151060
748.973960	0.151235
749.170649	0.151219
749.367320	0.151089
749.563973	0.150875
749.760607	0.150770
749.957223	0.150821
750.153821	0.150814
750.350400	0.150994
750.546962	0.150869
750.743505	0.150474
750.940030	0.150300
751.136536	0.150162
751.333025	0.150053
751.529495	0.149900
751.725947	0.149780
751.922381	0.149453
752.118796	0.149121
752.315194	0.148628
752.511573	0.148643
752.707934	0.148451
752.904276	0.148151
753.100601	0.148398
753.296907	0.148375
753.493195	0.148262
753.689465	0.148163
753.885716	0.148265
754.081949	0.148340
754.278164	0.148437
754.474361	0.148243
754.670540	0.148350
754.866700	0.148067
755.062843	0.148011
755.258967	0.147725
755.455072	0.147793
755.651160	0.147642
755.847229	0.147588
756.043280	0.147156
756.239313	0.147180
756.435328	0.147152
756.631324	0.147061
756.827302	0.146941
757.023262	0.146888
757.219204	0.146761
757.415127	0.146664
757.611033	0.146730
757.806920	0.146778
758.002788	0.146811
758.198639	0.146551
758.394471	0.146562
758.590286	0.146309
758.786081	0.146163
758.981859	0.146280
759.177619	0.145957
759.373360	0.145837
759.569083	0.145712
759.764788	0.145750
759.960474	0.145708
760.156143	0.145461
760.351793	0.145389
760.547425	0.145538
760.743038	0.145089
760.938634	0.145015
761.134211	0.144731
761.329770	0.144603
761.525311	0.144444
761.720833	0.144297
761.916338	0.144049
762.111824	0.143767
762.307292	0.143600
762.502741	0.143642
762.698173	0.143724
762.893586	0.143806
763.088981	0.143645
763.284358	0.143474
763.479716	0.143358
763.675057	0.143540
763.870379	0.143823
764.065683	0.143827
764.260968	0.143711
764.456236	0.143500
764.651485	0.143486
764.846716	0.143588
765.041929	0.143600
765.237123	0.143781
765.432299	0.143684
765.627457	0.143668
765.822597	0.143676
766.017719	0.143652
766.212822	0.143854
766.407907	0.143727
766.602974	0.143700
766.798023	0.143476
766.993054	0.143309
767.188066	0.143140
767.383060	0.143117
767.578036	0.143005
767.772993	0.142980
767.967933	0.142763
768.162854	0.142735
768.357757	0.142695
768.552642	0.142731
768.747508	0.142748
768.942356	0.142742
769.137186	0.142729
769.331998	0.142584
769.526792	0.142375
769.721567	0.142345
769.916324	0.142267
770.111063	0.142275
770.305784	0.142512
770.500486	0.142461
770.695171	0.142478
770.889837	0.142199
771.084484	0.142175
771.279114	0.142260
771.473725	0.142068
771.668318	0.142011
771.862893	0.141846
772.057450	0.141451
772.251988	0.141418
772.446509	0.141316
772.641011	0.141238
772.835494	0.141258
773.029960	0.141242
773.224407	0.141377
773.418836	0.141666
773.613247	0.141832
773.807640	0.141947
774.002014	0.141945
774.196370	0.142003
774.390708	0.142070
774.585028	0.141974
774.779330	0.142037
774.973613	0.142234
775.167878	0.142088
775.362125	0.141899
775.556354	0.142104
775.750564	0.142079
775.944756	0.142261
776.138930	0.142327
776.333086	0.142356
776.527223	0.142512
776.721343	0.142232
776.915444	0.142278
777.109526	0.142366
777.303591	0.142151
777.497637	0.142159
777.691666	0.141878
777.885676	0.141925
778.079667	0.142137
778.273641	0.142090
778.467596	0.142327
778.661533	0.142086
778.855452	0.141910
779.049352	0.142049
779.243235	0.141963
779.437099	0.142167
779.630945	0.142124
779.824773	0.141928
780.018582	0.141695
780.212373	0.141454
780.406146	0.141495
780.599901	0.141635
780.793638	0.141488
780.987356	0.141579
781.181056	0.141527
781.374738	0.141466
781.568402	0.141547
781.762047	0.141549
781.955674	0.141810
782.149283	0.141957
782.342874	0.141773
782.536447	0.141614
782.730001	0.141787
782.923537	0.141976
783.117055	0.142277
783.310555	0.142264
783.504036	0.142456
783.697499	0.142261
783.890944	0.142171
784.084371	0.142374
784.277780	0.142536
784.471170	0.142331
784.664542	0.142077
784.857896	0.141902
785.051231	0.141727
785.244549	0.141727
785.437848	0.142035
785.631129	0.142073
785.824392	0.142174
786.017636	0.142126
786.210863	0.142177
786.404071	0.142380
786.597260	0.142164
786.790432	0.142460
786.983585	0.142502
787.176721	0.142287
787.369838	0.142344
787.562936	0.142074
787.756017	0.142100
787.949079	0.142223
788.142123	0.142202
788.335149	0.142311
788.528156	0.142318
788.721146	0.142379
788.914117	0.142542
789.107070	0.142722
789.300005	0.142863
789.492921	0.143079
789.685819	0.143182
789.878699	0.143257
790.071561	0.143521
790.264405	0.143671
790.457230	0.143844
790.650037	0.143948
790.842826	0.144034
791.035597	0.144442
791.228349	0.144643
791.421084	0.144669
791.613800	0.144757
791.806497	0.144878
791.999177	0.144770
792.191838	0.144749
792.384481	0.144656
792.577106	0.144462
792.769713	0.144448
792.962301	0.144315
793.154871	0.144440
793.347423	0.144565
793.539957	0.144582
793.732473	0.144783
793.924970	0.144784
794.117449	0.145106
794.309910	0.145432
794.502353	0.145538
794.694777	0.145729
794.887183	0.145875
795.079571	0.145987
795.271941	0.146002
795.464293	0.145858
795.656626	0.145991
795.848941	0.145792
796.041238	0.145725
796.233516	0.145711
796.425777	0.145724
796.618019	0.145707
796.810243	0.145852
797.002449	0.146136
797.194636	0.146614
797.386805	0.146672
797.578956	0.146829
797.771089	0.147007
797.963204	0.147183
798.155300	0.147411
798.347378	0.147347
798.539438	0.147287
798.731480	0.147253
798.923503	0.147072
799.115509	0.147209
799.307496	0.147527
799.499465	0.147633
799.691415	0.147595
799.883348	0.147672
800.075262	0.147806
800.267158	0.148047
800.459035	0.148242
800.650895	0.148444
800.842736	0.148545
801.034559	0.148607
801.226364	0.148707
801.418150	0.148654
801.609919	0.148754
801.801669	0.148990
801.993401	0.149206
802.185114	0.149074
802.376810	0.149101
802.568487	0.149176
802.760146	0.149393
802.951787	0.149457
803.143409	0.149839
803.335014	0.149988
803.526600	0.150033
803.718168	0.150147
803.909717	0.150410
804.101249	0.150507
804.292762	0.150790
804.484257	0.150826
804.675734	0.150806
804.867192	0.150849
805.058632	0.150844
805.250054	0.151124
805.441458	0.151184
805.632844	0.151557
805.824211	0.152021
806.015561	0.152111
806.206891	0.152391
806.398204	0.152826
806.589499	0.153184
806.780775	0.153493
806.972033	0.153453
807.163273	0.153570
807.354495	0.153872
807.545698	0.154030
807.736883	0.154502
807.928050	0.154478
808.119199	0.154584
808.310329	0.154723
808.501441	0.154802
808.692535	0.154860
808.883611	0.155029
809.074669	0.155140
809.265708	0.155042
809.456729	0.155117
809.647732	0.155358
809.838717	0.155502
810.029683	0.155589
810.220632	0.155823
810.411562	0.156270
810.602474	0.156401
810.793367	0.156518
810.984242	0.156882
811.175100	0.156746
811.365938	0.157036
811.556759	0.157506
811.747562	0.157834
811.938346	0.158132
812.129112	0.158378
812.319860	0.158781
812.510589	0.158813
812.701300	0.159234
812.891994	0.159360
813.082668	0.159417
813.273325	0.159388
813.463964	0.159235
813.654584	0.159363
813.845186	0.159383
814.035769	0.159440
814.226335	0.159694
814.416882	0.159450
814.607411	0.159914
814.797922	0.160077
814.988415	0.160131
815.178889	0.160385
815.369345	0.160495
815.559783	0.160612
815.750203	0.160689
815.940605	0.160631
816.130988	0.160772
816.321353	0.160792
816.511700	0.160977
816.702028	0.161233
816.892339	0.161551
817.082631	0.161756
817.272905	0.161994
817.463161	0.162392
817.653398	0.162775
817.843617	0.163144
818.033819	0.163423
818.224001	0.163655
818.414166	0.163867
818.604312	0.164323
818.794440	0.164578
818.984550	0.164946
819.174642	0.164984
819.364716	0.165263
819.554771	0.165674
819.744808	0.165927
819.934827	0.166183
820.124827	0.166698
820.314810	0.166690
820.504774	0.166835
820.694720	0.166955
820.884647	0.167072
821.074557	0.167380
821.264448	0.167334
821.454321	0.167346
821.644176	0.167468
821.834012	0.167240
822.023831	0.167386
822.213631	0.167536
822.403413	0.167692
822.593176	0.167999
822.782922	0.167887
822.972649	0.168232
823.162358	0.168739
823.352049	0.169325
823.541721	0.169570
823.731376	0.169883
823.921012	0.170096
824.110629	0.170622
824.300229	0.171050
824.489811	0.171333
824.679374	0.171598
824.868919	0.171687
825.058445	0.171414
825.247954	0.171866
825.437444	0.171994
825.626916	0.172497
825.816370	0.172244
826.005806	0.172177
826.195223	0.172415
826.384622	0.172437
826.574003	0.172503
826.763366	0.172984
826.952711	0.173175
827.142037	0.173488
827.331345	0.173455
827.520635	0.173963
827.709906	0.173994
827.899160	0.174329
828.088395	0.174578
828.277612	0.174670
828.466810	0.174630
828.655991	0.174945
828.845153	0.175059
829.034297	0.175283
829.223423	0.175483
829.412531	0.175926
829.601620	0.176128
829.790691	0.176004
829.979744	0.176459
830.168779	0.176759
830.357795	0.176884
830.546793	0.176857
830.735773	0.177204
830.924735	0.177393
831.113679	0.177732
831.302604	0.178027
831.491511	0.178650
831.680400	0.178737
831.869271	0.178991
832.058123	0.179226
832.246957	0.179728
832.435773	0.179897
832.624571	0.180216
832.813351	0.180489
833.002112	0.180795
833.190855	0.180957
833.379580	0.181434
833.568287	0.181778
833.756975	0.181896
833.945645	0.182279
834.134297	0.182471
834.322931	0.182432
834.511547	0.182480
834.700144	0.182623
834.888723	0.182783
835.077284	0.182897
835.265826	0.183038
835.454351	0.183290
835.642857	0.183299
835.831345	0.183647
836.019815	0.184110
836.208266	0.184535
836.396699	0.184558
836.585114	0.184726
836.773511	0.184994
836.961890	0.185178
837.150250	0.185272
837.338592	0.185473
837.526916	0.185535
837.715222	0.185733
837.903510	0.185767
838.091779	0.186213
838.280030	0.186653
838.468263	0.186760
838.656477	0.187084
838.844674	0.187412
839.032852	0.187807
839.221012	0.188136
839.409153	0.188437
839.597277	0.189027
839.785382	0.189332
839.973469	0.189965
840.161538	0.190374
840.349589	0.190912
840.537621	0.191282
840.725635	0.191659
840.913631	0.192090
841.101609	0.192601
841.289568	0.192896
841.477509	0.192802
841.665432	0.192772
841.853337	0.193156
842.041224	0.193343
842.229092	0.193580
842.416942	0.193797
842.604774	0.194141
842.792588	0.194256
842.980383	0.194247
843.168160	0.194803
843.355919	0.195043
843.543660	0.194945
843.731382	0.195164
843.919087	0.195660
844.106773	0.196095
844.294441	0.196003
844.482090	0.196037
844.669722	0.196399
844.857335	0.196648
845.044930	0.196829
845.232507	0.197479
845.420065	0.197890
845.607605	0.198061
845.795127	0.198330
845.982631	0.198940
846.170117	0.199543
846.357584	0.199933
846.545033	0.200268
846.732464	0.200791
846.919877	0.201030
847.107272	0.201371
847.294648	0.201488
847.482006	0.201689
847.669346	0.201788
847.856667	0.202217
848.043971	0.202575
848.231256	0.203025
848.418523	0.203286
848.605771	0.203804
848.793002	0.203877
848.980214	0.204178
849.167408	0.204160
849.354584	0.204333
849.541742	0.204359
849.728881	0.204528
849.916002	0.204549
850.103105	0.204750
850.290190	0.204428
850.477256	0.204548
850.664304	0.204876
850.851334	0.205367
851.038346	0.205865
851.225340	0.206046
851.412315	0.205941
851.599272	0.206292
851.786211	0.206717
851.973132	0.207378
852.160034	0.207526
852.346918	0.207954
852.533784	0.208386
852.720632	0.208499
852.907462	0.208801
853.094273	0.209435
853.281066	0.209718
853.467841	0.209775
853.654598	0.210145
853.841336	0.210562
854.028056	0.210540
854.214758	0.210366
854.401442	0.210646
854.588107	0.210961
854.774755	0.210923
854.961384	0.211321
855.147995	0.211498
855.334587	0.211441
855.521162	0.211469
855.707718	0.211641
855.894256	0.212139
856.080775	0.212349
856.267277	0.212615
856.453760	0.213066
856.640225	0.213112
856.826672	0.213428
857.013101	0.213879
857.199511	0.214531
857.385903	0.215066
857.572277	0.215301
857.758633	0.215743
857.944970	0.215971
858.131290	0.216295
858.317591	0.216828
858.503873	0.217048
858.690138	0.217348
858.876384	0.217584
859.062612	0.217573
859.248822	0.217998
859.435014	0.218124
859.621188	0.218514
859.807343	0.218846
859.993480	0.218626
860.179599	0.219181
860.365699	0.219155
860.551781	0.219037
860.737846	0.219373
860.923891	0.219577
861.109919	0.219744
861.295929	0.220106
861.481920	0.220575
861.667893	0.221209
861.853848	0.221116
862.039784	0.221640
862.225702	0.222211
862.411603	0.222927
862.597484	0.223069
862.783348	0.223454
862.969193	0.223430
863.155021	0.223424
863.340830	0.223352
863.526620	0.223664
863.712393	0.224161
863.898147	0.224158
864.083883	0.224178
864.269601	0.224314
864.455301	0.224582
864.640982	0.224807
864.826645	0.224538
865.012290	0.224772
865.197917	0.225074
865.383526	0.225108
865.569116	0.225152
865.754688	0.225373
865.940242	0.225760
866.125777	0.225897
866.311295	0.226093
866.496794	0.226486
866.682275	0.226784
866.867737	0.226785
867.053182	0.226823
867.238608	0.227283
867.424016	0.227180
867.609406	0.227363
867.794778	0.227638
867.980131	0.227522
868.165466	0.228046
868.350783	0.228344
868.536082	0.228180
868.721362	0.228142
868.906625	0.228391
869.091869	0.228597
869.277094	0.229018
869.462302	0.229226
869.647491	0.229435
869.832662	0.229256
870.017815	0.229180
870.202950	0.229773
870.388066	0.230069
870.573165	0.230357
870.758245	0.230543
870.943306	0.230239
871.128350	0.230388
871.313375	0.230729
871.498382	0.231300
871.683371	0.231677
871.868342	0.231912
872.053294	0.231805
872.238229	0.231729
872.423144	0.232173
872.608042	0.232187
872.792922	0.232245
872.977783	0.232568
873.162626	0.232705
873.347451	0.233053
873.532258	0.233010
873.717046	0.233756
873.901816	0.233582
874.086568	0.233633
874.271302	0.234234
874.456017	0.234392
874.640715	0.234377
874.825394	0.234378
875.010055	0.234199
875.194697	0.234611
875.379322	0.234358
875.563928	0.234980
875.748516	0.235111
875.933085	0.235243
876.117637	0.235495
876.302170	0.235665
876.486685	0.235690
876.671182	0.236018
876.855661	0.235376
877.040121	0.235107
877.224563	0.235107
877.408987	0.235275
877.593393	0.235124
877.777780	0.234961
877.962150	0.235159
878.146501	0.235204
878.330833	0.235024
878.515148	0.235700
878.699444	0.236195
878.883722	0.236593
879.067982	0.236719
879.252224	0.237368
879.436447	0.237340
879.620653	0.237197
879.804840	0.237398
879.989008	0.237627
880.173159	0.237710
880.357291	0.237800
880.541405	0.237787
880.725501	0.237818
880.909579	0.237482
881.093638	0.238246
881.277680	0.238306
881.461703	0.238424
881.645707	0.238668
881.829694	0.239071
882.013662	0.239510
882.197612	0.239502
882.381544	0.239335
882.565458	0.239458
882.749353	0.239207
882.933230	0.239753
883.117089	0.240198
883.300930	0.240171
883.484753	0.240225
883.668557	0.240040
883.852343	0.240172
884.036111	0.240557
884.219861	0.240711
884.403592	0.240614
884.587305	0.240309
884.771000	0.239903
884.954677	0.239858
885.138335	0.239615
885.321976	0.239830
885.505598	0.239613
885.689201	0.239237
885.872787	0.238880
886.056354	0.239222
886.239904	0.239543
886.423434	0.239464
886.606947	0.239204
886.790442	0.239206
886.973918	0.239577
887.157376	0.239619
887.340816	0.240253
887.524237	0.240443
887.707641	0.240205
887.891026	0.239840
888.074393	0.239849
888.257741	0.240010
888.441072	0.239928
888.624384	0.239447
888.807678	0.239671
888.990954	0.239417
889.174211	0.239293
889.357451	0.239317
889.540672	0.239435
889.723875	0.239613
889.907059	0.239843
890.090226	0.240159
890.273374	0.239672
890.456504	0.239188
890.639616	0.238603
890.822709	0.238553
891.005785	0.238406
891.188842	0.238315
891.371881	0.238034
891.554901	0.238169
891.737904	0.237983
891.920888	0.238264
892.103854	0.238511
892.286802	0.239134
892.469731	0.239387
892.652643	0.239370
892.835536	0.239257
893.018410	0.239617
893.201267	0.239347
893.384106	0.239384
893.566926	0.239454
893.749728	0.239486
893.932511	0.239351
894.115277	0.239400
894.298024	0.239695
894.480753	0.239859
894.663464	0.239567
894.846157	0.239616
895.028831	0.239558
895.211487	0.239726
895.394125	0.239747
895.576745	0.239701
895.759346	0.239504
895.941930	0.239391
896.124495	0.239261
896.307041	0.239297
896.489570	0.238980
896.672080	0.238462
896.854573	0.238038
897.037046	0.237904
897.219502	0.237818
897.401940	0.237552
897.584359	0.236949
897.766760	0.236659
897.949143	0.236088
898.131507	0.236239
898.313854	0.236859
898.496182	0.237204
898.678492	0.236763
898.860783	0.236594
899.043057	0.236186
899.225312	0.236359
899.407549	0.236701
899.589768	0.236724
899.771968	0.236292
899.954151	0.235619
900.136315	0.235035
900.318461	0.235170
900.500588	0.234706
900.682698	0.234768
900.864789	0.235088
901.046862	0.234697
901.228917	0.234711
901.410953	0.234798
901.592971	0.234546
901.774972	0.234065
901.956953	0.233613
902.138917	0.233462
902.320862	0.233408
902.502790	0.232700
902.684699	0.232301
902.866589	0.232017
903.048462	0.231878
903.230316	0.231987
903.412152	0.232022
903.593970	0.232134
903.775770	0.231994
903.957551	0.231595
904.139314	0.231271
904.321059	0.231118
904.502786	0.231171
904.684494	0.230555
904.866185	0.230280
905.047857	0.229772
905.229510	0.229422
905.411146	0.229291
905.592763	0.229393
905.774363	0.229470
905.955943	0.228975
906.137506	0.228595
906.319051	0.228045
906.500577	0.227557
906.682085	0.228032
906.863575	0.227985
907.045046	0.227636
907.226500	0.227261
907.407935	0.226651
907.589352	0.226232
907.770750	0.225963
907.952131	0.226167
908.133493	0.225951
908.314837	0.225370
908.496163	0.225065
908.677470	0.224506
908.858760	0.223989
909.040031	0.223536
909.221284	0.223632
909.402518	0.223390
909.583735	0.223436
909.764933	0.223137
909.946113	0.222792
910.127275	0.221970
910.308418	0.222433
910.489544	0.222739
910.670651	0.222703
910.851740	0.222681
911.032810	0.222091
911.213863	0.221461
911.394897	0.221421
911.575913	0.220815
911.756911	0.221062
911.937890	0.220104
912.118851	0.219715
912.299794	0.219324
912.480719	0.218635
912.661626	0.218658
912.842514	0.218112
913.023384	0.217722
913.204236	0.217844
913.385070	0.217518
913.565886	0.217322
913.746683	0.216213
913.927462	0.216242
914.108223	0.216338
914.288965	0.216180
914.469690	0.216251
914.650396	0.215846
914.831084	0.215413
915.011754	0.215175
915.192405	0.214679
915.373038	0.214788
915.553653	0.214304
915.734250	0.213765
915.914829	0.212908
916.095389	0.212292
916.275931	0.211719
916.456455	0.210931
916.636961	0.210121
916.817448	0.209597
916.997917	0.209361
917.178368	0.208294
917.358801	0.207637
917.539216	0.207165
917.719612	0.206736
917.899990	0.206578
918.080350	0.206415
918.260692	0.206117
918.441015	0.205775
918.621320	0.204908
918.801607	0.205170
918.981876	0.205098
919.162127	0.204639
919.342359	0.204480
919.522573	0.203900
919.702769	0.203442
919.882947	0.202658
920.063106	0.202737
920.243247	0.202825
920.423370	0.201801
920.603475	0.200693
920.783562	0.200548
920.963630	0.199791
921.143680	0.199703
921.323712	0.199800
921.503725	0.199297
921.683721	0.198797
921.863698	0.198132
922.043657	0.197561
922.223598	0.197326
922.403520	0.196759
922.583424	0.196254
922.763311	0.195400
922.943178	0.194123
923.123028	0.193769
923.302859	0.192953
923.482673	0.192471
923.662467	0.192232
923.842244	0.191900
924.022003	0.191302
924.201743	0.190948
924.381465	0.190202
924.561169	0.190220
924.740854	0.189403
924.920522	0.189131
925.100171	0.188576
925.279802	0.188034
925.459414	0.187756
925.639009	0.187520
925.818585	0.186812
925.998143	0.186333
926.177683	0.185354
926.357205	0.185849
926.536708	0.185242
926.716193	0.184372
926.895660	0.183301
927.075109	0.182095
927.254539	0.181171
927.433951	0.180834
927.613345	0.180288
927.792721	0.179872
927.972079	0.178702
928.151418	0.177537
928.330739	0.177409
928.510042	0.177684
928.689327	0.177192
928.868593	0.176917
929.047841	0.176070
929.227071	0.175732
929.406283	0.175140
929.585476	0.174431
929.764652	0.174402
929.943809	0.173627
930.122948	0.172894
930.302068	0.172275
930.481171	0.171239
930.660255	0.170894
930.839321	0.169572
931.018369	0.169370
931.197398	0.169209
931.376409	0.168195
931.555402	0.167165
931.734377	0.166045
931.913334	0.165979
932.092272	0.164936
932.271192	0.164214
932.450094	0.163538
932.628978	0.162991
932.807844	0.162101
932.986691	0.161745
933.165520	0.161129
933.344331	0.160806
933.523123	0.159523
933.701898	0.158991
933.880654	0.158181
934.059392	0.157868
934.238111	0.156438
934.416813	0.155909
934.595496	0.154766
934.774161	0.154404
934.952808	0.154077
935.131437	0.154442
935.310047	0.154516
935.488639	0.153809
935.667213	0.152792
935.845769	0.152768
936.024306	0.151864
936.202825	0.151475
936.381326	0.150331
936.559809	0.150091
936.738274	0.148602
936.916720	0.147911
937.095148	0.147407
937.273558	0.147343
937.451950	0.146015
937.630323	0.144569
937.808678	0.144105
937.987015	0.144458
938.165334	0.143064
938.343635	0.142734
938.521917	0.142293
938.700181	0.141679
938.878427	0.140796
939.056655	0.140826
939.234864	0.141018
939.413055	0.140382
939.591228	0.139609
939.769383	0.138488
939.947519	0.137009
940.125638	0.135855
940.303738	0.134697
940.481820	0.134507
940.659883	0.133540
940.837929	0.133393
941.015956	0.132076
941.193965	0.130888
941.371955	0.131198
941.549928	0.130934
941.727882	0.130499
941.905818	0.129757
942.083736	0.128410
942.261636	0.127097
942.439517	0.125147
942.617380	0.124677
942.795225	0.124404
942.973052	0.122583
943.150860	0.122304
943.328651	0.121528
943.506423	0.120856
943.684176	0.120561
943.861912	0.120514
944.039629	0.120141
944.217328	0.118607
944.395009	0.118373
944.572672	0.118482
944.750317	0.118331
944.927943	0.117240
945.105551	0.116976
945.283141	0.115996
945.460712	0.114334
945.638265	0.113484
945.815801	0.113998
945.993317	0.111917
946.170816	0.111849
946.348297	0.111063
946.525759	0.109335
946.703203	0.108325
946.880629	0.108022
947.058036	0.107564
947.235425	0.107191
947.412797	0.105834
947.590149	0.104401
947.767484	0.102600
947.944800	0.101313
948.122099	0.101280
948.299379	0.099125
948.476640	0.098120
948.653884	0.098298
948.831109	0.096730
949.008316	0.097124
949.185505	0.097035
949.362676	0.095451
949.539828	0.094318
949.716962	0.094459
949.894078	0.094874
950.071176	0.093510
950.248256	0.092547
950.425317	0.091731
950.602360	0.091204
950.779385	0.091054
950.956391	0.091574
951.133380	0.091540
951.310350	0.089773
951.487302	0.088966
951.664235	0.088387
951.841151	0.087092
952.018048	0.088038
952.194927	0.086205
952.371788	0.086058
952.548631	0.084233
952.725455	0.082115
952.902261	0.082786
953.079049	0.082851
953.255819	0.081894
953.432570	0.080074
953.609303	0.078534
953.786018	0.078711
953.962715	0.077675
954.139394	0.077286
954.316054	0.077121
954.492696	0.075160
954.669320	0.073828
954.845926	0.074898
955.022513	0.073981
955.199083	0.074348
955.375634	0.072716
955.552166	0.071804
955.728681	0.071706
955.905177	0.071300
956.081655	0.070959
956.258115	0.071542
956.434557	0.070166
956.610980	0.070831
956.787385	0.068713
956.963772	0.069180
957.140141	0.068159
957.316492	0.067596
957.492824	0.066208
957.669138	0.066754
957.845434	0.065598
958.021712	0.064589
958.197971	0.064694
958.374212	0.064645
958.550435	0.062798
958.726640	0.062633
958.902826	0.060410
959.078995	0.061031
959.255145	0.058478
959.431277	0.058073
959.607390	0.057591
959.783486	0.056810
959.959563	0.055891
960.135622	0.055406
960.311662	0.055104
960.487685	0.055974
960.663689	0.053655
960.839675	0.052527
961.015643	0.052235
961.191593	0.052325
961.367524	0.052050
961.543437	0.052392
961.719332	0.053295
961.895209	0.052461
962.071067	0.052291
962.246907	0.053391
962.422730	0.054152
962.598533	0.053897
962.774319	0.054681
962.950086	0.053797
963.125835	0.052752
963.301566	0.053203
963.477279	0.053555
963.652973	0.053459
963.828650	0.053828
964.004308	0.055095
964.179947	0.054238
964.355569	0.053174
964.531172	0.053030
964.706757	0.053246
964.882324	0.052089
965.057873	0.051685
965.233403	0.051346
965.408916	0.049666
965.584410	0.049047
965.759885	0.049390
965.935343	0.047895
966.110782	0.047003
966.286203	0.046823
966.461606	0.046407
966.636991	0.045252
966.812357	0.044993
966.987705	0.045410
967.163035	0.046802
967.338347	0.046749
967.513641	0.047164
967.688916	0.048074
967.864173	0.048406
968.039412	0.048305
968.214632	0.048662
968.389835	0.048771
968.565019	0.049376
968.740185	0.047250
968.915333	0.046871
969.090462	0.047044
969.265573	0.044993
969.440667	0.044053
969.615741	0.044078
969.790798	0.044052
969.965836	0.042519
970.140856	0.043201
970.315858	0.045928
970.490842	0.044943
970.665808	0.045016
970.840755	0.047197
971.015684	0.046461
971.190595	0.047047
971.365487	0.046317
971.540362	0.050406
971.715218	0.046972
971.890056	0.043288
972.064875	0.043047
972.239677	0.042010
972.414460	0.042374
972.589225	0.042458
972.763972	0.042363
972.938700	0.044540
973.113411	0.041118
973.288103	0.044105
973.462777	0.046510
973.637432	0.048903
973.812070	0.049581
973.986689	0.048725
974.161290	0.049613
974.335873	0.050068
974.510437	0.047827
974.684984	0.048833
974.859512	0.048099
975.034022	0.048243
975.208513	0.047482
975.382987	0.048147
975.557442	0.049296
975.731879	0.049345
975.906298	0.047292
976.080698	0.048900
976.255080	0.048694
976.429445	0.050062
976.603790	0.048791
976.778118	0.047764
976.952427	0.047798
977.126719	0.048569
977.300992	0.049583
977.475246	0.050576
977.649483	0.050268
977.823701	0.049603
977.997901	0.046229
978.172083	0.046917
978.346247	0.048378
978.520392	0.047039
978.694519	0.045625
978.868628	0.044719
979.042719	0.045748
979.216791	0.044956
979.390845	0.045818
979.564882	0.048042
979.738899	0.047821
979.912899	0.047308
980.086880	0.047851
980.260843	0.047616
980.434788	0.048915
980.608715	0.046972
980.782623	0.047177
980.956514	0.047627
981.130386	0.048073
981.304240	0.048367
981.478075	0.047714
981.651892	0.047914
981.825692	0.047059
981.999472	0.045008
982.173235	0.045252
982.346980	0.044974
982.520706	0.043434
982.694414	0.043650
982.868104	0.043664
983.041775	0.044613
983.215428	0.044385
983.389064	0.044003
983.562680	0.045020
983.736279	0.044900
983.909860	0.047902
984.083422	0.048423
984.256966	0.048763
984.430491	0.048138
984.603999	0.047506
984.777488	0.047401
984.950959	0.049381
985.124412	0.048556
985.297847	0.049824
985.471263	0.048554
985.644661	0.050137
985.818041	0.047918
985.991403	0.048807
986.164747	0.047598
986.338072	0.048547
986.511379	0.047875
986.684668	0.047726
986.857938	0.046326
987.031191	0.045118
987.204425	0.044960
987.377641	0.045845
987.550839	0.043944
987.724018	0.044893
987.897179	0.044148
988.070322	0.044401
988.243447	0.045159
988.416554	0.047629
988.589642	0.048801
988.762712	0.046319
988.935764	0.046301
989.108798	0.048860
989.281813	0.049068
989.454811	0.048841
989.627790	0.048706
989.800751	0.048710
989.973693	0.047489
990.146617	0.047970
990.319524	0.049994
990.492412	0.050813
990.665281	0.049372
990.838133	0.050633
991.010966	0.052373
991.183781	0.051724
991.356578	0.052207
991.529356	0.052329
991.702117	0.052419
991.874859	0.051611
992.047583	0.050617
992.220288	0.050665
992.392976	0.051092
992.565645	0.049694
992.738296	0.050952
992.910929	0.050420
993.083543	0.049875
993.256139	0.048359
993.428718	0.048178
993.601277	0.047949
993.773819	0.047963
993.946342	0.046940
994.118848	0.047138
994.291335	0.047730
994.463803	0.047747
994.636254	0.047906
994.808686	0.048442
994.981100	0.048707
995.153496	0.048926
995.325874	0.049338
995.498233	0.049109
995.670574	0.047935
995.842897	0.046915
996.015202	0.046563
996.187488	0.046400
996.359757	0.045089
996.532007	0.046113
996.704239	0.048713
996.876452	0.048760
997.048648	0.048883
997.220825	0.049779
997.392984	0.050438
997.565124	0.052153
997.737247	0.052196
997.909351	0.053655
998.081437	0.051939
998.253505	0.050437
998.425554	0.051721
998.597586	0.051029
998.769599	0.051223
998.941594	0.050520
999.113571	0.049291
999.285529	0.050029
999.457469	0.049732
999.629391	0.051416
999.801295	0.051965
999.973181	0.050205
1000.145048	0.050320
1000.316897	0.050005
1000.488728	0.051500
1000.660541	0.051102
1000.832335	0.050897
1001.004111	0.051215
1001.175869	0.049368
1001.347609	0.049424
1001.519331	0.048686
1001.691034	0.048935
1001.862719	0.048722
1002.034386	0.048017
1002.206035	0.048479
1002.377665	0.047687
1002.549277	0.046988
1002.720871	0.049217
1002.892447	0.048066
1003.064004	0.049813
1003.235544	0.049799
1003.407065	0.050035
1003.578568	0.049631
1003.750052	0.049500
1003.921519	0.051979
1004.092967	0.053627
1004.264397	0.051949
1004.435809	0.053362
1004.607202	0.053659
1004.778577	0.054200
1004.949934	0.054666
1005.121273	0.053986
1005.292594	0.053662
1005.463896	0.051827
1005.635180	0.051142
1005.806446	0.051809
1005.977694	0.050897
1006.148923	0.049742
1006.320135	0.049220
1006.491328	0.049859
1006.662503	0.049079
1006.833659	0.049453
1007.004798	0.050226
1007.175918	0.049289
1007.347020	0.048867
1007.518103	0.049023
1007.689169	0.048438
1007.860216	0.048923
1008.031245	0.047684
1008.202256	0.050942
1008.373248	0.051276
1008.544223	0.049366
1008.715179	0.050198
1008.886117	0.048910
1009.057036	0.048866
1009.227938	0.049234
1009.398821	0.049573
1009.569686	0.051262
1009.740533	0.049365
1009.911361	0.048535
1010.082172	0.049217
1010.252964	0.050347
1010.423738	0.052933
1010.594493	0.053612
1010.765231	0.055795
1010.935950	0.054862
1011.106651	0.053787
1011.277334	0.054652
1011.447998	0.052987
1011.618645	0.053110
1011.789273	0.051271
1011.959882	0.050902
1012.130474	0.050643
1012.301048	0.048685
1012.471603	0.048447
1012.642140	0.049756
1012.812658	0.048606
1012.983159	0.050998
1013.153641	0.051084
1013.324105	0.051216
1013.494551	0.052051
1013.664979	0.049630
1013.835388	0.050156
1014.005779	0.050285
1014.176152	0.049516
1014.346507	0.050169
1014.516843	0.049619
1014.687162	0.050572
1014.857462	0.051371
1015.027744	0.050474
1015.198007	0.052319
1015.368252	0.051204
1015.538480	0.049728
1015.708689	0.049793
1015.878879	0.048619
1016.049052	0.048690
1016.219206	0.049460
1016.389342	0.049049
1016.559460	0.048528
1016.729559	0.046679
1016.899641	0.047161
1017.069704	0.048595
1017.239749	0.047668
1017.409775	0.047454
1017.579784	0.046060
1017.749774	0.045691
1017.919746	0.045454
1018.089700	0.046350
1018.259635	0.049603
1018.429553	0.049421
1018.599452	0.050557
1018.769333	0.051116
1018.939195	0.053342
1019.109040	0.053948
1019.278866	0.053494
1019.448674	0.053686
1019.618464	0.052948
1019.788235	0.051435
1019.957989	0.052472
1020.127724	0.052565
1020.297441	0.053118
1020.467139	0.052179
1020.636820	0.052333
1020.806482	0.051435
1020.976126	0.050276
1021.145752	0.050801
1021.315359	0.050095
1021.484948	0.048142
1021.654519	0.048124
1021.824072	0.048199
1021.993607	0.047437
1022.163123	0.048662
1022.332621	0.048689
1022.502101	0.050999
1022.671563	0.051617
1022.841007	0.052055
1023.010432	0.053043
1023.179839	0.052232
1023.349228	0.052959
1023.518598	0.054052
1023.687951	0.054205
1023.857285	0.054334
1024.026601	0.052697
1024.195899	0.052355
1024.365178	0.052881
1024.534439	0.053546
1024.703682	0.052299
1024.872907	0.052149
1025.042114	0.052334
1025.211302	0.052554
1025.380472	0.052936
1025.549624	0.053694
1025.718758	0.053488
1025.887873	0.053320
1026.056970	0.051867
1026.226049	0.052899
1026.395110	0.051795
1026.564153	0.050478
1026.733177	0.048918
1026.902183	0.049481
1027.071171	0.050088
1027.240141	0.048964
1027.409092	0.048999
1027.578026	0.050497
1027.746940	0.050295
1027.915837	0.050158
1028.084716	0.050088
1028.253576	0.052055
1028.422418	0.052023
1028.591242	0.051820
1028.760048	0.051709
1028.928835	0.049611
1029.097604	0.049518
1029.266355	0.050234
1029.435088	0.050351
1029.603803	0.051726
1029.772499	0.050900
1029.941177	0.050051
1030.109837	0.050378
1030.278478	0.050758
1030.447102	0.053010
1030.615707	0.053370
1030.784294	0.053178
1030.952863	0.053146
1031.121413	0.053023
1031.289945	0.053246
1031.458460	0.053171
1031.626955	0.051800
1031.795433	0.052512
1031.963892	0.053442
1032.132334	0.052656
1032.300756	0.051879
1032.469161	0.052799
1032.637548	0.053441
1032.805916	0.052964
1032.974266	0.052977
1033.142598	0.053205
1033.310911	0.052772
1033.479207	0.053403
1033.647484	0.054265
1033.815743	0.055431
1033.983983	0.053932
1034.152206	0.052205
1034.320410	0.050973
1034.488596	0.050527
1034.656764	0.049658
1034.824914	0.049883
1034.993045	0.048607
1035.161158	0.047540
1035.329253	0.046135
1035.497330	0.047323
1035.665388	0.048275
1035.833428	0.049924
1036.001450	0.050727
1036.169454	0.051248
1036.337440	0.051476
1036.505407	0.050551
1036.673356	0.052379
1036.841287	0.052421
1037.009200	0.050956
1037.177094	0.050635
1037.344970	0.051155
1037.512828	0.051352
1037.680668	0.052320
1037.848489	0.052356
1038.016293	0.052494
1038.184078	0.050360
1038.351845	0.052394
1038.519593	0.053117
1038.687324	0.053011
1038.855036	0.052100
1039.022730	0.050877
1039.190406	0.050289
1039.358063	0.049860
1039.525702	0.051025
1039.693323	0.052692
1039.860926	0.051161
1040.028511	0.050526
1040.196077	0.050220
1040.363625	0.050764
1040.531155	0.051839
1040.698667	0.049593
1040.866161	0.049696
1041.033636	0.049305
1041.201093	0.048998
1041.368532	0.049988
1041.535952	0.051355
1041.703355	0.051437
1041.870739	0.051720
1042.038105	0.050278
1042.205452	0.052603
1042.372782	0.053859
1042.540093	0.053693
1042.707386	0.052473
1042.874661	0.052272
1043.041918	0.052267
1043.209156	0.053542
1043.376376	0.052737
1043.543578	0.054016
1043.710762	0.053853
1043.877927	0.053345
1044.045074	0.052295
1044.212203	0.052169
1044.379314	0.052054
1044.546407	0.051916
1044.713481	0.051009
1044.880537	0.050700
1045.047575	0.050158
1045.214595	0.049926
1045.381596	0.049028
1045.548579	0.048569
1045.715544	0.048307
1045.882491	0.048009
1046.049420	0.047337
1046.216330	0.046804
1046.383222	0.046500
1046.550096	0.047517
1046.716951	0.049576
1046.883789	0.050514
1047.050608	0.051318
1047.217409	0.054146
1047.384192	0.053734
1047.550956	0.054519
1047.717703	0.054559
1047.884431	0.055053
1048.051140	0.053480
1048.217832	0.051369
1048.384505	0.050427
1048.551161	0.049663
1048.717798	0.047241
1048.884416	0.047037
1049.051017	0.047738
1049.217599	0.049127
1049.384163	0.048126
1049.550709	0.048726
1049.717237	0.048780
1049.883746	0.048369
1050.050237	0.048747
1050.216710	0.049437
1050.383165	0.049120
1050.549601	0.048820
1050.716019	0.049582
1050.882420	0.051419
1051.048801	0.051680
1051.215165	0.051143
1051.381510	0.052449
1051.547837	0.053189
1051.714146	0.053348
1051.880437	0.053725
1052.046709	0.051966
1052.212964	0.051391
1052.379200	0.050397
1052.545417	0.051195
1052.711617	0.052739
1052.877798	0.050862
1053.043961	0.051898
1053.210106	0.050771
1053.376233	0.051796
1053.542341	0.052553
1053.708432	0.051505
1053.874504	0.050982
1054.040557	0.049860
1054.206593	0.049054
1054.372610	0.051197
1054.538609	0.051112
1054.704590	0.053257
1054.870553	0.052869
1055.036497	0.051881
1055.202424	0.052308
1055.368331	0.053896
1055.534221	0.053809
1055.700093	0.053414
1055.865946	0.052236
1056.031781	0.050532
1056.197598	0.049610
1056.363397	0.049820
1056.529177	0.051507
1056.694939	0.051512
1056.860683	0.051802
1057.026409	0.050922
1057.192116	0.051523
1057.357806	0.051016
1057.523477	0.051481
1057.689130	0.052604
1057.854764	0.051950
1058.020381	0.050886
1058.185979	0.050955
1058.351559	0.050238
1058.517120	0.052357
1058.682664	0.052646
1058.848189	0.052883
1059.013696	0.053051
1059.179185	0.052509
1059.344656	0.053035
1059.510108	0.054497
1059.675542	0.053724
1059.840958	0.053940
1060.006356	0.054708
1060.171735	0.054706
1060.337096	0.055643
1060.502439	0.056132
1060.667764	0.054838
1060.833071	0.056037
1060.998359	0.054788
1061.163629	0.054991
1061.328881	0.054232
1061.494115	0.052437
1061.659330	0.052909
1061.824527	0.052618
1061.989706	0.051572
1062.154867	0.052557
1062.320010	0.050574
1062.485134	0.050954
1062.650240	0.051492
1062.815328	0.050976
1062.980398	0.051639
1063.145449	0.052283
1063.310482	0.052507
1063.475497	0.052758
1063.640494	0.051709
1063.805473	0.053610
1063.970433	0.053757
1064.135375	0.053286
1064.300299	0.054559
1064.465204	0.054418
1064.630092	0.054053
1064.794961	0.054050
1064.959812	0.054926
1065.124645	0.054417
1065.289459	0.053038
1065.454256	0.052987
1065.619034	0.052919
1065.783793	0.053436
1065.948535	0.052561
1066.113258	0.050996
1066.277964	0.052237
1066.442651	0.051502
1066.607319	0.052945
1066.771970	0.054368
1066.936602	0.052885
1067.101216	0.050164
1067.265812	0.049058
1067.430389	0.050642
1067.594949	0.051535
1067.759490	0.050927
1067.924013	0.052496
1068.088518	0.052660
1068.253004	0.051138
1068.417472	0.053134
1068.581922	0.055693
1068.746354	0.056207
1068.910768	0.054658
1069.075163	0.053015
1069.239540	0.053408
1069.403899	0.051670
1069.568240	0.051149
1069.732562	0.051920
1069.896866	0.051990
1070.061152	0.050931
1070.225420	0.051765
1070.389670	0.051286
1070.553901	0.053457
1070.718114	0.051795
1070.882309	0.051689
1071.046486	0.052084
1071.210644	0.051418
1071.374784	0.050010
1071.538906	0.052226
1071.703010	0.051983
1071.867096	0.053285
1072.031163	0.053915
1072.195212	0.053489
1072.359243	0.054954
1072.523256	0.054799
1072.687250	0.055520
1072.851226	0.056860
1073.015184	0.055329
1073.179124	0.055779
1073.343045	0.054708
1073.506949	0.053554
1073.670834	0.052907
1073.834701	0.052654
1073.998549	0.051438
1074.162380	0.050792
1074.326192	0.050436
1074.489986	0.050440
1074.653761	0.049092
1074.817519	0.049562
1074.981258	0.049613
1075.144979	0.050918
1075.308682	0.052529
1075.472367	0.053832
1075.636033	0.055039
1075.799681	0.054141
1075.963311	0.055858
1076.126923	0.056693
1076.290516	0.056394
1076.454092	0.056184
1076.617649	0.056185
1076.781187	0.054053
1076.944708	0.052862
1077.108210	0.051043
1077.271695	0.051232
1077.435160	0.050762
1077.598608	0.049160
1077.762038	0.049973
1077.925449	0.050737
1078.088842	0.052043
1078.252217	0.053545
1078.415573	0.054638
1078.578912	0.058116
1078.742232	0.058146
1078.905534	0.057463
1079.068817	0.058220
1079.232083	0.058251
1079.395330	0.056088
1079.558559	0.055743
1079.721770	0.053188
1079.884962	0.054896
1080.048136	0.052985
1080.211293	0.054813
1080.374430	0.055831
1080.537550	0.056653
1080.700651	0.055783
1080.863735	0.057894
1081.026800	0.059000
1081.189846	0.059514
1081.352875	0.059032
1081.515885	0.058791
1081.678877	0.057585
1081.841851	0.057054
1082.004807	0.055288
1082.167744	0.056300
1082.330663	0.056536
1082.493564	0.054248
1082.656447	0.056392
1082.819312	0.054929
1082.982158	0.054775
1083.144986	0.054387
1083.307796	0.053913
1083.470587	0.054918
1083.633361	0.056143
1083.796116	0.056553
1083.958853	0.057829
1084.121571	0.056227
1084.284272	0.054663
1084.446954	0.055077
1084.609618	0.055609
1084.772264	0.056220
1084.934892	0.057617
1085.097501	0.054696
1085.260092	0.053166
1085.422665	0.051252
1085.585220	0.050278
1085.747756	0.051509
1085.910274	0.051107
1086.072774	0.051323
1086.235256	0.052226
1086.397720	0.050228
1086.560165	0.052231
1086.722592	0.052050
1086.885001	0.053725
1087.047392	0.054282
1087.209764	0.054586
1087.372119	0.055338
1087.534455	0.054332
1087.696772	0.052196
1087.859072	0.052620
1088.021353	0.052007
1088.183616	0.051056
1088.345861	0.051380
1088.508088	0.051798
1088.670296	0.051715
1088.832486	0.051310
1088.994658	0.052427
1089.156812	0.053539
1089.318948	0.054321
1089.481065	0.054568
1089.643164	0.055927
1089.805245	0.056420
1089.967308	0.059370
1090.129352	0.059697
1090.291378	0.058297
1090.453386	0.059683
1090.615376	0.061028
1090.777347	0.060850
1090.939301	0.061488
1091.101236	0.061689
1091.263153	0.061326
1091.425051	0.058375
1091.586932	0.058986
1091.748794	0.059556
1091.910638	0.057859
1092.072463	0.055153
1092.234271	0.055791
1092.396060	0.053968
1092.557831	0.054758
1092.719584	0.051874
1092.881319	0.052345
1093.043035	0.050949
1093.204733	0.051900
1093.366413	0.052372
1093.528075	0.053470
1093.689718	0.051810
1093.851343	0.051690
1094.012950	0.050912
1094.174539	0.054501
1094.336110	0.052704
1094.497662	0.054218
1094.659196	0.053104
1094.820712	0.052651
1094.982210	0.053554
1095.143689	0.053814
1095.305151	0.057185
1095.466594	0.060843
1095.628018	0.060051
1095.789425	0.061084
1095.950813	0.059827
1096.112183	0.059996
1096.273535	0.060684
1096.434869	0.061035
1096.596184	0.061200
1096.757482	0.058778
1096.918761	0.057861
1097.080021	0.055839
1097.241264	0.056013
1097.402488	0.057230
1097.563694	0.058214
1097.724882	0.056040
1097.886052	0.056581
1098.047203	0.057375
1098.208336	0.058519
1098.369451	0.056881
1098.530548	0.055740
1098.691627	0.053618
1098.852687	0.053000
1099.013729	0.051735
1099.174753	0.052324
1099.335758	0.051048
1099.496746	0.049829
1099.657715	0.050935
1099.818666	0.049706
1099.979599	0.052981
1100.140513	0.057370
1100.301409	0.058841
1100.462287	0.059207
1100.623147	0.061762
1100.783989	0.060672
1100.944812	0.061981
1101.105617	0.061844
1101.266404	0.062023
1101.427173	0.060882
1101.587923	0.059732
1101.748656	0.058457
1101.909370	0.060811
1102.070066	0.059743
1102.230743	0.060658
1102.391403	0.062122
1102.552044	0.062349
1102.712667	0.062483
1102.873271	0.063371
1103.033858	0.065483
1103.194426	0.066373
1103.354976	0.062825
1103.515508	0.063094
1103.676021	0.065387
1103.836517	0.065708
1103.996994	0.064256
1104.157453	0.064452
1104.317893	0.063695
1104.478316	0.061640
1104.638720	0.061062
1104.799106	0.061956
1104.959474	0.059538
1105.119823	0.058856
1105.280155	0.055978
1105.440468	0.055611
1105.600763	0.052638
1105.761039	0.055513
1105.921298	0.056485
1106.081538	0.056833
1106.241760	0.059946
1106.401964	0.060951
1106.562149	0.058450
1106.722316	0.060038
1106.882465	0.061483
1107.042596	0.064559
1107.202709	0.062008
1107.362803	0.060647
1107.522879	0.062954
1107.682937	0.059913
1107.842977	0.061161
1108.002999	0.065156
1108.163002	0.065893
1108.322987	0.065859
1108.482954	0.065080
1108.642902	0.064706
1108.802833	0.064178
1108.962745	0.061779
1109.122639	0.064042
1109.282515	0.062109
1109.442372	0.058395
1109.602211	0.057657
1109.762032	0.056575
1109.921835	0.056130
1110.081620	0.054241
1110.241386	0.056846
1110.401134	0.057795
1110.560864	0.055201
1110.720576	0.054986
1110.880269	0.056390
1111.039945	0.054711
1111.199602	0.052392
1111.359240	0.055087
1111.518861	0.057563
1111.678463	0.053853
1111.838047	0.053102
1111.997613	0.053972
1112.157161	0.053994
1112.316690	0.049661
1112.476202	0.051772
1112.635695	0.055770
1112.795169	0.055546
1112.954626	0.053940
1113.114064	0.054569
1113.273484	0.054142
1113.432886	0.054125
1113.592270	0.054239
1113.751635	0.057996
1113.910983	0.058958
1114.070312	0.058585
1114.229622	0.058898
1114.388915	0.062059
1114.548189	0.062087
1114.707445	0.063273
1114.866683	0.064226
1115.025903	0.064287
1115.185104	0.063304
1115.344287	0.062849
1115.503452	0.063179
1115.662599	0.060106
1115.821727	0.056361
1115.980838	0.055006
1116.139930	0.054913
1116.299004	0.054445
1116.458059	0.052087
1116.617097	0.052831
1116.776116	0.051084
1116.935117	0.048947
1117.094099	0.049116
1117.253064	0.050466
1117.412010	0.054340
1117.570938	0.054897
1117.729848	0.057728
1117.888740	0.061402
1118.047613	0.063897
1118.206468	0.064830
1118.365305	0.067099
1118.524124	0.067238
1118.682924	0.065156
1118.841707	0.065303
1119.000471	0.061850
1119.159216	0.055626
1119.317944	0.055579
1119.476653	0.053549
1119.635344	0.050728
1119.794017	0.049511
1119.952672	0.052621
1120.111308	0.055505
1120.269927	0.052538
1120.428527	0.054296
1120.587108	0.059041
1120.745672	0.059586
1120.904217	0.060204
1121.062744	0.063276
1121.221253	0.063321
1121.379744	0.060965
1121.538216	0.059735
1121.696671	0.059246
1121.855107	0.059202
1122.013524	0.058239
1122.171924	0.057297
1122.330305	0.058073
1122.488668	0.054799
1122.647013	0.056277
1122.805340	0.056150
1122.963648	0.056555
1123.121938	0.058036
1123.280210	0.056839
1123.438464	0.055830
1123.596700	0.057957
1123.754917	0.055415
1123.913116	0.057634
1124.071297	0.054806
1124.229459	0.056294
1124.387604	0.056594
1124.545730	0.056208
1124.703838	0.057225
1124.861928	0.059401
1125.019999	0.056611
1125.178052	0.055998
1125.336088	0.057494
1125.494104	0.057689
1125.652103	0.055990
1125.810083	0.056415
1125.968045	0.057439
1126.125989	0.054266
1126.283915	0.051746
1126.441823	0.052481
1126.599712	0.048200
1126.757583	0.047008
1126.915436	0.046032
1127.073270	0.048141
1127.231087	0.046833
1127.388885	0.046113
1127.546665	0.048061
1127.704426	0.048512
1127.862170	0.048069
1128.019895	0.050007
1128.177602	0.049819
1128.335291	0.053123
1128.492961	0.051101
1128.650614	0.051488
1128.808248	0.052601
1128.965864	0.050604
1129.123461	0.048976
1129.281041	0.048003
1129.438602	0.049161
1129.596145	0.051491
1129.753670	0.048087
1129.911176	0.048381
1130.068665	0.050045
1130.226135	0.050710
1130.383587	0.051377
1130.541020	0.050006
1130.698436	0.053402
1130.855833	0.056844
1131.013212	0.055275
1131.170573	0.057609
1131.327915	0.053932
1131.485239	0.048512
1131.642545	0.047401
1131.799833	0.050007
1131.957103	0.050619
1132.114354	0.049314
1132.271588	0.049723
1132.428803	0.047275
1132.585999	0.046350
1132.743178	0.047886
1132.900338	0.050488
1133.057480	0.048810
1133.214604	0.045194
1133.371710	0.046297
1133.528797	0.044765
1133.685866	0.041070
1133.842917	0.040739
1133.999950	0.042337
1134.156964	0.042351
1134.313960	0.044976
1134.470938	0.047606
1134.627898	0.049040
1134.784840	0.051269
1134.941763	0.052703
1135.098668	0.053583
1135.255555	0.055420
1135.412424	0.052010
1135.569274	0.053416
1135.726107	0.055413
1135.882921	0.053279
1136.039716	0.054334
1136.196494	0.054294
1136.353253	0.051935
1136.509995	0.052412
1136.666717	0.051009
1136.823422	0.052209
1136.980109	0.051928
1137.136777	0.049784
1137.293427	0.051857
1137.450059	0.049574
1137.606672	0.050369
1137.763267	0.052661
1137.919844	0.053775
1138.076403	0.052874
1138.232944	0.053953
1138.389466	0.053912
1138.545971	0.055030
1138.702457	0.053828
1138.858924	0.055481
1139.015374	0.052147
1139.171805	0.049832
1139.328218	0.046245
1139.484613	0.047091
1139.640990	0.046909
1139.797348	0.044320
1139.953688	0.041309
1140.110010	0.042959
1140.266314	0.044903
1140.422600	0.046821
1140.578867	0.048285
1140.735116	0.051355
1140.891347	0.054336
1141.047559	0.055451
1141.203754	0.061022
1141.359930	0.062897
1141.516088	0.060703
1141.672228	0.060811
1141.828349	0.061460
1141.984452	0.063109
1142.140537	0.062179
1142.296604	0.058786
1142.452653	0.056176
1142.608683	0.051173
1142.764695	0.050013
1142.920689	0.051940
1143.076665	0.050746
1143.232622	0.051050
1143.388562	0.048484
1143.544483	0.049867
1143.700385	0.051382
1143.856270	0.053923
1144.012136	0.059528
1144.167985	0.056599
1144.323814	0.052580
1144.479626	0.056631
1144.635420	0.052909
1144.791195	0.053669
1144.946952	0.049608
1145.102691	0.048189
1145.258411	0.047801
1145.414113	0.042865
1145.569798	0.045489
1145.725463	0.051029
1145.881111	0.047856
1146.036741	0.050052
1146.192352	0.048313
1146.347945	0.054545
1146.503519	0.056756
1146.659076	0.056165
1146.814614	0.058350
1146.970134	0.055955
1147.125636	0.050098
1147.281120	0.049271
1147.436585	0.049040
1147.592032	0.050960
1147.747461	0.046073
1147.902872	0.046158
1148.058265	0.045987
1148.213639	0.048102
1148.368995	0.049563
1148.524333	0.053575
1148.679653	0.054685
1148.834954	0.054503
1148.990237	0.054580
1149.145502	0.056887
1149.300749	0.055980
1149.455977	0.056175
1149.611188	0.053486
1149.766380	0.058072
1149.921553	0.055086
1150.076709	0.053480
1150.231846	0.056076
1150.386966	0.056306
1150.542066	0.060040
1150.697149	0.063291
1150.852214	0.060872
1151.007260	0.062628
1151.162288	0.057141
1151.317298	0.057457
1151.472289	0.057415
1151.627263	0.052569
1151.782218	0.051629
1151.937155	0.045132
1152.092073	0.045908
1152.246974	0.047055
1152.401856	0.045376
1152.556720	0.046499
1152.711566	0.046149
1152.866393	0.046442
1153.021203	0.044778
1153.175994	0.044000
1153.330767	0.047411
1153.485521	0.045681
1153.640258	0.046850
1153.794976	0.046734
1153.949676	0.049136
1154.104358	0.049347
1154.259021	0.048505
1154.413667	0.049360
1154.568294	0.051075
1154.722903	0.055133
1154.877493	0.052694
1155.032066	0.054250
1155.186620	0.051021
1155.341156	0.049253
1155.495674	0.046358
1155.650173	0.045240
1155.804654	0.053103
1155.959118	0.052903
1156.113562	0.048745
1156.267989	0.047488
1156.422397	0.046176
1156.576788	0.050142
1156.731160	0.049983
1156.885513	0.053578
1157.039849	0.057615
1157.194166	0.052662
1157.348465	0.052320
1157.502746	0.052871
1157.657009	0.052306
1157.811253	0.050433
1157.965479	0.044855
1158.119687	0.044559
1158.273877	0.044991
1158.428048	0.043289
1158.582201	0.040754
1158.736337	0.041324
1158.890453	0.035574
1159.044552	0.034861
1159.198632	0.037177
1159.352694	0.040038
1159.506738	0.042510
1159.660764	0.043989
1159.814771	0.045206
1159.968761	0.046711
1160.122732	0.045526
1160.276685	0.050763
1160.430619	0.052291
1160.584535	0.046641
1160.738434	0.050697
1160.892313	0.048329
1161.046175	0.049652
1161.200019	0.045360
1161.353844	0.045639
1161.507651	0.046989
1161.661440	0.045125
1161.815210	0.048990
1161.968962	0.049499
1162.122697	0.049149
1162.276412	0.049402
1162.430110	0.044879
1162.583789	0.048067
1162.737451	0.042754
1162.891094	0.039762
1163.044718	0.037152
1163.198325	0.032434
1163.351913	0.030289
1163.505483	0.027647
1163.659035	0.027630
1163.812569	0.027893
1163.966084	0.029647
1164.119581	0.037101
1164.273060	0.038636
1164.426521	0.040450
1164.579964	0.038250
1164.733388	0.041882
1164.886794	0.042350
1165.040182	0.041715
1165.193551	0.042693
1165.346903	0.036323
1165.500236	0.033830
1165.653551	0.037942
1165.806848	0.039081
1165.960126	0.042324
1166.113386	0.043464
1166.266628	0.044251
1166.419852	0.046059
1166.573058	0.046501
1166.726245	0.045459
1166.879414	0.047636
1167.032565	0.043001
1167.185698	0.045630
1167.338812	0.041373
1167.491909	0.039560
1167.644987	0.037193
1167.798046	0.033723
1167.951088	0.031680
1168.104111	0.033777
1168.257117	0.028087
1168.410103	0.025720
1168.563072	0.024693
1168.716023	0.031548
1168.868955	0.032798
1169.021869	0.036127
1169.174765	0.037194
1169.327642	0.040635
1169.480501	0.045987
1169.633343	0.050922
1169.786165	0.051474
1169.938970	0.047934
1170.091757	0.045185
1170.244525	0.044839
1170.397275	0.040707
1170.550007	0.038309
1170.702720	0.033843
1170.855415	0.029792
1171.008092	0.029598
1171.160751	0.032645
1171.313392	0.035341
1171.466014	0.031822
1171.618619	0.048760
1171.771205	0.048760
1171.923772	0.048760
