sample name	sample
index	1459
start time	 05-10-2021  01:49:22 PM
880	0.266542
Peak Time (s)	92.537
Peak Height 	0.2665
calc peak height	90,93
Baseline Time (s)	9.539
Baseline Value 	-0.002741
subtract baseline	10,4
Abs	0.179834
Peak Time (s)	92.537
Peak Height 	0.1798
calc peak height	90,93
Baseline Time (s)	11.037
Baseline Value 	0.003206
subtract baseline	10,3
PK_550	0.099617
Peak Time (s)	91.037
Peak Height 	0.09962
calc peak height	90,93
Baseline Time (s)	11.537
Baseline Value 	5.0618E-4
subtract baseline	10,2
PK_880	0.165131
Peak Time (s)	90.035
Peak Height 	0.1651
calc peak height	90,93
Baseline Time (s)	10.537
Baseline Value 	0.001625
subtract baseline	10,1


Time (s)	A880-A510	A880-A775	A880-A975	A880	I510	I775	I975	I880	
0.035500	0.001799	0.000178	0.005538	0.001380	6516.507616	44112.514126	3966.395706	22690.632031
0.536500	-0.001672	-0.000117	-0.001294	0.003449	6470.044204	43889.014992	3943.043679	22596.387349
1.036500	-0.002405	-0.000766	-0.001201	0.003221	6465.832282	43849.299772	3943.875552	22606.725097
1.537000	0.001208	-0.000228	-0.001431	0.000654	6517.656461	44142.885517	3949.965490	22723.838546
2.037000	0.000964	0.000331	-0.002284	0.000921	6513.332826	44170.531125	3947.043057	22711.592573
2.537500	-0.000119	-0.000535	-0.002631	0.000271	6509.689101	44150.097617	3947.834357	22741.355218
3.037500	0.000744	-0.000309	-0.001602	0.000079	6518.581733	44189.798848	3951.020953	22750.128535
3.535000	-0.000912	-0.000231	-0.002857	0.000394	6501.977430	44167.310479	3946.924953	22735.734501
4.035500	-0.002684	-0.000290	-0.000868	0.000267	6488.170090	44173.699880	3952.450057	22741.520451
4.536000	-0.000583	0.000296	-0.004035	0.000476	6504.055648	44209.557517	3943.645042	22731.955141
5.039000	-0.000903	-0.000074	0.000082	0.000439	6501.676631	44177.899324	3954.490130	22733.660563
5.536500	-0.000364	0.000153	-0.003913	0.000223	6508.026902	44220.019543	3944.619737	22743.542682
6.036500	0.000343	0.000631	-0.000319	0.000262	6513.657143	44261.728760	3953.901763	22741.751260
6.537000	-0.000748	-0.000619	-0.007222	-0.000602	6511.737378	44224.992375	3938.178017	22781.335563
7.037500	-0.000635	0.001239	-0.001699	0.000469	6503.676043	44299.822313	3949.748063	22732.259500
7.535000	-0.003334	-0.000097	-0.000910	-0.000259	6487.137947	44242.066552	3953.718523	22765.640634
8.034500	-0.000257	-0.000196	0.002311	-0.000041	6511.150998	44211.936751	3961.618403	22755.629617
8.535500	0.001533	-0.000175	0.001384	0.000130	6524.818809	44197.582443	3958.721515	22747.780742
9.035500	0.000905	0.000344	0.000153	0.000594	6515.600427	44202.913377	3954.269243	22726.568785
9.538500	-0.000946	0.000045	-0.001822	0.000000	6505.007107	44230.903977	3950.651528	22753.754333
10.036000	0.000717	0.000628	-0.001358	-0.000187	6520.610049	44304.184722	3952.356363	22762.329416
10.536500	0.000000	-0.000566	-0.001599	-0.000484	6517.062670	44218.885013	3952.505124	22775.961267
11.036500	-0.002074	-0.000233	0.000000	-0.000316	6498.181675	44234.525262	3956.256796	22768.249405
11.537000	-0.001509	0.000000	0.000172	0.000063	6499.740017	44220.683396	3955.713357	22750.882927
12.037000	-0.000182	-0.000255	-0.003819	0.000464	6507.524961	44158.315211	3944.235956	22732.488111
12.535000	-0.001557	-0.000202	-0.002394	-0.000061	6500.374966	44213.216265	3949.317323	22756.526923
13.035000	-0.002088	0.000000	-0.001691	0.000194	6493.779184	44208.253888	3950.489770	22744.884217
13.538000	-0.000108	0.000793	0.003061	0.001252	6501.527912	44183.037996	3960.187285	22696.502475
14.038500	-0.002712	0.000156	-0.002052	0.002469	6469.535346	44007.314591	3943.619049	22640.955017
14.536000	-0.002510	-0.000102	-0.001936	0.001727	6477.414562	44053.093868	3945.848903	22674.779148
15.036000	-0.000409	0.000009	-0.002964	0.000122	6508.505373	44215.896051	3947.353731	22748.183161
15.536500	0.001565	-0.000519	-0.001986	-0.000150	6527.467794	44191.630429	3950.618615	22760.648090
16.036500	0.000203	0.000303	0.003900	0.000493	6510.534875	44208.622995	3964.407240	22731.192508
16.537000	-0.001350	-0.000399	0.002077	0.000256	6499.453844	44164.354238	3960.214999	22742.020631
17.034500	0.001793	0.000527	-0.002868	-0.002723	6551.257173	44536.812626	3955.046479	22878.901356
17.534500	-0.001015	0.000364	-0.000386	0.000830	6497.445687	44182.370499	3952.236899	22715.748361
18.035000	-0.001934	0.000129	-0.000848	0.001800	6481.619171	44068.053693	3948.495831	22671.452142
18.535500	-0.000050	0.000947	0.003537	0.002506	6491.481839	44078.696720	3958.134509	22639.271133
19.036000	-0.000527	0.000323	0.001268	0.001620	6494.909995	44103.541179	3954.502747	22679.668936
19.536000	-0.000675	-0.000906	-0.001219	0.000866	6499.999066	44058.481254	3949.964819	22714.110952
20.036000	-0.000552	-0.000370	-0.002791	0.001170	6498.481238	44080.507536	3945.075489	22700.246641
20.537000	0.001006	0.000721	-0.003972	0.001984	6504.737584	44106.715683	3939.897277	22663.067527
21.037000	-0.000056	0.000674	-0.000157	0.002190	6494.086505	44082.769033	3949.282689	22653.693380
21.537000	-0.000961	0.001130	0.001855	0.002576	6483.265510	44089.439027	3953.533991	22636.102440
22.039000	-0.000068	-0.000192	0.000251	0.001837	6496.944388	44034.207411	3951.268900	22669.758994
22.535000	-0.001519	0.000761	0.001287	0.002167	6482.021554	44093.221848	3953.117607	22654.725988
23.035500	-0.001274	0.000141	0.001439	0.001945	6485.932677	44055.571944	3954.100410	22664.865746
23.535500	-0.000686	0.001063	0.000213	0.002659	6484.874002	44075.131557	3949.021453	22632.303917
24.036500	-0.000199	0.000049	-0.002498	0.002096	6493.672264	44032.477381	3943.427305	22657.953643
24.536500	0.000999	0.000057	0.002085	0.002220	6502.691086	44021.545705	3955.072626	22652.327298
25.036500	-0.001478	0.000069	0.001493	0.001545	6487.569283	44086.590636	3955.288264	22683.097103
25.537000	-0.000450	0.000437	-0.000360	0.002922	6484.652504	43991.158200	3946.844031	22620.363564
26.037000	-0.000058	0.000357	-0.002532	0.001979	6495.834971	44072.680966	3943.643768	22663.293341
26.535000	-0.001439	0.000003	-0.001210	0.002160	6482.749933	44022.096142	3946.614211	22655.065840
27.035500	0.000554	0.000530	0.000236	0.000787	6511.014730	44202.221124	3953.981101	22717.752483
27.535000	0.000683	0.000505	0.001074	-0.001552	6531.869642	44422.659866	3962.339678	22824.965827
28.035500	0.000731	0.000428	0.001983	0.000930	6511.289984	44178.903372	3958.194017	22711.175474
28.536000	-0.000593	0.000556	0.000377	0.003184	6481.261997	43977.572153	3948.081392	22608.444748
29.035500	0.001011	0.001572	-0.004648	0.001714	6507.050048	44213.116637	3938.843846	22675.378474
29.536500	0.000292	-0.000285	0.000660	-0.000021	6515.613372	44201.509022	3957.215414	22754.712703
30.036500	-0.000268	0.000834	0.002611	0.001074	6501.675149	44203.838835	3959.468714	22704.600359
30.537000	-0.000478	-0.000113	0.001647	0.002824	6485.230880	43948.363306	3952.340285	22624.787822
31.037000	-0.001379	0.000416	-0.000330	0.002519	6480.247000	44027.187188	3947.968848	22638.673342
31.537500	0.001768	0.000188	0.004813	0.000674	6522.211476	44180.465712	3966.345150	22722.905655
32.034500	0.000397	0.000656	0.000113	0.000777	6509.766327	44215.137751	3953.682752	22718.171866
32.535500	-0.001644	0.000191	-0.003092	0.002849	6475.272952	43974.654493	3939.935216	22623.645599
33.036000	0.000185	0.000195	0.006740	0.000854	6507.337951	44164.040155	3970.982246	22714.657578
33.536000	0.002012	0.000468	0.004447	-0.000606	6535.119137	44328.908551	3968.770277	22781.536258
34.039000	0.000090	-0.000211	0.002809	0.002042	6496.547095	44012.982332	3957.439382	22660.411136
34.536500	-0.002904	-0.000018	0.000727	0.002508	6467.611085	43987.201207	3950.760319	22639.182154
35.036500	-0.001460	0.000762	0.000106	0.002759	6477.570297	44037.265312	3948.482903	22627.780843
35.537000	0.000595	0.000644	-0.000310	0.002234	6499.174834	44075.695581	3948.765845	22651.653552
36.040000	0.001522	0.001236	0.001521	0.002973	6500.753582	44061.836961	3951.619079	22618.007889
36.534500	-0.001727	-0.000246	-0.002178	0.002635	6476.377280	43953.658956	3942.860576	22633.425235
37.035000	-0.000853	0.000676	0.001513	0.002759	6482.639752	44029.070020	3952.159437	22627.747122
37.538500	-0.001941	0.000275	0.002673	0.002446	6476.158747	44020.762740	3956.021553	22642.003266
38.036000	-0.002169	0.000792	0.002547	0.002416	6474.506182	44072.455085	3955.769182	22643.362009
38.536000	-0.001716	-0.000922	0.003907	0.001380	6486.952221	44008.353886	3962.078889	22690.622706
39.036500	-0.000709	0.000358	-0.001803	0.002324	6487.485042	44040.165797	3944.642804	22647.594204
39.536500	-0.002536	0.000020	-0.004763	0.001826	6476.370363	44055.275274	3938.256461	22670.265010
40.037000	-0.001092	0.000444	-0.003759	0.002233	6485.034185	44056.925011	3939.801259	22651.706252
40.540000	-0.001305	0.000421	0.000904	0.002471	6481.262739	44032.228667	3951.317580	22640.863060
41.034500	-0.003162	-0.000275	0.003687	0.001853	6470.929109	44024.855708	3960.251664	22669.063740
41.535000	-0.003062	-0.000687	0.001702	0.001855	6471.740050	43985.658643	3955.023946	22668.947358
42.035000	0.000818	0.000445	0.001337	0.002565	6498.277774	44025.619941	3952.206775	22636.616246
42.535500	0.000637	-0.000157	-0.000344	0.003903	6485.532914	43842.478092	3944.331080	22575.761542
43.036000	-0.001467	-0.000062	-0.001417	0.002445	6480.134694	43989.012994	3945.331923	22642.060809
43.536500	0.001326	0.001193	-0.001055	0.003629	6493.600523	43995.689818	3943.194695	22588.187129
44.036000	-0.000495	0.000122	0.003899	-0.002501	6529.937624	44476.797620	3972.353272	22868.680592
44.537000	0.000836	0.000146	-0.003830	0.001261	6509.393293	44120.764093	3942.138854	22696.056499
45.037500	0.000098	0.000890	0.006452	0.001821	6498.476100	44138.198075	3967.650504	22670.510437
45.537500	0.000285	0.000285	0.001142	0.000911	6507.699077	44167.228264	3956.033654	22712.069924
46.037500	-0.000332	0.000350	0.004634	0.000993	6501.815914	44165.572777	3965.024681	22708.308941
46.535000	-0.002837	-0.000263	-0.001980	0.005455	6443.710586	43686.680073	3936.072877	22505.430568
47.035500	-0.000307	-0.000051	-0.002555	0.001491	6497.842189	44080.260360	3944.850987	22685.545788
47.535500	-0.000593	0.000246	-0.000381	0.002839	6484.149526	43980.864944	3947.003689	22624.125205
48.036500	-0.001080	-0.000201	0.002090	0.002034	6486.806071	44014.659974	3955.572032	22660.782393
48.536500	-0.002451	0.000825	0.002857	0.006076	6441.765770	43730.443748	3947.006615	22477.358184
49.037000	-0.000624	0.000457	0.000591	0.001537	6494.795467	44124.019714	3952.944798	22683.448777
49.537000	-0.000133	0.000772	0.004948	-0.000085	6512.570305	44308.272453	3968.717379	22757.664785
50.037000	0.001525	-0.000691	-0.002382	-0.002709	6548.854341	44418.913519	3956.284218	22878.237386
50.537000	-0.004180	-0.002009	-0.004609	0.006693	6422.416334	43407.638480	3926.137502	22449.510743
51.035000	-0.014394	-0.012995	0.008461	0.034278	6124.665339	39968.467278	3889.621485	21243.803253
51.538000	0.002939	-0.021958	0.022789	0.206114	5144.489302	27359.598802	3562.817465	15236.013846
52.035500	-0.010827	-0.032860	-0.029093	-0.133307	7706.260423	54970.333595	4264.637400	29901.640657
52.538500	-0.030048	-0.133487	-0.047616	-0.314217	9896.623220	65535.000000	4921.790495	43875.924523
53.036000	-0.013588	-0.076028	-0.023671	-0.248818	9145.708971	64400.899275	4730.015881	38141.749495
53.536500	-0.006736	-0.043907	-0.014002	-0.197464	8532.570438	61738.479409	4554.776504	34206.821863
54.036500	-0.004793	-0.026481	-0.002432	-0.131306	7751.573211	55497.436942	4349.315875	29777.343535
54.540000	-0.011253	-0.020403	-0.009209	-0.114622	7497.218055	54229.418982	4268.644301	28762.808333
55.036500	-0.008203	-0.027393	-0.006908	-0.159169	8035.449521	58862.418495	4434.192842	31561.011927
55.534500	0.000866	-0.024993	0.004358	-0.156151	8108.206036	58782.851475	4465.231386	31362.246120
56.035000	0.013359	-0.010128	0.022836	-0.085111	7445.102959	52007.355552	4277.149607	27061.067951
56.538000	0.025175	0.000513	0.031991	-0.031059	7019.296769	47339.857440	4133.570880	24228.729191
57.036000	0.033661	0.009731	0.044310	0.026694	6572.199934	42645.063709	4002.622309	21567.683538
57.537000	0.046650	0.015479	0.053893	0.062285	6383.466020	40008.415098	3933.606505	20095.594888
58.039000	0.057671	0.023787	0.065220	0.085620	6284.694078	38747.735400	3903.108611	19193.862974
58.536500	0.070771	0.032444	0.077214	0.113311	6171.222627	37212.180136	3864.490465	18184.788641
59.037000	0.077336	0.037764	0.086759	0.121999	6155.036319	36947.540039	3866.565172	17881.259766
59.537000	0.085695	0.042989	0.100519	0.151766	5996.085525	35079.029460	3828.520521	16886.055068
60.037500	0.093067	0.048080	0.108958	0.163740	5962.923214	34573.616668	3820.305748	16504.567194
60.535000	0.101171	0.052497	0.114501	0.176168	5932.096194	33995.547140	3804.500409	16119.618481
61.035000	0.109815	0.057070	0.122910	0.202943	5806.087941	32447.786345	3763.538127	15326.723932
61.534500	0.114545	0.059170	0.133840	0.212235	5775.198567	31963.139162	3767.120295	15062.772800
62.036000	0.115436	0.061222	0.137672	0.220541	5725.687099	31548.255920	3757.366801	14831.601795
62.538500	0.117265	0.065255	0.131389	0.217426	5758.608692	32023.027202	3750.518699	14917.790763
63.035500	0.121037	0.069093	0.139111	0.216514	5790.147836	32342.834187	3769.298767	14943.140247
63.536000	0.125394	0.073207	0.139555	0.214675	5832.386627	32748.634270	3774.327012	14994.416077
64.037000	0.128209	0.074729	0.142161	0.213902	5857.119807	32906.554478	3781.817137	15016.022992
64.537500	0.130102	0.075963	0.135892	0.212965	5876.781900	33056.725552	3770.022520	15042.292222
65.034500	0.133757	0.077575	0.145212	0.212910	5902.737840	33172.504118	3790.855949	15043.822154
65.534500	0.134640	0.078926	0.145111	0.214885	5895.075725	33129.170231	3786.204720	14988.547497
66.035500	0.134035	0.078638	0.146843	0.215887	5883.832091	33039.594814	3787.837584	14960.576365
66.536000	0.132693	0.080201	0.150142	0.224880	5812.497206	32529.083761	3775.171055	14712.573380
67.038500	0.136803	0.081845	0.151921	0.223427	5850.681441	32740.760459	3782.340814	14752.286065
67.536500	0.143034	0.083369	0.143667	0.225864	5877.012242	32678.234344	3758.826185	14685.746992
68.036500	0.139581	0.083072	0.152813	0.226867	5846.112592	32589.354000	3776.683921	14658.447681
68.537000	0.139547	0.084485	0.152469	0.234618	5792.886052	32159.738645	3758.929037	14449.706715
69.037000	0.142859	0.086244	0.154000	0.232085	5832.761390	32449.966322	3767.800325	14517.521052
69.537500	0.146684	0.088097	0.152462	0.236086	5831.551180	32304.375005	3755.729221	14410.607584
70.035000	0.144383	0.088233	0.157033	0.238907	5796.599987	32123.389587	3759.527921	14335.814118
70.535000	0.145797	0.088764	0.158314	0.246260	5756.589961	31668.592893	3746.417966	14143.129257
71.035500	0.150606	0.089356	0.162786	0.244688	5799.601847	31812.075809	3759.466623	14184.038698
71.536000	0.151308	0.090028	0.157328	0.245345	5799.904869	31813.076450	3746.263128	14166.917647
72.036000	0.150571	0.090690	0.165179	0.246029	5790.273234	31811.590301	3761.755228	14149.121315
72.536000	0.146372	0.090149	0.160873	0.251068	5728.393299	31442.985156	3741.605650	14018.870185
73.036500	0.153175	0.093314	0.170934	0.248409	5791.784145	31827.799975	3769.138283	14087.408080
73.537000	0.153650	0.093078	0.166353	0.247723	5799.657629	31857.766371	3760.622683	14105.157578
74.037000	0.152867	0.092938	0.171765	0.247788	5793.902433	31844.095912	3772.333072	14103.473785
74.535000	0.156529	0.093386	0.168503	0.254006	5776.633290	31462.638429	3751.668906	13943.631704
75.034500	0.159672	0.095738	0.175062	0.251111	5817.600555	31809.328236	3772.277627	14017.772031
75.535000	0.156558	0.094739	0.171878	0.249036	5810.514790	31880.979001	3769.837093	14071.215651
76.035000	0.158472	0.095974	0.171062	0.250328	5814.754282	31877.119952	3765.213285	14037.896091
76.536000	0.157327	0.095431	0.168060	0.254574	5778.184123	31559.828086	3749.491932	13929.143101
77.036000	0.158182	0.096865	0.169608	0.250719	5810.111518	31910.454341	3761.185951	14027.844891
77.536000	0.161993	0.097965	0.173611	0.251005	5834.236134	31964.878951	3769.318304	14020.504524
78.036500	0.160454	0.096425	0.168704	0.250197	5829.216828	31915.986876	3760.355507	14041.292554
78.537000	0.164135	0.098802	0.170196	0.251430	5846.052215	31992.437602	3760.920584	14009.586490
79.037500	0.161124	0.098444	0.174413	0.250896	5829.015983	32004.150028	3771.321625	14023.297812
79.534500	0.162156	0.098620	0.172386	0.250647	5837.816419	32032.682477	3767.414892	14029.711422
80.035500	0.162706	0.098918	0.174960	0.251325	5836.926819	32007.138202	3771.579264	14012.264267
80.535500	0.162327	0.100035	0.176218	0.256004	5802.351575	31769.752616	3764.075851	13892.742231
81.035500	0.162687	0.100231	0.178182	0.252387	5829.508832	32023.979998	3776.348081	13985.030472
81.536000	0.163552	0.102477	0.173498	0.253934	5824.831581	32070.804193	3762.657040	13945.462292
82.036500	0.164167	0.101746	0.173688	0.252900	5836.147154	32091.146331	3765.332370	13971.897931
82.536500	0.165602	0.102292	0.170118	0.253794	5839.872947	32067.834549	3755.617504	13949.047962
83.036500	0.163044	0.100958	0.174014	0.253767	5822.498711	31980.300882	3764.150008	13949.740870
83.534500	0.163737	0.101344	0.172105	0.254288	5823.678437	31971.271630	3758.856842	13936.444089
84.035000	0.164674	0.101929	0.174506	0.255052	5824.860485	31959.282365	3762.418354	13916.964629
84.534500	0.166898	0.101863	0.170465	0.256265	5831.792886	31873.941347	3751.028330	13886.114989
85.035000	0.164171	0.102116	0.172727	0.257716	5803.251550	31794.284586	3752.779745	13849.345572
85.535500	0.163158	0.100738	0.172321	0.257201	5799.863514	31736.939002	3753.012957	13862.376350
86.036000	0.165262	0.101241	0.171609	0.257836	5809.855879	31728.203343	3750.109235	13846.296630
86.536000	0.159634	0.100984	0.177161	0.261851	5744.867460	31446.443421	3753.423936	13745.183547
87.036500	0.164904	0.101368	0.173113	0.259977	5792.877653	31595.020019	3748.738365	13792.257412
87.536500	0.163888	0.100661	0.179050	0.259825	5787.032584	31558.443817	3761.919241	13796.096934
88.037000	0.165098	0.100234	0.179155	0.259943	5794.418999	31522.530827	3761.888893	13793.108153
88.537500	0.160907	0.099854	0.176631	0.261571	5755.238096	31390.668930	3752.882528	13752.201477
89.037000	0.163961	0.099958	0.175231	0.261562	5775.797892	31398.075783	3749.885112	13752.420134
89.535000	0.164990	0.100640	0.176931	0.262086	5779.203617	31408.440615	3752.420683	13739.299385
90.035500	0.165131	0.099288	0.173490	0.262060	5780.325188	31321.630055	3745.078132	13739.939892
90.536000	0.162829	0.098587	0.172409	0.265238	5743.590993	31069.352705	3736.006992	13660.620075
91.036500	0.163273	0.099617	0.177227	0.263509	5758.100723	31248.552320	3749.991424	13703.702361
91.536000	0.162870	0.098983	0.175407	0.264449	5749.126123	31146.115354	3744.069095	13680.245398
92.036500	0.164717	0.099408	0.178845	0.265747	5752.793169	31089.503424	3748.657151	13647.952039
92.536500	0.163187	0.099307	0.179834	0.266542	5737.296899	31031.505156	3749.075032	13628.236141
93.037500	0.165207	0.098674	0.173708	0.266908	5748.314786	30966.960619	3735.219686	13619.162558
93.582000	0.162175	0.098261	0.179933	0.268016	5720.817402	30868.982412	3746.122096	13591.736791
94.035000	0.165659	0.100009	0.179328	0.270076	5730.242855	30848.881407	3740.429227	13540.942399
94.535500	0.164729	0.097616	0.177829	0.270456	5721.569300	30671.256602	3736.433601	13531.601223
95.035500	0.164552	0.098493	0.177953	0.270440	5720.509488	30728.363342	3736.731726	13531.999762
95.536000	0.164292	0.096838	0.176696	0.270446	5718.746941	30622.283539	3734.055501	13531.837929
96.036000	0.163825	0.097861	0.179392	0.272577	5701.639462	30551.744965	3735.251015	13479.589652
