sample name	sample
index	970
start time	 04-14-2021  02:30:18 PM


Wavelength (nm)	Absorbance
494.344910	-0.030669
494.563924	-0.030669
494.782919	-0.030669
495.001897	0.053985
495.220856	-0.005647
495.439797	0.005106
495.658719	0.017840
495.877624	0.018526
496.096510	-0.008568
496.315378	-0.033373
496.534227	-0.037790
496.753059	-0.040435
496.971872	-0.025833
497.190667	0.064488
497.409444	0.082196
497.628203	0.088693
497.846943	0.094392
498.065665	0.099157
498.284369	0.102129
498.503055	0.103109
498.721723	0.104090
498.940372	0.104796
499.159003	0.105464
499.377616	0.105590
499.596210	0.105521
499.814787	0.105816
500.033345	0.106487
500.251885	0.106267
500.470406	0.106060
500.688910	0.104501
500.907395	0.104304
501.125862	0.103026
501.344311	0.103325
501.562742	0.104528
501.781154	0.104381
501.999548	0.104337
502.217924	0.103818
502.436282	0.104131
502.654621	0.104411
502.872942	0.105434
503.091245	0.106732
503.309530	0.107259
503.527797	0.106601
503.746045	0.106581
503.964275	0.104971
504.182487	0.105723
504.400681	0.105719
504.618856	0.106743
504.837013	0.106177
505.055152	0.106168
505.273273	0.105871
505.491376	0.105692
505.709460	0.106047
505.927526	0.107551
506.145574	0.107850
506.363604	0.108258
506.581615	0.108989
506.799608	0.109143
507.017583	0.108168
507.235540	0.108350
507.453478	0.108093
507.671399	0.108106
507.889301	0.107863
508.107185	0.106994
508.325050	0.107586
508.542898	0.106961
508.760727	0.106643
508.978538	0.107619
509.196330	0.108232
509.414105	0.108463
509.631861	0.107663
509.849599	0.106837
510.067319	0.107832
510.285021	0.107192
510.502704	0.106597
510.720369	0.107681
510.938016	0.108349
511.155645	0.108445
511.373255	0.108238
511.590848	0.108810
511.808422	0.109256
512.025977	0.109534
512.243515	0.109108
512.461034	0.110084
512.678536	0.109674
512.896018	0.108383
513.113483	0.107591
513.330930	0.107466
513.548358	0.107594
513.765768	0.108305
513.983160	0.108165
514.200533	0.108133
514.417889	0.107365
514.635226	0.106409
514.852545	0.107166
515.069845	0.107106
515.287128	0.107086
515.504392	0.107054
515.721638	0.106057
515.938866	0.105822
516.156075	0.106832
516.373267	0.108092
516.590440	0.109063
516.807594	0.109283
517.024731	0.109803
517.241850	0.111159
517.458950	0.112202
517.676032	0.112869
517.893095	0.112992
518.110141	0.113074
518.327168	0.112897
518.544177	0.113335
518.761168	0.112949
518.978141	0.113855
519.195095	0.113435
519.412031	0.112705
519.628949	0.113626
519.845849	0.113771
520.062731	0.112498
520.279594	0.112184
520.496439	0.111610
520.713266	0.111923
520.930074	0.110980
521.146865	0.110785
521.363637	0.111380
521.580391	0.111712
521.797127	0.111817
522.013844	0.113022
522.230543	0.113320
522.447224	0.113556
522.663887	0.114158
522.880532	0.114718
523.097158	0.115296
523.313766	0.115022
523.530356	0.114577
523.746928	0.115249
523.963481	0.114457
524.180017	0.114490
524.396534	0.114664
524.613032	0.114026
524.829513	0.114305
525.045975	0.114836
525.262420	0.114662
525.478845	0.114880
525.695253	0.114689
525.911643	0.115585
526.128014	0.115569
526.344367	0.116275
526.560702	0.116932
526.777018	0.117131
526.993316	0.117400
527.209597	0.118521
527.425858	0.119037
527.642102	0.118877
527.858328	0.119135
528.074535	0.120175
528.290724	0.120189
528.506894	0.120491
528.723047	0.120851
528.939181	0.120781
529.155297	0.120745
529.371395	0.120766
529.587475	0.121102
529.803536	0.121388
530.019579	0.121836
530.235604	0.121847
530.451611	0.121375
530.667600	0.120960
530.883570	0.121459
531.099522	0.121750
531.315456	0.120948
531.531372	0.121791
531.747269	0.122000
531.963148	0.121708
532.179009	0.122053
532.394852	0.122602
532.610676	0.123378
532.826482	0.123369
533.042271	0.123734
533.258040	0.124308
533.473792	0.124491
533.689525	0.124667
533.905240	0.124734
534.120937	0.124904
534.336616	0.125345
534.552277	0.125024
534.767919	0.125223
534.983543	0.125328
535.199149	0.126280
535.414736	0.125601
535.630306	0.125673
535.845857	0.125950
536.061390	0.125685
536.276904	0.125800
536.492401	0.126872
536.707879	0.126704
536.923339	0.126697
537.138781	0.126277
537.354204	0.126968
537.569610	0.127191
537.784997	0.127073
538.000366	0.127383
538.215716	0.127234
538.431049	0.126813
538.646363	0.127072
538.861659	0.127023
539.076937	0.127219
539.292196	0.127159
539.507438	0.127493
539.722661	0.127816
539.937866	0.128106
540.153052	0.128434
540.368221	0.128660
540.583371	0.128758
540.798503	0.128842
541.013617	0.129740
541.228712	0.129818
541.443789	0.129801
541.658848	0.129951
541.873889	0.130535
542.088912	0.130605
542.303916	0.130644
542.518902	0.131089
542.733870	0.131127
542.948820	0.131077
543.163752	0.131139
543.378665	0.131415
543.593560	0.131782
543.808437	0.131443
544.023295	0.131865
544.238136	0.132321
544.452958	0.132768
544.667762	0.133590
544.882548	0.133472
545.097315	0.134005
545.312064	0.133988
545.526795	0.134268
545.741508	0.134549
545.956203	0.134559
546.170879	0.134478
546.385537	0.134011
546.600177	0.133636
546.814799	0.133859
547.029402	0.134306
547.243988	0.134921
547.458555	0.134941
547.673103	0.135078
547.887634	0.134909
548.102146	0.134902
548.316640	0.135278
548.531116	0.135313
548.745574	0.135163
548.960013	0.135018
549.174435	0.134778
549.388838	0.134889
549.603222	0.135106
549.817589	0.135788
550.031937	0.135677
550.246267	0.135955
550.460579	0.136228
550.674873	0.136889
550.889148	0.136616
551.103405	0.137365
551.317644	0.137488
551.531865	0.137723
551.746068	0.138040
551.960252	0.138598
552.174418	0.138444
552.388566	0.138881
552.602696	0.138785
552.816807	0.139231
553.030900	0.138669
553.244975	0.138919
553.459032	0.138971
553.673070	0.138946
553.887091	0.139365
554.101093	0.139597
554.315077	0.139558
554.529042	0.139727
554.742990	0.139685
554.956919	0.140014
555.170830	0.140223
555.384722	0.140159
555.598597	0.140483
555.812453	0.140288
556.026291	0.140334
556.240111	0.140607
556.453913	0.140378
556.667696	0.140957
556.881461	0.140796
557.095208	0.140486
557.308937	0.141094
557.522647	0.141029
557.736339	0.140964
557.950013	0.141073
558.163669	0.141242
558.377307	0.141445
558.590926	0.141068
558.804527	0.141481
559.018110	0.141874
559.231675	0.141574
559.445221	0.141554
559.658749	0.142045
559.872259	0.142595
560.085751	0.142680
560.299225	0.143040
560.512680	0.143591
560.726117	0.143727
560.939536	0.143785
561.152937	0.143951
561.366319	0.143791
561.579683	0.143745
561.793029	0.143587
562.006357	0.143549
562.219667	0.143482
562.432958	0.143143
562.646231	0.143083
562.859486	0.143138
563.072723	0.143313
563.285941	0.143345
563.499141	0.143396
563.712323	0.143405
563.925487	0.143251
564.138632	0.142992
564.351760	0.142959
564.564869	0.142569
564.777960	0.142506
564.991032	0.142520
565.204087	0.142989
565.417123	0.142764
565.630141	0.142553
565.843140	0.142798
566.056122	0.142954
566.269085	0.142973
566.482030	0.143242
566.694957	0.143245
566.907866	0.143486
567.120756	0.143231
567.333628	0.143425
567.546482	0.143834
567.759318	0.144275
567.972135	0.144529
568.184935	0.144869
568.397716	0.145327
568.610478	0.145770
568.823223	0.145259
569.035949	0.145734
569.248657	0.146043
569.461347	0.145899
569.674019	0.145404
569.886672	0.145588
570.099308	0.145657
570.311925	0.145560
570.524523	0.145610
570.737104	0.146110
570.949666	0.146132
571.162210	0.146457
571.374736	0.146619
571.587244	0.146878
571.799733	0.146735
572.012205	0.146346
572.224658	0.146617
572.437092	0.146092
572.649509	0.145998
572.861907	0.145772
573.074287	0.145191
573.286649	0.145097
573.498993	0.145247
573.711318	0.145606
573.923625	0.146141
574.135914	0.146431
574.348185	0.146740
574.560438	0.146793
574.772672	0.147223
574.984888	0.147931
575.197086	0.148008
575.409266	0.147679
575.621427	0.147445
575.833570	0.147735
576.045695	0.147325
576.257802	0.147932
576.469890	0.148062
576.681961	0.147921
576.894013	0.147783
577.106046	0.147958
577.318062	0.148279
577.530059	0.148597
577.742039	0.148429
577.954000	0.148419
578.165942	0.148202
578.377867	0.148516
578.589773	0.148493
578.801661	0.148243
579.013531	0.148165
579.225382	0.148270
579.437216	0.147972
579.649031	0.148168
579.860828	0.148370
580.072606	0.148481
580.284367	0.148286
580.496109	0.148581
580.707833	0.148707
580.919539	0.149056
581.131227	0.149257
581.342896	0.149562
581.554547	0.149737
581.766180	0.150225
581.977795	0.150190
582.189391	0.150472
582.400969	0.150449
582.612529	0.150827
582.824071	0.151253
583.035595	0.151229
583.247100	0.151410
583.458587	0.151456
583.670056	0.151421
583.881506	0.151305
584.092939	0.150975
584.304353	0.150897
584.515749	0.150953
584.727127	0.150853
584.938486	0.150971
585.149828	0.151042
585.361151	0.151069
585.572456	0.151145
585.783742	0.151456
585.995011	0.151882
586.206261	0.151740
586.417493	0.151765
586.628706	0.151921
586.839902	0.152226
587.051079	0.152317
587.262238	0.152454
587.473379	0.152447
587.684502	0.152454
587.895606	0.152551
588.106692	0.153041
588.317760	0.152793
588.528810	0.152710
588.739841	0.152388
588.950855	0.152442
589.161850	0.152298
589.372827	0.152107
589.583785	0.152369
589.794726	0.152434
590.005648	0.152473
590.216552	0.152937
590.427437	0.152906
590.638305	0.153190
590.849154	0.153692
591.059985	0.153517
591.270798	0.153936
591.481592	0.153942
591.692369	0.154022
591.903127	0.154218
592.113867	0.154334
592.324588	0.154223
592.535292	0.154237
592.745977	0.153795
592.956644	0.154184
593.167293	0.154271
593.377923	0.154433
593.588536	0.154687
593.799130	0.154422
594.009706	0.154247
594.220263	0.154429
594.430803	0.154719
594.641324	0.154881
594.851827	0.155143
595.062312	0.154831
595.272778	0.154693
595.483227	0.154615
595.693657	0.154769
595.904069	0.154958
596.114462	0.155081
596.324838	0.154833
596.535195	0.154892
596.745534	0.154510
596.955855	0.154712
597.166157	0.154732
597.376441	0.154354
597.586707	0.154556
597.796955	0.154579
598.007185	0.154487
598.217396	0.154776
598.427589	0.154543
598.637764	0.154968
598.847921	0.155093
599.058060	0.155057
599.268180	0.155171
599.478282	0.155203
599.688366	0.155462
599.898431	0.155718
600.108479	0.155616
600.318508	0.155964
600.528519	0.155983
600.738511	0.155957
600.948486	0.156426
601.158442	0.156917
601.368380	0.157139
601.578300	0.157330
601.788202	0.157602
601.998085	0.157491
602.207950	0.157591
602.417797	0.157710
602.627626	0.157932
602.837436	0.158131
603.047228	0.158312
603.257002	0.158385
603.466758	0.158119
603.676496	0.158036
603.886215	0.158539
604.095916	0.158569
604.305599	0.158728
604.515264	0.158375
604.724910	0.158146
604.934538	0.157885
605.144148	0.157772
605.353740	0.157769
605.563314	0.157555
605.772869	0.157528
605.982406	0.157612
606.191925	0.157157
606.401425	0.157364
606.610908	0.157344
606.820372	0.157539
607.029818	0.157689
607.239246	0.158236
607.448655	0.158641
607.658047	0.158539
607.867420	0.158825
608.076775	0.159087
608.286111	0.159359
608.495430	0.159581
608.704730	0.159601
608.914012	0.159741
609.123275	0.159339
609.332521	0.159562
609.541748	0.159729
609.750957	0.159608
609.960148	0.159937
610.169321	0.160327
610.378475	0.160540
610.587611	0.160580
610.796729	0.160347
611.005829	0.160643
611.214910	0.160541
611.423974	0.160743
611.633019	0.160886
611.842045	0.161131
612.051054	0.161059
612.260044	0.160799
612.469017	0.160905
612.677970	0.161180
612.886906	0.161255
613.095824	0.161296
613.304723	0.161092
613.513604	0.161130
613.722467	0.160907
613.931311	0.160692
614.140138	0.160715
614.348946	0.160892
614.557736	0.160857
614.766507	0.160807
614.975261	0.160640
615.183996	0.161061
615.392713	0.161305
615.601412	0.161344
615.810092	0.161817
616.018754	0.161865
616.227399	0.162204
616.436024	0.162339
616.644632	0.162422
616.853222	0.162472
617.061793	0.162200
617.270346	0.161921
617.478880	0.162133
617.687397	0.161761
617.895895	0.162166
618.104375	0.161782
618.312837	0.161985
618.521281	0.162075
618.729706	0.162226
618.938113	0.162277
619.146502	0.162644
619.354873	0.162444
619.563226	0.162457
619.771560	0.162442
619.979876	0.162834
620.188174	0.162792
620.396453	0.163069
620.604715	0.163176
620.812958	0.163283
621.021183	0.163210
621.229390	0.163594
621.437578	0.163708
621.645748	0.163486
621.853900	0.163297
622.062034	0.163401
622.270150	0.163396
622.478247	0.163607
622.686326	0.163823
622.894387	0.163848
623.102430	0.163793
623.310454	0.164030
623.518461	0.164491
623.726449	0.164665
623.934418	0.164683
624.142370	0.164794
624.350303	0.164765
624.558218	0.164704
624.766115	0.164765
624.973994	0.164645
625.181855	0.164704
625.389697	0.164714
625.597521	0.164755
625.805327	0.164844
626.013114	0.164799
626.220883	0.164741
626.428634	0.164714
626.636367	0.164742
626.844082	0.164939
627.051778	0.165072
627.259457	0.164951
627.467117	0.165046
627.674758	0.164877
627.882382	0.164875
628.089987	0.164849
628.297574	0.165040
628.505143	0.165278
628.712694	0.165185
628.920226	0.165275
629.127740	0.165451
629.335236	0.165527
629.542714	0.165848
629.750174	0.165733
629.957615	0.166269
630.165038	0.166454
630.372443	0.166262
630.579829	0.166682
630.787198	0.166406
630.994548	0.166375
631.201880	0.166380
631.409194	0.166401
631.616489	0.166615
631.823766	0.166384
632.031025	0.166199
632.238266	0.166366
632.445489	0.166351
632.652693	0.166625
632.859879	0.166675
633.067047	0.166426
633.274197	0.166400
633.481329	0.166519
633.688442	0.166477
633.895537	0.166708
634.102614	0.167022
634.309672	0.166950
634.516713	0.167111
634.723735	0.167111
634.930739	0.167374
635.137724	0.167286
635.344692	0.167109
635.551641	0.167366
635.758572	0.167272
635.965485	0.167120
636.172379	0.167133
636.379256	0.167244
636.586114	0.167274
636.792954	0.167460
636.999775	0.167605
637.206579	0.167810
637.413364	0.167718
637.620131	0.167905
637.826880	0.167846
638.033610	0.168150
638.240323	0.168038
638.447017	0.168129
638.653692	0.168149
638.860350	0.168353
639.066990	0.168546
639.273611	0.168892
639.480214	0.168942
639.686798	0.169282
639.893365	0.169250
640.099913	0.169367
640.306443	0.169456
640.512955	0.169686
640.719449	0.169859
640.925924	0.169972
641.132381	0.170109
641.338820	0.170323
641.545241	0.170392
641.751644	0.170350
641.958028	0.170473
642.164394	0.170666
642.370742	0.170626
642.577071	0.170584
642.783383	0.170532
642.989676	0.170329
643.195951	0.170378
643.402207	0.170449
643.608446	0.170627
643.814666	0.170659
644.020868	0.170900
644.227052	0.170887
644.433218	0.170854
644.639365	0.171122
644.845494	0.171107
645.051605	0.171106
645.257698	0.170951
645.463772	0.171129
645.669828	0.171167
645.875866	0.171246
646.081886	0.171512
646.287888	0.171831
646.493871	0.171798
646.699836	0.171769
646.905783	0.171804
647.111712	0.171963
647.317622	0.171997
647.523514	0.172025
647.729388	0.171985
647.935244	0.172035
648.141082	0.172036
648.346901	0.172015
648.552702	0.172342
648.758485	0.172490
648.964250	0.172297
649.169996	0.172280
649.375724	0.172346
649.581434	0.172161
649.787126	0.172117
649.992800	0.172246
650.198455	0.172341
650.404092	0.172404
650.609711	0.172306
650.815311	0.172582
651.020894	0.172418
651.226458	0.172560
651.432004	0.172772
651.637532	0.172868
651.843041	0.172890
652.048532	0.173095
652.254006	0.173245
652.459460	0.173747
652.664897	0.174032
652.870315	0.174644
653.075716	0.174902
653.281097	0.175310
653.486461	0.175553
653.691807	0.175794
653.897134	0.175879
654.102443	0.176074
654.307734	0.175949
654.513006	0.176331
654.718261	0.176321
654.923497	0.176527
655.128715	0.176410
655.333915	0.176507
655.539096	0.176517
655.744259	0.176589
655.949404	0.176672
656.154531	0.176651
656.359640	0.176129
656.564730	0.176088
656.769802	0.175925
656.974856	0.175891
657.179892	0.175920
657.384909	0.176086
657.589908	0.176140
657.794889	0.176046
657.999852	0.176078
658.204797	0.176363
658.409723	0.176540
658.614631	0.176595
658.819521	0.176897
659.024393	0.176983
659.229246	0.176844
659.434081	0.176705
659.638898	0.176906
659.843697	0.177254
660.048478	0.177429
660.253240	0.177634
660.457984	0.177999
660.662710	0.178095
660.867417	0.178257
661.072107	0.178697
661.276778	0.179176
661.481431	0.179399
661.686066	0.179678
661.890682	0.179996
662.095281	0.180056
662.299861	0.180146
662.504422	0.180623
662.708966	0.181047
662.913491	0.180939
663.117999	0.180969
663.322488	0.181168
663.526958	0.180846
663.731411	0.180783
663.935845	0.180871
664.140261	0.180855
664.344659	0.180507
664.549038	0.180466
664.753400	0.180557
664.957743	0.180758
665.162068	0.180639
665.366375	0.181049
665.570663	0.181125
665.774933	0.181395
665.979185	0.181449
666.183419	0.181743
666.387635	0.181707
666.591832	0.181946
666.796011	0.181933
667.000172	0.182165
667.204315	0.182168
667.408439	0.182257
667.612545	0.182097
667.816634	0.182509
668.020703	0.182542
668.224755	0.182823
668.428788	0.182802
668.632803	0.182939
668.836800	0.182892
669.040779	0.183095
669.244739	0.183148
669.448681	0.183375
669.652605	0.183207
669.856511	0.183415
670.060399	0.183275
670.264268	0.183381
670.468119	0.183599
670.671952	0.183859
670.875767	0.183942
671.079563	0.184443
671.283341	0.184435
671.487101	0.184858
671.690843	0.184724
671.894567	0.184956
672.098272	0.184978
672.301959	0.184972
672.505628	0.185095
672.709278	0.185369
672.912911	0.185179
673.116525	0.185430
673.320121	0.185212
673.523699	0.185400
673.727258	0.185489
673.930799	0.185620
674.134322	0.185615
674.337827	0.185713
674.541314	0.185509
674.744782	0.185399
674.948232	0.185418
675.151664	0.185471
675.355078	0.185542
675.558474	0.185546
675.761851	0.185751
675.965210	0.185968
676.168551	0.185882
676.371873	0.186101
676.575178	0.186519
676.778464	0.186456
676.981732	0.186794
677.184981	0.186842
677.388213	0.187036
677.591426	0.187392
677.794621	0.187532
677.997798	0.187732
678.200956	0.187849
678.404097	0.187788
678.607219	0.188266
678.810323	0.188333
679.013408	0.188637
679.216476	0.188849
679.419525	0.188796
679.622556	0.188850
679.825569	0.189179
680.028563	0.189389
680.231540	0.189624
680.434498	0.189776
680.637438	0.190086
680.840359	0.189928
681.043263	0.189821
681.246148	0.190005
681.449015	0.190166
681.651864	0.189984
681.854694	0.189930
682.057506	0.189969
682.260301	0.189639
682.463076	0.189589
682.665834	0.189898
682.868573	0.190157
683.071295	0.190217
683.273998	0.190418
683.476682	0.190617
683.679349	0.190848
683.881997	0.191234
684.084627	0.191722
684.287239	0.191761
684.489833	0.191926
684.692408	0.191841
684.894965	0.192055
685.097504	0.192026
685.300025	0.192198
685.502527	0.192368
685.705012	0.192212
685.907478	0.192023
686.109925	0.192034
686.312355	0.192193
686.514766	0.192303
686.717159	0.192046
686.919534	0.192046
687.121891	0.192238
687.324230	0.192403
687.526550	0.192592
687.728852	0.192769
687.931136	0.193094
688.133401	0.193162
688.335649	0.193367
688.537878	0.193397
688.740089	0.193692
688.942281	0.193618
689.144456	0.193451
689.346612	0.193373
689.548750	0.193550
689.750870	0.193476
689.952971	0.193383
690.155055	0.193414
690.357120	0.193630
690.559167	0.193622
690.761195	0.193672
690.963206	0.193856
691.165198	0.194184
691.367172	0.194386
691.569128	0.194559
691.771065	0.195004
691.972984	0.195246
692.174885	0.195412
692.376768	0.195871
692.578633	0.196077
692.780479	0.196119
692.982308	0.196057
693.184118	0.195946
693.385909	0.196114
693.587683	0.196028
693.789438	0.196191
693.991175	0.196289
694.192894	0.196040
694.394595	0.195919
694.596277	0.195926
694.797941	0.196122
694.999587	0.196508
695.201215	0.196364
695.402824	0.196317
695.604416	0.196340
695.805989	0.196389
696.007543	0.196342
696.209080	0.196601
696.410598	0.196625
696.612099	0.196808
696.813580	0.196700
697.015044	0.196811
697.216490	0.196917
697.417917	0.196931
697.619326	0.197040
697.820717	0.197187
698.022089	0.197343
698.223444	0.197726
698.424780	0.197647
698.626098	0.197729
698.827397	0.197771
699.028679	0.198024
699.229942	0.198063
699.431187	0.198132
699.632414	0.198257
699.833622	0.198335
700.034813	0.198394
700.235985	0.198295
700.437139	0.198256
700.638274	0.198445
700.839392	0.198343
701.040491	0.198507
701.241572	0.198754
701.442635	0.198967
701.643679	0.198939
701.844706	0.198997
702.045714	0.199032
702.246704	0.199035
702.447675	0.198996
702.648629	0.198944
702.849564	0.198689
703.050481	0.198600
703.251380	0.198547
703.452260	0.198426
703.653122	0.198166
703.853966	0.198144
704.054792	0.198286
704.255600	0.198492
704.456389	0.198474
704.657160	0.198721
704.857913	0.198761
705.058648	0.198855
705.259365	0.199073
705.460063	0.199240
705.660743	0.199538
705.861405	0.199461
706.062048	0.199326
706.262674	0.199686
706.463281	0.199740
706.663870	0.199521
706.864441	0.199237
707.064993	0.199237
707.265527	0.199259
707.466043	0.199116
707.666541	0.199236
707.867021	0.199281
708.067482	0.199250
708.267925	0.199131
708.468350	0.199477
708.668757	0.199831
708.869145	0.199836
709.069516	0.199893
709.269868	0.200051
709.470201	0.200119
709.670517	0.200234
709.870814	0.200379
710.071093	0.200453
710.271354	0.200456
710.471597	0.200298
710.671821	0.200350
710.872028	0.200270
711.072216	0.200332
711.272385	0.200221
711.472537	0.200168
711.672670	0.200013
711.872785	0.199918
712.072882	0.199705
712.272961	0.199687
712.473021	0.199862
712.673063	0.199903
712.873087	0.199973
713.073093	0.199944
713.273081	0.200018
713.473050	0.199974
713.673001	0.199961
713.872934	0.199890
714.072849	0.199780
714.272745	0.199538
714.472623	0.199369
714.672483	0.198989
714.872325	0.198839
715.072148	0.198535
715.271954	0.198269
715.471741	0.198220
715.671509	0.198389
715.871260	0.198314
716.070992	0.198106
716.270707	0.198183
716.470403	0.198476
716.670080	0.198752
716.869740	0.198765
717.069381	0.198946
717.269004	0.198994
717.468609	0.198812
717.668195	0.198979
717.867764	0.199053
718.067314	0.198960
718.266846	0.198838
718.466360	0.198761
718.665855	0.198745
718.865332	0.198601
719.064791	0.198375
719.264232	0.198437
719.463655	0.198255
719.663059	0.198218
719.862445	0.198310
720.061813	0.198253
720.261163	0.198392
720.460494	0.198482
720.659807	0.198485
720.859102	0.198785
721.058379	0.198712
721.257638	0.198809
721.456878	0.198689
721.656100	0.198544
721.855304	0.198460
722.054490	0.198157
722.253657	0.198059
722.452806	0.198010
722.651937	0.197954
722.851050	0.197962
723.050145	0.197775
723.249221	0.197693
723.448279	0.197759
723.647319	0.197597
723.846340	0.197507
724.045344	0.197425
724.244329	0.197275
724.443296	0.197134
724.642245	0.196945
724.841175	0.197104
725.040088	0.197314
725.238982	0.197088
725.437857	0.197142
725.636715	0.197269
725.835554	0.197192
726.034376	0.197120
726.233179	0.197110
726.431963	0.197115
726.630730	0.196924
726.829478	0.196740
727.028208	0.196861
727.226920	0.196561
727.425614	0.196284
727.624289	0.196074
727.822946	0.196097
728.021585	0.195940
728.220206	0.195910
728.418808	0.195836
728.617392	0.195836
728.815958	0.195629
729.014506	0.195834
729.213036	0.195810
729.411547	0.195998
729.610040	0.195709
729.808515	0.195680
730.006972	0.195807
730.205410	0.195747
730.403831	0.195581
730.602233	0.195650
730.800616	0.195582
730.998982	0.195280
731.197329	0.194988
731.395658	0.195085
731.593969	0.194933
731.792262	0.194539
731.990536	0.194629
732.188793	0.194776
732.387031	0.194575
732.585250	0.194402
732.783452	0.194400
732.981635	0.194468
733.179800	0.194437
733.377947	0.194304
733.576076	0.194488
733.774186	0.194266
733.972278	0.194001
734.170352	0.193823
734.368408	0.193839
734.566446	0.193751
734.764465	0.193678
734.962466	0.193460
735.160449	0.193515
735.358413	0.192992
735.556360	0.192763
735.754288	0.192791
735.952198	0.192930
736.150090	0.192822
736.347963	0.192704
736.545818	0.192518
736.743655	0.192517
736.941474	0.192246
737.139275	0.192105
737.337057	0.191706
737.534821	0.191508
737.732567	0.191241
737.930295	0.190854
738.128005	0.190922
738.325696	0.190761
738.523369	0.190708
738.721024	0.190596
738.918660	0.190760
739.116279	0.191107
739.313879	0.190998
739.511461	0.190905
739.709024	0.190801
739.906570	0.190802
740.104097	0.190752
740.301606	0.190377
740.499097	0.190259
740.696569	0.190074
740.894024	0.189828
741.091460	0.189634
741.288878	0.189438
741.486277	0.189463
741.683659	0.188860
741.881022	0.188664
742.078367	0.188935
742.275694	0.188873
742.473002	0.188678
742.670293	0.188578
742.867565	0.188441
743.064819	0.188483
743.262054	0.188263
743.459272	0.188415
743.656471	0.188401
743.853652	0.188117
744.050815	0.187901
744.247959	0.187921
744.445085	0.187667
744.642194	0.187627
744.839283	0.187428
745.036355	0.187327
745.233408	0.187360
745.430444	0.187183
745.627461	0.187072
745.824459	0.186970
746.021440	0.186832
746.218402	0.186997
746.415346	0.186766
746.612272	0.186429
746.809180	0.186183
747.006069	0.185891
747.202940	0.185745
747.399793	0.185500
747.596628	0.185261
747.793444	0.185126
747.990243	0.184950
748.187023	0.184980
748.383784	0.185180
748.580528	0.185232
748.777253	0.185220
748.973960	0.185144
749.170649	0.184961
749.367320	0.185037
749.563973	0.184755
749.760607	0.184470
749.957223	0.184359
750.153821	0.183793
750.350400	0.183725
750.546962	0.183451
750.743505	0.183303
750.940030	0.183406
751.136536	0.183226
751.333025	0.182970
751.529495	0.182798
751.725947	0.182753
751.922381	0.182964
752.118796	0.182842
752.315194	0.182798
752.511573	0.182763
752.707934	0.182604
752.904276	0.182641
753.100601	0.182805
753.296907	0.182762
753.493195	0.182572
753.689465	0.182533
753.885716	0.182495
754.081949	0.182399
754.278164	0.182197
754.474361	0.182335
754.670540	0.182169
754.866700	0.182247
755.062843	0.182281
755.258967	0.182063
755.455072	0.182049
755.651160	0.181851
755.847229	0.181671
756.043280	0.181659
756.239313	0.181411
756.435328	0.181287
756.631324	0.181115
756.827302	0.181197
757.023262	0.181274
757.219204	0.181067
757.415127	0.181148
757.611033	0.181300
757.806920	0.181218
758.002788	0.180945
758.198639	0.181073
758.394471	0.180973
758.590286	0.180519
758.786081	0.180195
758.981859	0.180143
759.177619	0.179996
759.373360	0.179925
759.569083	0.179734
759.764788	0.179880
759.960474	0.179550
760.156143	0.179320
760.351793	0.179458
760.547425	0.179439
760.743038	0.179366
760.938634	0.179224
761.134211	0.179170
761.329770	0.179176
761.525311	0.179015
761.720833	0.178890
761.916338	0.178772
762.111824	0.178474
762.307292	0.178493
762.502741	0.178346
762.698173	0.178341
762.893586	0.178083
763.088981	0.178084
763.284358	0.177990
763.479716	0.178085
763.675057	0.178234
763.870379	0.178224
764.065683	0.177935
764.260968	0.177705
764.456236	0.177559
764.651485	0.177348
764.846716	0.177079
765.041929	0.176857
765.237123	0.176571
765.432299	0.176235
765.627457	0.176103
765.822597	0.176358
766.017719	0.176366
766.212822	0.176346
766.407907	0.176272
766.602974	0.176344
766.798023	0.176511
766.993054	0.176585
767.188066	0.176694
767.383060	0.177026
767.578036	0.176898
767.772993	0.177070
767.967933	0.177061
768.162854	0.177180
768.357757	0.177338
768.552642	0.177127
768.747508	0.177092
768.942356	0.177175
769.137186	0.176966
769.331998	0.176966
769.526792	0.176898
769.721567	0.176981
769.916324	0.177140
770.111063	0.176738
770.305784	0.176872
770.500486	0.176786
770.695171	0.176823
770.889837	0.176756
771.084484	0.176545
771.279114	0.176400
771.473725	0.176199
771.668318	0.176132
771.862893	0.176379
772.057450	0.176250
772.251988	0.176229
772.446509	0.176112
772.641011	0.176065
772.835494	0.176039
773.029960	0.175982
773.224407	0.175890
773.418836	0.175748
773.613247	0.175753
773.807640	0.175957
774.002014	0.175950
774.196370	0.175950
774.390708	0.175780
774.585028	0.175915
774.779330	0.176034
774.973613	0.175991
775.167878	0.176082
775.362125	0.175926
775.556354	0.175622
775.750564	0.175584
775.944756	0.175388
776.138930	0.175403
776.333086	0.175250
776.527223	0.175026
776.721343	0.175144
776.915444	0.174973
777.109526	0.174786
777.303591	0.174883
777.497637	0.174770
777.691666	0.174877
777.885676	0.174913
778.079667	0.174758
778.273641	0.174951
778.467596	0.174872
778.661533	0.174769
778.855452	0.174786
779.049352	0.174779
779.243235	0.175131
779.437099	0.175175
779.630945	0.175252
779.824773	0.175422
780.018582	0.175405
780.212373	0.175526
780.406146	0.175618
780.599901	0.175766
780.793638	0.175835
780.987356	0.175807
781.181056	0.175783
781.374738	0.175909
781.568402	0.175958
781.762047	0.175931
781.955674	0.175928
782.149283	0.175961
782.342874	0.175941
782.536447	0.175710
782.730001	0.175521
782.923537	0.175245
783.117055	0.174901
783.310555	0.174854
783.504036	0.174946
783.697499	0.174895
783.890944	0.174941
784.084371	0.174847
784.277780	0.174997
784.471170	0.175181
784.664542	0.175502
784.857896	0.175754
785.051231	0.175557
785.244549	0.175458
785.437848	0.175355
785.631129	0.175231
785.824392	0.175481
786.017636	0.175473
786.210863	0.175368
786.404071	0.175238
786.597260	0.175412
786.790432	0.175825
786.983585	0.175914
787.176721	0.176300
787.369838	0.176834
787.562936	0.176958
787.756017	0.177236
787.949079	0.177290
788.142123	0.177499
788.335149	0.177643
788.528156	0.177564
788.721146	0.177573
788.914117	0.177464
789.107070	0.177560
789.300005	0.177537
789.492921	0.177579
789.685819	0.177885
789.878699	0.177765
790.071561	0.177880
790.264405	0.178233
790.457230	0.178396
790.650037	0.178583
790.842826	0.178384
791.035597	0.178624
791.228349	0.178710
791.421084	0.178881
791.613800	0.179436
791.806497	0.179387
791.999177	0.179437
792.191838	0.179810
792.384481	0.179881
792.577106	0.180077
792.769713	0.180132
792.962301	0.180379
793.154871	0.180708
793.347423	0.180734
793.539957	0.181004
793.732473	0.181078
793.924970	0.181147
794.117449	0.181179
794.309910	0.181435
794.502353	0.181725
794.694777	0.181646
794.887183	0.181331
795.079571	0.181530
795.271941	0.181454
795.464293	0.181546
795.656626	0.181572
795.848941	0.181648
796.041238	0.181470
796.233516	0.181342
796.425777	0.181318
796.618019	0.181445
796.810243	0.181541
797.002449	0.181557
797.194636	0.181618
797.386805	0.181689
797.578956	0.181797
797.771089	0.182059
797.963204	0.182132
798.155300	0.182420
798.347378	0.182612
798.539438	0.182633
798.731480	0.183118
798.923503	0.183368
799.115509	0.183512
799.307496	0.183941
799.499465	0.184213
799.691415	0.184420
799.883348	0.184749
800.075262	0.184949
800.267158	0.184810
800.459035	0.184684
800.650895	0.184736
800.842736	0.184953
801.034559	0.184883
801.226364	0.184799
801.418150	0.184860
801.609919	0.184705
801.801669	0.184595
801.993401	0.184972
802.185114	0.184968
802.376810	0.184991
802.568487	0.184789
802.760146	0.185088
802.951787	0.185229
803.143409	0.185394
803.335014	0.185644
803.526600	0.185793
803.718168	0.185837
803.909717	0.186141
804.101249	0.186252
804.292762	0.186721
804.484257	0.186677
804.675734	0.186903
804.867192	0.187046
805.058632	0.187280
805.250054	0.187720
805.441458	0.187836
805.632844	0.188100
805.824211	0.188342
806.015561	0.188395
806.206891	0.188885
806.398204	0.188882
806.589499	0.189104
806.780775	0.189212
806.972033	0.189231
807.163273	0.189707
807.354495	0.189790
807.545698	0.189847
807.736883	0.190044
807.928050	0.189887
808.119199	0.190079
808.310329	0.190292
808.501441	0.190532
808.692535	0.190416
808.883611	0.190516
809.074669	0.190759
809.265708	0.191136
809.456729	0.191164
809.647732	0.191333
809.838717	0.191566
810.029683	0.191677
810.220632	0.191898
810.411562	0.192372
810.602474	0.192607
810.793367	0.192697
810.984242	0.192830
811.175100	0.192930
811.365938	0.193130
811.556759	0.193283
811.747562	0.193422
811.938346	0.193346
812.129112	0.193698
812.319860	0.193823
812.510589	0.193863
812.701300	0.194119
812.891994	0.194565
813.082668	0.194789
813.273325	0.195188
813.463964	0.195486
813.654584	0.196019
813.845186	0.195823
814.035769	0.196007
814.226335	0.196522
814.416882	0.196613
814.607411	0.196754
814.797922	0.196596
814.988415	0.196605
815.178889	0.196551
815.369345	0.196544
815.559783	0.196985
815.750203	0.196993
815.940605	0.196977
816.130988	0.197328
816.321353	0.197458
816.511700	0.197801
816.702028	0.197895
816.892339	0.198246
817.082631	0.198246
817.272905	0.198008
817.463161	0.198218
817.653398	0.198408
817.843617	0.198473
818.033819	0.198596
818.224001	0.198953
818.414166	0.199103
818.604312	0.199228
818.794440	0.199448
818.984550	0.199925
819.174642	0.200341
819.364716	0.200846
819.554771	0.201006
819.744808	0.201416
819.934827	0.201699
820.124827	0.202085
820.314810	0.202767
820.504774	0.203372
820.694720	0.203999
820.884647	0.204128
821.074557	0.204252
821.264448	0.204414
821.454321	0.204696
821.644176	0.204959
821.834012	0.205465
822.023831	0.205416
822.213631	0.205326
822.403413	0.205044
822.593176	0.205234
822.782922	0.205240
822.972649	0.205769
823.162358	0.205810
823.352049	0.205798
823.541721	0.205919
823.731376	0.206042
823.921012	0.206508
824.110629	0.207125
824.300229	0.207477
824.489811	0.208055
824.679374	0.207959
824.868919	0.208321
825.058445	0.208752
825.247954	0.209047
825.437444	0.209494
825.626916	0.209424
825.816370	0.209530
826.005806	0.209723
826.195223	0.209592
826.384622	0.209862
826.574003	0.209857
826.763366	0.210094
826.952711	0.210072
827.142037	0.210239
827.331345	0.210722
827.520635	0.210884
827.709906	0.211097
827.899160	0.211501
828.088395	0.211717
828.277612	0.211920
828.466810	0.212215
828.655991	0.212566
828.845153	0.212689
829.034297	0.212790
829.223423	0.213101
829.412531	0.213231
829.601620	0.213382
829.790691	0.213861
829.979744	0.214550
830.168779	0.215118
830.357795	0.215537
830.546793	0.216043
830.735773	0.216657
830.924735	0.216947
831.113679	0.217289
831.302604	0.217843
831.491511	0.218127
831.680400	0.218276
831.869271	0.218277
832.058123	0.218296
832.246957	0.218662
832.435773	0.218736
832.624571	0.219260
832.813351	0.219722
833.002112	0.219926
833.190855	0.220477
833.379580	0.221116
833.568287	0.221493
833.756975	0.221870
833.945645	0.222094
834.134297	0.222426
834.322931	0.222429
834.511547	0.222764
834.700144	0.222843
834.888723	0.222668
835.077284	0.222275
835.265826	0.222320
835.454351	0.222504
835.642857	0.222664
835.831345	0.222837
836.019815	0.223125
836.208266	0.223225
836.396699	0.223591
836.585114	0.223922
836.773511	0.224375
836.961890	0.224838
837.150250	0.225300
837.338592	0.225396
837.526916	0.225649
837.715222	0.226049
837.903510	0.225969
838.091779	0.226306
838.280030	0.226701
838.468263	0.227054
838.656477	0.227261
838.844674	0.227519
839.032852	0.227941
839.221012	0.228396
839.409153	0.228722
839.597277	0.229392
839.785382	0.229689
839.973469	0.230147
840.161538	0.230446
840.349589	0.230940
840.537621	0.231334
840.725635	0.231696
840.913631	0.231879
841.101609	0.232146
841.289568	0.232522
841.477509	0.232926
841.665432	0.233216
841.853337	0.233794
842.041224	0.234471
842.229092	0.234799
842.416942	0.235080
842.604774	0.235336
842.792588	0.235631
842.980383	0.235899
843.168160	0.236145
843.355919	0.236383
843.543660	0.236880
843.731382	0.236682
843.919087	0.236845
844.106773	0.237104
844.294441	0.237494
844.482090	0.237840
844.669722	0.238135
844.857335	0.238195
845.044930	0.238378
845.232507	0.238122
845.420065	0.238518
845.607605	0.238930
845.795127	0.239238
845.982631	0.239681
846.170117	0.239657
846.357584	0.239811
846.545033	0.240252
846.732464	0.240860
846.919877	0.241148
847.107272	0.241444
847.294648	0.241534
847.482006	0.241929
847.669346	0.241964
847.856667	0.242741
848.043971	0.243347
848.231256	0.243573
848.418523	0.243434
848.605771	0.243981
848.793002	0.244100
848.980214	0.244192
849.167408	0.244305
849.354584	0.244643
849.541742	0.244483
849.728881	0.244735
849.916002	0.245179
850.103105	0.245587
850.290190	0.245741
850.477256	0.245823
850.664304	0.246493
850.851334	0.247069
851.038346	0.247444
851.225340	0.247627
851.412315	0.247724
851.599272	0.247683
851.786211	0.248109
851.973132	0.248480
852.160034	0.248960
852.346918	0.249154
852.533784	0.249236
852.720632	0.249462
852.907462	0.249951
853.094273	0.250493
853.281066	0.251151
853.467841	0.251550
853.654598	0.251682
853.841336	0.252267
854.028056	0.252730
854.214758	0.253002
854.401442	0.253348
854.588107	0.253924
854.774755	0.254039
854.961384	0.254343
855.147995	0.254613
855.334587	0.254864
855.521162	0.255151
855.707718	0.255351
855.894256	0.255377
856.080775	0.255608
856.267277	0.255919
856.453760	0.256113
856.640225	0.256431
856.826672	0.256500
857.013101	0.256885
857.199511	0.256572
857.385903	0.256944
857.572277	0.257627
857.758633	0.258052
857.944970	0.257953
858.131290	0.258033
858.317591	0.258185
858.503873	0.258306
858.690138	0.258782
858.876384	0.259273
859.062612	0.259563
859.248822	0.259868
859.435014	0.260370
859.621188	0.260823
859.807343	0.261064
859.993480	0.261512
860.179599	0.262079
860.365699	0.262088
860.551781	0.262695
860.737846	0.262935
860.923891	0.263147
861.109919	0.263063
861.295929	0.263419
861.481920	0.264225
861.667893	0.264385
861.853848	0.264484
862.039784	0.264896
862.225702	0.264721
862.411603	0.265074
862.597484	0.265145
862.783348	0.265200
862.969193	0.265226
863.155021	0.264878
863.340830	0.264975
863.526620	0.265182
863.712393	0.265458
863.898147	0.265811
864.083883	0.265726
864.269601	0.265989
864.455301	0.266255
864.640982	0.266540
864.826645	0.267014
865.012290	0.267338
865.197917	0.267925
865.383526	0.268332
865.569116	0.268466
865.754688	0.268672
865.940242	0.269103
866.125777	0.268956
866.311295	0.269071
866.496794	0.269273
866.682275	0.269543
866.867737	0.269585
867.053182	0.270013
867.238608	0.270482
867.424016	0.270595
867.609406	0.270806
867.794778	0.271635
867.980131	0.272505
868.165466	0.273261
868.350783	0.273592
868.536082	0.273948
868.721362	0.273651
868.906625	0.273616
869.091869	0.273979
869.277094	0.274097
869.462302	0.274043
869.647491	0.273849
869.832662	0.273383
870.017815	0.273296
870.202950	0.272831
870.388066	0.273022
870.573165	0.273297
870.758245	0.273828
870.943306	0.273899
871.128350	0.274285
871.313375	0.274231
871.498382	0.274705
871.683371	0.275019
871.868342	0.275559
872.053294	0.275844
872.238229	0.276002
872.423144	0.275948
872.608042	0.276002
872.792922	0.276018
872.977783	0.276331
873.162626	0.276820
873.347451	0.276897
873.532258	0.277155
873.717046	0.277096
873.901816	0.277497
874.086568	0.277333
874.271302	0.277734
874.456017	0.278140
874.640715	0.278378
874.825394	0.278192
875.010055	0.278296
875.194697	0.278543
875.379322	0.279189
875.563928	0.279178
875.748516	0.279759
875.933085	0.279791
876.117637	0.279699
876.302170	0.279693
876.486685	0.279934
876.671182	0.280069
876.855661	0.280324
877.040121	0.280240
877.224563	0.280587
877.408987	0.280732
877.593393	0.280705
877.777780	0.280722
877.962150	0.280830
878.146501	0.280751
878.330833	0.281173
878.515148	0.280975
878.699444	0.281061
878.883722	0.281146
879.067982	0.280890
879.252224	0.281405
879.436447	0.282213
879.620653	0.282820
879.804840	0.283299
879.989008	0.283442
880.173159	0.283877
880.357291	0.283935
880.541405	0.284120
880.725501	0.284485
880.909579	0.284295
881.093638	0.284300
881.277680	0.284333
881.461703	0.284539
881.645707	0.284235
881.829694	0.284171
882.013662	0.284362
882.197612	0.284561
882.381544	0.284789
882.565458	0.285103
882.749353	0.284630
882.933230	0.284503
883.117089	0.284503
883.300930	0.285108
883.484753	0.284954
883.668557	0.284865
883.852343	0.285127
884.036111	0.285049
884.219861	0.285142
884.403592	0.285527
884.587305	0.285900
884.771000	0.285666
884.954677	0.285071
885.138335	0.285627
885.321976	0.285752
885.505598	0.285789
885.689201	0.286023
885.872787	0.286036
886.056354	0.286010
886.239904	0.286047
886.423434	0.286125
886.606947	0.286201
886.790442	0.285724
886.973918	0.285663
887.157376	0.285155
887.340816	0.284979
887.524237	0.284519
887.707641	0.284313
887.891026	0.283902
888.074393	0.283870
888.257741	0.284155
888.441072	0.284492
888.624384	0.284745
888.807678	0.284813
888.990954	0.284622
889.174211	0.285169
889.357451	0.285240
889.540672	0.285407
889.723875	0.285190
889.907059	0.284981
890.090226	0.284862
890.273374	0.285031
890.456504	0.285033
890.639616	0.285113
890.822709	0.285036
891.005785	0.285043
891.188842	0.285226
891.371881	0.285389
891.554901	0.285506
891.737904	0.285623
891.920888	0.285530
892.103854	0.285393
892.286802	0.285514
892.469731	0.285893
892.652643	0.286361
892.835536	0.285920
893.018410	0.285857
893.201267	0.285707
893.384106	0.285557
893.566926	0.284890
893.749728	0.285063
893.932511	0.285102
894.115277	0.284419
894.298024	0.284101
894.480753	0.283881
894.663464	0.284171
894.846157	0.284366
895.028831	0.284283
895.211487	0.284676
895.394125	0.284478
895.576745	0.284372
895.759346	0.284632
895.941930	0.284543
896.124495	0.284815
896.307041	0.284273
896.489570	0.284120
896.672080	0.283748
896.854573	0.283843
897.037046	0.283789
897.219502	0.283789
897.401940	0.283565
897.584359	0.283320
897.766760	0.283106
897.949143	0.282616
898.131507	0.282489
898.313854	0.283009
898.496182	0.282799
898.678492	0.282481
898.860783	0.282388
899.043057	0.282345
899.225312	0.281858
899.407549	0.281728
899.589768	0.282457
899.771968	0.282158
899.954151	0.281641
900.136315	0.281353
900.318461	0.281357
900.500588	0.280835
900.682698	0.280510
900.864789	0.280562
901.046862	0.280618
901.228917	0.280320
901.410953	0.279979
901.592971	0.279517
901.774972	0.279178
901.956953	0.279001
902.138917	0.278832
902.320862	0.278638
902.502790	0.278625
902.684699	0.278578
902.866589	0.278191
903.048462	0.278417
903.230316	0.278361
903.412152	0.278240
903.593970	0.277930
903.775770	0.277378
903.957551	0.277568
904.139314	0.277249
904.321059	0.276463
904.502786	0.276159
904.684494	0.275549
904.866185	0.275439
905.047857	0.275361
905.229510	0.275517
905.411146	0.275816
905.592763	0.275068
905.774363	0.275210
905.955943	0.274845
906.137506	0.274480
906.319051	0.274399
906.500577	0.274051
906.682085	0.273427
906.863575	0.272990
907.045046	0.272711
907.226500	0.272337
907.407935	0.271622
907.589352	0.271742
907.770750	0.271512
907.952131	0.271120
908.133493	0.270719
908.314837	0.270695
908.496163	0.270413
908.677470	0.270009
908.858760	0.270077
909.040031	0.270065
909.221284	0.269626
909.402518	0.269770
909.583735	0.270197
909.764933	0.270179
909.946113	0.269934
910.127275	0.269363
910.308418	0.268968
910.489544	0.268295
910.670651	0.267471
910.851740	0.267351
911.032810	0.265893
911.213863	0.264978
911.394897	0.264463
911.575913	0.263389
911.756911	0.263162
911.937890	0.263203
912.118851	0.262580
912.299794	0.262449
912.480719	0.261886
912.661626	0.262135
912.842514	0.261920
913.023384	0.261459
913.204236	0.261295
913.385070	0.261191
913.565886	0.260024
913.746683	0.259976
913.927462	0.259731
914.108223	0.259106
914.288965	0.258830
914.469690	0.258578
914.650396	0.258185
914.831084	0.257853
915.011754	0.256934
915.192405	0.256964
915.373038	0.256613
915.553653	0.255591
915.734250	0.255760
915.914829	0.255478
916.095389	0.255034
916.275931	0.254280
916.456455	0.253991
916.636961	0.254151
916.817448	0.253008
916.997917	0.252494
917.178368	0.252251
917.358801	0.251329
917.539216	0.251215
917.719612	0.250601
917.899990	0.250271
918.080350	0.250473
918.260692	0.250720
918.441015	0.250832
918.621320	0.250373
918.801607	0.250205
918.981876	0.249931
919.162127	0.248796
919.342359	0.248180
919.522573	0.247545
919.702769	0.246841
919.882947	0.245238
920.063106	0.245072
920.243247	0.244742
920.423370	0.244283
920.603475	0.244052
920.783562	0.244345
920.963630	0.244197
921.143680	0.244776
921.323712	0.243780
921.503725	0.243435
921.683721	0.242374
921.863698	0.242071
922.043657	0.241634
922.223598	0.240749
922.403520	0.239696
922.583424	0.238815
922.763311	0.237168
922.943178	0.236913
923.123028	0.236095
923.302859	0.235443
923.482673	0.234638
923.662467	0.234755
923.842244	0.233690
924.022003	0.232992
924.201743	0.232360
924.381465	0.232249
924.561169	0.231667
924.740854	0.231186
924.920522	0.231533
925.100171	0.230842
925.279802	0.229840
925.459414	0.228827
925.639009	0.228577
925.818585	0.227854
925.998143	0.227949
926.177683	0.227405
926.357205	0.227084
926.536708	0.225862
926.716193	0.224981
926.895660	0.224007
927.075109	0.224614
927.254539	0.223755
927.433951	0.224039
927.613345	0.223442
927.792721	0.222500
927.972079	0.221510
928.151418	0.221512
928.330739	0.221052
928.510042	0.220768
928.689327	0.219534
928.868593	0.219000
929.047841	0.218179
929.227071	0.216836
929.406283	0.216439
929.585476	0.216142
929.764652	0.215349
929.943809	0.214661
930.122948	0.213349
930.302068	0.213463
930.481171	0.212521
930.660255	0.212093
930.839321	0.211758
931.018369	0.210553
931.197398	0.210177
931.376409	0.209010
931.555402	0.208482
931.734377	0.207950
931.913334	0.206458
932.092272	0.206418
932.271192	0.205242
932.450094	0.204265
932.628978	0.204293
932.807844	0.203718
932.986691	0.202764
933.165520	0.202332
933.344331	0.201739
933.523123	0.201246
933.701898	0.200311
933.880654	0.199113
934.059392	0.198089
934.238111	0.196960
934.416813	0.195693
934.595496	0.196607
934.774161	0.195366
934.952808	0.195298
935.131437	0.194485
935.310047	0.193934
935.488639	0.193443
935.667213	0.192677
935.845769	0.192279
936.024306	0.192016
936.202825	0.190023
936.381326	0.189978
936.559809	0.187817
936.738274	0.188271
936.916720	0.187480
937.095148	0.186680
937.273558	0.186280
937.451950	0.185344
937.630323	0.183459
937.808678	0.182721
937.987015	0.182537
938.165334	0.182093
938.343635	0.180064
938.521917	0.179675
938.700181	0.179613
938.878427	0.178700
939.056655	0.178576
939.234864	0.178437
939.413055	0.178117
939.591228	0.176974
939.769383	0.177020
939.947519	0.176730
940.125638	0.175932
940.303738	0.174047
940.481820	0.172431
940.659883	0.170511
940.837929	0.169852
941.015956	0.169722
941.193965	0.168709
941.371955	0.167458
941.549928	0.166413
941.727882	0.164806
941.905818	0.164371
942.083736	0.164480
942.261636	0.164628
942.439517	0.163759
942.617380	0.161903
942.795225	0.159694
942.973052	0.159773
943.150860	0.158948
943.328651	0.157600
943.506423	0.157987
943.684176	0.157207
943.861912	0.156142
944.039629	0.154827
944.217328	0.153835
944.395009	0.155000
944.572672	0.152918
944.750317	0.152442
944.927943	0.153150
945.105551	0.151746
945.283141	0.150696
945.460712	0.150497
945.638265	0.150585
945.815801	0.150344
945.993317	0.149621
946.170816	0.150163
946.348297	0.150289
946.525759	0.148580
946.703203	0.148136
946.880629	0.148326
947.058036	0.147534
947.235425	0.146322
947.412797	0.146336
947.590149	0.144118
947.767484	0.143538
947.944800	0.141647
948.122099	0.142109
948.299379	0.141433
948.476640	0.142234
948.653884	0.141142
948.831109	0.140279
949.008316	0.138859
949.185505	0.139519
949.362676	0.139269
949.539828	0.138854
949.716962	0.137198
949.894078	0.135491
950.071176	0.133296
950.248256	0.133209
950.425317	0.132639
950.602360	0.129840
950.779385	0.129038
950.956391	0.127430
951.133380	0.127376
951.310350	0.125633
951.487302	0.125259
951.664235	0.124325
951.841151	0.123751
952.018048	0.123893
952.194927	0.125309
952.371788	0.124020
952.548631	0.122016
952.725455	0.121981
952.902261	0.122766
953.079049	0.122646
953.255819	0.121471
953.432570	0.118667
953.609303	0.118334
953.786018	0.118475
953.962715	0.118924
954.139394	0.119458
954.316054	0.118946
954.492696	0.119426
954.669320	0.117516
954.845926	0.118135
955.022513	0.119752
955.199083	0.118148
955.375634	0.117730
955.552166	0.115890
955.728681	0.115554
955.905177	0.114393
956.081655	0.111767
956.258115	0.112604
956.434557	0.111027
956.610980	0.110292
956.787385	0.108989
956.963772	0.108506
957.140141	0.108369
957.316492	0.107411
957.492824	0.107708
957.669138	0.109104
957.845434	0.108972
958.021712	0.111126
958.197971	0.110293
958.374212	0.111830
958.550435	0.109742
958.726640	0.111340
958.902826	0.112862
959.078995	0.111940
959.255145	0.110022
959.431277	0.108752
959.607390	0.107572
959.783486	0.107678
959.959563	0.107854
960.135622	0.109821
960.311662	0.107600
960.487685	0.107309
960.663689	0.106788
960.839675	0.107419
961.015643	0.107175
961.191593	0.107261
961.367524	0.107226
961.543437	0.106321
961.719332	0.106146
961.895209	0.104550
962.071067	0.104731
962.246907	0.103297
962.422730	0.104376
962.598533	0.103779
962.774319	0.101504
962.950086	0.103152
963.125835	0.102438
963.301566	0.102437
963.477279	0.105279
963.652973	0.104064
963.828650	0.104242
964.004308	0.103476
964.179947	0.105036
964.355569	0.104143
964.531172	0.101326
964.706757	0.100294
964.882324	0.100840
965.057873	0.100908
965.233403	0.099962
965.408916	0.102880
965.584410	0.103380
965.759885	0.102457
965.935343	0.101890
966.110782	0.101265
966.286203	0.102386
966.461606	0.100116
966.636991	0.099685
966.812357	0.099764
966.987705	0.097863
967.163035	0.095914
967.338347	0.094931
967.513641	0.098701
967.688916	0.098793
967.864173	0.098237
968.039412	0.098397
968.214632	0.097956
968.389835	0.098630
968.565019	0.098824
968.740185	0.099525
968.915333	0.102552
969.090462	0.099778
969.265573	0.100690
969.440667	0.101666
969.615741	0.100125
969.790798	0.097568
969.965836	0.097052
970.140856	0.096679
970.315858	0.096281
970.490842	0.094705
970.665808	0.095457
970.840755	0.096777
971.015684	0.095790
971.190595	0.095562
971.365487	0.097703
971.540362	0.096526
971.715218	0.096586
971.890056	0.097060
972.064875	0.096285
972.239677	0.095976
972.414460	0.095197
972.589225	0.096931
972.763972	0.097601
972.938700	0.097101
973.113411	0.097946
973.288103	0.097579
973.462777	0.098365
973.637432	0.099103
973.812070	0.098989
973.986689	0.099362
974.161290	0.098531
974.335873	0.099006
974.510437	0.098633
974.684984	0.100843
974.859512	0.099069
975.034022	0.098931
975.208513	0.098474
975.382987	0.099809
975.557442	0.100425
975.731879	0.100209
975.906298	0.100809
976.080698	0.101209
976.255080	0.100451
976.429445	0.102127
976.603790	0.100626
976.778118	0.102074
976.952427	0.102017
977.126719	0.098980
977.300992	0.098267
977.475246	0.098220
977.649483	0.098518
977.823701	0.098220
977.997901	0.098500
978.172083	0.099346
978.346247	0.097644
978.520392	0.098802
978.694519	0.101525
978.868628	0.101512
979.042719	0.100286
979.216791	0.099738
979.390845	0.097770
979.564882	0.098842
979.738899	0.098217
979.912899	0.097951
980.086880	0.095296
980.260843	0.093356
980.434788	0.093529
980.608715	0.094142
980.782623	0.095243
980.956514	0.098156
981.130386	0.097608
981.304240	0.097386
981.478075	0.098600
981.651892	0.100558
981.825692	0.100980
981.999472	0.101133
982.173235	0.101093
982.346980	0.102168
982.520706	0.101494
982.694414	0.100698
982.868104	0.101317
983.041775	0.100610
983.215428	0.097846
983.389064	0.098761
983.562680	0.098603
983.736279	0.100107
983.909860	0.098362
984.083422	0.097765
984.256966	0.097477
984.430491	0.096233
984.603999	0.094220
984.777488	0.095272
984.950959	0.095850
985.124412	0.096602
985.297847	0.095337
985.471263	0.095863
985.644661	0.093617
985.818041	0.096122
985.991403	0.097926
986.164747	0.100704
986.338072	0.101491
986.511379	0.100753
986.684668	0.100984
986.857938	0.102364
987.031191	0.101847
987.204425	0.104793
987.377641	0.102236
987.550839	0.102803
987.724018	0.102807
987.897179	0.103098
988.070322	0.103268
988.243447	0.101962
988.416554	0.101403
988.589642	0.102943
988.762712	0.101800
988.935764	0.104310
989.108798	0.101821
989.281813	0.099906
989.454811	0.099723
989.627790	0.098347
989.800751	0.100265
989.973693	0.099909
990.146617	0.099211
990.319524	0.098761
990.492412	0.097259
990.665281	0.096662
990.838133	0.098169
991.010966	0.097520
991.183781	0.099114
991.356578	0.098348
991.529356	0.097594
991.702117	0.098122
991.874859	0.097376
992.047583	0.096636
992.220288	0.098100
992.392976	0.098022
992.565645	0.100146
992.738296	0.100945
992.910929	0.100795
993.083543	0.101758
993.256139	0.100544
993.428718	0.101638
993.601277	0.103482
993.773819	0.104828
993.946342	0.105334
994.118848	0.103051
994.291335	0.102109
994.463803	0.100737
994.636254	0.099254
994.808686	0.098953
994.981100	0.099362
995.153496	0.097339
995.325874	0.097753
995.498233	0.096667
995.670574	0.097708
995.842897	0.099502
996.015202	0.100021
996.187488	0.100519
996.359757	0.102734
996.532007	0.103201
996.704239	0.102906
996.876452	0.101297
997.048648	0.100507
997.220825	0.100389
997.392984	0.099771
997.565124	0.100261
997.737247	0.100331
997.909351	0.097448
998.081437	0.096510
998.253505	0.095571
998.425554	0.095366
998.597586	0.095979
998.769599	0.095553
998.941594	0.094649
999.113571	0.093255
999.285529	0.094501
999.457469	0.095694
999.629391	0.094887
999.801295	0.097016
999.973181	0.097099
1000.145048	0.098399
1000.316897	0.098711
1000.488728	0.098268
1000.660541	0.098135
1000.832335	0.095579
1001.004111	0.095402
1001.175869	0.096915
1001.347609	0.095549
1001.519331	0.095398
1001.691034	0.094420
1001.862719	0.093463
1002.034386	0.093546
1002.206035	0.094731
1002.377665	0.096907
1002.549277	0.097309
1002.720871	0.097773
1002.892447	0.098199
1003.064004	0.097766
1003.235544	0.096435
1003.407065	0.097968
1003.578568	0.097251
1003.750052	0.097605
1003.921519	0.096575
1004.092967	0.095849
1004.264397	0.096369
1004.435809	0.097048
1004.607202	0.096876
1004.778577	0.098417
1004.949934	0.098613
1005.121273	0.098442
1005.292594	0.099145
1005.463896	0.101226
1005.635180	0.101647
1005.806446	0.101343
1005.977694	0.100614
1006.148923	0.100988
1006.320135	0.100302
1006.491328	0.101006
1006.662503	0.100586
1006.833659	0.099502
1007.004798	0.096932
1007.175918	0.097248
1007.347020	0.096906
1007.518103	0.097414
1007.689169	0.099026
1007.860216	0.097974
1008.031245	0.096265
1008.202256	0.097945
1008.373248	0.097397
1008.544223	0.099073
1008.715179	0.097425
1008.886117	0.097104
1009.057036	0.094962
1009.227938	0.093833
1009.398821	0.095464
1009.569686	0.094117
1009.740533	0.092530
1009.911361	0.093640
1010.082172	0.093808
1010.252964	0.095127
1010.423738	0.094171
1010.594493	0.095769
1010.765231	0.095957
1010.935950	0.096581
1011.106651	0.098295
1011.277334	0.099906
1011.447998	0.098471
1011.618645	0.098179
1011.789273	0.097702
1011.959882	0.098718
1012.130474	0.098817
1012.301048	0.099250
1012.471603	0.099095
1012.642140	0.097782
1012.812658	0.098085
1012.983159	0.097214
1013.153641	0.096175
1013.324105	0.098967
1013.494551	0.097861
1013.664979	0.099661
1013.835388	0.099764
1014.005779	0.098454
1014.176152	0.099165
1014.346507	0.097096
1014.516843	0.100147
1014.687162	0.100279
1014.857462	0.098199
1015.027744	0.097825
1015.198007	0.098408
1015.368252	0.098608
1015.538480	0.100795
1015.708689	0.101679
1015.878879	0.103347
1016.049052	0.101980
1016.219206	0.102321
1016.389342	0.101117
1016.559460	0.103726
1016.729559	0.103405
1016.899641	0.105495
1017.069704	0.103645
1017.239749	0.102108
1017.409775	0.100752
1017.579784	0.100645
1017.749774	0.099576
1017.919746	0.099383
1018.089700	0.097452
1018.259635	0.094828
1018.429553	0.091459
1018.599452	0.092383
1018.769333	0.094581
1018.939195	0.095009
1019.109040	0.095106
1019.278866	0.099169
1019.448674	0.100815
1019.618464	0.101557
1019.788235	0.102311
1019.957989	0.103751
1020.127724	0.102363
1020.297441	0.102104
1020.467139	0.101918
1020.636820	0.102190
1020.806482	0.099336
1020.976126	0.098426
1021.145752	0.097251
1021.315359	0.097765
1021.484948	0.096989
1021.654519	0.096358
1021.824072	0.094339
1021.993607	0.094461
1022.163123	0.095053
1022.332621	0.094288
1022.502101	0.095818
1022.671563	0.097157
1022.841007	0.097318
1023.010432	0.098593
1023.179839	0.098714
1023.349228	0.099101
1023.518598	0.099879
1023.687951	0.099852
1023.857285	0.101370
1024.026601	0.099986
1024.195899	0.099374
1024.365178	0.100601
1024.534439	0.098954
1024.703682	0.100391
1024.872907	0.099199
1025.042114	0.099171
1025.211302	0.096649
1025.380472	0.095916
1025.549624	0.097146
1025.718758	0.097587
1025.887873	0.096462
1026.056970	0.097066
1026.226049	0.097371
1026.395110	0.097651
1026.564153	0.097592
1026.733177	0.099600
1026.902183	0.099753
1027.071171	0.097813
1027.240141	0.096875
1027.409092	0.096416
1027.578026	0.096853
1027.746940	0.096734
1027.915837	0.096604
1028.084716	0.096135
1028.253576	0.095713
1028.422418	0.097127
1028.591242	0.096577
1028.760048	0.097979
1028.928835	0.099452
1029.097604	0.098038
1029.266355	0.097949
1029.435088	0.098860
1029.603803	0.099705
1029.772499	0.099349
1029.941177	0.098431
1030.109837	0.098716
1030.278478	0.098198
1030.447102	0.096670
1030.615707	0.094620
1030.784294	0.094500
1030.952863	0.094135
1031.121413	0.093326
1031.289945	0.093899
1031.458460	0.094008
1031.626955	0.093975
1031.795433	0.094096
1031.963892	0.094035
1032.132334	0.096287
1032.300756	0.095498
1032.469161	0.096563
1032.637548	0.096423
1032.805916	0.095834
1032.974266	0.095753
1033.142598	0.099068
1033.310911	0.097810
1033.479207	0.098479
1033.647484	0.097743
1033.815743	0.097553
1033.983983	0.096688
1034.152206	0.097109
1034.320410	0.097659
1034.488596	0.096449
1034.656764	0.095749
1034.824914	0.096624
1034.993045	0.097607
1035.161158	0.099882
1035.329253	0.099559
1035.497330	0.099861
1035.665388	0.097915
1035.833428	0.097752
1036.001450	0.097912
1036.169454	0.097756
1036.337440	0.098252
1036.505407	0.097164
1036.673356	0.096750
1036.841287	0.096871
1037.009200	0.097919
1037.177094	0.099956
1037.344970	0.099520
1037.512828	0.101010
1037.680668	0.099253
1037.848489	0.098925
1038.016293	0.097258
1038.184078	0.095299
1038.351845	0.095511
1038.519593	0.095209
1038.687324	0.096334
1038.855036	0.096482
1039.022730	0.094996
1039.190406	0.094107
1039.358063	0.092842
1039.525702	0.094103
1039.693323	0.094426
1039.860926	0.094336
1040.028511	0.093628
1040.196077	0.091628
1040.363625	0.092461
1040.531155	0.093025
1040.698667	0.092386
1040.866161	0.094411
1041.033636	0.096613
1041.201093	0.097360
1041.368532	0.098951
1041.535952	0.099229
1041.703355	0.099887
1041.870739	0.100780
1042.038105	0.099172
1042.205452	0.099711
1042.372782	0.100440
1042.540093	0.099384
1042.707386	0.098369
1042.874661	0.097346
1043.041918	0.096162
1043.209156	0.095358
1043.376376	0.093638
1043.543578	0.095984
1043.710762	0.098076
1043.877927	0.097193
1044.045074	0.093772
1044.212203	0.094912
1044.379314	0.095688
1044.546407	0.097147
1044.713481	0.097307
1044.880537	0.098313
1045.047575	0.097857
1045.214595	0.097282
1045.381596	0.096483
1045.548579	0.098680
1045.715544	0.098381
1045.882491	0.098079
1046.049420	0.096750
1046.216330	0.097928
1046.383222	0.097023
1046.550096	0.095705
1046.716951	0.096225
1046.883789	0.095930
1047.050608	0.095551
1047.217409	0.095629
1047.384192	0.095006
1047.550956	0.096120
1047.717703	0.095109
1047.884431	0.094940
1048.051140	0.096324
1048.217832	0.094818
1048.384505	0.095581
1048.551161	0.094749
1048.717798	0.095870
1048.884416	0.097852
1049.051017	0.097521
1049.217599	0.098115
1049.384163	0.099230
1049.550709	0.099206
1049.717237	0.099147
1049.883746	0.097885
1050.050237	0.099063
1050.216710	0.097614
1050.383165	0.096922
1050.549601	0.097754
1050.716019	0.098124
1050.882420	0.097474
1051.048801	0.096055
1051.215165	0.098691
1051.381510	0.099720
1051.547837	0.098737
1051.714146	0.100149
1051.880437	0.098081
1052.046709	0.097797
1052.212964	0.097587
1052.379200	0.096962
1052.545417	0.097851
1052.711617	0.095602
1052.877798	0.096608
1053.043961	0.097028
1053.210106	0.096571
1053.376233	0.096065
1053.542341	0.096328
1053.708432	0.095628
1053.874504	0.096402
1054.040557	0.095624
1054.206593	0.096114
1054.372610	0.092278
1054.538609	0.092487
1054.704590	0.091885
1054.870553	0.094912
1055.036497	0.093519
1055.202424	0.092508
1055.368331	0.092896
1055.534221	0.093382
1055.700093	0.092712
1055.865946	0.094838
1056.031781	0.095696
1056.197598	0.095832
1056.363397	0.094283
1056.529177	0.094562
1056.694939	0.095327
1056.860683	0.094924
1057.026409	0.095257
1057.192116	0.095948
1057.357806	0.095107
1057.523477	0.093826
1057.689130	0.094710
1057.854764	0.095035
1058.020381	0.098348
1058.185979	0.098064
1058.351559	0.098505
1058.517120	0.097366
1058.682664	0.099263
1058.848189	0.100475
1059.013696	0.100370
1059.179185	0.098686
1059.344656	0.099442
1059.510108	0.096814
1059.675542	0.098026
1059.840958	0.097479
1060.006356	0.098768
1060.171735	0.097270
1060.337096	0.098552
1060.502439	0.098879
1060.667764	0.100344
1060.833071	0.098635
1060.998359	0.096814
1061.163629	0.093749
1061.328881	0.093789
1061.494115	0.095606
1061.659330	0.097808
1061.824527	0.097813
1061.989706	0.099315
1062.154867	0.099384
1062.320010	0.098543
1062.485134	0.102537
1062.650240	0.103704
1062.815328	0.103218
1062.980398	0.099131
1063.145449	0.097713
1063.310482	0.097186
1063.475497	0.096657
1063.640494	0.095942
1063.805473	0.096686
1063.970433	0.095740
1064.135375	0.096688
1064.300299	0.095557
1064.465204	0.096656
1064.630092	0.096013
1064.794961	0.093189
1064.959812	0.091566
1065.124645	0.091630
1065.289459	0.093843
1065.454256	0.092796
1065.619034	0.094093
1065.783793	0.094600
1065.948535	0.095513
1066.113258	0.093812
1066.277964	0.095671
1066.442651	0.095926
1066.607319	0.095662
1066.771970	0.093936
1066.936602	0.092651
1067.101216	0.093080
1067.265812	0.095119
1067.430389	0.094594
1067.594949	0.095569
1067.759490	0.094673
1067.924013	0.094362
1068.088518	0.094315
1068.253004	0.095100
1068.417472	0.094377
1068.581922	0.093181
1068.746354	0.091987
1068.910768	0.090751
1069.075163	0.090166
1069.239540	0.091384
1069.403899	0.093484
1069.568240	0.093617
1069.732562	0.092821
1069.896866	0.092655
1070.061152	0.092475
1070.225420	0.091942
1070.389670	0.092240
1070.553901	0.091963
1070.718114	0.091114
1070.882309	0.088631
1071.046486	0.086510
1071.210644	0.087254
1071.374784	0.090923
1071.538906	0.088934
1071.703010	0.091101
1071.867096	0.093288
1072.031163	0.093655
1072.195212	0.093331
1072.359243	0.094784
1072.523256	0.095227
1072.687250	0.095144
1072.851226	0.092849
1073.015184	0.094065
1073.179124	0.091887
1073.343045	0.091000
1073.506949	0.090751
1073.670834	0.091205
1073.834701	0.092014
1073.998549	0.093712
1074.162380	0.092907
1074.326192	0.094074
1074.489986	0.093035
1074.653761	0.090788
1074.817519	0.089485
1074.981258	0.089692
1075.144979	0.088623
1075.308682	0.087999
1075.472367	0.085737
1075.636033	0.085844
1075.799681	0.083277
1075.963311	0.084584
1076.126923	0.089575
1076.290516	0.089142
1076.454092	0.091974
1076.617649	0.092941
1076.781187	0.091455
1076.944708	0.093728
1077.108210	0.093229
1077.271695	0.094778
1077.435160	0.094067
1077.598608	0.091421
1077.762038	0.092529
1077.925449	0.089395
1078.088842	0.093803
1078.252217	0.095527
1078.415573	0.095966
1078.578912	0.096414
1078.742232	0.094575
1078.905534	0.094384
1079.068817	0.093879
1079.232083	0.091924
1079.395330	0.091740
1079.558559	0.088292
1079.721770	0.087407
1079.884962	0.087315
1080.048136	0.088059
1080.211293	0.089443
1080.374430	0.090605
1080.537550	0.093109
1080.700651	0.094984
1080.863735	0.096633
1081.026800	0.098495
1081.189846	0.097706
1081.352875	0.098461
1081.515885	0.095874
1081.678877	0.096115
1081.841851	0.096277
1082.004807	0.096210
1082.167744	0.096052
1082.330663	0.094137
1082.493564	0.092687
1082.656447	0.092390
1082.819312	0.091242
1082.982158	0.093535
1083.144986	0.094044
1083.307796	0.094038
1083.470587	0.093043
1083.633361	0.093655
1083.796116	0.095841
1083.958853	0.093448
1084.121571	0.093988
1084.284272	0.094016
1084.446954	0.091801
1084.609618	0.093030
1084.772264	0.093459
1084.934892	0.090907
1085.097501	0.091741
1085.260092	0.090663
1085.422665	0.093506
1085.585220	0.095274
1085.747756	0.095532
1085.910274	0.098035
1086.072774	0.097412
1086.235256	0.097177
1086.397720	0.097630
1086.560165	0.096650
1086.722592	0.094838
1086.885001	0.095295
1087.047392	0.096779
1087.209764	0.094072
1087.372119	0.094893
1087.534455	0.095161
1087.696772	0.094759
1087.859072	0.098738
1088.021353	0.097861
1088.183616	0.100115
1088.345861	0.098941
1088.508088	0.097840
1088.670296	0.097824
1088.832486	0.096929
1088.994658	0.094506
1089.156812	0.095767
1089.318948	0.095669
1089.481065	0.098081
1089.643164	0.096918
1089.805245	0.097456
1089.967308	0.099047
1090.129352	0.101711
1090.291378	0.101593
1090.453386	0.104770
1090.615376	0.107743
1090.777347	0.106988
1090.939301	0.106994
1091.101236	0.105181
1091.263153	0.101778
1091.425051	0.098484
1091.586932	0.098996
1091.748794	0.099154
1091.910638	0.093228
1092.072463	0.090077
1092.234271	0.089284
1092.396060	0.088259
1092.557831	0.092691
1092.719584	0.095245
1092.881319	0.096634
1093.043035	0.095530
1093.204733	0.096623
1093.366413	0.099958
1093.528075	0.098994
1093.689718	0.098011
1093.851343	0.099855
1094.012950	0.101056
1094.174539	0.101781
1094.336110	0.103998
1094.497662	0.103430
1094.659196	0.102232
1094.820712	0.104095
1094.982210	0.104985
1095.143689	0.108827
1095.305151	0.106089
1095.466594	0.103732
1095.628018	0.100563
1095.789425	0.095309
1095.950813	0.094307
1096.112183	0.095050
1096.273535	0.094009
1096.434869	0.092643
1096.596184	0.086456
1096.757482	0.091345
1096.918761	0.090317
1097.080021	0.091547
1097.241264	0.095057
1097.402488	0.098639
1097.563694	0.102251
1097.724882	0.098968
1097.886052	0.098644
1098.047203	0.103909
1098.208336	0.098483
1098.369451	0.098378
1098.530548	0.099884
1098.691627	0.100575
1098.852687	0.099245
1099.013729	0.093101
1099.174753	0.097415
1099.335758	0.098938
1099.496746	0.094518
1099.657715	0.097553
1099.818666	0.097417
1099.979599	0.094257
1100.140513	0.093773
1100.301409	0.094240
1100.462287	0.096651
1100.623147	0.096962
1100.783989	0.097221
1100.944812	0.098737
1101.105617	0.098754
1101.266404	0.100751
1101.427173	0.104521
1101.587923	0.103270
1101.748656	0.103069
1101.909370	0.104565
1102.070066	0.104179
1102.230743	0.104010
1102.391403	0.102085
1102.552044	0.099947
1102.712667	0.097901
1102.873271	0.093693
1103.033858	0.095149
1103.194426	0.093838
1103.354976	0.094480
1103.515508	0.096082
1103.676021	0.092715
1103.836517	0.094132
1103.996994	0.096829
1104.157453	0.092428
1104.317893	0.100494
1104.478316	0.093955
1104.638720	0.097402
1104.799106	0.093371
1104.959474	0.090369
1105.119823	0.090425
1105.280155	0.091002
1105.440468	0.085874
1105.600763	0.090938
1105.761039	0.085787
1105.921298	0.091024
1106.081538	0.089914
1106.241760	0.091309
1106.401964	0.089443
1106.562149	0.094672
1106.722316	0.096960
1106.882465	0.100543
1107.042596	0.100407
1107.202709	0.101585
1107.362803	0.100517
1107.522879	0.098026
1107.682937	0.095773
1107.842977	0.098531
1108.002999	0.097267
1108.163002	0.098024
1108.322987	0.098829
1108.482954	0.103395
1108.642902	0.109245
1108.802833	0.108610
1108.962745	0.111238
1109.122639	0.110513
1109.282515	0.111666
1109.442372	0.112349
1109.602211	0.108719
1109.762032	0.106504
1109.921835	0.102667
1110.081620	0.095929
1110.241386	0.096516
1110.401134	0.093254
1110.560864	0.098356
1110.720576	0.098531
1110.880269	0.095016
1111.039945	0.091447
1111.199602	0.090330
1111.359240	0.092095
1111.518861	0.095405
1111.678463	0.091520
1111.838047	0.094705
1111.997613	0.091384
1112.157161	0.089656
1112.316690	0.091252
1112.476202	0.094232
1112.635695	0.094231
1112.795169	0.092872
1112.954626	0.087062
1113.114064	0.094909
1113.273484	0.089989
1113.432886	0.088807
1113.592270	0.087427
1113.751635	0.090266
1113.910983	0.096475
1114.070312	0.099406
1114.229622	0.093751
1114.388915	0.097958
1114.548189	0.094684
1114.707445	0.100254
1114.866683	0.101638
1115.025903	0.102559
1115.185104	0.097494
1115.344287	0.090575
1115.503452	0.090403
1115.662599	0.095151
1115.821727	0.093300
1115.980838	0.092029
1116.139930	0.092082
1116.299004	0.089006
1116.458059	0.092017
1116.617097	0.095911
1116.776116	0.098772
1116.935117	0.097463
1117.094099	0.100896
1117.253064	0.100756
1117.412010	0.104799
1117.570938	0.101416
1117.729848	0.104109
1117.888740	0.102947
1118.047613	0.099773
1118.206468	0.097379
1118.365305	0.097738
1118.524124	0.096607
1118.682924	0.096980
1118.841707	0.094856
1119.000471	0.093881
1119.159216	0.092653
1119.317944	0.093553
1119.476653	0.095028
1119.635344	0.094359
1119.794017	0.092815
1119.952672	0.095523
1120.111308	0.091934
1120.269927	0.094392
1120.428527	0.095495
1120.587108	0.099418
1120.745672	0.099104
1120.904217	0.095850
1121.062744	0.103510
1121.221253	0.105456
1121.379744	0.102161
1121.538216	0.103376
1121.696671	0.103590
1121.855107	0.104589
1122.013524	0.103739
1122.171924	0.104058
1122.330305	0.107602
1122.488668	0.107308
1122.647013	0.104790
1122.805340	0.107697
1122.963648	0.110579
1123.121938	0.108761
1123.280210	0.107556
1123.438464	0.102885
1123.596700	0.100011
1123.754917	0.098512
1123.913116	0.092270
1124.071297	0.091767
1124.229459	0.086904
1124.387604	0.086212
1124.545730	0.078967
1124.703838	0.081139
1124.861928	0.085154
1125.019999	0.082553
1125.178052	0.080768
1125.336088	0.083286
1125.494104	0.080705
1125.652103	0.082866
1125.810083	0.080271
1125.968045	0.086666
1126.125989	0.086028
1126.283915	0.087221
1126.441823	0.085540
1126.599712	0.084637
1126.757583	0.085928
1126.915436	0.094066
1127.073270	0.089421
1127.231087	0.091831
1127.388885	0.091427
1127.546665	0.091693
1127.704426	0.088200
1127.862170	0.094313
1128.019895	0.098563
1128.177602	0.094059
1128.335291	0.090758
1128.492961	0.092305
1128.650614	0.092096
1128.808248	0.091542
1128.965864	0.088510
1129.123461	0.094655
1129.281041	0.096800
1129.438602	0.096880
1129.596145	0.094780
1129.753670	0.096209
1129.911176	0.092968
1130.068665	0.086153
1130.226135	0.089312
1130.383587	0.090611
1130.541020	0.087000
1130.698436	0.084886
1130.855833	0.086731
1131.013212	0.089691
1131.170573	0.085650
1131.327915	0.088638
1131.485239	0.091827
1131.642545	0.088610
1131.799833	0.086938
1131.957103	0.087343
1132.114354	0.088878
1132.271588	0.086720
1132.428803	0.088578
1132.585999	0.096552
1132.743178	0.100407
1132.900338	0.102600
1133.057480	0.099207
1133.214604	0.101393
1133.371710	0.094999
1133.528797	0.090818
1133.685866	0.092010
1133.842917	0.091017
1133.999950	0.088212
1134.156964	0.085747
1134.313960	0.087060
1134.470938	0.084883
1134.627898	0.080003
1134.784840	0.088687
1134.941763	0.090770
1135.098668	0.084720
1135.255555	0.081229
1135.412424	0.076048
1135.569274	0.074091
1135.726107	0.079314
1135.882921	0.083097
1136.039716	0.087919
1136.196494	0.085961
1136.353253	0.086432
1136.509995	0.091867
1136.666717	0.095702
1136.823422	0.103149
1136.980109	0.107458
1137.136777	0.093771
1137.293427	0.090976
1137.450059	0.094832
1137.606672	0.092605
1137.763267	0.091810
1137.919844	0.091818
1138.076403	0.089643
1138.232944	0.084604
1138.389466	0.077719
1138.545971	0.086051
1138.702457	0.092894
1138.858924	0.088806
1139.015374	0.090315
1139.171805	0.090442
1139.328218	0.085487
1139.484613	0.089362
1139.640990	0.084549
1139.797348	0.090559
1139.953688	0.095220
1140.110010	0.092952
1140.266314	0.089223
1140.422600	0.088217
1140.578867	0.090013
1140.735116	0.095646
1140.891347	0.090327
1141.047559	0.096142
1141.203754	0.096785
1141.359930	0.085932
1141.516088	0.087264
1141.672228	0.090649
1141.828349	0.089664
1141.984452	0.088779
1142.140537	0.092484
1142.296604	0.095545
1142.452653	0.098251
1142.608683	0.093775
1142.764695	0.098028
1142.920689	0.098138
1143.076665	0.099740
1143.232622	0.092221
1143.388562	0.092010
1143.544483	0.086943
1143.700385	0.086189
1143.856270	0.085420
1144.012136	0.094097
1144.167985	0.095298
1144.323814	0.090971
1144.479626	0.091119
1144.635420	0.103358
1144.791195	0.105904
1144.946952	0.106068
1145.102691	0.102925
1145.258411	0.101872
1145.414113	0.094566
1145.569798	0.096983
1145.725463	0.095524
1145.881111	0.095055
1146.036741	0.085957
1146.192352	0.084869
1146.347945	0.089608
1146.503519	0.095610
1146.659076	0.095673
1146.814614	0.092157
1146.970134	0.089174
1147.125636	0.091953
1147.281120	0.094359
1147.436585	0.095195
1147.592032	0.090665
1147.747461	0.086838
1147.902872	0.087053
1148.058265	0.082167
1148.213639	0.082525
1148.368995	0.079857
1148.524333	0.076488
1148.679653	0.076377
1148.834954	0.080920
1148.990237	0.081897
1149.145502	0.077695
1149.300749	0.071983
1149.455977	0.073553
1149.611188	0.077428
1149.766380	0.080141
1149.921553	0.089451
1150.076709	0.087923
1150.231846	0.089627
1150.386966	0.091387
1150.542066	0.098876
1150.697149	0.098672
1150.852214	0.106124
1151.007260	0.109301
1151.162288	0.105108
1151.317298	0.100400
1151.472289	0.101565
1151.627263	0.099784
1151.782218	0.101626
1151.937155	0.095973
1152.092073	0.101416
1152.246974	0.094299
1152.401856	0.089943
1152.556720	0.093729
1152.711566	0.095019
1152.866393	0.097842
1153.021203	0.102449
1153.175994	0.106856
1153.330767	0.107714
1153.485521	0.109595
1153.640258	0.111675
1153.794976	0.121362
1153.949676	0.130504
1154.104358	0.128543
1154.259021	0.124282
1154.413667	0.119465
1154.568294	0.116687
1154.722903	0.117478
1154.877493	0.112219
1155.032066	0.111726
1155.186620	0.103596
1155.341156	0.090228
1155.495674	0.090489
1155.650173	0.095283
1155.804654	0.091742
1155.959118	0.086829
1156.113562	0.085863
1156.267989	0.091250
1156.422397	0.092241
1156.576788	0.092699
1156.731160	0.102563
1156.885513	0.105466
1157.039849	0.108927
1157.194166	0.117738
1157.348465	0.116432
1157.502746	0.120252
1157.657009	0.108686
1157.811253	0.104350
1157.965479	0.108128
1158.119687	0.109658
1158.273877	0.107434
1158.428048	0.103200
1158.582201	0.097204
1158.736337	0.098319
1158.890453	0.092288
1159.044552	0.101507
1159.198632	0.103839
1159.352694	0.096866
1159.506738	0.086322
1159.660764	0.094920
1159.814771	0.083971
1159.968761	0.077293
1160.122732	0.070535
1160.276685	0.075731
1160.430619	0.066465
1160.584535	0.065612
1160.738434	0.066898
1160.892313	0.068695
1161.046175	0.060423
1161.200019	0.057603
1161.353844	0.065895
1161.507651	0.075222
1161.661440	0.068612
1161.815210	0.078705
1161.968962	0.079973
1162.122697	0.083100
1162.276412	0.078717
1162.430110	0.071158
1162.583789	0.082707
1162.737451	0.080318
1162.891094	0.078789
1163.044718	0.080043
1163.198325	0.075932
1163.351913	0.075477
1163.505483	0.072240
1163.659035	0.080406
1163.812569	0.080665
1163.966084	0.073184
1164.119581	0.075547
1164.273060	0.071629
1164.426521	0.074087
1164.579964	0.074750
1164.733388	0.069344
1164.886794	0.065291
1165.040182	0.055745
1165.193551	0.062933
1165.346903	0.069128
1165.500236	0.068963
1165.653551	0.073647
1165.806848	0.075857
1165.960126	0.078755
1166.113386	0.084370
1166.266628	0.088337
1166.419852	0.096016
1166.573058	0.095335
1166.726245	0.083965
1166.879414	0.081165
1167.032565	0.075908
1167.185698	0.074268
1167.338812	0.069864
1167.491909	0.069421
1167.644987	0.072636
1167.798046	0.082430
1167.951088	0.079407
1168.104111	0.093214
1168.257117	0.098024
1168.410103	0.095325
1168.563072	0.093397
1168.716023	0.089130
1168.868955	0.086639
1169.021869	0.077805
1169.174765	0.060493
1169.327642	0.062117
1169.480501	0.058038
1169.633343	0.052738
1169.786165	0.051693
1169.938970	0.048552
1170.091757	0.052075
1170.244525	0.053539
1170.397275	0.055270
1170.550007	0.069155
1170.702720	0.070725
1170.855415	0.059659
1171.008092	0.055884
1171.160751	0.056619
1171.313392	0.055098
1171.466014	-0.005972
1171.618619	0.032494
1171.771205	0.032494
1171.923772	0.032494
