sample name	sample
index	724
start time	 03-25-2021  11:55:09 AM


Wavelength (nm)	Absorbance
494.344910	-0.137016
494.563924	-0.137016
494.782919	-0.137016
495.001897	-0.127495
495.220856	-0.095823
495.439797	-0.106435
495.658719	-0.109133
495.877624	-0.066728
496.096510	-0.025161
496.315378	-0.009625
496.534227	0.017874
496.753059	0.053482
496.971872	0.053101
497.190667	0.089304
497.409444	0.099226
497.628203	0.102149
497.846943	0.100942
498.065665	0.097882
498.284369	0.098229
498.503055	0.098076
498.721723	0.097685
498.940372	0.097468
499.159003	0.097004
499.377616	0.096538
499.596210	0.095528
499.814787	0.095042
500.033345	0.095866
500.251885	0.094683
500.470406	0.094410
500.688910	0.093965
500.907395	0.094559
501.125862	0.094777
501.344311	0.094647
501.562742	0.094907
501.781154	0.095137
501.999548	0.094196
502.217924	0.093990
502.436282	0.093721
502.654621	0.094549
502.872942	0.094203
503.091245	0.093892
503.309530	0.093850
503.527797	0.093576
503.746045	0.092792
503.964275	0.093502
504.182487	0.094415
504.400681	0.095013
504.618856	0.094787
504.837013	0.095269
505.055152	0.094975
505.273273	0.094452
505.491376	0.094722
505.709460	0.095073
505.927526	0.095109
506.145574	0.094768
506.363604	0.093890
506.581615	0.093733
506.799608	0.093652
507.017583	0.094480
507.235540	0.095323
507.453478	0.095565
507.671399	0.095537
507.889301	0.095534
508.107185	0.095571
508.325050	0.096201
508.542898	0.097003
508.760727	0.096650
508.978538	0.095661
509.196330	0.095693
509.414105	0.095702
509.631861	0.096038
509.849599	0.095814
510.067319	0.095836
510.285021	0.096204
510.502704	0.096174
510.720369	0.096539
510.938016	0.097372
511.155645	0.097047
511.373255	0.097738
511.590848	0.097573
511.808422	0.098326
512.025977	0.098908
512.243515	0.098754
512.461034	0.098541
512.678536	0.098213
512.896018	0.098090
513.113483	0.098403
513.330930	0.097755
513.548358	0.097598
513.765768	0.097403
513.983160	0.096844
514.200533	0.096557
514.417889	0.096259
514.635226	0.096912
514.852545	0.096802
515.069845	0.096359
515.287128	0.096455
515.504392	0.096586
515.721638	0.096246
515.938866	0.096216
516.156075	0.096614
516.373267	0.097305
516.590440	0.097421
516.807594	0.097930
517.024731	0.098033
517.241850	0.097974
517.458950	0.097807
517.676032	0.097614
517.893095	0.097553
518.110141	0.096891
518.327168	0.096712
518.544177	0.096174
518.761168	0.096218
518.978141	0.097289
519.195095	0.097266
519.412031	0.098483
519.628949	0.098924
519.845849	0.099375
520.062731	0.100129
520.279594	0.100166
520.496439	0.100035
520.713266	0.099673
520.930074	0.099351
521.146865	0.099274
521.363637	0.099180
521.580391	0.099144
521.797127	0.100171
522.013844	0.099615
522.230543	0.099714
522.447224	0.099883
522.663887	0.100296
522.880532	0.100460
523.097158	0.101145
523.313766	0.101635
523.530356	0.101856
523.746928	0.101988
523.963481	0.102376
524.180017	0.101957
524.396534	0.102984
524.613032	0.102796
524.829513	0.102547
525.045975	0.102690
525.262420	0.102064
525.478845	0.101980
525.695253	0.101809
525.911643	0.102427
526.128014	0.103354
526.344367	0.102959
526.560702	0.102929
526.777018	0.103436
526.993316	0.103267
527.209597	0.103622
527.425858	0.104103
527.642102	0.103530
527.858328	0.103561
528.074535	0.103336
528.290724	0.103458
528.506894	0.104087
528.723047	0.104007
528.939181	0.103916
529.155297	0.103678
529.371395	0.103774
529.587475	0.104153
529.803536	0.103574
530.019579	0.103405
530.235604	0.103498
530.451611	0.103861
530.667600	0.103986
530.883570	0.104475
531.099522	0.104847
531.315456	0.104934
531.531372	0.104915
531.747269	0.105349
531.963148	0.105486
532.179009	0.105802
532.394852	0.105428
532.610676	0.105918
532.826482	0.106193
533.042271	0.106232
533.258040	0.106496
533.473792	0.107227
533.689525	0.108035
533.905240	0.108633
534.120937	0.108796
534.336616	0.108971
534.552277	0.108903
534.767919	0.109033
534.983543	0.108893
535.199149	0.109119
535.414736	0.109104
535.630306	0.108896
535.845857	0.108920
536.061390	0.108873
536.276904	0.109332
536.492401	0.109386
536.707879	0.109497
536.923339	0.110056
537.138781	0.110247
537.354204	0.110318
537.569610	0.110851
537.784997	0.111302
538.000366	0.111541
538.215716	0.111627
538.431049	0.111828
538.646363	0.111681
538.861659	0.112122
539.076937	0.112338
539.292196	0.112280
539.507438	0.111820
539.722661	0.111657
539.937866	0.111842
540.153052	0.112007
540.368221	0.112112
540.583371	0.112372
540.798503	0.112279
541.013617	0.112359
541.228712	0.112211
541.443789	0.112492
541.658848	0.112926
541.873889	0.113013
542.088912	0.112778
542.303916	0.112707
542.518902	0.113477
542.733870	0.113611
542.948820	0.113521
543.163752	0.114014
543.378665	0.114453
543.593560	0.114037
543.808437	0.114094
544.023295	0.114301
544.238136	0.114762
544.452958	0.114489
544.667762	0.114544
544.882548	0.114748
545.097315	0.115093
545.312064	0.114724
545.526795	0.115060
545.741508	0.115690
545.956203	0.115860
546.170879	0.115601
546.385537	0.115221
546.600177	0.115406
546.814799	0.115549
547.029402	0.115546
547.243988	0.115818
547.458555	0.116235
547.673103	0.115759
547.887634	0.116047
548.102146	0.116222
548.316640	0.116656
548.531116	0.116744
548.745574	0.116950
548.960013	0.116494
549.174435	0.116764
549.388838	0.116802
549.603222	0.116764
549.817589	0.116757
550.031937	0.117198
550.246267	0.117430
550.460579	0.117206
550.674873	0.117291
550.889148	0.117648
551.103405	0.117654
551.317644	0.117624
551.531865	0.117866
551.746068	0.117807
551.960252	0.117706
552.174418	0.117745
552.388566	0.117720
552.602696	0.117546
552.816807	0.117882
553.030900	0.118094
553.244975	0.118121
553.459032	0.118486
553.673070	0.119017
553.887091	0.119667
554.101093	0.119808
554.315077	0.120367
554.529042	0.120518
554.742990	0.120653
554.956919	0.120824
555.170830	0.120961
555.384722	0.120721
555.598597	0.121009
555.812453	0.120691
556.026291	0.120626
556.240111	0.120274
556.453913	0.120522
556.667696	0.120154
556.881461	0.120333
557.095208	0.120489
557.308937	0.121083
557.522647	0.121029
557.736339	0.120999
557.950013	0.121260
558.163669	0.121996
558.377307	0.122160
558.590926	0.122772
558.804527	0.122729
559.018110	0.123003
559.231675	0.122944
559.445221	0.122957
559.658749	0.123400
559.872259	0.123750
560.085751	0.123158
560.299225	0.123381
560.512680	0.123376
560.726117	0.123236
560.939536	0.123318
561.152937	0.123104
561.366319	0.122960
561.579683	0.122674
561.793029	0.122442
562.006357	0.123136
562.219667	0.123407
562.432958	0.123650
562.646231	0.124085
562.859486	0.124218
563.072723	0.124453
563.285941	0.125036
563.499141	0.125172
563.712323	0.125213
563.925487	0.125368
564.138632	0.125209
564.351760	0.125002
564.564869	0.124896
564.777960	0.124415
564.991032	0.125113
565.204087	0.125156
565.417123	0.125654
565.630141	0.125676
565.843140	0.125563
566.056122	0.125583
566.269085	0.125929
566.482030	0.126304
566.694957	0.126744
566.907866	0.125920
567.120756	0.125768
567.333628	0.125587
567.546482	0.125812
567.759318	0.125792
567.972135	0.125585
568.184935	0.125781
568.397716	0.125539
568.610478	0.125545
568.823223	0.126052
569.035949	0.126076
569.248657	0.125990
569.461347	0.126092
569.674019	0.126360
569.886672	0.126525
570.099308	0.126128
570.311925	0.126459
570.524523	0.126443
570.737104	0.126772
570.949666	0.126720
571.162210	0.126827
571.374736	0.126915
571.587244	0.127033
571.799733	0.127366
572.012205	0.127980
572.224658	0.127911
572.437092	0.128331
572.649509	0.128165
572.861907	0.128246
573.074287	0.128593
573.286649	0.128563
573.498993	0.128571
573.711318	0.128779
573.923625	0.128596
574.135914	0.128383
574.348185	0.128461
574.560438	0.128403
574.772672	0.128686
574.984888	0.128782
575.197086	0.129265
575.409266	0.129563
575.621427	0.129516
575.833570	0.129822
576.045695	0.130273
576.257802	0.130204
576.469890	0.130389
576.681961	0.130541
576.894013	0.130329
577.106046	0.130050
577.318062	0.130049
577.530059	0.130294
577.742039	0.129894
577.954000	0.130010
578.165942	0.130108
578.377867	0.130145
578.589773	0.130152
578.801661	0.130363
579.013531	0.130596
579.225382	0.130598
579.437216	0.130509
579.649031	0.130812
579.860828	0.130536
580.072606	0.130776
580.284367	0.130853
580.496109	0.131012
580.707833	0.131479
580.919539	0.131682
581.131227	0.131524
581.342896	0.131508
581.554547	0.131501
581.766180	0.131845
581.977795	0.131742
582.189391	0.131809
582.400969	0.131824
582.612529	0.131619
582.824071	0.131539
583.035595	0.131750
583.247100	0.131631
583.458587	0.131700
583.670056	0.131470
583.881506	0.131607
584.092939	0.131726
584.304353	0.131654
584.515749	0.131572
584.727127	0.131928
584.938486	0.131830
585.149828	0.132180
585.361151	0.132312
585.572456	0.132882
585.783742	0.132603
585.995011	0.132805
586.206261	0.133133
586.417493	0.133158
586.628706	0.132917
586.839902	0.133367
587.051079	0.133272
587.262238	0.133292
587.473379	0.133046
587.684502	0.133313
587.895606	0.133408
588.106692	0.133530
588.317760	0.133686
588.528810	0.133731
588.739841	0.133997
588.950855	0.134009
589.161850	0.133910
589.372827	0.134014
589.583785	0.134080
589.794726	0.134366
590.005648	0.134469
590.216552	0.134679
590.427437	0.134953
590.638305	0.134514
590.849154	0.134851
591.059985	0.135242
591.270798	0.135507
591.481592	0.135502
591.692369	0.135423
591.903127	0.135134
592.113867	0.135368
592.324588	0.135647
592.535292	0.135814
592.745977	0.135889
592.956644	0.135975
593.167293	0.136070
593.377923	0.136255
593.588536	0.136130
593.799130	0.136818
594.009706	0.136791
594.220263	0.136247
594.430803	0.136423
594.641324	0.136703
594.851827	0.136573
595.062312	0.136585
595.272778	0.136639
595.483227	0.137103
595.693657	0.136929
595.904069	0.136906
596.114462	0.137298
596.324838	0.137241
596.535195	0.137089
596.745534	0.137233
596.955855	0.137236
597.166157	0.137341
597.376441	0.137021
597.586707	0.136933
597.796955	0.137142
598.007185	0.136919
598.217396	0.137020
598.427589	0.136994
598.637764	0.137115
598.847921	0.137155
599.058060	0.137414
599.268180	0.137828
599.478282	0.137749
599.688366	0.137472
599.898431	0.137860
600.108479	0.138041
600.318508	0.138257
600.528519	0.138385
600.738511	0.138466
600.948486	0.138408
601.158442	0.138308
601.368380	0.138396
601.578300	0.138752
601.788202	0.138876
601.998085	0.139067
602.207950	0.139139
602.417797	0.139364
602.627626	0.139465
602.837436	0.139676
603.047228	0.139820
603.257002	0.140230
603.466758	0.140346
603.676496	0.140191
603.886215	0.140192
604.095916	0.140150
604.305599	0.140096
604.515264	0.140129
604.724910	0.140302
604.934538	0.140416
605.144148	0.140460
605.353740	0.140444
605.563314	0.140485
605.772869	0.140607
605.982406	0.140924
606.191925	0.141344
606.401425	0.141784
606.610908	0.141856
606.820372	0.141733
607.029818	0.141895
607.239246	0.141964
607.448655	0.142042
607.658047	0.142025
607.867420	0.142110
608.076775	0.141950
608.286111	0.141905
608.495430	0.141960
608.704730	0.142103
608.914012	0.141812
609.123275	0.141755
609.332521	0.141949
609.541748	0.142037
609.750957	0.142072
609.960148	0.141942
610.169321	0.141618
610.378475	0.141722
610.587611	0.141737
610.796729	0.141781
611.005829	0.141857
611.214910	0.141888
611.423974	0.141883
611.633019	0.142048
611.842045	0.142288
612.051054	0.142538
612.260044	0.142593
612.469017	0.142677
612.677970	0.142819
612.886906	0.143060
613.095824	0.143079
613.304723	0.143383
613.513604	0.143186
613.722467	0.143339
613.931311	0.143410
614.140138	0.143170
614.348946	0.143175
614.557736	0.143215
614.766507	0.143388
614.975261	0.143688
615.183996	0.143579
615.392713	0.143725
615.601412	0.143682
615.810092	0.143862
616.018754	0.143976
616.227399	0.144209
616.436024	0.144716
616.644632	0.144577
616.853222	0.144596
617.061793	0.144630
617.270346	0.144694
617.478880	0.144827
617.687397	0.144825
617.895895	0.144852
618.104375	0.144885
618.312837	0.144731
618.521281	0.144909
618.729706	0.144878
618.938113	0.145027
619.146502	0.145090
619.354873	0.145130
619.563226	0.145238
619.771560	0.145310
619.979876	0.145417
620.188174	0.145623
620.396453	0.145642
620.604715	0.145747
620.812958	0.145744
621.021183	0.145993
621.229390	0.145899
621.437578	0.145766
621.645748	0.145787
621.853900	0.146011
622.062034	0.145824
622.270150	0.146042
622.478247	0.146347
622.686326	0.146523
622.894387	0.146464
623.102430	0.146608
623.310454	0.146912
623.518461	0.147389
623.726449	0.147248
623.934418	0.147456
624.142370	0.147402
624.350303	0.147209
624.558218	0.147024
624.766115	0.146877
624.973994	0.146960
625.181855	0.146752
625.389697	0.146655
625.597521	0.146515
625.805327	0.146387
626.013114	0.146187
626.220883	0.146191
626.428634	0.146554
626.636367	0.146593
626.844082	0.146605
627.051778	0.146786
627.259457	0.146734
627.467117	0.146669
627.674758	0.146864
627.882382	0.147025
628.089987	0.147224
628.297574	0.147139
628.505143	0.147419
628.712694	0.147474
628.920226	0.147667
629.127740	0.147559
629.335236	0.147781
629.542714	0.147741
629.750174	0.147871
629.957615	0.147758
630.165038	0.147780
630.372443	0.147776
630.579829	0.148000
630.787198	0.148085
630.994548	0.148306
631.201880	0.148471
631.409194	0.148556
631.616489	0.148430
631.823766	0.148574
632.031025	0.148595
632.238266	0.148976
632.445489	0.149189
632.652693	0.149359
632.859879	0.149382
633.067047	0.149414
633.274197	0.149645
633.481329	0.149969
633.688442	0.150214
633.895537	0.150403
634.102614	0.150167
634.309672	0.150032
634.516713	0.149704
634.723735	0.149794
634.930739	0.149935
635.137724	0.150032
635.344692	0.150226
635.551641	0.150238
635.758572	0.150241
635.965485	0.150130
636.172379	0.150148
636.379256	0.150746
636.586114	0.150834
636.792954	0.151098
636.999775	0.151214
637.206579	0.151285
637.413364	0.151411
637.620131	0.151588
637.826880	0.151996
638.033610	0.152065
638.240323	0.151933
638.447017	0.152010
638.653692	0.151977
638.860350	0.151824
639.066990	0.151926
639.273611	0.152009
639.480214	0.152028
639.686798	0.152047
639.893365	0.152287
640.099913	0.152374
640.306443	0.152749
640.512955	0.152822
640.719449	0.152944
640.925924	0.152879
641.132381	0.153034
641.338820	0.153417
641.545241	0.153369
641.751644	0.153424
641.958028	0.153550
642.164394	0.153361
642.370742	0.153340
642.577071	0.153646
642.783383	0.153773
642.989676	0.153695
643.195951	0.153485
643.402207	0.153697
643.608446	0.153667
643.814666	0.153637
644.020868	0.153753
644.227052	0.153764
644.433218	0.153584
644.639365	0.153633
644.845494	0.153641
645.051605	0.153697
645.257698	0.153758
645.463772	0.153743
645.669828	0.153713
645.875866	0.153963
646.081886	0.154220
646.287888	0.154455
646.493871	0.154401
646.699836	0.154608
646.905783	0.154695
647.111712	0.154979
647.317622	0.155153
647.523514	0.155433
647.729388	0.155340
647.935244	0.155542
648.141082	0.155646
648.346901	0.156020
648.552702	0.155982
648.758485	0.156067
648.964250	0.156163
649.169996	0.156531
649.375724	0.156765
649.581434	0.156921
649.787126	0.156863
649.992800	0.156759
650.198455	0.156813
650.404092	0.157097
650.609711	0.157072
650.815311	0.156970
651.020894	0.156597
651.226458	0.156421
651.432004	0.156686
651.637532	0.156812
651.843041	0.157098
652.048532	0.157054
652.254006	0.156885
652.459460	0.157044
652.664897	0.156958
652.870315	0.157297
653.075716	0.157375
653.281097	0.157099
653.486461	0.157153
653.691807	0.157072
653.897134	0.157188
654.102443	0.157466
654.307734	0.157726
654.513006	0.157900
654.718261	0.157958
654.923497	0.158214
655.128715	0.158350
655.333915	0.158638
655.539096	0.158722
655.744259	0.158695
655.949404	0.158831
656.154531	0.158843
656.359640	0.159077
656.564730	0.158867
656.769802	0.158916
656.974856	0.159280
657.179892	0.159041
657.384909	0.159423
657.589908	0.159631
657.794889	0.159659
657.999852	0.159697
658.204797	0.159758
658.409723	0.159970
658.614631	0.160037
658.819521	0.160053
659.024393	0.160419
659.229246	0.160302
659.434081	0.160309
659.638898	0.160371
659.843697	0.160598
660.048478	0.160700
660.253240	0.160799
660.457984	0.160767
660.662710	0.160681
660.867417	0.160796
661.072107	0.160864
661.276778	0.161128
661.481431	0.161285
661.686066	0.161332
661.890682	0.161259
662.095281	0.161183
662.299861	0.161253
662.504422	0.161360
662.708966	0.161238
662.913491	0.161392
663.117999	0.161241
663.322488	0.161221
663.526958	0.161144
663.731411	0.161480
663.935845	0.161820
664.140261	0.161986
664.344659	0.162204
664.549038	0.162196
664.753400	0.162266
664.957743	0.162409
665.162068	0.162580
665.366375	0.162606
665.570663	0.162491
665.774933	0.162618
665.979185	0.162653
666.183419	0.162736
666.387635	0.163017
666.591832	0.163109
666.796011	0.163401
667.000172	0.163461
667.204315	0.163803
667.408439	0.163964
667.612545	0.164033
667.816634	0.164377
668.020703	0.164487
668.224755	0.164550
668.428788	0.164853
668.632803	0.164993
668.836800	0.165278
669.040779	0.165413
669.244739	0.165515
669.448681	0.165709
669.652605	0.165762
669.856511	0.165889
670.060399	0.166039
670.264268	0.165734
670.468119	0.165719
670.671952	0.165474
670.875767	0.165419
671.079563	0.165588
671.283341	0.165645
671.487101	0.165646
671.690843	0.165895
671.894567	0.165843
672.098272	0.166089
672.301959	0.166161
672.505628	0.166387
672.709278	0.166636
672.912911	0.166639
673.116525	0.166793
673.320121	0.166995
673.523699	0.166937
673.727258	0.167217
673.930799	0.167348
674.134322	0.167466
674.337827	0.167602
674.541314	0.167744
674.744782	0.167922
674.948232	0.168025
675.151664	0.168031
675.355078	0.167897
675.558474	0.167799
675.761851	0.168025
675.965210	0.168091
676.168551	0.168136
676.371873	0.168051
676.575178	0.168176
676.778464	0.168384
676.981732	0.168521
677.184981	0.168828
677.388213	0.169308
677.591426	0.169115
677.794621	0.169360
677.997798	0.169458
678.200956	0.169705
678.404097	0.169813
678.607219	0.169936
678.810323	0.169982
679.013408	0.170123
679.216476	0.170038
679.419525	0.170276
679.622556	0.170276
679.825569	0.170518
680.028563	0.170653
680.231540	0.170832
680.434498	0.170865
680.637438	0.171144
680.840359	0.171276
681.043263	0.171533
681.246148	0.171759
681.449015	0.171797
681.651864	0.171939
681.854694	0.171955
682.057506	0.171862
682.260301	0.171919
682.463076	0.172054
682.665834	0.172131
682.868573	0.172036
683.071295	0.171996
683.273998	0.172212
683.476682	0.172318
683.679349	0.172396
683.881997	0.172469
684.084627	0.172597
684.287239	0.172642
684.489833	0.172809
684.692408	0.173101
684.894965	0.173414
685.097504	0.173587
685.300025	0.173656
685.502527	0.173834
685.705012	0.174088
685.907478	0.174106
686.109925	0.174045
686.312355	0.174006
686.514766	0.174068
686.717159	0.174234
686.919534	0.174432
687.121891	0.174637
687.324230	0.174788
687.526550	0.174923
687.728852	0.175087
687.931136	0.175137
688.133401	0.175221
688.335649	0.175213
688.537878	0.175180
688.740089	0.175042
688.942281	0.175068
689.144456	0.174945
689.346612	0.174855
689.548750	0.174862
689.750870	0.174948
689.952971	0.175120
690.155055	0.175381
690.357120	0.175413
690.559167	0.175517
690.761195	0.175799
690.963206	0.175963
691.165198	0.176305
691.367172	0.176472
691.569128	0.176550
691.771065	0.176668
691.972984	0.176313
692.174885	0.176395
692.376768	0.176642
692.578633	0.176318
692.780479	0.176227
692.982308	0.176091
693.184118	0.176237
693.385909	0.176391
693.587683	0.176409
693.789438	0.176884
693.991175	0.176982
694.192894	0.176978
694.394595	0.177286
694.596277	0.177525
694.797941	0.177599
694.999587	0.177618
695.201215	0.177636
695.402824	0.177726
695.604416	0.177616
695.805989	0.177485
696.007543	0.177683
696.209080	0.177577
696.410598	0.177788
696.612099	0.177871
696.813580	0.177839
697.015044	0.178076
697.216490	0.178329
697.417917	0.178394
697.619326	0.178759
697.820717	0.178594
698.022089	0.178663
698.223444	0.178726
698.424780	0.178949
698.626098	0.179307
698.827397	0.179420
699.028679	0.179459
699.229942	0.179456
699.431187	0.179583
699.632414	0.179860
699.833622	0.180120
700.034813	0.180121
700.235985	0.180104
700.437139	0.180092
700.638274	0.180023
700.839392	0.180018
701.040491	0.180339
701.241572	0.180385
701.442635	0.180301
701.643679	0.180480
701.844706	0.180581
702.045714	0.180514
702.246704	0.180388
702.447675	0.180531
702.648629	0.180667
702.849564	0.180565
703.050481	0.180688
703.251380	0.180785
703.452260	0.180462
703.653122	0.180437
703.853966	0.180717
704.054792	0.180925
704.255600	0.180843
704.456389	0.180681
704.657160	0.181015
704.857913	0.180625
705.058648	0.180539
705.259365	0.180642
705.460063	0.180368
705.660743	0.180331
705.861405	0.180122
706.062048	0.180002
706.262674	0.180051
706.463281	0.179873
706.663870	0.179951
706.864441	0.179941
707.064993	0.179981
707.265527	0.180219
707.466043	0.180132
707.666541	0.180212
707.867021	0.180292
708.067482	0.180411
708.267925	0.180336
708.468350	0.180502
708.668757	0.180658
708.869145	0.180793
709.069516	0.180978
709.269868	0.181144
709.470201	0.181284
709.670517	0.181591
709.870814	0.181550
710.071093	0.181503
710.271354	0.181410
710.471597	0.181309
710.671821	0.181438
710.872028	0.181390
711.072216	0.181365
711.272385	0.181319
711.472537	0.181208
711.672670	0.181161
711.872785	0.181223
712.072882	0.181414
712.272961	0.181536
712.473021	0.181323
712.673063	0.181424
712.873087	0.181267
713.073093	0.181150
713.273081	0.180990
713.473050	0.180959
713.673001	0.180977
713.872934	0.181004
714.072849	0.180886
714.272745	0.180899
714.472623	0.180763
714.672483	0.180922
714.872325	0.181228
715.072148	0.181219
715.271954	0.181354
715.471741	0.181260
715.671509	0.181128
715.871260	0.181186
716.070992	0.181077
716.270707	0.181133
716.470403	0.181175
716.670080	0.181029
716.869740	0.181303
717.069381	0.181359
717.269004	0.181418
717.468609	0.181407
717.668195	0.181329
717.867764	0.181389
718.067314	0.181324
718.266846	0.181125
718.466360	0.181016
718.665855	0.180894
718.865332	0.180585
719.064791	0.180471
719.264232	0.180440
719.463655	0.180338
719.663059	0.180320
719.862445	0.180428
720.061813	0.180357
720.261163	0.180316
720.460494	0.180194
720.659807	0.180399
720.859102	0.180603
721.058379	0.180305
721.257638	0.180386
721.456878	0.180300
721.656100	0.180208
721.855304	0.180256
722.054490	0.180117
722.253657	0.180029
722.452806	0.179973
722.651937	0.179964
722.851050	0.180242
723.050145	0.180258
723.249221	0.180344
723.448279	0.180140
723.647319	0.179987
723.846340	0.180008
724.045344	0.180118
724.244329	0.180022
724.443296	0.179830
724.642245	0.179817
724.841175	0.179719
725.040088	0.179753
725.238982	0.179724
725.437857	0.179725
725.636715	0.179755
725.835554	0.179548
726.034376	0.179457
726.233179	0.179334
726.431963	0.179135
726.630730	0.178985
726.829478	0.178815
727.028208	0.178734
727.226920	0.178654
727.425614	0.178507
727.624289	0.178565
727.822946	0.178509
728.021585	0.178424
728.220206	0.178497
728.418808	0.178572
728.617392	0.178513
728.815958	0.178456
729.014506	0.178589
729.213036	0.178565
729.411547	0.178415
729.610040	0.178277
729.808515	0.178514
730.006972	0.178470
730.205410	0.178412
730.403831	0.178217
730.602233	0.177978
730.800616	0.177735
730.998982	0.177772
731.197329	0.177717
731.395658	0.177723
731.593969	0.177584
731.792262	0.177525
731.990536	0.177440
732.188793	0.177286
732.387031	0.177419
732.585250	0.177655
732.783452	0.177608
732.981635	0.177521
733.179800	0.177251
733.377947	0.176943
733.576076	0.176724
733.774186	0.176601
733.972278	0.176800
734.170352	0.176853
734.368408	0.176594
734.566446	0.176204
734.764465	0.176077
734.962466	0.176277
735.160449	0.176307
735.358413	0.176163
735.556360	0.176150
735.754288	0.175844
735.952198	0.175641
736.150090	0.175476
736.347963	0.175692
736.545818	0.175594
736.743655	0.175236
736.941474	0.175152
737.139275	0.175283
737.337057	0.174842
737.534821	0.174679
737.732567	0.174442
737.930295	0.174192
738.128005	0.173913
738.325696	0.173928
738.523369	0.173890
738.721024	0.173634
738.918660	0.173303
739.116279	0.173495
739.313879	0.173264
739.511461	0.173210
739.709024	0.173195
739.906570	0.173043
740.104097	0.172798
740.301606	0.172430
740.499097	0.172294
740.696569	0.172201
740.894024	0.172066
741.091460	0.172136
741.288878	0.172209
741.486277	0.172151
741.683659	0.172386
741.881022	0.172166
742.078367	0.172457
742.275694	0.172507
742.473002	0.172501
742.670293	0.172426
742.867565	0.172309
743.064819	0.172239
743.262054	0.172316
743.459272	0.171937
743.656471	0.172077
743.853652	0.171848
744.050815	0.171649
744.247959	0.171562
744.445085	0.171450
744.642194	0.171596
744.839283	0.171454
745.036355	0.171345
745.233408	0.171350
745.430444	0.171271
745.627461	0.171206
745.824459	0.171186
746.021440	0.171140
746.218402	0.171013
746.415346	0.170793
746.612272	0.170741
746.809180	0.170330
747.006069	0.170267
747.202940	0.170247
747.399793	0.170116
747.596628	0.169992
747.793444	0.169834
747.990243	0.169876
748.187023	0.169763
748.383784	0.169485
748.580528	0.169619
748.777253	0.169447
748.973960	0.169262
749.170649	0.169234
749.367320	0.169242
749.563973	0.169082
749.760607	0.169018
749.957223	0.169003
750.153821	0.169036
750.350400	0.169088
750.546962	0.169151
750.743505	0.168988
750.940030	0.168937
751.136536	0.168756
751.333025	0.168725
751.529495	0.168566
751.725947	0.168604
751.922381	0.168532
752.118796	0.168409
752.315194	0.168135
752.511573	0.168029
752.707934	0.168199
752.904276	0.168220
753.100601	0.168268
753.296907	0.168026
753.493195	0.167843
753.689465	0.167545
753.885716	0.167174
754.081949	0.167225
754.278164	0.167396
754.474361	0.167240
754.670540	0.167188
754.866700	0.167031
755.062843	0.167275
755.258967	0.167246
755.455072	0.167457
755.651160	0.167397
755.847229	0.167362
756.043280	0.167241
756.239313	0.167206
756.435328	0.167004
756.631324	0.167015
756.827302	0.166678
757.023262	0.166664
757.219204	0.166394
757.415127	0.166560
757.611033	0.166270
757.806920	0.165979
758.002788	0.165659
758.198639	0.165484
758.394471	0.165278
758.590286	0.165192
758.786081	0.164932
758.981859	0.164878
759.177619	0.164521
759.373360	0.164470
759.569083	0.164562
759.764788	0.164760
759.960474	0.164787
760.156143	0.164908
760.351793	0.164692
760.547425	0.164421
760.743038	0.164466
760.938634	0.164571
761.134211	0.164542
761.329770	0.164372
761.525311	0.163879
761.720833	0.163689
761.916338	0.163480
762.111824	0.163689
762.307292	0.163818
762.502741	0.163803
762.698173	0.163828
762.893586	0.163846
763.088981	0.164015
763.284358	0.164061
763.479716	0.164330
763.675057	0.164316
763.870379	0.164124
764.065683	0.164003
764.260968	0.163779
764.456236	0.163400
764.651485	0.163329
764.846716	0.163201
765.041929	0.163084
765.237123	0.162703
765.432299	0.162705
765.627457	0.162762
765.822597	0.162634
766.017719	0.162720
766.212822	0.163024
766.407907	0.162844
766.602974	0.162633
766.798023	0.162566
766.993054	0.162553
767.188066	0.162395
767.383060	0.162186
767.578036	0.162251
767.772993	0.162116
767.967933	0.161875
768.162854	0.162061
768.357757	0.162199
768.552642	0.162471
768.747508	0.162516
768.942356	0.162386
769.137186	0.162373
769.331998	0.162415
769.526792	0.162342
769.721567	0.162440
769.916324	0.162203
770.111063	0.162100
770.305784	0.161820
770.500486	0.162062
770.695171	0.162084
770.889837	0.162141
771.084484	0.162229
771.279114	0.162475
771.473725	0.162618
771.668318	0.162750
771.862893	0.162741
772.057450	0.162909
772.251988	0.162735
772.446509	0.162795
772.641011	0.162708
772.835494	0.162715
773.029960	0.162528
773.224407	0.162250
773.418836	0.162375
773.613247	0.162398
773.807640	0.162468
774.002014	0.162491
774.196370	0.162312
774.390708	0.162376
774.585028	0.162267
774.779330	0.162214
774.973613	0.162262
775.167878	0.162031
775.362125	0.161726
775.556354	0.161618
775.750564	0.161336
775.944756	0.161393
776.138930	0.161211
776.333086	0.161044
776.527223	0.161045
776.721343	0.160973
776.915444	0.161330
777.109526	0.161518
777.303591	0.161410
777.497637	0.161663
777.691666	0.161727
777.885676	0.161905
778.079667	0.161803
778.273641	0.161733
778.467596	0.161719
778.661533	0.161437
778.855452	0.161392
779.049352	0.161573
779.243235	0.161366
779.437099	0.161431
779.630945	0.161228
779.824773	0.161626
780.018582	0.161880
780.212373	0.162166
780.406146	0.162215
780.599901	0.162280
780.793638	0.162249
780.987356	0.162449
781.181056	0.162499
781.374738	0.162814
781.568402	0.162872
781.762047	0.162723
781.955674	0.162544
782.149283	0.162417
782.342874	0.162561
782.536447	0.162408
782.730001	0.162572
782.923537	0.162402
783.117055	0.162398
783.310555	0.162451
783.504036	0.162417
783.697499	0.162345
783.890944	0.162493
784.084371	0.162218
784.277780	0.162241
784.471170	0.162009
784.664542	0.162187
784.857896	0.162218
785.051231	0.162091
785.244549	0.162296
785.437848	0.162449
785.631129	0.162575
785.824392	0.162999
786.017636	0.163117
786.210863	0.163300
786.404071	0.163215
786.597260	0.163106
786.790432	0.163332
786.983585	0.163167
787.176721	0.163253
787.369838	0.163221
787.562936	0.163004
787.756017	0.162939
787.949079	0.162741
788.142123	0.162900
788.335149	0.163052
788.528156	0.162957
788.721146	0.163073
788.914117	0.163125
789.107070	0.163140
789.300005	0.163257
789.492921	0.163655
789.685819	0.163872
789.878699	0.164101
790.071561	0.164199
790.264405	0.164030
790.457230	0.164302
790.650037	0.164230
790.842826	0.164339
791.035597	0.164405
791.228349	0.164284
791.421084	0.164341
791.613800	0.164337
791.806497	0.164465
791.999177	0.164700
792.191838	0.164766
792.384481	0.165106
792.577106	0.164978
792.769713	0.165100
792.962301	0.165171
793.154871	0.165102
793.347423	0.164925
793.539957	0.165071
793.732473	0.165151
793.924970	0.165132
794.117449	0.164981
794.309910	0.165239
794.502353	0.165290
794.694777	0.165458
794.887183	0.165504
795.079571	0.165609
795.271941	0.165605
795.464293	0.165653
795.656626	0.165586
795.848941	0.165792
796.041238	0.165712
796.233516	0.165811
796.425777	0.165728
796.618019	0.166179
796.810243	0.166585
797.002449	0.166574
797.194636	0.166797
797.386805	0.166919
797.578956	0.166998
797.771089	0.167267
797.963204	0.167081
798.155300	0.167478
798.347378	0.167351
798.539438	0.167147
798.731480	0.167258
798.923503	0.167236
799.115509	0.167442
799.307496	0.167597
799.499465	0.167610
799.691415	0.168031
799.883348	0.167773
800.075262	0.167900
800.267158	0.168142
800.459035	0.168010
800.650895	0.168163
800.842736	0.168184
801.034559	0.168229
801.226364	0.168527
801.418150	0.168562
801.609919	0.168863
801.801669	0.168999
801.993401	0.169171
802.185114	0.169753
802.376810	0.170185
802.568487	0.170439
802.760146	0.170555
802.951787	0.170723
803.143409	0.170891
803.335014	0.171123
803.526600	0.171133
803.718168	0.171382
803.909717	0.171404
804.101249	0.171229
804.292762	0.171344
804.484257	0.171429
804.675734	0.171605
804.867192	0.172066
805.058632	0.172003
805.250054	0.172285
805.441458	0.172174
805.632844	0.172191
805.824211	0.172185
806.015561	0.172390
806.206891	0.172371
806.398204	0.172312
806.589499	0.172124
806.780775	0.172333
806.972033	0.172610
807.163273	0.172794
807.354495	0.172998
807.545698	0.173333
807.736883	0.173316
807.928050	0.173745
808.119199	0.173971
808.310329	0.174237
808.501441	0.174337
808.692535	0.174356
808.883611	0.174571
809.074669	0.174674
809.265708	0.174734
809.456729	0.174977
809.647732	0.175120
809.838717	0.175230
810.029683	0.175379
810.220632	0.175760
810.411562	0.175897
810.602474	0.175940
810.793367	0.176208
810.984242	0.176471
811.175100	0.176488
811.365938	0.176655
811.556759	0.176842
811.747562	0.176773
811.938346	0.176675
812.129112	0.176910
812.319860	0.177076
812.510589	0.177398
812.701300	0.177404
812.891994	0.177716
813.082668	0.177778
813.273325	0.177665
813.463964	0.177877
813.654584	0.178235
813.845186	0.178188
814.035769	0.178406
814.226335	0.178278
814.416882	0.178521
814.607411	0.178871
814.797922	0.179025
814.988415	0.179409
815.178889	0.179796
815.369345	0.180218
815.559783	0.180559
815.750203	0.180939
815.940605	0.181254
816.130988	0.181624
816.321353	0.181666
816.511700	0.181978
816.702028	0.182247
816.892339	0.182389
817.082631	0.181957
817.272905	0.182104
817.463161	0.182081
817.653398	0.182338
817.843617	0.182359
818.033819	0.182666
818.224001	0.182772
818.414166	0.182797
818.604312	0.182712
818.794440	0.183204
818.984550	0.183472
819.174642	0.183660
819.364716	0.183625
819.554771	0.183828
819.744808	0.183967
819.934827	0.183901
820.124827	0.184228
820.314810	0.184579
820.504774	0.184906
820.694720	0.185138
820.884647	0.185120
821.074557	0.185379
821.264448	0.185706
821.454321	0.185658
821.644176	0.186172
821.834012	0.186173
822.023831	0.186442
822.213631	0.186407
822.403413	0.186326
822.593176	0.186611
822.782922	0.186749
822.972649	0.186937
823.162358	0.187537
823.352049	0.187791
823.541721	0.187880
823.731376	0.188087
823.921012	0.188330
824.110629	0.188737
824.300229	0.189078
824.489811	0.189373
824.679374	0.189677
824.868919	0.189652
825.058445	0.189841
825.247954	0.190479
825.437444	0.190552
825.626916	0.190865
825.816370	0.190878
826.005806	0.191153
826.195223	0.191391
826.384622	0.191361
826.574003	0.191614
826.763366	0.191697
826.952711	0.191968
827.142037	0.192314
827.331345	0.192424
827.520635	0.192874
827.709906	0.193125
827.899160	0.193466
828.088395	0.193824
828.277612	0.194101
828.466810	0.194346
828.655991	0.194308
828.845153	0.194553
829.034297	0.194981
829.223423	0.195313
829.412531	0.195406
829.601620	0.195654
829.790691	0.195846
829.979744	0.196026
830.168779	0.196498
830.357795	0.196932
830.546793	0.197036
830.735773	0.197200
830.924735	0.197519
831.113679	0.197867
831.302604	0.198087
831.491511	0.198201
831.680400	0.198692
831.869271	0.198972
832.058123	0.199231
832.246957	0.199739
832.435773	0.200069
832.624571	0.200148
832.813351	0.200423
833.002112	0.200533
833.190855	0.201020
833.379580	0.200847
833.568287	0.200967
833.756975	0.201149
833.945645	0.201474
834.134297	0.201691
834.322931	0.201860
834.511547	0.201950
834.700144	0.202100
834.888723	0.202307
835.077284	0.202525
835.265826	0.202650
835.454351	0.202787
835.642857	0.202716
835.831345	0.202904
836.019815	0.203231
836.208266	0.203706
836.396699	0.203936
836.585114	0.204297
836.773511	0.204849
836.961890	0.205421
837.150250	0.205735
837.338592	0.206205
837.526916	0.206393
837.715222	0.206382
837.903510	0.206599
838.091779	0.206880
838.280030	0.206927
838.468263	0.206996
838.656477	0.206895
838.844674	0.207365
839.032852	0.207385
839.221012	0.207714
839.409153	0.208233
839.597277	0.208835
839.785382	0.209103
839.973469	0.209359
840.161538	0.209471
840.349589	0.209708
840.537621	0.209766
840.725635	0.210064
840.913631	0.210292
841.101609	0.210658
841.289568	0.210328
841.477509	0.210833
841.665432	0.211156
841.853337	0.211588
842.041224	0.211967
842.229092	0.212048
842.416942	0.212512
842.604774	0.212891
842.792588	0.213282
842.980383	0.213891
843.168160	0.213817
843.355919	0.214080
843.543660	0.214442
843.731382	0.214734
843.919087	0.215461
844.106773	0.215635
844.294441	0.215625
844.482090	0.215739
844.669722	0.216074
844.857335	0.216572
845.044930	0.216661
845.232507	0.217003
845.420065	0.217306
845.607605	0.217184
845.795127	0.217401
845.982631	0.218038
846.170117	0.218184
846.357584	0.218312
846.545033	0.218396
846.732464	0.218737
846.919877	0.218753
847.107272	0.219119
847.294648	0.219384
847.482006	0.219488
847.669346	0.219517
847.856667	0.220005
848.043971	0.220241
848.231256	0.220599
848.418523	0.220950
848.605771	0.221473
848.793002	0.221579
848.980214	0.222003
849.167408	0.222472
849.354584	0.222838
849.541742	0.222714
849.728881	0.222788
849.916002	0.222774
850.103105	0.222769
850.290190	0.222442
850.477256	0.222445
850.664304	0.222653
850.851334	0.222964
851.038346	0.223085
851.225340	0.223333
851.412315	0.223729
851.599272	0.224204
851.786211	0.224489
851.973132	0.224948
852.160034	0.225434
852.346918	0.225614
852.533784	0.225653
852.720632	0.225785
852.907462	0.226351
853.094273	0.226726
853.281066	0.227047
853.467841	0.227771
853.654598	0.228111
853.841336	0.228309
854.028056	0.228661
854.214758	0.228911
854.401442	0.229404
854.588107	0.229478
854.774755	0.229451
854.961384	0.229865
855.147995	0.229814
855.334587	0.230239
855.521162	0.230655
855.707718	0.231150
855.894256	0.231593
856.080775	0.231771
856.267277	0.232400
856.453760	0.232752
856.640225	0.232704
856.826672	0.232958
857.013101	0.233376
857.199511	0.233932
857.385903	0.233978
857.572277	0.234214
857.758633	0.234582
857.944970	0.234501
858.131290	0.234618
858.317591	0.235208
858.503873	0.235588
858.690138	0.235602
858.876384	0.235429
859.062612	0.235403
859.248822	0.235666
859.435014	0.235638
859.621188	0.235976
859.807343	0.236445
859.993480	0.236576
860.179599	0.236621
860.365699	0.236652
860.551781	0.236880
860.737846	0.237324
860.923891	0.237915
861.109919	0.238149
861.295929	0.238191
861.481920	0.238252
861.667893	0.238377
861.853848	0.238515
862.039784	0.238965
862.225702	0.238956
862.411603	0.239256
862.597484	0.239150
862.783348	0.239674
862.969193	0.240018
863.155021	0.240700
863.340830	0.241091
863.526620	0.241633
863.712393	0.241921
863.898147	0.242517
864.083883	0.243002
864.269601	0.243299
864.455301	0.243627
864.640982	0.243987
864.826645	0.243965
865.012290	0.244187
865.197917	0.244153
865.383526	0.244446
865.569116	0.244731
865.754688	0.244665
865.940242	0.245050
866.125777	0.245088
866.311295	0.245178
866.496794	0.245344
866.682275	0.245569
866.867737	0.245807
867.053182	0.246014
867.238608	0.246180
867.424016	0.246393
867.609406	0.246004
867.794778	0.246190
867.980131	0.246339
868.165466	0.246407
868.350783	0.246559
868.536082	0.246799
868.721362	0.246685
868.906625	0.246389
869.091869	0.246578
869.277094	0.247018
869.462302	0.247268
869.647491	0.247675
869.832662	0.248133
870.017815	0.248193
870.202950	0.248464
870.388066	0.249106
870.573165	0.249518
870.758245	0.249653
870.943306	0.249896
871.128350	0.249855
871.313375	0.249776
871.498382	0.250023
871.683371	0.250203
871.868342	0.250597
872.053294	0.250731
872.238229	0.250836
872.423144	0.251085
872.608042	0.251415
872.792922	0.251860
872.977783	0.252429
873.162626	0.252243
873.347451	0.252287
873.532258	0.252398
873.717046	0.252015
873.901816	0.252401
874.086568	0.252676
874.271302	0.252808
874.456017	0.252939
874.640715	0.252771
874.825394	0.252946
875.010055	0.253306
875.194697	0.253124
875.379322	0.253550
875.563928	0.253848
875.748516	0.253429
875.933085	0.253684
876.117637	0.253595
876.302170	0.253724
876.486685	0.253919
876.671182	0.254255
876.855661	0.254461
877.040121	0.254620
877.224563	0.254498
877.408987	0.254786
877.593393	0.254547
877.777780	0.254793
877.962150	0.254789
878.146501	0.255206
878.330833	0.255196
878.515148	0.255394
878.699444	0.255586
878.883722	0.255808
879.067982	0.255882
879.252224	0.256310
879.436447	0.256818
879.620653	0.256937
879.804840	0.256878
879.989008	0.256710
880.173159	0.256394
880.357291	0.256496
880.541405	0.256616
880.725501	0.256802
880.909579	0.256828
881.093638	0.256494
881.277680	0.256732
881.461703	0.256415
881.645707	0.256647
881.829694	0.256768
882.013662	0.256470
882.197612	0.255883
882.381544	0.255939
882.565458	0.255881
882.749353	0.256092
882.933230	0.256517
883.117089	0.257144
883.300930	0.257458
883.484753	0.257819
883.668557	0.258062
883.852343	0.258763
884.036111	0.259125
884.219861	0.259283
884.403592	0.259135
884.587305	0.258866
884.771000	0.258558
884.954677	0.258748
885.138335	0.259162
885.321976	0.259345
885.505598	0.259656
885.689201	0.259832
885.872787	0.259640
886.056354	0.259669
886.239904	0.259875
886.423434	0.259807
886.606947	0.259341
886.790442	0.259093
886.973918	0.259234
887.157376	0.259018
887.340816	0.258786
887.524237	0.258732
887.707641	0.258592
887.891026	0.258082
888.074393	0.258707
888.257741	0.258577
888.441072	0.258191
888.624384	0.257932
888.807678	0.258143
888.990954	0.258335
889.174211	0.258714
889.357451	0.258814
889.540672	0.259592
889.723875	0.259249
889.907059	0.259333
890.090226	0.259774
890.273374	0.259977
890.456504	0.259716
890.639616	0.259556
890.822709	0.259259
891.005785	0.259340
891.188842	0.258621
891.371881	0.258521
891.554901	0.258748
891.737904	0.258247
891.920888	0.257973
892.103854	0.257549
892.286802	0.257251
892.469731	0.257335
892.652643	0.257303
892.835536	0.257749
893.018410	0.257579
893.201267	0.257677
893.384106	0.258304
893.566926	0.258585
893.749728	0.259016
893.932511	0.259495
894.115277	0.259505
894.298024	0.259289
894.480753	0.258920
894.663464	0.259239
894.846157	0.258732
895.028831	0.258510
895.211487	0.258213
895.394125	0.257989
895.576745	0.257634
895.759346	0.256930
895.941930	0.256886
896.124495	0.256675
896.307041	0.256418
896.489570	0.256595
896.672080	0.256257
896.854573	0.256215
897.037046	0.256417
897.219502	0.256272
897.401940	0.256647
897.584359	0.256656
897.766760	0.256776
897.949143	0.256686
898.131507	0.256610
898.313854	0.256682
898.496182	0.256717
898.678492	0.256572
898.860783	0.256259
899.043057	0.256345
899.225312	0.255905
899.407549	0.255886
899.589768	0.255637
899.771968	0.255361
899.954151	0.255020
900.136315	0.254738
900.318461	0.254812
900.500588	0.255267
900.682698	0.254963
900.864789	0.255122
901.046862	0.254649
901.228917	0.254284
901.410953	0.254435
901.592971	0.254791
901.774972	0.254391
901.956953	0.254041
902.138917	0.253259
902.320862	0.253272
902.502790	0.253401
902.684699	0.253743
902.866589	0.254155
903.048462	0.254087
903.230316	0.253632
903.412152	0.253997
903.593970	0.253535
903.775770	0.253857
903.957551	0.253281
904.139314	0.252992
904.321059	0.252495
904.502786	0.251959
904.684494	0.251393
904.866185	0.250890
905.047857	0.250974
905.229510	0.250963
905.411146	0.250435
905.592763	0.250556
905.774363	0.249796
905.955943	0.249770
906.137506	0.249342
906.319051	0.248948
906.500577	0.249145
906.682085	0.248061
906.863575	0.247656
907.045046	0.247463
907.226500	0.246968
907.407935	0.246894
907.589352	0.245815
907.770750	0.245874
907.952131	0.245807
908.133493	0.245157
908.314837	0.245392
908.496163	0.245271
908.677470	0.245003
908.858760	0.244840
909.040031	0.244796
909.221284	0.245365
909.402518	0.244811
909.583735	0.244474
909.764933	0.244565
909.946113	0.244379
910.127275	0.243861
910.308418	0.243637
910.489544	0.243740
910.670651	0.243216
910.851740	0.242884
911.032810	0.242566
911.213863	0.242017
911.394897	0.241172
911.575913	0.240587
911.756911	0.240583
911.937890	0.240156
912.118851	0.239545
912.299794	0.239498
912.480719	0.239136
912.661626	0.239036
912.842514	0.239375
913.023384	0.239340
913.204236	0.238937
913.385070	0.238260
913.565886	0.237863
913.746683	0.237739
913.927462	0.236923
914.108223	0.236567
914.288965	0.236544
914.469690	0.235982
914.650396	0.235797
914.831084	0.234927
915.011754	0.234825
915.192405	0.234868
915.373038	0.234261
915.553653	0.234036
915.734250	0.233407
915.914829	0.232485
916.095389	0.231969
916.275931	0.231453
916.456455	0.231759
916.636961	0.231204
916.817448	0.230552
916.997917	0.230100
917.178368	0.229885
917.358801	0.229545
917.539216	0.229283
917.719612	0.228966
917.899990	0.228396
918.080350	0.227584
918.260692	0.227131
918.441015	0.226536
918.621320	0.226201
918.801607	0.225928
918.981876	0.225621
919.162127	0.225098
919.342359	0.224444
919.522573	0.224280
919.702769	0.224050
919.882947	0.223652
920.063106	0.223502
920.243247	0.223095
920.423370	0.222496
920.603475	0.221894
920.783562	0.221310
920.963630	0.220978
921.143680	0.220468
921.323712	0.220019
921.503725	0.219446
921.683721	0.219146
921.863698	0.218547
922.043657	0.218332
922.223598	0.218415
922.403520	0.217988
922.583424	0.218205
922.763311	0.217668
922.943178	0.216920
923.123028	0.216071
923.302859	0.215726
923.482673	0.215136
923.662467	0.214571
923.842244	0.213400
924.022003	0.213553
924.201743	0.212930
924.381465	0.212821
924.561169	0.212660
924.740854	0.212728
924.920522	0.211347
925.100171	0.211091
925.279802	0.210724
925.459414	0.210642
925.639009	0.209722
925.818585	0.208646
925.998143	0.207623
926.177683	0.207249
926.357205	0.206725
926.536708	0.206710
926.716193	0.205986
926.895660	0.205824
927.075109	0.205496
927.254539	0.204961
927.433951	0.204577
927.613345	0.204194
927.792721	0.203506
927.972079	0.203006
928.151418	0.202666
928.330739	0.202283
928.510042	0.201100
928.689327	0.200558
928.868593	0.199725
929.047841	0.199395
929.227071	0.198626
929.406283	0.198186
929.585476	0.197527
929.764652	0.196140
929.943809	0.195592
930.122948	0.195092
930.302068	0.194926
930.481171	0.195201
930.660255	0.194065
930.839321	0.193359
931.018369	0.192913
931.197398	0.192557
931.376409	0.192769
931.555402	0.193045
931.734377	0.192765
931.913334	0.191096
932.092272	0.189916
932.271192	0.189735
932.450094	0.189445
932.628978	0.188832
932.807844	0.188446
932.986691	0.187401
933.165520	0.185671
933.344331	0.184957
933.523123	0.184572
933.701898	0.184554
933.880654	0.183482
934.059392	0.183126
934.238111	0.182230
934.416813	0.181127
934.595496	0.179977
934.774161	0.179567
934.952808	0.179274
935.131437	0.179192
935.310047	0.178123
935.488639	0.178371
935.667213	0.177678
935.845769	0.177059
936.024306	0.176251
936.202825	0.176160
936.381326	0.175711
936.559809	0.174725
936.738274	0.173509
936.916720	0.172763
937.095148	0.171740
937.273558	0.171267
937.451950	0.170867
937.630323	0.170998
937.808678	0.171003
937.987015	0.170383
938.165334	0.169807
938.343635	0.168884
938.521917	0.168315
938.700181	0.167588
938.878427	0.166972
939.056655	0.166678
939.234864	0.164945
939.413055	0.164400
939.591228	0.163589
939.769383	0.162522
939.947519	0.163207
940.125638	0.162994
940.303738	0.162803
940.481820	0.161982
940.659883	0.161189
940.837929	0.161092
941.015956	0.159568
941.193965	0.159020
941.371955	0.159048
941.549928	0.157497
941.727882	0.156646
941.905818	0.155225
942.083736	0.153678
942.261636	0.153113
942.439517	0.153264
942.617380	0.153501
942.795225	0.152893
942.973052	0.152175
943.150860	0.151707
943.328651	0.150920
943.506423	0.150934
943.684176	0.150886
943.861912	0.149807
944.039629	0.149642
944.217328	0.148909
944.395009	0.147573
944.572672	0.146704
944.750317	0.145765
944.927943	0.143620
945.105551	0.142975
945.283141	0.142960
945.460712	0.142623
945.638265	0.140213
945.815801	0.139245
945.993317	0.138351
946.170816	0.137336
946.348297	0.137076
946.525759	0.138489
946.703203	0.136504
946.880629	0.134249
947.058036	0.133030
947.235425	0.133418
947.412797	0.133008
947.590149	0.132728
947.767484	0.132540
947.944800	0.132264
948.122099	0.130465
948.299379	0.129686
948.476640	0.131550
948.653884	0.130740
948.831109	0.130050
949.008316	0.129091
949.185505	0.128307
949.362676	0.127076
949.539828	0.125571
949.716962	0.124895
949.894078	0.126010
950.071176	0.124508
950.248256	0.124731
950.425317	0.123561
950.602360	0.122541
950.779385	0.122728
950.956391	0.121321
951.133380	0.120248
951.310350	0.119654
951.487302	0.117844
951.664235	0.117135
951.841151	0.116152
952.018048	0.117395
952.194927	0.116851
952.371788	0.116091
952.548631	0.116527
952.725455	0.115201
952.902261	0.116251
953.079049	0.117077
953.255819	0.115954
953.432570	0.115629
953.609303	0.113701
953.786018	0.114053
953.962715	0.115113
954.139394	0.113718
954.316054	0.115130
954.492696	0.113576
954.669320	0.112729
954.845926	0.111480
955.022513	0.111800
955.199083	0.109608
955.375634	0.109520
955.552166	0.106483
955.728681	0.107628
955.905177	0.107227
956.081655	0.106969
956.258115	0.106041
956.434557	0.107807
956.610980	0.105391
956.787385	0.107579
956.963772	0.107099
957.140141	0.107285
957.316492	0.105587
957.492824	0.104634
957.669138	0.105310
957.845434	0.104713
958.021712	0.103247
958.197971	0.104437
958.374212	0.104252
958.550435	0.103214
958.726640	0.104168
958.902826	0.106343
959.078995	0.105155
959.255145	0.103879
959.431277	0.103929
959.607390	0.102432
959.783486	0.102516
959.959563	0.100922
960.135622	0.101995
960.311662	0.102201
960.487685	0.100917
960.663689	0.102332
960.839675	0.101111
961.015643	0.102514
961.191593	0.104707
961.367524	0.104457
961.543437	0.105272
961.719332	0.103398
961.895209	0.102492
962.071067	0.100871
962.246907	0.098160
962.422730	0.097567
962.598533	0.096173
962.774319	0.095335
962.950086	0.094820
963.125835	0.093334
963.301566	0.092753
963.477279	0.090406
963.652973	0.091675
963.828650	0.092153
964.004308	0.092562
964.179947	0.092139
964.355569	0.092397
964.531172	0.089961
964.706757	0.088809
964.882324	0.088433
965.057873	0.090741
965.233403	0.088432
965.408916	0.090064
965.584410	0.089505
965.759885	0.088979
965.935343	0.087269
966.110782	0.089487
966.286203	0.089941
966.461606	0.089759
966.636991	0.086706
966.812357	0.089687
966.987705	0.090946
967.163035	0.092222
967.338347	0.093400
967.513641	0.093538
967.688916	0.092956
967.864173	0.094345
968.039412	0.096362
968.214632	0.099055
968.389835	0.096374
968.565019	0.094254
968.740185	0.094039
968.915333	0.093082
969.090462	0.093342
969.265573	0.091739
969.440667	0.091428
969.615741	0.091621
969.790798	0.089645
969.965836	0.090066
970.140856	0.088629
970.315858	0.090362
970.490842	0.090374
970.665808	0.090782
970.840755	0.093498
971.015684	0.092818
971.190595	0.092421
971.365487	0.094509
971.540362	0.095084
971.715218	0.097548
971.890056	0.094946
972.064875	0.095718
972.239677	0.095825
972.414460	0.095658
972.589225	0.097715
972.763972	0.094928
972.938700	0.094018
973.113411	0.095571
973.288103	0.093648
973.462777	0.093489
973.637432	0.093676
973.812070	0.092646
973.986689	0.091541
974.161290	0.089988
974.335873	0.092625
974.510437	0.093884
974.684984	0.092564
974.859512	0.093039
975.034022	0.093951
975.208513	0.094237
975.382987	0.096830
975.557442	0.097197
975.731879	0.097666
975.906298	0.096552
976.080698	0.093695
976.255080	0.093517
976.429445	0.094177
976.603790	0.096287
976.778118	0.094202
976.952427	0.092891
977.126719	0.091865
977.300992	0.091761
977.475246	0.092452
977.649483	0.095373
977.823701	0.094950
977.997901	0.095835
978.172083	0.094643
978.346247	0.096487
978.520392	0.095889
978.694519	0.096091
978.868628	0.094871
979.042719	0.094187
979.216791	0.092677
979.390845	0.093575
979.564882	0.089847
979.738899	0.088450
979.912899	0.089634
980.086880	0.090311
980.260843	0.090333
980.434788	0.091742
980.608715	0.091367
980.782623	0.090252
980.956514	0.087706
981.130386	0.089529
981.304240	0.090770
981.478075	0.087381
981.651892	0.085999
981.825692	0.086892
981.999472	0.086946
982.173235	0.087296
982.346980	0.089882
982.520706	0.091912
982.694414	0.093020
982.868104	0.091548
983.041775	0.094695
983.215428	0.096078
983.389064	0.096814
983.562680	0.096393
983.736279	0.097510
983.909860	0.097071
984.083422	0.096027
984.256966	0.095231
984.430491	0.097131
984.603999	0.094932
984.777488	0.095227
984.950959	0.094487
985.124412	0.091337
985.297847	0.090346
985.471263	0.089749
985.644661	0.091432
985.818041	0.092688
985.991403	0.090015
986.164747	0.090855
986.338072	0.089492
986.511379	0.089773
986.684668	0.091031
986.857938	0.090580
987.031191	0.091037
987.204425	0.089766
987.377641	0.086072
987.550839	0.087801
987.724018	0.086347
987.897179	0.085597
988.070322	0.085865
988.243447	0.087084
988.416554	0.087741
988.589642	0.088584
988.762712	0.090271
988.935764	0.091289
989.108798	0.090977
989.281813	0.092875
989.454811	0.095048
989.627790	0.093586
989.800751	0.095466
989.973693	0.094046
990.146617	0.093058
990.319524	0.092895
990.492412	0.095379
990.665281	0.096604
990.838133	0.095874
991.010966	0.094836
991.183781	0.095351
991.356578	0.094247
991.529356	0.094120
991.702117	0.093619
991.874859	0.092589
992.047583	0.092546
992.220288	0.091915
992.392976	0.091879
992.565645	0.091180
992.738296	0.091281
992.910929	0.089543
993.083543	0.090935
993.256139	0.091166
993.428718	0.091415
993.601277	0.089585
993.773819	0.088287
993.946342	0.086696
994.118848	0.086661
994.291335	0.085527
994.463803	0.085038
994.636254	0.086462
994.808686	0.086561
994.981100	0.086334
995.153496	0.087816
995.325874	0.090440
995.498233	0.091906
995.670574	0.092793
995.842897	0.093404
996.015202	0.095500
996.187488	0.094069
996.359757	0.092870
996.532007	0.093026
996.704239	0.093814
996.876452	0.091359
997.048648	0.091777
997.220825	0.091903
997.392984	0.093440
997.565124	0.092320
997.737247	0.091501
997.909351	0.093903
998.081437	0.095084
998.253505	0.094423
998.425554	0.095452
998.597586	0.094552
998.769599	0.093138
998.941594	0.093908
999.113571	0.095873
999.285529	0.095689
999.457469	0.093277
999.629391	0.093586
999.801295	0.093984
999.973181	0.093364
1000.145048	0.092878
1000.316897	0.092714
1000.488728	0.090620
1000.660541	0.088570
1000.832335	0.088108
1001.004111	0.089344
1001.175869	0.088406
1001.347609	0.088652
1001.519331	0.088456
1001.691034	0.090237
1001.862719	0.091333
1002.034386	0.091687
1002.206035	0.092345
1002.377665	0.094928
1002.549277	0.093404
1002.720871	0.092163
1002.892447	0.090601
1003.064004	0.092883
1003.235544	0.092389
1003.407065	0.091645
1003.578568	0.091329
1003.750052	0.091685
1003.921519	0.089287
1004.092967	0.091412
1004.264397	0.091927
1004.435809	0.093115
1004.607202	0.090548
1004.778577	0.090075
1004.949934	0.090277
1005.121273	0.089494
1005.292594	0.090721
1005.463896	0.091758
1005.635180	0.090462
1005.806446	0.091348
1005.977694	0.088937
1006.148923	0.091057
1006.320135	0.091477
1006.491328	0.092534
1006.662503	0.091987
1006.833659	0.091047
1007.004798	0.092182
1007.175918	0.092116
1007.347020	0.092633
1007.518103	0.095116
1007.689169	0.093682
1007.860216	0.092415
1008.031245	0.091618
1008.202256	0.093730
1008.373248	0.093370
1008.544223	0.092027
1008.715179	0.093079
1008.886117	0.092207
1009.057036	0.093177
1009.227938	0.092554
1009.398821	0.094310
1009.569686	0.094869
1009.740533	0.093911
1009.911361	0.094996
1010.082172	0.095220
1010.252964	0.093903
1010.423738	0.095035
1010.594493	0.092169
1010.765231	0.095097
1010.935950	0.095473
1011.106651	0.094583
1011.277334	0.096848
1011.447998	0.095200
1011.618645	0.095541
1011.789273	0.095496
1011.959882	0.092878
1012.130474	0.094360
1012.301048	0.092000
1012.471603	0.090092
1012.642140	0.090387
1012.812658	0.088231
1012.983159	0.088283
1013.153641	0.089608
1013.324105	0.090133
1013.494551	0.090293
1013.664979	0.088829
1013.835388	0.090533
1014.005779	0.090125
1014.176152	0.090144
1014.346507	0.090736
1014.516843	0.090924
1014.687162	0.088360
1014.857462	0.089709
1015.027744	0.089994
1015.198007	0.091169
1015.368252	0.089576
1015.538480	0.090576
1015.708689	0.090861
1015.878879	0.089562
1016.049052	0.089325
1016.219206	0.090333
1016.389342	0.089544
1016.559460	0.090373
1016.729559	0.091076
1016.899641	0.090994
1017.069704	0.092813
1017.239749	0.091883
1017.409775	0.091901
1017.579784	0.092887
1017.749774	0.092004
1017.919746	0.090924
1018.089700	0.090670
1018.259635	0.088786
1018.429553	0.088308
1018.599452	0.085828
1018.769333	0.086321
1018.939195	0.087897
1019.109040	0.086556
1019.278866	0.086573
1019.448674	0.088454
1019.618464	0.090038
1019.788235	0.090567
1019.957989	0.091403
1020.127724	0.091937
1020.297441	0.093375
1020.467139	0.093632
1020.636820	0.094944
1020.806482	0.095581
1020.976126	0.093899
1021.145752	0.092105
1021.315359	0.090273
1021.484948	0.089714
1021.654519	0.089552
1021.824072	0.087038
1021.993607	0.083719
1022.163123	0.083093
1022.332621	0.082794
1022.502101	0.084256
1022.671563	0.084483
1022.841007	0.086560
1023.010432	0.085908
1023.179839	0.085872
1023.349228	0.087803
1023.518598	0.089390
1023.687951	0.089647
1023.857285	0.089350
1024.026601	0.086735
1024.195899	0.086951
1024.365178	0.087026
1024.534439	0.087488
1024.703682	0.087979
1024.872907	0.088181
1025.042114	0.087597
1025.211302	0.086454
1025.380472	0.087097
1025.549624	0.088394
1025.718758	0.088039
1025.887873	0.088277
1026.056970	0.089034
1026.226049	0.087387
1026.395110	0.087356
1026.564153	0.088356
1026.733177	0.089307
1026.902183	0.089434
1027.071171	0.088243
1027.240141	0.088727
1027.409092	0.087442
1027.578026	0.088724
1027.746940	0.090342
1027.915837	0.089445
1028.084716	0.090920
1028.253576	0.090975
1028.422418	0.090553
1028.591242	0.092127
1028.760048	0.090622
1028.928835	0.091002
1029.097604	0.089508
1029.266355	0.088542
1029.435088	0.088317
1029.603803	0.086634
1029.772499	0.088873
1029.941177	0.089248
1030.109837	0.088305
1030.278478	0.088766
1030.447102	0.092015
1030.615707	0.093154
1030.784294	0.092588
1030.952863	0.094431
1031.121413	0.095175
1031.289945	0.091938
1031.458460	0.090945
1031.626955	0.092076
1031.795433	0.093382
1031.963892	0.090713
1032.132334	0.089028
1032.300756	0.091533
1032.469161	0.089940
1032.637548	0.089547
1032.805916	0.092000
1032.974266	0.092635
1033.142598	0.092631
1033.310911	0.092325
1033.479207	0.091431
1033.647484	0.092479
1033.815743	0.091263
1033.983983	0.090317
1034.152206	0.089238
1034.320410	0.087022
1034.488596	0.088334
1034.656764	0.086707
1034.824914	0.085087
1034.993045	0.086642
1035.161158	0.085583
1035.329253	0.085877
1035.497330	0.085157
1035.665388	0.086594
1035.833428	0.085984
1036.001450	0.084362
1036.169454	0.084001
1036.337440	0.082746
1036.505407	0.082152
1036.673356	0.081188
1036.841287	0.081581
1037.009200	0.083127
1037.177094	0.083098
1037.344970	0.084282
1037.512828	0.083962
1037.680668	0.084645
1037.848489	0.086427
1038.016293	0.086548
1038.184078	0.086426
1038.351845	0.085177
1038.519593	0.085126
1038.687324	0.085397
1038.855036	0.085679
1039.022730	0.086207
1039.190406	0.087907
1039.358063	0.088546
1039.525702	0.088513
1039.693323	0.090320
1039.860926	0.093025
1040.028511	0.094227
1040.196077	0.092461
1040.363625	0.091339
1040.531155	0.091392
1040.698667	0.091552
1040.866161	0.091652
1041.033636	0.092733
1041.201093	0.093120
1041.368532	0.089741
1041.535952	0.089492
1041.703355	0.091308
1041.870739	0.089984
1042.038105	0.090278
1042.205452	0.089417
1042.372782	0.088159
1042.540093	0.086115
1042.707386	0.085509
1042.874661	0.087088
1043.041918	0.086517
1043.209156	0.085831
1043.376376	0.089261
1043.543578	0.090269
1043.710762	0.090401
1043.877927	0.092004
1044.045074	0.093571
1044.212203	0.092849
1044.379314	0.091560
1044.546407	0.091369
1044.713481	0.092679
1044.880537	0.090639
1045.047575	0.089177
1045.214595	0.088446
1045.381596	0.085829
1045.548579	0.085967
1045.715544	0.085391
1045.882491	0.085874
1046.049420	0.086554
1046.216330	0.083699
1046.383222	0.083107
1046.550096	0.082719
1046.716951	0.084639
1046.883789	0.085732
1047.050608	0.086675
1047.217409	0.088901
1047.384192	0.088992
1047.550956	0.088588
1047.717703	0.088688
1047.884431	0.088726
1048.051140	0.090125
1048.217832	0.090330
1048.384505	0.091488
1048.551161	0.088504
1048.717798	0.087262
1048.884416	0.087165
1049.051017	0.085154
1049.217599	0.085228
1049.384163	0.085552
1049.550709	0.084285
1049.717237	0.082917
1049.883746	0.082940
1050.050237	0.084134
1050.216710	0.084732
1050.383165	0.085220
1050.549601	0.086643
1050.716019	0.089176
1050.882420	0.089802
1051.048801	0.090713
1051.215165	0.090529
1051.381510	0.088334
1051.547837	0.087838
1051.714146	0.087018
1051.880437	0.088050
1052.046709	0.088286
1052.212964	0.087129
1052.379200	0.086205
1052.545417	0.085596
1052.711617	0.083829
1052.877798	0.085665
1053.043961	0.086895
1053.210106	0.088987
1053.376233	0.089168
1053.542341	0.090469
1053.708432	0.088368
1053.874504	0.088147
1054.040557	0.088344
1054.206593	0.090607
1054.372610	0.090985
1054.538609	0.090829
1054.704590	0.089129
1054.870553	0.088271
1055.036497	0.087354
1055.202424	0.089451
1055.368331	0.090000
1055.534221	0.089086
1055.700093	0.088353
1055.865946	0.089041
1056.031781	0.089481
1056.197598	0.089709
1056.363397	0.089633
1056.529177	0.087574
1056.694939	0.086604
1056.860683	0.089091
1057.026409	0.088407
1057.192116	0.089066
1057.357806	0.087854
1057.523477	0.086858
1057.689130	0.085205
1057.854764	0.084957
1058.020381	0.087408
1058.185979	0.088633
1058.351559	0.086342
1058.517120	0.086483
1058.682664	0.084546
1058.848189	0.084170
1059.013696	0.083921
1059.179185	0.085491
1059.344656	0.085838
1059.510108	0.085866
1059.675542	0.085546
1059.840958	0.087180
1060.006356	0.088318
1060.171735	0.090986
1060.337096	0.090345
1060.502439	0.089367
1060.667764	0.089492
1060.833071	0.091089
1060.998359	0.092136
1061.163629	0.092465
1061.328881	0.089934
1061.494115	0.090150
1061.659330	0.089072
1061.824527	0.089784
1061.989706	0.090434
1062.154867	0.090053
1062.320010	0.087725
1062.485134	0.085265
1062.650240	0.085162
1062.815328	0.088015
1062.980398	0.088300
1063.145449	0.089385
1063.310482	0.089413
1063.475497	0.089324
1063.640494	0.090130
1063.805473	0.089697
1063.970433	0.090887
1064.135375	0.088939
1064.300299	0.089338
1064.465204	0.090212
1064.630092	0.088836
1064.794961	0.090065
1064.959812	0.091051
1065.124645	0.090703
1065.289459	0.090512
1065.454256	0.090413
1065.619034	0.095253
1065.783793	0.093527
1065.948535	0.091915
1066.113258	0.089612
1066.277964	0.089294
1066.442651	0.091029
1066.607319	0.088139
1066.771970	0.090383
1066.936602	0.090008
1067.101216	0.084381
1067.265812	0.082701
1067.430389	0.084431
1067.594949	0.085689
1067.759490	0.085920
1067.924013	0.085412
1068.088518	0.085793
1068.253004	0.083151
1068.417472	0.082960
1068.581922	0.084905
1068.746354	0.087129
1068.910768	0.085039
1069.075163	0.085773
1069.239540	0.083430
1069.403899	0.081568
1069.568240	0.083415
1069.732562	0.084961
1069.896866	0.087584
1070.061152	0.089727
1070.225420	0.089496
1070.389670	0.091267
1070.553901	0.091045
1070.718114	0.091931
1070.882309	0.091535
1071.046486	0.092324
1071.210644	0.093689
1071.374784	0.090887
1071.538906	0.088256
1071.703010	0.088245
1071.867096	0.088065
1072.031163	0.089116
1072.195212	0.089381
1072.359243	0.089846
1072.523256	0.092137
1072.687250	0.091859
1072.851226	0.093847
1073.015184	0.093632
1073.179124	0.091896
1073.343045	0.090361
1073.506949	0.089310
1073.670834	0.091124
1073.834701	0.088610
1073.998549	0.085104
1074.162380	0.085883
1074.326192	0.083348
1074.489986	0.085106
1074.653761	0.086444
1074.817519	0.086107
1074.981258	0.085435
1075.144979	0.084142
1075.308682	0.088899
1075.472367	0.088788
1075.636033	0.085950
1075.799681	0.086209
1075.963311	0.086723
1076.126923	0.085973
1076.290516	0.087983
1076.454092	0.090496
1076.617649	0.092389
1076.781187	0.091177
1076.944708	0.093297
1077.108210	0.091753
1077.271695	0.093588
1077.435160	0.094306
1077.598608	0.095776
1077.762038	0.094946
1077.925449	0.093474
1078.088842	0.093499
1078.252217	0.091368
1078.415573	0.089020
1078.578912	0.093520
1078.742232	0.093016
1078.905534	0.091756
1079.068817	0.090493
1079.232083	0.091875
1079.395330	0.094031
1079.558559	0.094973
1079.721770	0.097029
1079.884962	0.100947
1080.048136	0.098859
1080.211293	0.099206
1080.374430	0.098931
1080.537550	0.099986
1080.700651	0.098698
1080.863735	0.096509
1081.026800	0.096227
1081.189846	0.094872
1081.352875	0.094619
1081.515885	0.094519
1081.678877	0.094086
1081.841851	0.093048
1082.004807	0.091241
1082.167744	0.090916
1082.330663	0.092788
1082.493564	0.094264
1082.656447	0.096453
1082.819312	0.096013
1082.982158	0.094637
1083.144986	0.094199
1083.307796	0.093561
1083.470587	0.095729
1083.633361	0.097382
1083.796116	0.095577
1083.958853	0.091364
1084.121571	0.090742
1084.284272	0.086880
1084.446954	0.088794
1084.609618	0.089136
1084.772264	0.091774
1084.934892	0.090274
1085.097501	0.090422
1085.260092	0.093304
1085.422665	0.094225
1085.585220	0.094663
1085.747756	0.099528
1085.910274	0.096730
1086.072774	0.095684
1086.235256	0.097535
1086.397720	0.100704
1086.560165	0.100123
1086.722592	0.099251
1086.885001	0.099432
1087.047392	0.099133
1087.209764	0.095107
1087.372119	0.096631
1087.534455	0.095836
1087.696772	0.093267
1087.859072	0.090452
1088.021353	0.089582
1088.183616	0.092086
1088.345861	0.092571
1088.508088	0.093273
1088.670296	0.095371
1088.832486	0.098408
1088.994658	0.102158
1089.156812	0.100542
1089.318948	0.100655
1089.481065	0.102524
1089.643164	0.100607
1089.805245	0.099499
1089.967308	0.099216
1090.129352	0.098547
1090.291378	0.099273
1090.453386	0.099032
1090.615376	0.104493
1090.777347	0.108291
1090.939301	0.106014
1091.101236	0.104933
1091.263153	0.106881
1091.425051	0.106370
1091.586932	0.107517
1091.748794	0.106664
1091.910638	0.103835
1092.072463	0.100087
1092.234271	0.100100
1092.396060	0.100387
1092.557831	0.099587
1092.719584	0.097029
1092.881319	0.097361
1093.043035	0.096401
1093.204733	0.096842
1093.366413	0.099075
1093.528075	0.099258
1093.689718	0.097202
1093.851343	0.097750
1094.012950	0.098519
1094.174539	0.099307
1094.336110	0.097081
1094.497662	0.098563
1094.659196	0.096515
1094.820712	0.094207
1094.982210	0.096793
1095.143689	0.095775
1095.305151	0.095354
1095.466594	0.094487
1095.628018	0.092465
1095.789425	0.097621
1095.950813	0.095179
1096.112183	0.096569
1096.273535	0.099432
1096.434869	0.097375
1096.596184	0.099147
1096.757482	0.101917
1096.918761	0.102544
1097.080021	0.105815
1097.241264	0.103658
1097.402488	0.104671
1097.563694	0.100446
1097.724882	0.099145
1097.886052	0.099228
1098.047203	0.098371
1098.208336	0.096670
1098.369451	0.093590
1098.530548	0.091358
1098.691627	0.092437
1098.852687	0.093446
1099.013729	0.098269
1099.174753	0.097259
1099.335758	0.097391
1099.496746	0.098217
1099.657715	0.100864
1099.818666	0.107591
1099.979599	0.111330
1100.140513	0.107125
1100.301409	0.107679
1100.462287	0.109032
1100.623147	0.112741
1100.783989	0.111059
1100.944812	0.108257
1101.105617	0.105279
1101.266404	0.101264
1101.427173	0.098095
1101.587923	0.099168
1101.748656	0.096359
1101.909370	0.093455
1102.070066	0.094816
1102.230743	0.097322
1102.391403	0.098566
1102.552044	0.098665
1102.712667	0.096846
1102.873271	0.099909
1103.033858	0.102240
1103.194426	0.103154
1103.354976	0.100846
1103.515508	0.098613
1103.676021	0.096301
1103.836517	0.101117
1103.996994	0.102026
1104.157453	0.102946
1104.317893	0.101944
1104.478316	0.101143
1104.638720	0.101263
1104.799106	0.103455
1104.959474	0.100439
1105.119823	0.100524
1105.280155	0.093505
1105.440468	0.090316
1105.600763	0.092162
1105.761039	0.092168
1105.921298	0.091637
1106.081538	0.090563
1106.241760	0.088803
1106.401964	0.090317
1106.562149	0.088909
1106.722316	0.093631
1106.882465	0.099536
1107.042596	0.101074
1107.202709	0.099719
1107.362803	0.103594
1107.522879	0.103979
1107.682937	0.106513
1107.842977	0.108325
1108.002999	0.112772
1108.163002	0.110481
1108.322987	0.108860
1108.482954	0.106535
1108.642902	0.104867
1108.802833	0.096799
1108.962745	0.103458
1109.122639	0.101217
1109.282515	0.097960
1109.442372	0.099507
1109.602211	0.103054
1109.762032	0.103912
1109.921835	0.108797
1110.081620	0.112832
1110.241386	0.118740
1110.401134	0.110122
1110.560864	0.117799
1110.720576	0.118917
1110.880269	0.117071
1111.039945	0.114379
1111.199602	0.109834
1111.359240	0.101402
1111.518861	0.098077
1111.678463	0.094167
1111.838047	0.099828
1111.997613	0.094551
1112.157161	0.093481
1112.316690	0.093151
1112.476202	0.093020
1112.635695	0.096093
1112.795169	0.102300
1112.954626	0.105825
1113.114064	0.109654
1113.273484	0.110516
1113.432886	0.107078
1113.592270	0.107881
1113.751635	0.108879
1113.910983	0.110742
1114.070312	0.111500
1114.229622	0.106499
1114.388915	0.106284
1114.548189	0.103278
1114.707445	0.097609
1114.866683	0.099714
1115.025903	0.097844
1115.185104	0.095519
1115.344287	0.094972
1115.503452	0.094081
1115.662599	0.094240
1115.821727	0.096180
1115.980838	0.096339
1116.139930	0.098215
1116.299004	0.099057
1116.458059	0.100178
1116.617097	0.105281
1116.776116	0.103383
1116.935117	0.105527
1117.094099	0.108013
1117.253064	0.106894
1117.412010	0.109866
1117.570938	0.109408
1117.729848	0.109106
1117.888740	0.108338
1118.047613	0.103923
1118.206468	0.103188
1118.365305	0.101846
1118.524124	0.103516
1118.682924	0.101526
1118.841707	0.099165
1119.000471	0.099388
1119.159216	0.097454
1119.317944	0.101488
1119.476653	0.096866
1119.635344	0.097009
1119.794017	0.095427
1119.952672	0.094731
1120.111308	0.095378
1120.269927	0.098216
1120.428527	0.097891
1120.587108	0.099975
1120.745672	0.096560
1120.904217	0.102717
1121.062744	0.102367
1121.221253	0.104216
1121.379744	0.102227
1121.538216	0.100961
1121.696671	0.095896
1121.855107	0.097087
1122.013524	0.096975
1122.171924	0.099956
1122.330305	0.099567
1122.488668	0.102453
1122.647013	0.097713
1122.805340	0.096630
1122.963648	0.098826
1123.121938	0.101273
1123.280210	0.103076
1123.438464	0.103350
1123.596700	0.102127
1123.754917	0.097261
1123.913116	0.095591
1124.071297	0.099709
1124.229459	0.102942
1124.387604	0.106995
1124.545730	0.108943
1124.703838	0.108324
1124.861928	0.105633
1125.019999	0.106514
1125.178052	0.108267
1125.336088	0.107335
1125.494104	0.101292
1125.652103	0.104860
1125.810083	0.097970
1125.968045	0.097345
1126.125989	0.096398
1126.283915	0.100182
1126.441823	0.098528
1126.599712	0.100659
1126.757583	0.105235
1126.915436	0.112819
1127.073270	0.111425
1127.231087	0.107030
1127.388885	0.104219
1127.546665	0.102759
1127.704426	0.104419
1127.862170	0.108458
1128.019895	0.107964
1128.177602	0.102940
1128.335291	0.098059
1128.492961	0.096267
1128.650614	0.104555
1128.808248	0.105084
1128.965864	0.108579
1129.123461	0.103600
1129.281041	0.101047
1129.438602	0.103886
1129.596145	0.103387
1129.753670	0.106203
1129.911176	0.108087
1130.068665	0.107364
1130.226135	0.109013
1130.383587	0.106233
1130.541020	0.108013
1130.698436	0.106138
1130.855833	0.098413
1131.013212	0.100063
1131.170573	0.105021
1131.327915	0.099852
1131.485239	0.099988
1131.642545	0.098882
1131.799833	0.104536
1131.957103	0.102316
1132.114354	0.104588
1132.271588	0.110500
1132.428803	0.112584
1132.585999	0.106428
1132.743178	0.111538
1132.900338	0.113983
1133.057480	0.111259
1133.214604	0.107555
1133.371710	0.111485
1133.528797	0.115115
1133.685866	0.108301
1133.842917	0.105986
1133.999950	0.101438
1134.156964	0.092049
1134.313960	0.088626
1134.470938	0.092087
1134.627898	0.093684
1134.784840	0.089046
1134.941763	0.088019
1135.098668	0.098813
1135.255555	0.100659
1135.412424	0.102143
1135.569274	0.109671
1135.726107	0.108857
1135.882921	0.111064
1136.039716	0.100637
1136.196494	0.104946
1136.353253	0.103274
1136.509995	0.094848
1136.666717	0.090934
1136.823422	0.094744
1136.980109	0.092189
1137.136777	0.089963
1137.293427	0.090294
1137.450059	0.102845
1137.606672	0.097239
1137.763267	0.096108
1137.919844	0.107271
1138.076403	0.113215
1138.232944	0.109800
1138.389466	0.112485
1138.545971	0.112420
1138.702457	0.113355
1138.858924	0.106888
1139.015374	0.112605
1139.171805	0.117109
1139.328218	0.112692
1139.484613	0.111979
1139.640990	0.113590
1139.797348	0.109308
1139.953688	0.109383
1140.110010	0.103466
1140.266314	0.104602
1140.422600	0.103046
1140.578867	0.095143
1140.735116	0.087032
1140.891347	0.078928
1141.047559	0.079822
1141.203754	0.087215
1141.359930	0.091798
1141.516088	0.093717
1141.672228	0.093228
1141.828349	0.094266
1141.984452	0.096054
1142.140537	0.098780
1142.296604	0.098110
1142.452653	0.100078
1142.608683	0.099934
1142.764695	0.101794
1142.920689	0.103269
1143.076665	0.104995
1143.232622	0.107473
1143.388562	0.113949
1143.544483	0.121207
1143.700385	0.119639
1143.856270	0.123134
1144.012136	0.114890
1144.167985	0.117414
1144.323814	0.116897
1144.479626	0.116981
1144.635420	0.114947
1144.791195	0.103614
1144.946952	0.104853
1145.102691	0.118784
1145.258411	0.119584
1145.414113	0.122077
1145.569798	0.115893
1145.725463	0.111016
1145.881111	0.110886
1146.036741	0.114053
1146.192352	0.121353
1146.347945	0.111003
1146.503519	0.107650
1146.659076	0.100168
1146.814614	0.101903
1146.970134	0.099280
1147.125636	0.107153
1147.281120	0.103082
1147.436585	0.093223
1147.592032	0.093349
1147.747461	0.100243
1147.902872	0.099184
1148.058265	0.097768
1148.213639	0.096082
1148.368995	0.091272
1148.524333	0.087030
1148.679653	0.091953
1148.834954	0.095554
1148.990237	0.091887
1149.145502	0.088222
1149.300749	0.085239
1149.455977	0.086448
1149.611188	0.093354
1149.766380	0.103352
1149.921553	0.099014
1150.076709	0.089217
1150.231846	0.092036
1150.386966	0.091913
1150.542066	0.095890
1150.697149	0.094337
1150.852214	0.097072
1151.007260	0.091218
1151.162288	0.087885
1151.317298	0.096688
1151.472289	0.103297
1151.627263	0.098162
1151.782218	0.105475
1151.937155	0.103878
1152.092073	0.104766
1152.246974	0.101103
1152.401856	0.097554
1152.556720	0.090282
1152.711566	0.087016
1152.866393	0.090516
1153.021203	0.091954
1153.175994	0.090714
1153.330767	0.089802
1153.485521	0.089039
1153.640258	0.089931
1153.794976	0.095853
1153.949676	0.101531
1154.104358	0.102731
1154.259021	0.102723
1154.413667	0.110521
1154.568294	0.112423
1154.722903	0.114251
1154.877493	0.125095
1155.032066	0.129818
1155.186620	0.136157
1155.341156	0.136169
1155.495674	0.135415
1155.650173	0.130318
1155.804654	0.127667
1155.959118	0.123380
1156.113562	0.112827
1156.267989	0.099509
1156.422397	0.101123
1156.576788	0.092415
1156.731160	0.100814
1156.885513	0.106718
1157.039849	0.106043
1157.194166	0.098105
1157.348465	0.098671
1157.502746	0.097479
1157.657009	0.106554
1157.811253	0.104293
1157.965479	0.099566
1158.119687	0.092408
1158.273877	0.090685
1158.428048	0.092363
1158.582201	0.100393
1158.736337	0.103119
1158.890453	0.111162
1159.044552	0.109044
1159.198632	0.117927
1159.352694	0.120163
1159.506738	0.117958
1159.660764	0.109026
1159.814771	0.112877
1159.968761	0.114046
1160.122732	0.106733
1160.276685	0.104678
1160.430619	0.093401
1160.584535	0.075196
1160.738434	0.069885
1160.892313	0.070331
1161.046175	0.071502
1161.200019	0.074209
1161.353844	0.072504
1161.507651	0.077153
1161.661440	0.077068
1161.815210	0.088277
1161.968962	0.101659
1162.122697	0.104649
1162.276412	0.107912
1162.430110	0.108783
1162.583789	0.095936
1162.737451	0.094914
1162.891094	0.085837
1163.044718	0.087659
1163.198325	0.093887
1163.351913	0.096444
1163.505483	0.110878
1163.659035	0.097034
1163.812569	0.092045
1163.966084	0.096015
1164.119581	0.098655
1164.273060	0.110909
1164.426521	0.118118
1164.579964	0.103425
1164.733388	0.085412
1164.886794	0.072349
1165.040182	0.085673
1165.193551	0.089546
1165.346903	0.099387
1165.500236	0.090818
1165.653551	0.078350
1165.806848	0.079152
1165.960126	0.081522
1166.113386	0.093168
1166.266628	0.099174
1166.419852	0.099954
1166.573058	0.095080
1166.726245	0.085936
1166.879414	0.090812
1167.032565	0.100952
1167.185698	0.094731
1167.338812	0.089649
1167.491909	0.082749
1167.644987	0.073741
1167.798046	0.073609
1167.951088	0.077853
1168.104111	0.084812
1168.257117	0.085706
1168.410103	0.086728
1168.563072	0.085140
1168.716023	0.098966
1168.868955	0.109718
1169.021869	0.121736
1169.174765	0.120485
1169.327642	0.131483
1169.480501	0.133870
1169.633343	0.126271
1169.786165	0.118389
1169.938970	0.111030
1170.091757	0.116842
1170.244525	0.109525
1170.397275	0.116661
1170.550007	0.116397
1170.702720	0.118975
1170.855415	0.098622
1171.008092	0.113509
1171.160751	0.125776
1171.313392	0.143351
1171.466014	-0.009611
1171.618619	0.182223
1171.771205	0.182223
1171.923772	0.182223
