sample name	sample
index	1201
start time	 04-26-2021  12:44:04 PM


Wavelength (nm)	Absorbance
494.344910	-0.392800
494.563924	-0.392800
494.782919	-0.392800
495.001897	0.408839
495.220856	-0.267057
495.439797	-0.241868
495.658719	-0.208109
495.877624	-0.162012
496.096510	-0.143883
496.315378	-0.112697
496.534227	0.000394
496.753059	0.026434
496.971872	0.053664
497.190667	0.145391
497.409444	0.157977
497.628203	0.162123
497.846943	0.165991
498.065665	0.163354
498.284369	0.163931
498.503055	0.163366
498.721723	0.163913
498.940372	0.164278
499.159003	0.163772
499.377616	0.163641
499.596210	0.162762
499.814787	0.160880
500.033345	0.161755
500.251885	0.160473
500.470406	0.161327
500.688910	0.161867
500.907395	0.162714
501.125862	0.162650
501.344311	0.163687
501.562742	0.165634
501.781154	0.166773
501.999548	0.166769
502.217924	0.167922
502.436282	0.167548
502.654621	0.165943
502.872942	0.166571
503.091245	0.167339
503.309530	0.167234
503.527797	0.166010
503.746045	0.165887
503.964275	0.165840
504.182487	0.166407
504.400681	0.165334
504.618856	0.166667
504.837013	0.166833
505.055152	0.166797
505.273273	0.165983
505.491376	0.165978
505.709460	0.166647
505.927526	0.166038
506.145574	0.165973
506.363604	0.166286
506.581615	0.165802
506.799608	0.166594
507.017583	0.166765
507.235540	0.168151
507.453478	0.168151
507.671399	0.168694
507.889301	0.169433
508.107185	0.168304
508.325050	0.169847
508.542898	0.169708
508.760727	0.169040
508.978538	0.168753
509.196330	0.168055
509.414105	0.168542
509.631861	0.167964
509.849599	0.168232
510.067319	0.169110
510.285021	0.168446
510.502704	0.169534
510.720369	0.168896
510.938016	0.169915
511.155645	0.170547
511.373255	0.170846
511.590848	0.170481
511.808422	0.170082
512.025977	0.169548
512.243515	0.169733
512.461034	0.169469
512.678536	0.170242
512.896018	0.170216
513.113483	0.169887
513.330930	0.170385
513.548358	0.170733
513.765768	0.171097
513.983160	0.172001
514.200533	0.171310
514.417889	0.172383
514.635226	0.172059
514.852545	0.172690
515.069845	0.173320
515.287128	0.173957
515.504392	0.174550
515.721638	0.174853
515.938866	0.175226
516.156075	0.175878
516.373267	0.175413
516.590440	0.175708
516.807594	0.175653
517.024731	0.175554
517.241850	0.174709
517.458950	0.174879
517.676032	0.175347
517.893095	0.174960
518.110141	0.175784
518.327168	0.175639
518.544177	0.175664
518.761168	0.175970
518.978141	0.176996
519.195095	0.177155
519.412031	0.177825
519.628949	0.178346
519.845849	0.179015
520.062731	0.178559
520.279594	0.179028
520.496439	0.179502
520.713266	0.179326
520.930074	0.178978
521.146865	0.179922
521.363637	0.179588
521.580391	0.178817
521.797127	0.179559
522.013844	0.179857
522.230543	0.180894
522.447224	0.181223
522.663887	0.181834
522.880532	0.182715
523.097158	0.182645
523.313766	0.182877
523.530356	0.183439
523.746928	0.183047
523.963481	0.183343
524.180017	0.182888
524.396534	0.183844
524.613032	0.183784
524.829513	0.183161
525.045975	0.183322
525.262420	0.183232
525.478845	0.183606
525.695253	0.183920
525.911643	0.183672
526.128014	0.184548
526.344367	0.184073
526.560702	0.184462
526.777018	0.184436
526.993316	0.184597
527.209597	0.184710
527.425858	0.185309
527.642102	0.185684
527.858328	0.187199
528.074535	0.187079
528.290724	0.187154
528.506894	0.187390
528.723047	0.188253
528.939181	0.188822
529.155297	0.189361
529.371395	0.189418
529.587475	0.189684
529.803536	0.189396
530.019579	0.190205
530.235604	0.189810
530.451611	0.189825
530.667600	0.189948
530.883570	0.190128
531.099522	0.190317
531.315456	0.190895
531.531372	0.191360
531.747269	0.191670
531.963148	0.191259
532.179009	0.192612
532.394852	0.193415
532.610676	0.193856
532.826482	0.193680
533.042271	0.193994
533.258040	0.193602
533.473792	0.193231
533.689525	0.192876
533.905240	0.192716
534.120937	0.192753
534.336616	0.193400
534.552277	0.193265
534.767919	0.193930
534.983543	0.193551
535.199149	0.194079
535.414736	0.195251
535.630306	0.195758
535.845857	0.196159
536.061390	0.195711
536.276904	0.195863
536.492401	0.196313
536.707879	0.196251
536.923339	0.196695
537.138781	0.196371
537.354204	0.196349
537.569610	0.196657
537.784997	0.197027
538.000366	0.197372
538.215716	0.196901
538.431049	0.197242
538.646363	0.197808
538.861659	0.198725
539.076937	0.199441
539.292196	0.198538
539.507438	0.199162
539.722661	0.199565
539.937866	0.200226
540.153052	0.200249
540.368221	0.200855
540.583371	0.201406
540.798503	0.201632
541.013617	0.201043
541.228712	0.202047
541.443789	0.202102
541.658848	0.202225
541.873889	0.203108
542.088912	0.203810
542.303916	0.203265
542.518902	0.202819
542.733870	0.202472
542.948820	0.203289
543.163752	0.203661
543.378665	0.203936
543.593560	0.204056
543.808437	0.203707
544.023295	0.203257
544.238136	0.203285
544.452958	0.203580
544.667762	0.203897
544.882548	0.204286
545.097315	0.204364
545.312064	0.203989
545.526795	0.204146
545.741508	0.204251
545.956203	0.204379
546.170879	0.204953
546.385537	0.205472
546.600177	0.206536
546.814799	0.206745
547.029402	0.206715
547.243988	0.207284
547.458555	0.207014
547.673103	0.207248
547.887634	0.207809
548.102146	0.208128
548.316640	0.207972
548.531116	0.207933
548.745574	0.207995
548.960013	0.208545
549.174435	0.208775
549.388838	0.209664
549.603222	0.209846
549.817589	0.210297
550.031937	0.210524
550.246267	0.210877
550.460579	0.211082
550.674873	0.211145
550.889148	0.211322
551.103405	0.211014
551.317644	0.211032
551.531865	0.211333
551.746068	0.211873
551.960252	0.212035
552.174418	0.212377
552.388566	0.211847
552.602696	0.212046
552.816807	0.212001
553.030900	0.212777
553.244975	0.212940
553.459032	0.213116
553.673070	0.213109
553.887091	0.213509
554.101093	0.213933
554.315077	0.214505
554.529042	0.214774
554.742990	0.215354
554.956919	0.215139
555.170830	0.214895
555.384722	0.214569
555.598597	0.214240
555.812453	0.213973
556.026291	0.213244
556.240111	0.213382
556.453913	0.213153
556.667696	0.212892
556.881461	0.213455
557.095208	0.213616
557.308937	0.213924
557.522647	0.213998
557.736339	0.214113
557.950013	0.214406
558.163669	0.214026
558.377307	0.214433
558.590926	0.214706
558.804527	0.213953
559.018110	0.214404
559.231675	0.214816
559.445221	0.214946
559.658749	0.215649
559.872259	0.215720
560.085751	0.216119
560.299225	0.216632
560.512680	0.216634
560.726117	0.217258
560.939536	0.217209
561.152937	0.217216
561.366319	0.217319
561.579683	0.216723
561.793029	0.216971
562.006357	0.217001
562.219667	0.216686
562.432958	0.216716
562.646231	0.216750
562.859486	0.216904
563.072723	0.216691
563.285941	0.216964
563.499141	0.216976
563.712323	0.217114
563.925487	0.217050
564.138632	0.217696
564.351760	0.217904
564.564869	0.218111
564.777960	0.217854
564.991032	0.217791
565.204087	0.217797
565.417123	0.218399
565.630141	0.218402
565.843140	0.218752
566.056122	0.218188
566.269085	0.218295
566.482030	0.218392
566.694957	0.218706
566.907866	0.218815
567.120756	0.218937
567.333628	0.218296
567.546482	0.218553
567.759318	0.218458
567.972135	0.218439
568.184935	0.218686
568.397716	0.218642
568.610478	0.219274
568.823223	0.219458
569.035949	0.219607
569.248657	0.219938
569.461347	0.220088
569.674019	0.220469
569.886672	0.220922
570.099308	0.220948
570.311925	0.221453
570.524523	0.221422
570.737104	0.221613
570.949666	0.221542
571.162210	0.222231
571.374736	0.222503
571.587244	0.222844
571.799733	0.222965
572.012205	0.223268
572.224658	0.223425
572.437092	0.223070
572.649509	0.223677
572.861907	0.224021
573.074287	0.224131
573.286649	0.224291
573.498993	0.224242
573.711318	0.224106
573.923625	0.224271
574.135914	0.223834
574.348185	0.224379
574.560438	0.224329
574.772672	0.224592
574.984888	0.224595
575.197086	0.224547
575.409266	0.224776
575.621427	0.225480
575.833570	0.225429
576.045695	0.225970
576.257802	0.225968
576.469890	0.226057
576.681961	0.226129
576.894013	0.226071
577.106046	0.226031
577.318062	0.226448
577.530059	0.226728
577.742039	0.226993
577.954000	0.227236
578.165942	0.227437
578.377867	0.227696
578.589773	0.227590
578.801661	0.227972
579.013531	0.228279
579.225382	0.228136
579.437216	0.227454
579.649031	0.227559
579.860828	0.227707
580.072606	0.227936
580.284367	0.227805
580.496109	0.227875
580.707833	0.227892
580.919539	0.228173
581.131227	0.228540
581.342896	0.229131
581.554547	0.228952
581.766180	0.228952
581.977795	0.228791
582.189391	0.228849
582.400969	0.229480
582.612529	0.229717
582.824071	0.229776
583.035595	0.229565
583.247100	0.230091
583.458587	0.230513
583.670056	0.230638
583.881506	0.230936
584.092939	0.231330
584.304353	0.231212
584.515749	0.231542
584.727127	0.231889
584.938486	0.231855
585.149828	0.231622
585.361151	0.231555
585.572456	0.231937
585.783742	0.232247
585.995011	0.232729
586.206261	0.232790
586.417493	0.232930
586.628706	0.233058
586.839902	0.233517
587.051079	0.233285
587.262238	0.233591
587.473379	0.233694
587.684502	0.233749
587.895606	0.233536
588.106692	0.233853
588.317760	0.233775
588.528810	0.234036
588.739841	0.234364
588.950855	0.234989
589.161850	0.235328
589.372827	0.235664
589.583785	0.235928
589.794726	0.235871
590.005648	0.236293
590.216552	0.236827
590.427437	0.236739
590.638305	0.236933
590.849154	0.237207
591.059985	0.237017
591.270798	0.237174
591.481592	0.237606
591.692369	0.238337
591.903127	0.238147
592.113867	0.238119
592.324588	0.238200
592.535292	0.237832
592.745977	0.237842
592.956644	0.238478
593.167293	0.238579
593.377923	0.238425
593.588536	0.238698
593.799130	0.239237
594.009706	0.239076
594.220263	0.239271
594.430803	0.239517
594.641324	0.239858
594.851827	0.239893
595.062312	0.239868
595.272778	0.240126
595.483227	0.240286
595.693657	0.240237
595.904069	0.240443
596.114462	0.240766
596.324838	0.240809
596.535195	0.240733
596.745534	0.240931
596.955855	0.241177
597.166157	0.241376
597.376441	0.241327
597.586707	0.241604
597.796955	0.241818
598.007185	0.242012
598.217396	0.242022
598.427589	0.241848
598.637764	0.241512
598.847921	0.241414
599.058060	0.241277
599.268180	0.241215
599.478282	0.241118
599.688366	0.240943
599.898431	0.240546
600.108479	0.240964
600.318508	0.241519
600.528519	0.241589
600.738511	0.241701
600.948486	0.241840
601.158442	0.241887
601.368380	0.242185
601.578300	0.242676
601.788202	0.243457
601.998085	0.244150
602.207950	0.244148
602.417797	0.244427
602.627626	0.244619
602.837436	0.244859
603.047228	0.245268
603.257002	0.245462
603.466758	0.245502
603.676496	0.245270
603.886215	0.244671
604.095916	0.244870
604.305599	0.245195
604.515264	0.245334
604.724910	0.245453
604.934538	0.245804
605.144148	0.245780
605.353740	0.245649
605.563314	0.245729
605.772869	0.246326
605.982406	0.246331
606.191925	0.246574
606.401425	0.246759
606.610908	0.246874
606.820372	0.246431
607.029818	0.246537
607.239246	0.246669
607.448655	0.247042
607.658047	0.247304
607.867420	0.247443
608.076775	0.247826
608.286111	0.247769
608.495430	0.247793
608.704730	0.247950
608.914012	0.248075
609.123275	0.248379
609.332521	0.248330
609.541748	0.247979
609.750957	0.248331
609.960148	0.247879
610.169321	0.248154
610.378475	0.248408
610.587611	0.248769
610.796729	0.249031
611.005829	0.249259
611.214910	0.249496
611.423974	0.249648
611.633019	0.249759
611.842045	0.250142
612.051054	0.250315
612.260044	0.250325
612.469017	0.250421
612.677970	0.250366
612.886906	0.250105
613.095824	0.250363
613.304723	0.250615
613.513604	0.250744
613.722467	0.250610
613.931311	0.250580
614.140138	0.250903
614.348946	0.251086
614.557736	0.251108
614.766507	0.251713
614.975261	0.251559
615.183996	0.251728
615.392713	0.251435
615.601412	0.251609
615.810092	0.252219
616.018754	0.252256
616.227399	0.252258
616.436024	0.252588
616.644632	0.252688
616.853222	0.252983
617.061793	0.252787
617.270346	0.253112
617.478880	0.253256
617.687397	0.252978
617.895895	0.253260
618.104375	0.253181
618.312837	0.253317
618.521281	0.253706
618.729706	0.253734
618.938113	0.254187
619.146502	0.254354
619.354873	0.254709
619.563226	0.255047
619.771560	0.255172
619.979876	0.255383
620.188174	0.255666
620.396453	0.255598
620.604715	0.255423
620.812958	0.255506
621.021183	0.255525
621.229390	0.255353
621.437578	0.255340
621.645748	0.255320
621.853900	0.255633
622.062034	0.255793
622.270150	0.255866
622.478247	0.256628
622.686326	0.256872
622.894387	0.257130
623.102430	0.257370
623.310454	0.257462
623.518461	0.257434
623.726449	0.257529
623.934418	0.257285
624.142370	0.257048
624.350303	0.256898
624.558218	0.257061
624.766115	0.257042
624.973994	0.257464
625.181855	0.257614
625.389697	0.257954
625.597521	0.258553
625.805327	0.258922
626.013114	0.259349
626.220883	0.259552
626.428634	0.259426
626.636367	0.259834
626.844082	0.259879
627.051778	0.260209
627.259457	0.260458
627.467117	0.260307
627.674758	0.260320
627.882382	0.260474
628.089987	0.260431
628.297574	0.260603
628.505143	0.260665
628.712694	0.260868
628.920226	0.260722
629.127740	0.260471
629.335236	0.260637
629.542714	0.260810
629.750174	0.260928
629.957615	0.261301
630.165038	0.261635
630.372443	0.261676
630.579829	0.261626
630.787198	0.261980
630.994548	0.262253
631.201880	0.262148
631.409194	0.262469
631.616489	0.262540
631.823766	0.262793
632.031025	0.262906
632.238266	0.263201
632.445489	0.263111
632.652693	0.263102
632.859879	0.263263
633.067047	0.263573
633.274197	0.263284
633.481329	0.263489
633.688442	0.263562
633.895537	0.263648
634.102614	0.263874
634.309672	0.264219
634.516713	0.264283
634.723735	0.264414
634.930739	0.264495
635.137724	0.264929
635.344692	0.265162
635.551641	0.265087
635.758572	0.265206
635.965485	0.265249
636.172379	0.265600
636.379256	0.265899
636.586114	0.265982
636.792954	0.266125
636.999775	0.266350
637.206579	0.266526
637.413364	0.266751
637.620131	0.266514
637.826880	0.266620
638.033610	0.266281
638.240323	0.266599
638.447017	0.266960
638.653692	0.267007
638.860350	0.266904
639.066990	0.266879
639.273611	0.266843
639.480214	0.267330
639.686798	0.267451
639.893365	0.267671
640.099913	0.267557
640.306443	0.267687
640.512955	0.267811
640.719449	0.268130
640.925924	0.268261
641.132381	0.268685
641.338820	0.268889
641.545241	0.268893
641.751644	0.269238
641.958028	0.269269
642.164394	0.269390
642.370742	0.269639
642.577071	0.269729
642.783383	0.269917
642.989676	0.269665
643.195951	0.269734
643.402207	0.270013
643.608446	0.270257
643.814666	0.270660
644.020868	0.270889
644.227052	0.270871
644.433218	0.271188
644.639365	0.271463
644.845494	0.271768
645.051605	0.272155
645.257698	0.272309
645.463772	0.272139
645.669828	0.272049
645.875866	0.272110
646.081886	0.272472
646.287888	0.272500
646.493871	0.272476
646.699836	0.272712
646.905783	0.272937
647.111712	0.273161
647.317622	0.273697
647.523514	0.274032
647.729388	0.274015
647.935244	0.273958
648.141082	0.274249
648.346901	0.274301
648.552702	0.274307
648.758485	0.274125
648.964250	0.274055
649.169996	0.274148
649.375724	0.274338
649.581434	0.274488
649.787126	0.274877
649.992800	0.275038
650.198455	0.275274
650.404092	0.275586
650.609711	0.275703
650.815311	0.275836
651.020894	0.275855
651.226458	0.275933
651.432004	0.276020
651.637532	0.276156
651.843041	0.276179
652.048532	0.276356
652.254006	0.276469
652.459460	0.276738
652.664897	0.277164
652.870315	0.277176
653.075716	0.277025
653.281097	0.277284
653.486461	0.277082
653.691807	0.277109
653.897134	0.277234
654.102443	0.277351
654.307734	0.277303
654.513006	0.277417
654.718261	0.277827
654.923497	0.278255
655.128715	0.278457
655.333915	0.278798
655.539096	0.278941
655.744259	0.279176
655.949404	0.279303
656.154531	0.279568
656.359640	0.279396
656.564730	0.279506
656.769802	0.279559
656.974856	0.279806
657.179892	0.280210
657.384909	0.280521
657.589908	0.280655
657.794889	0.280909
657.999852	0.281093
658.204797	0.281539
658.409723	0.281601
658.614631	0.282150
658.819521	0.282319
659.024393	0.282505
659.229246	0.282546
659.434081	0.282820
659.638898	0.282858
659.843697	0.283265
660.048478	0.283488
660.253240	0.283719
660.457984	0.283764
660.662710	0.283887
660.867417	0.283990
661.072107	0.284248
661.276778	0.284671
661.481431	0.285050
661.686066	0.285311
661.890682	0.285710
662.095281	0.286053
662.299861	0.286196
662.504422	0.286440
662.708966	0.286574
662.913491	0.287089
663.117999	0.287244
663.322488	0.287505
663.526958	0.287552
663.731411	0.287574
663.935845	0.287697
664.140261	0.287655
664.344659	0.288047
664.549038	0.288078
664.753400	0.287964
664.957743	0.287892
665.162068	0.288200
665.366375	0.288349
665.570663	0.288519
665.774933	0.288610
665.979185	0.289012
666.183419	0.288988
666.387635	0.289188
666.591832	0.289355
666.796011	0.289653
667.000172	0.289702
667.204315	0.289772
667.408439	0.289668
667.612545	0.289843
667.816634	0.289910
668.020703	0.289983
668.224755	0.290318
668.428788	0.290245
668.632803	0.290440
668.836800	0.290443
669.040779	0.290628
669.244739	0.290975
669.448681	0.291037
669.652605	0.291269
669.856511	0.291616
670.060399	0.291738
670.264268	0.292404
670.468119	0.292508
670.671952	0.292931
670.875767	0.293266
671.079563	0.293636
671.283341	0.294206
671.487101	0.294328
671.690843	0.294560
671.894567	0.294587
672.098272	0.294620
672.301959	0.295050
672.505628	0.295178
672.709278	0.295557
672.912911	0.295631
673.116525	0.295629
673.320121	0.296172
673.523699	0.296254
673.727258	0.296744
673.930799	0.297335
674.134322	0.297373
674.337827	0.297560
674.541314	0.297552
674.744782	0.297834
674.948232	0.298155
675.151664	0.297982
675.355078	0.298281
675.558474	0.298384
675.761851	0.298154
675.965210	0.298204
676.168551	0.298498
676.371873	0.298724
676.575178	0.298830
676.778464	0.298871
676.981732	0.299196
677.184981	0.299325
677.388213	0.299480
677.591426	0.299654
677.794621	0.299876
677.997798	0.299908
678.200956	0.299883
678.404097	0.300028
678.607219	0.300016
678.810323	0.300061
679.013408	0.300043
679.216476	0.300359
679.419525	0.300476
679.622556	0.300860
679.825569	0.301180
680.028563	0.301572
680.231540	0.301918
680.434498	0.302631
680.637438	0.303127
680.840359	0.303465
681.043263	0.303539
681.246148	0.304019
681.449015	0.304257
681.651864	0.304246
681.854694	0.304392
682.057506	0.304546
682.260301	0.304454
682.463076	0.304524
682.665834	0.304940
682.868573	0.305131
683.071295	0.305255
683.273998	0.305119
683.476682	0.305205
683.679349	0.305342
683.881997	0.305530
684.084627	0.305615
684.287239	0.305674
684.489833	0.305668
684.692408	0.305636
684.894965	0.305534
685.097504	0.305865
685.300025	0.306121
685.502527	0.306492
685.705012	0.306701
685.907478	0.306969
686.109925	0.307232
686.312355	0.307337
686.514766	0.307766
686.717159	0.308150
686.919534	0.308366
687.121891	0.308378
687.324230	0.308397
687.526550	0.308586
687.728852	0.308677
687.931136	0.308985
688.133401	0.309307
688.335649	0.309335
688.537878	0.309432
688.740089	0.309445
688.942281	0.309840
689.144456	0.309979
689.346612	0.309977
689.548750	0.310232
689.750870	0.310318
689.952971	0.310543
690.155055	0.310886
690.357120	0.311118
690.559167	0.311318
690.761195	0.311475
690.963206	0.311738
691.165198	0.311830
691.367172	0.312084
691.569128	0.312141
691.771065	0.312453
691.972984	0.312578
692.174885	0.312618
692.376768	0.313073
692.578633	0.313094
692.780479	0.313151
692.982308	0.313553
693.184118	0.313648
693.385909	0.313946
693.587683	0.313967
693.789438	0.313981
693.991175	0.314420
694.192894	0.314278
694.394595	0.314612
694.596277	0.314481
694.797941	0.314523
694.999587	0.314509
695.201215	0.314468
695.402824	0.314440
695.604416	0.314675
695.805989	0.314621
696.007543	0.314703
696.209080	0.314704
696.410598	0.315098
696.612099	0.315033
696.813580	0.315096
697.015044	0.315229
697.216490	0.315293
697.417917	0.315144
697.619326	0.315151
697.820717	0.315217
698.022089	0.315319
698.223444	0.315562
698.424780	0.315799
698.626098	0.316076
698.827397	0.316235
699.028679	0.316530
699.229942	0.316760
699.431187	0.316895
699.632414	0.317172
699.833622	0.317239
700.034813	0.317290
700.235985	0.317281
700.437139	0.317470
700.638274	0.317536
700.839392	0.317620
701.040491	0.317991
701.241572	0.317899
701.442635	0.317832
701.643679	0.317969
701.844706	0.317921
702.045714	0.317890
702.246704	0.317737
702.447675	0.317835
702.648629	0.317688
702.849564	0.317264
703.050481	0.317321
703.251380	0.317575
703.452260	0.317862
703.653122	0.317870
703.853966	0.317781
704.054792	0.317944
704.255600	0.318176
704.456389	0.318381
704.657160	0.318906
704.857913	0.319270
705.058648	0.319277
705.259365	0.319197
705.460063	0.319085
705.660743	0.319311
705.861405	0.319499
706.062048	0.319351
706.262674	0.319423
706.463281	0.319403
706.663870	0.319219
706.864441	0.319108
707.064993	0.319014
707.265527	0.319180
707.466043	0.319309
707.666541	0.319232
707.867021	0.319494
708.067482	0.319590
708.267925	0.319661
708.468350	0.319786
708.668757	0.320031
708.869145	0.320299
709.069516	0.320752
709.269868	0.321018
709.470201	0.321169
709.670517	0.321149
709.870814	0.321205
710.071093	0.321056
710.271354	0.321091
710.471597	0.320898
710.671821	0.320959
710.872028	0.320464
711.072216	0.320555
711.272385	0.320566
711.472537	0.320493
711.672670	0.320444
711.872785	0.320525
712.072882	0.320332
712.272961	0.320240
712.473021	0.319831
712.673063	0.319809
712.873087	0.319496
713.073093	0.319288
713.273081	0.319034
713.473050	0.318830
713.673001	0.318672
713.872934	0.318784
714.072849	0.318942
714.272745	0.319212
714.472623	0.319110
714.672483	0.319055
714.872325	0.319014
715.072148	0.318902
715.271954	0.318878
715.471741	0.318976
715.671509	0.318940
715.871260	0.318850
716.070992	0.318462
716.270707	0.318607
716.470403	0.318560
716.670080	0.318498
716.869740	0.318691
717.069381	0.318856
717.269004	0.318665
717.468609	0.318457
717.668195	0.318359
717.867764	0.318627
718.067314	0.318458
718.266846	0.318317
718.466360	0.318068
718.665855	0.318141
718.865332	0.317488
719.064791	0.317548
719.264232	0.317510
719.463655	0.317566
719.663059	0.317121
719.862445	0.317317
720.061813	0.317291
720.261163	0.317352
720.460494	0.316996
720.659807	0.317325
720.859102	0.317382
721.058379	0.317721
721.257638	0.317739
721.456878	0.317820
721.656100	0.317648
721.855304	0.317666
722.054490	0.317603
722.253657	0.317489
722.452806	0.317271
722.651937	0.317124
722.851050	0.316834
723.050145	0.316722
723.249221	0.316740
723.448279	0.316882
723.647319	0.316741
723.846340	0.316718
724.045344	0.316622
724.244329	0.316563
724.443296	0.316263
724.642245	0.315873
724.841175	0.315429
725.040088	0.315286
725.238982	0.314926
725.437857	0.314697
725.636715	0.314503
725.835554	0.314507
726.034376	0.314178
726.233179	0.313884
726.431963	0.313940
726.630730	0.313847
726.829478	0.313658
727.028208	0.313562
727.226920	0.313569
727.425614	0.313295
727.624289	0.313132
727.822946	0.313014
728.021585	0.312941
728.220206	0.312604
728.418808	0.312284
728.617392	0.311917
728.815958	0.311732
729.014506	0.311345
729.213036	0.311303
729.411547	0.310994
729.610040	0.310639
729.808515	0.310622
730.006972	0.310633
730.205410	0.310838
730.403831	0.310908
730.602233	0.310586
730.800616	0.310642
730.998982	0.310462
731.197329	0.310266
731.395658	0.310502
731.593969	0.310318
731.792262	0.310237
731.990536	0.310032
732.188793	0.310132
732.387031	0.310130
732.585250	0.310061
732.783452	0.310163
732.981635	0.310261
733.179800	0.310318
733.377947	0.310168
733.576076	0.310025
733.774186	0.309823
733.972278	0.309534
734.170352	0.309672
734.368408	0.309726
734.566446	0.309514
734.764465	0.309471
734.962466	0.309395
735.160449	0.309414
735.358413	0.309158
735.556360	0.309038
735.754288	0.309099
735.952198	0.308981
736.150090	0.308453
736.347963	0.308238
736.545818	0.308089
736.743655	0.307828
736.941474	0.307860
737.139275	0.307904
737.337057	0.307845
737.534821	0.307427
737.732567	0.306968
737.930295	0.306878
738.128005	0.306593
738.325696	0.306280
738.523369	0.306163
738.721024	0.305602
738.918660	0.305196
739.116279	0.305029
739.313879	0.305032
739.511461	0.304899
739.709024	0.304987
739.906570	0.304933
740.104097	0.304946
740.301606	0.304797
740.499097	0.304567
740.696569	0.304802
740.894024	0.304648
741.091460	0.304534
741.288878	0.304663
741.486277	0.304558
741.683659	0.304462
741.881022	0.304006
742.078367	0.303817
742.275694	0.303918
742.473002	0.303474
742.670293	0.303290
742.867565	0.303246
743.064819	0.302754
743.262054	0.302535
743.459272	0.302629
743.656471	0.302593
743.853652	0.302120
744.050815	0.301868
744.247959	0.301794
744.445085	0.301613
744.642194	0.301183
744.839283	0.301237
745.036355	0.300968
745.233408	0.300671
745.430444	0.300355
745.627461	0.300552
745.824459	0.300534
746.021440	0.300383
746.218402	0.300507
746.415346	0.300400
746.612272	0.300159
746.809180	0.300103
747.006069	0.299849
747.202940	0.299786
747.399793	0.299553
747.596628	0.299406
747.793444	0.299033
747.990243	0.298668
748.187023	0.298458
748.383784	0.298235
748.580528	0.297886
748.777253	0.297359
748.973960	0.296914
749.170649	0.296657
749.367320	0.296478
749.563973	0.296312
749.760607	0.296030
749.957223	0.295581
750.153821	0.295177
750.350400	0.295068
750.546962	0.294764
750.743505	0.294853
750.940030	0.294643
751.136536	0.294235
751.333025	0.294343
751.529495	0.294298
751.725947	0.294420
751.922381	0.294558
752.118796	0.294146
752.315194	0.294294
752.511573	0.294244
752.707934	0.293917
752.904276	0.293633
753.100601	0.293165
753.296907	0.292848
753.493195	0.292319
753.689465	0.291898
753.885716	0.291723
754.081949	0.291527
754.278164	0.291238
754.474361	0.291122
754.670540	0.291245
754.866700	0.291209
755.062843	0.291157
755.258967	0.291232
755.455072	0.290983
755.651160	0.290952
755.847229	0.290823
756.043280	0.290585
756.239313	0.290374
756.435328	0.290090
756.631324	0.289917
756.827302	0.289668
757.023262	0.289771
757.219204	0.289683
757.415127	0.289457
757.611033	0.289338
757.806920	0.289168
758.002788	0.289139
758.198639	0.288896
758.394471	0.288883
758.590286	0.288853
758.786081	0.288442
758.981859	0.288223
759.177619	0.288222
759.373360	0.288202
759.569083	0.287924
759.764788	0.287950
759.960474	0.288098
760.156143	0.288088
760.351793	0.288198
760.547425	0.288441
760.743038	0.288704
760.938634	0.288832
761.134211	0.288827
761.329770	0.289405
761.525311	0.289429
761.720833	0.289380
761.916338	0.289306
762.111824	0.288809
762.307292	0.288717
762.502741	0.288513
762.698173	0.288364
762.893586	0.288142
763.088981	0.287568
763.284358	0.287326
763.479716	0.287065
763.675057	0.286686
763.870379	0.286825
764.065683	0.286604
764.260968	0.286560
764.456236	0.286405
764.651485	0.286317
764.846716	0.286483
765.041929	0.286240
765.237123	0.286135
765.432299	0.286100
765.627457	0.286074
765.822597	0.285851
766.017719	0.285595
766.212822	0.285234
766.407907	0.285223
766.602974	0.285138
766.798023	0.284896
766.993054	0.284803
767.188066	0.284949
767.383060	0.284703
767.578036	0.284577
767.772993	0.284638
767.967933	0.284571
768.162854	0.284393
768.357757	0.284057
768.552642	0.284252
768.747508	0.284216
768.942356	0.283990
769.137186	0.283816
769.331998	0.284103
769.526792	0.283883
769.721567	0.283852
769.916324	0.283793
770.111063	0.283874
770.305784	0.283702
770.500486	0.283611
770.695171	0.283226
770.889837	0.283183
771.084484	0.282810
771.279114	0.282874
771.473725	0.282886
771.668318	0.282797
771.862893	0.282628
772.057450	0.282564
772.251988	0.282443
772.446509	0.282524
772.641011	0.282496
772.835494	0.282455
773.029960	0.282509
773.224407	0.282240
773.418836	0.282199
773.613247	0.282019
773.807640	0.281758
774.002014	0.281842
774.196370	0.281642
774.390708	0.281253
774.585028	0.281130
774.779330	0.280770
774.973613	0.280830
775.167878	0.280570
775.362125	0.280518
775.556354	0.280738
775.750564	0.280748
775.944756	0.280782
776.138930	0.280909
776.333086	0.281059
776.527223	0.280884
776.721343	0.280701
776.915444	0.280966
777.109526	0.281018
777.303591	0.280673
777.497637	0.280494
777.691666	0.280604
777.885676	0.280538
778.079667	0.280193
778.273641	0.280404
778.467596	0.280737
778.661533	0.280816
778.855452	0.280860
779.049352	0.281244
779.243235	0.281369
779.437099	0.281303
779.630945	0.281702
779.824773	0.282255
780.018582	0.282367
780.212373	0.282160
780.406146	0.282086
780.599901	0.282122
780.793638	0.282118
780.987356	0.281947
781.181056	0.282233
781.374738	0.282247
781.568402	0.281934
781.762047	0.281784
781.955674	0.281924
782.149283	0.281896
782.342874	0.282155
782.536447	0.282197
782.730001	0.282198
782.923537	0.282060
783.117055	0.281723
783.310555	0.281671
783.504036	0.281807
783.697499	0.281946
783.890944	0.281979
784.084371	0.281652
784.277780	0.281628
784.471170	0.281622
784.664542	0.281535
784.857896	0.281759
785.051231	0.281711
785.244549	0.282031
785.437848	0.281932
785.631129	0.281815
785.824392	0.281850
786.017636	0.281949
786.210863	0.282181
786.404071	0.282279
786.597260	0.282135
786.790432	0.282130
786.983585	0.281680
787.176721	0.281890
787.369838	0.282193
787.562936	0.282597
787.756017	0.282425
787.949079	0.282436
788.142123	0.282711
788.335149	0.283048
788.528156	0.283472
788.721146	0.283926
788.914117	0.284063
789.107070	0.284150
789.300005	0.284069
789.492921	0.284434
789.685819	0.284577
789.878699	0.284701
790.071561	0.284778
790.264405	0.285010
790.457230	0.284876
790.650037	0.285085
790.842826	0.285211
791.035597	0.285533
791.228349	0.285646
791.421084	0.285914
791.613800	0.285896
791.806497	0.286115
791.999177	0.286115
792.191838	0.286551
792.384481	0.286578
792.577106	0.286621
792.769713	0.286899
792.962301	0.287278
793.154871	0.287284
793.347423	0.287541
793.539957	0.287731
793.732473	0.287958
793.924970	0.288012
794.117449	0.288002
794.309910	0.288229
794.502353	0.288127
794.694777	0.287978
794.887183	0.288191
795.079571	0.288252
795.271941	0.288220
795.464293	0.288299
795.656626	0.288566
795.848941	0.288845
796.041238	0.288767
796.233516	0.289061
796.425777	0.289182
796.618019	0.289505
796.810243	0.289680
797.002449	0.289964
797.194636	0.290191
797.386805	0.290509
797.578956	0.290818
797.771089	0.291229
797.963204	0.290940
798.155300	0.291174
798.347378	0.291062
798.539438	0.291296
798.731480	0.291148
798.923503	0.291196
799.115509	0.291121
799.307496	0.291149
799.499465	0.291284
799.691415	0.291615
799.883348	0.291949
800.075262	0.292447
800.267158	0.292726
800.459035	0.293516
800.650895	0.293565
800.842736	0.293628
801.034559	0.293838
801.226364	0.293943
801.418150	0.294290
801.609919	0.294125
801.801669	0.294120
801.993401	0.294307
802.185114	0.294558
802.376810	0.295083
802.568487	0.295556
802.760146	0.295854
802.951787	0.296155
803.143409	0.296615
803.335014	0.297194
803.526600	0.297620
803.718168	0.297842
803.909717	0.297825
804.101249	0.298009
804.292762	0.298338
804.484257	0.298566
804.675734	0.298664
804.867192	0.298764
805.058632	0.298916
805.250054	0.299185
805.441458	0.299459
805.632844	0.299461
805.824211	0.299481
806.015561	0.299812
806.206891	0.299902
806.398204	0.300291
806.589499	0.300420
806.780775	0.300574
806.972033	0.300981
807.163273	0.301020
807.354495	0.301324
807.545698	0.301599
807.736883	0.301669
807.928050	0.301906
808.119199	0.302285
808.310329	0.302369
808.501441	0.302785
808.692535	0.302734
808.883611	0.303311
809.074669	0.303808
809.265708	0.304317
809.456729	0.304549
809.647732	0.304967
809.838717	0.305399
810.029683	0.306307
810.220632	0.306628
810.411562	0.306836
810.602474	0.307015
810.793367	0.307342
810.984242	0.307650
811.175100	0.307948
811.365938	0.308389
811.556759	0.308576
811.747562	0.308201
811.938346	0.308514
812.129112	0.309046
812.319860	0.309250
812.510589	0.309547
812.701300	0.309736
812.891994	0.309858
813.082668	0.310191
813.273325	0.310446
813.463964	0.311187
813.654584	0.311435
813.845186	0.311400
814.035769	0.312045
814.226335	0.312218
814.416882	0.312520
814.607411	0.312867
814.797922	0.313053
814.988415	0.313350
815.178889	0.313664
815.369345	0.314047
815.559783	0.314581
815.750203	0.314832
815.940605	0.315237
816.130988	0.315737
816.321353	0.316215
816.511700	0.316577
816.702028	0.317006
816.892339	0.317173
817.082631	0.317343
817.272905	0.317557
817.463161	0.317549
817.653398	0.317844
817.843617	0.318322
818.033819	0.318775
818.224001	0.319004
818.414166	0.319189
818.604312	0.319441
818.794440	0.320050
818.984550	0.320372
819.174642	0.320858
819.364716	0.321280
819.554771	0.321622
819.744808	0.322162
819.934827	0.322628
820.124827	0.323027
820.314810	0.323700
820.504774	0.324035
820.694720	0.324343
820.884647	0.324981
821.074557	0.325434
821.264448	0.325384
821.454321	0.325405
821.644176	0.325976
821.834012	0.326449
822.023831	0.326559
822.213631	0.326716
822.403413	0.327212
822.593176	0.327520
822.782922	0.327939
822.972649	0.328371
823.162358	0.329084
823.352049	0.329350
823.541721	0.329643
823.731376	0.330185
823.921012	0.330524
824.110629	0.330933
824.300229	0.331244
824.489811	0.331336
824.679374	0.331873
824.868919	0.331937
825.058445	0.332267
825.247954	0.332740
825.437444	0.333152
825.626916	0.333685
825.816370	0.334287
826.005806	0.334745
826.195223	0.335404
826.384622	0.335639
826.574003	0.336313
826.763366	0.337022
826.952711	0.337432
827.142037	0.337930
827.331345	0.338195
827.520635	0.338588
827.709906	0.338850
827.899160	0.339254
828.088395	0.339942
828.277612	0.340305
828.466810	0.340319
828.655991	0.340626
828.845153	0.340865
829.034297	0.341472
829.223423	0.341985
829.412531	0.342312
829.601620	0.342507
829.790691	0.342886
829.979744	0.343231
830.168779	0.343885
830.357795	0.344438
830.546793	0.345053
830.735773	0.345681
830.924735	0.346137
831.113679	0.346748
831.302604	0.347524
831.491511	0.347695
831.680400	0.347952
831.869271	0.348487
832.058123	0.349093
832.246957	0.349555
832.435773	0.349688
832.624571	0.350034
832.813351	0.350322
833.002112	0.350527
833.190855	0.351031
833.379580	0.351623
833.568287	0.351943
833.756975	0.352083
833.945645	0.352292
834.134297	0.352694
834.322931	0.352886
834.511547	0.353570
834.700144	0.353823
834.888723	0.354662
835.077284	0.355246
835.265826	0.355598
835.454351	0.356145
835.642857	0.356869
835.831345	0.357571
836.019815	0.358131
836.208266	0.358519
836.396699	0.359287
836.585114	0.359416
836.773511	0.359633
836.961890	0.360043
837.150250	0.360870
837.338592	0.361187
837.526916	0.361725
837.715222	0.362207
837.903510	0.362625
838.091779	0.362837
838.280030	0.363537
838.468263	0.364052
838.656477	0.364372
838.844674	0.364511
839.032852	0.365248
839.221012	0.365561
839.409153	0.365931
839.597277	0.366259
839.785382	0.366613
839.973469	0.366765
840.161538	0.366923
840.349589	0.367933
840.537621	0.368716
840.725635	0.368694
840.913631	0.368899
841.101609	0.369559
841.289568	0.369979
841.477509	0.370970
841.665432	0.371683
841.853337	0.372515
842.041224	0.372596
842.229092	0.372785
842.416942	0.373527
842.604774	0.374175
842.792588	0.374759
842.980383	0.375419
843.168160	0.375457
843.355919	0.376044
843.543660	0.376602
843.731382	0.377163
843.919087	0.377717
844.106773	0.378209
844.294441	0.379151
844.482090	0.379249
844.669722	0.379991
844.857335	0.380552
845.044930	0.380773
845.232507	0.381336
845.420065	0.381925
845.607605	0.382199
845.795127	0.382940
845.982631	0.383131
846.170117	0.384247
846.357584	0.384761
846.545033	0.385228
846.732464	0.386109
846.919877	0.386619
847.107272	0.387142
847.294648	0.387985
847.482006	0.388475
847.669346	0.389035
847.856667	0.389142
848.043971	0.389833
848.231256	0.390822
848.418523	0.391303
848.605771	0.391970
848.793002	0.392281
848.980214	0.392467
849.167408	0.392985
849.354584	0.393694
849.541742	0.393919
849.728881	0.394310
849.916002	0.394876
850.103105	0.395162
850.290190	0.395297
850.477256	0.396130
850.664304	0.396909
850.851334	0.397223
851.038346	0.397550
851.225340	0.398839
851.412315	0.398767
851.599272	0.399142
851.786211	0.400120
851.973132	0.400727
852.160034	0.400654
852.346918	0.400733
852.533784	0.401313
852.720632	0.401766
852.907462	0.401845
853.094273	0.402890
853.281066	0.403233
853.467841	0.403059
853.654598	0.403146
853.841336	0.404224
854.028056	0.404645
854.214758	0.404932
854.401442	0.404911
854.588107	0.405581
854.774755	0.405221
854.961384	0.405502
855.147995	0.405937
855.334587	0.406655
855.521162	0.406850
855.707718	0.407960
855.894256	0.408614
856.080775	0.409414
856.267277	0.409540
856.453760	0.410384
856.640225	0.411479
856.826672	0.412661
857.013101	0.413494
857.199511	0.414276
857.385903	0.414294
857.572277	0.414433
857.758633	0.414933
857.944970	0.415279
858.131290	0.415892
858.317591	0.415575
858.503873	0.415638
858.690138	0.415738
858.876384	0.416141
859.062612	0.416660
859.248822	0.416821
859.435014	0.417322
859.621188	0.418419
859.807343	0.419189
859.993480	0.420311
860.179599	0.420906
860.365699	0.421231
860.551781	0.421815
860.737846	0.422360
860.923891	0.423319
861.109919	0.423737
861.295929	0.423996
861.481920	0.424311
861.667893	0.424456
861.853848	0.424808
862.039784	0.425620
862.225702	0.425914
862.411603	0.426412
862.597484	0.427102
862.783348	0.427981
862.969193	0.428194
863.155021	0.428218
863.340830	0.428544
863.526620	0.428769
863.712393	0.428959
863.898147	0.429221
864.083883	0.429955
864.269601	0.429942
864.455301	0.429922
864.640982	0.430077
864.826645	0.430860
865.012290	0.430912
865.197917	0.431128
865.383526	0.431465
865.569116	0.431653
865.754688	0.431478
865.940242	0.431819
866.125777	0.431882
866.311295	0.432555
866.496794	0.432403
866.682275	0.432826
866.867737	0.433524
867.053182	0.433953
867.238608	0.433957
867.424016	0.434385
867.609406	0.434707
867.794778	0.434820
867.980131	0.435270
868.165466	0.435936
868.350783	0.436435
868.536082	0.436605
868.721362	0.436747
868.906625	0.437679
869.091869	0.437478
869.277094	0.437757
869.462302	0.438676
869.647491	0.438380
869.832662	0.438843
870.017815	0.439075
870.202950	0.439443
870.388066	0.439994
870.573165	0.440132
870.758245	0.441035
870.943306	0.441537
871.128350	0.441256
871.313375	0.441864
871.498382	0.441930
871.683371	0.442455
871.868342	0.442556
872.053294	0.443098
872.238229	0.442885
872.423144	0.443216
872.608042	0.443373
872.792922	0.444221
872.977783	0.444826
873.162626	0.445123
873.347451	0.445296
873.532258	0.445748
873.717046	0.445871
873.901816	0.446360
874.086568	0.446235
874.271302	0.446571
874.456017	0.446542
874.640715	0.446481
874.825394	0.446739
875.010055	0.447268
875.194697	0.447438
875.379322	0.446843
875.563928	0.447324
875.748516	0.447402
875.933085	0.448189
876.117637	0.448853
876.302170	0.449076
876.486685	0.449065
876.671182	0.448538
876.855661	0.448603
877.040121	0.449360
877.224563	0.449629
877.408987	0.450569
877.593393	0.450358
877.777780	0.449904
877.962150	0.450506
878.146501	0.450979
878.330833	0.451565
878.515148	0.452448
878.699444	0.452939
878.883722	0.453474
879.067982	0.453362
879.252224	0.453575
879.436447	0.454236
879.620653	0.454479
879.804840	0.455108
879.989008	0.455583
880.173159	0.455036
880.357291	0.455182
880.541405	0.454881
880.725501	0.454739
880.909579	0.454798
881.093638	0.454751
881.277680	0.454806
881.461703	0.454891
881.645707	0.454443
881.829694	0.454892
882.013662	0.454657
882.197612	0.455010
882.381544	0.455597
882.565458	0.456115
882.749353	0.456577
882.933230	0.456530
883.117089	0.456106
883.300930	0.456749
883.484753	0.456679
883.668557	0.457115
883.852343	0.457100
884.036111	0.457118
884.219861	0.457114
884.403592	0.456926
884.587305	0.456730
884.771000	0.457412
884.954677	0.457286
885.138335	0.457375
885.321976	0.457501
885.505598	0.457566
885.689201	0.457423
885.872787	0.457569
886.056354	0.457835
886.239904	0.458186
886.423434	0.457782
886.606947	0.457794
886.790442	0.457882
886.973918	0.458355
887.157376	0.458231
887.340816	0.458802
887.524237	0.458625
887.707641	0.459071
887.891026	0.458878
888.074393	0.458760
888.257741	0.458784
888.441072	0.459010
888.624384	0.458165
888.807678	0.458333
888.990954	0.457832
889.174211	0.457747
889.357451	0.456811
889.540672	0.456963
889.723875	0.457030
889.907059	0.456563
890.090226	0.456159
890.273374	0.456090
890.456504	0.455919
890.639616	0.455647
890.822709	0.455485
891.005785	0.455654
891.188842	0.455296
891.371881	0.455212
891.554901	0.455787
891.737904	0.455609
891.920888	0.455471
892.103854	0.455387
892.286802	0.455449
892.469731	0.455634
892.652643	0.455953
892.835536	0.456061
893.018410	0.455824
893.201267	0.455778
893.384106	0.456054
893.566926	0.456660
893.749728	0.457045
893.932511	0.457624
894.115277	0.457434
894.298024	0.456889
894.480753	0.456522
894.663464	0.456205
894.846157	0.456194
895.028831	0.456113
895.211487	0.455406
895.394125	0.454993
895.576745	0.454796
895.759346	0.454808
895.941930	0.454596
896.124495	0.454844
896.307041	0.455606
896.489570	0.455236
896.672080	0.455037
896.854573	0.455514
897.037046	0.455571
897.219502	0.454711
897.401940	0.453754
897.584359	0.453969
897.766760	0.453272
897.949143	0.452543
898.131507	0.451787
898.313854	0.451033
898.496182	0.450470
898.678492	0.449802
898.860783	0.450107
899.043057	0.449962
899.225312	0.449317
899.407549	0.449515
899.589768	0.449143
899.771968	0.449278
899.954151	0.449528
900.136315	0.449038
900.318461	0.448594
900.500588	0.448200
900.682698	0.447912
900.864789	0.447523
901.046862	0.447337
901.228917	0.447187
901.410953	0.446811
901.592971	0.446629
901.774972	0.446344
901.956953	0.446239
902.138917	0.445600
902.320862	0.445556
902.502790	0.445922
902.684699	0.445454
902.866589	0.445085
903.048462	0.444897
903.230316	0.444332
903.412152	0.444482
903.593970	0.444112
903.775770	0.444385
903.957551	0.444407
904.139314	0.443623
904.321059	0.443466
904.502786	0.443040
904.684494	0.443244
904.866185	0.442965
905.047857	0.442424
905.229510	0.442047
905.411146	0.441372
905.592763	0.440067
905.774363	0.439956
905.955943	0.439632
906.137506	0.438997
906.319051	0.438163
906.500577	0.438263
906.682085	0.437900
906.863575	0.437250
907.045046	0.436275
907.226500	0.436251
907.407935	0.435996
907.589352	0.435186
907.770750	0.435388
907.952131	0.434876
908.133493	0.433960
908.314837	0.433088
908.496163	0.433399
908.677470	0.433658
908.858760	0.433362
909.040031	0.433246
909.221284	0.432404
909.402518	0.431593
909.583735	0.431188
909.764933	0.430854
909.946113	0.430493
910.127275	0.429311
910.308418	0.428672
910.489544	0.428327
910.670651	0.427377
910.851740	0.427965
911.032810	0.428112
911.213863	0.427176
911.394897	0.426740
911.575913	0.425999
911.756911	0.425531
911.937890	0.425676
912.118851	0.424800
912.299794	0.424410
912.480719	0.422695
912.661626	0.420920
912.842514	0.420939
913.023384	0.420347
913.204236	0.420346
913.385070	0.419529
913.565886	0.417868
913.746683	0.417491
913.927462	0.416835
914.108223	0.416505
914.288965	0.416596
914.469690	0.416197
914.650396	0.415381
914.831084	0.414974
915.011754	0.414577
915.192405	0.414328
915.373038	0.413552
915.553653	0.412775
915.734250	0.412609
915.914829	0.412030
916.095389	0.410827
916.275931	0.410099
916.456455	0.409096
916.636961	0.408606
916.817448	0.408087
916.997917	0.407861
917.178368	0.406776
917.358801	0.406324
917.539216	0.405213
917.719612	0.404481
917.899990	0.403332
918.080350	0.402520
918.260692	0.401959
918.441015	0.401289
918.621320	0.399856
918.801607	0.399809
918.981876	0.398948
919.162127	0.398685
919.342359	0.396899
919.522573	0.396603
919.702769	0.395953
919.882947	0.395079
920.063106	0.393955
920.243247	0.393569
920.423370	0.391923
920.603475	0.390922
920.783562	0.389902
920.963630	0.390561
921.143680	0.389713
921.323712	0.389322
921.503725	0.388436
921.683721	0.387677
921.863698	0.387498
922.043657	0.387381
922.223598	0.387024
922.403520	0.386685
922.583424	0.385986
922.763311	0.384800
922.943178	0.382962
923.123028	0.382488
923.302859	0.381696
923.482673	0.380787
923.662467	0.379402
923.842244	0.377510
924.022003	0.376184
924.201743	0.375234
924.381465	0.375083
924.561169	0.375355
924.740854	0.374002
924.920522	0.373555
925.100171	0.372874
925.279802	0.372127
925.459414	0.371546
925.639009	0.370540
925.818585	0.369452
925.998143	0.368002
926.177683	0.366095
926.357205	0.365188
926.536708	0.364361
926.716193	0.362917
926.895660	0.362931
927.075109	0.362021
927.254539	0.362165
927.433951	0.361763
927.613345	0.361064
927.792721	0.360830
927.972079	0.359990
928.151418	0.358125
928.330739	0.356796
928.510042	0.354248
928.689327	0.353266
928.868593	0.351613
929.047841	0.349548
929.227071	0.349381
929.406283	0.348135
929.585476	0.347384
929.764652	0.346468
929.943809	0.345153
930.122948	0.345150
930.302068	0.344712
930.481171	0.343791
930.660255	0.342721
930.839321	0.341215
931.018369	0.340086
931.197398	0.338527
931.376409	0.337311
931.555402	0.336626
931.734377	0.335892
931.913334	0.335205
932.092272	0.333499
932.271192	0.332689
932.450094	0.331314
932.628978	0.330642
932.807844	0.330210
932.986691	0.329833
933.165520	0.328902
933.344331	0.327864
933.523123	0.325604
933.701898	0.325091
933.880654	0.324736
934.059392	0.323290
934.238111	0.320788
934.416813	0.319392
934.595496	0.318608
934.774161	0.317458
934.952808	0.315928
935.131437	0.314890
935.310047	0.313640
935.488639	0.312879
935.667213	0.311125
935.845769	0.312326
936.024306	0.311183
936.202825	0.309383
936.381326	0.308986
936.559809	0.307071
936.738274	0.306844
936.916720	0.305397
937.095148	0.303293
937.273558	0.302595
937.451950	0.300110
937.630323	0.299569
937.808678	0.299024
937.987015	0.296037
938.165334	0.296117
938.343635	0.294039
938.521917	0.292538
938.700181	0.291110
938.878427	0.289356
939.056655	0.288939
939.234864	0.286965
939.413055	0.284480
939.591228	0.285400
939.769383	0.283007
939.947519	0.281852
940.125638	0.280791
940.303738	0.279141
940.481820	0.277674
940.659883	0.275831
940.837929	0.275056
941.015956	0.275049
941.193965	0.272041
941.371955	0.271222
941.549928	0.269946
941.727882	0.268327
941.905818	0.268825
942.083736	0.269125
942.261636	0.268336
942.439517	0.266690
942.617380	0.265207
942.795225	0.264908
942.973052	0.263329
943.150860	0.262463
943.328651	0.262474
943.506423	0.260257
943.684176	0.258979
943.861912	0.257656
944.039629	0.256656
944.217328	0.255307
944.395009	0.254207
944.572672	0.253939
944.750317	0.253576
944.927943	0.252542
945.105551	0.252846
945.283141	0.251487
945.460712	0.250093
945.638265	0.248066
945.815801	0.247532
945.993317	0.246310
946.170816	0.244622
946.348297	0.242449
946.525759	0.241977
946.703203	0.239197
946.880629	0.236463
947.058036	0.235175
947.235425	0.235498
947.412797	0.233412
947.590149	0.231555
947.767484	0.230535
947.944800	0.228697
948.122099	0.225715
948.299379	0.224809
948.476640	0.225845
948.653884	0.223656
948.831109	0.222128
949.008316	0.220213
949.185505	0.220248
949.362676	0.218810
949.539828	0.218058
949.716962	0.217013
949.894078	0.217039
950.071176	0.215013
950.248256	0.216076
950.425317	0.216653
950.602360	0.217346
950.779385	0.215975
950.956391	0.218240
951.133380	0.218142
951.310350	0.218320
951.487302	0.215311
951.664235	0.213742
951.841151	0.211076
952.018048	0.209126
952.194927	0.207260
952.371788	0.204767
952.548631	0.199771
952.725455	0.199030
952.902261	0.197755
953.079049	0.198047
953.255819	0.198121
953.432570	0.198917
953.609303	0.197195
953.786018	0.196460
953.962715	0.196029
954.139394	0.193988
954.316054	0.193453
954.492696	0.190911
954.669320	0.190409
954.845926	0.190829
955.022513	0.188633
955.199083	0.189083
955.375634	0.188525
955.552166	0.189338
955.728681	0.192038
955.905177	0.191869
956.081655	0.191134
956.258115	0.189490
956.434557	0.187146
956.610980	0.186241
956.787385	0.183655
956.963772	0.180587
957.140141	0.181782
957.316492	0.180023
957.492824	0.177435
957.669138	0.177160
957.845434	0.175530
958.021712	0.173243
958.197971	0.172839
958.374212	0.169891
958.550435	0.169476
958.726640	0.166079
958.902826	0.165947
959.078995	0.163766
959.255145	0.163172
959.431277	0.161048
959.607390	0.163401
959.783486	0.163465
959.959563	0.164397
960.135622	0.165846
960.311662	0.166335
960.487685	0.164242
960.663689	0.166450
960.839675	0.165574
961.015643	0.166799
961.191593	0.167026
961.367524	0.165812
961.543437	0.167022
961.719332	0.166857
961.895209	0.164410
962.071067	0.167627
962.246907	0.167865
962.422730	0.169546
962.598533	0.170460
962.774319	0.168775
962.950086	0.168633
963.125835	0.168437
963.301566	0.166194
963.477279	0.168020
963.652973	0.165601
963.828650	0.164119
964.004308	0.161737
964.179947	0.160302
964.355569	0.160200
964.531172	0.159469
964.706757	0.158917
964.882324	0.160086
965.057873	0.158771
965.233403	0.159033
965.408916	0.158480
965.584410	0.158614
965.759885	0.157502
965.935343	0.158064
966.110782	0.159194
966.286203	0.159209
966.461606	0.157334
966.636991	0.158133
966.812357	0.157611
966.987705	0.157631
967.163035	0.158522
967.338347	0.160905
967.513641	0.160419
967.688916	0.158493
967.864173	0.157517
968.039412	0.158492
968.214632	0.157631
968.389835	0.157375
968.565019	0.157769
968.740185	0.157000
968.915333	0.154379
969.090462	0.155805
969.265573	0.156494
969.440667	0.154989
969.615741	0.156940
969.790798	0.156296
969.965836	0.154806
970.140856	0.155153
970.315858	0.156718
970.490842	0.157341
970.665808	0.153940
970.840755	0.154996
971.015684	0.158285
971.190595	0.156569
971.365487	0.156702
971.540362	0.158524
971.715218	0.160180
971.890056	0.158920
972.064875	0.158752
972.239677	0.159658
972.414460	0.156249
972.589225	0.155283
972.763972	0.157361
972.938700	0.158934
973.113411	0.157625
973.288103	0.155157
973.462777	0.154048
973.637432	0.155320
973.812070	0.155238
973.986689	0.157245
974.161290	0.156875
974.335873	0.154756
974.510437	0.152346
974.684984	0.156126
974.859512	0.155995
975.034022	0.158441
975.208513	0.155924
975.382987	0.154215
975.557442	0.154233
975.731879	0.155898
975.906298	0.156036
976.080698	0.157713
976.255080	0.155422
976.429445	0.153015
976.603790	0.150952
976.778118	0.151534
976.952427	0.154673
977.126719	0.156745
977.300992	0.152899
977.475246	0.152460
977.649483	0.151016
977.823701	0.150692
977.997901	0.153115
978.172083	0.154937
978.346247	0.156928
978.520392	0.155581
978.694519	0.151805
978.868628	0.153437
979.042719	0.153559
979.216791	0.152699
979.390845	0.151684
979.564882	0.152596
979.738899	0.150280
979.912899	0.147977
980.086880	0.147185
980.260843	0.147315
980.434788	0.147151
980.608715	0.147754
980.782623	0.148963
980.956514	0.149229
981.130386	0.148922
981.304240	0.149615
981.478075	0.151601
981.651892	0.151138
981.825692	0.152133
981.999472	0.155513
982.173235	0.155514
982.346980	0.155176
982.520706	0.155411
982.694414	0.153961
982.868104	0.152210
983.041775	0.151766
983.215428	0.150536
983.389064	0.150493
983.562680	0.147420
983.736279	0.146691
983.909860	0.148900
984.083422	0.149263
984.256966	0.149724
984.430491	0.151886
984.603999	0.151968
984.777488	0.154679
984.950959	0.152002
985.124412	0.151069
985.297847	0.153018
985.471263	0.153195
985.644661	0.152165
985.818041	0.154766
985.991403	0.155272
986.164747	0.155875
986.338072	0.155779
986.511379	0.158198
986.684668	0.158880
986.857938	0.157939
987.031191	0.156836
987.204425	0.158252
987.377641	0.155720
987.550839	0.156526
987.724018	0.155841
987.897179	0.153987
988.070322	0.155984
988.243447	0.155997
988.416554	0.157851
988.589642	0.157587
988.762712	0.155259
988.935764	0.156630
989.108798	0.155355
989.281813	0.156251
989.454811	0.157091
989.627790	0.154874
989.800751	0.156475
989.973693	0.153428
990.146617	0.152919
990.319524	0.153179
990.492412	0.153932
990.665281	0.153312
990.838133	0.154235
991.010966	0.156217
991.183781	0.156024
991.356578	0.153644
991.529356	0.155089
991.702117	0.154503
991.874859	0.156711
992.047583	0.155139
992.220288	0.155112
992.392976	0.155133
992.565645	0.153014
992.738296	0.153772
992.910929	0.153632
993.083543	0.153207
993.256139	0.155839
993.428718	0.154814
993.601277	0.154415
993.773819	0.153872
993.946342	0.153113
994.118848	0.155828
994.291335	0.154800
994.463803	0.156401
994.636254	0.157233
994.808686	0.156025
994.981100	0.156666
995.153496	0.157138
995.325874	0.156822
995.498233	0.156859
995.670574	0.155445
995.842897	0.156425
996.015202	0.155311
996.187488	0.154366
996.359757	0.153279
996.532007	0.151114
996.704239	0.150687
996.876452	0.153130
997.048648	0.153742
997.220825	0.153478
997.392984	0.153608
997.565124	0.155013
997.737247	0.154768
997.909351	0.154686
998.081437	0.155368
998.253505	0.155004
998.425554	0.153749
998.597586	0.152386
998.769599	0.152998
998.941594	0.152046
999.113571	0.149802
999.285529	0.150111
999.457469	0.152371
999.629391	0.154174
999.801295	0.152223
999.973181	0.153942
1000.145048	0.154423
1000.316897	0.153424
1000.488728	0.154778
1000.660541	0.155143
1000.832335	0.156714
1001.004111	0.156478
1001.175869	0.155774
1001.347609	0.158039
1001.519331	0.155332
1001.691034	0.156743
1001.862719	0.155755
1002.034386	0.156997
1002.206035	0.159207
1002.377665	0.159496
1002.549277	0.157111
1002.720871	0.157104
1002.892447	0.156741
1003.064004	0.156539
1003.235544	0.153280
1003.407065	0.153524
1003.578568	0.150741
1003.750052	0.147183
1003.921519	0.144595
1004.092967	0.143217
1004.264397	0.142015
1004.435809	0.142259
1004.607202	0.142635
1004.778577	0.145404
1004.949934	0.146194
1005.121273	0.148646
1005.292594	0.151731
1005.463896	0.151119
1005.635180	0.154182
1005.806446	0.155196
1005.977694	0.154759
1006.148923	0.155664
1006.320135	0.154493
1006.491328	0.153688
1006.662503	0.151318
1006.833659	0.151891
1007.004798	0.154309
1007.175918	0.153888
1007.347020	0.153203
1007.518103	0.152902
1007.689169	0.153340
1007.860216	0.152095
1008.031245	0.153636
1008.202256	0.155186
1008.373248	0.152283
1008.544223	0.149643
1008.715179	0.148399
1008.886117	0.147902
1009.057036	0.147605
1009.227938	0.146466
1009.398821	0.146679
1009.569686	0.146435
1009.740533	0.144654
1009.911361	0.146332
1010.082172	0.148275
1010.252964	0.149167
1010.423738	0.150207
1010.594493	0.151173
1010.765231	0.150693
1010.935950	0.150987
1011.106651	0.151309
1011.277334	0.150822
1011.447998	0.152651
1011.618645	0.152225
1011.789273	0.151384
1011.959882	0.151895
1012.130474	0.150404
1012.301048	0.151198
1012.471603	0.152219
1012.642140	0.152011
1012.812658	0.152750
1012.983159	0.151802
1013.153641	0.150819
1013.324105	0.149778
1013.494551	0.151812
1013.664979	0.154001
1013.835388	0.153730
1014.005779	0.152542
1014.176152	0.152895
1014.346507	0.155279
1014.516843	0.155457
1014.687162	0.155542
1014.857462	0.157713
1015.027744	0.156067
1015.198007	0.155165
1015.368252	0.155017
1015.538480	0.156096
1015.708689	0.154885
1015.878879	0.153791
1016.049052	0.152425
1016.219206	0.153152
1016.389342	0.150150
1016.559460	0.148335
1016.729559	0.147108
1016.899641	0.148262
1017.069704	0.147424
1017.239749	0.147817
1017.409775	0.147684
1017.579784	0.148222
1017.749774	0.146755
1017.919746	0.150108
1018.089700	0.150615
1018.259635	0.151365
1018.429553	0.149446
1018.599452	0.150842
1018.769333	0.150427
1018.939195	0.150152
1019.109040	0.150656
1019.278866	0.151053
1019.448674	0.150320
1019.618464	0.151240
1019.788235	0.150328
1019.957989	0.151699
1020.127724	0.150676
1020.297441	0.150155
1020.467139	0.148998
1020.636820	0.147128
1020.806482	0.146209
1020.976126	0.147444
1021.145752	0.145308
1021.315359	0.146776
1021.484948	0.146973
1021.654519	0.146485
1021.824072	0.147024
1021.993607	0.147629
1022.163123	0.148272
1022.332621	0.149667
1022.502101	0.149404
1022.671563	0.149896
1022.841007	0.150100
1023.010432	0.150589
1023.179839	0.152707
1023.349228	0.152604
1023.518598	0.152847
1023.687951	0.154356
1023.857285	0.154543
1024.026601	0.150782
1024.195899	0.150818
1024.365178	0.151179
1024.534439	0.150945
1024.703682	0.148565
1024.872907	0.147696
1025.042114	0.146024
1025.211302	0.144552
1025.380472	0.143890
1025.549624	0.148651
1025.718758	0.150611
1025.887873	0.150170
1026.056970	0.148740
1026.226049	0.148129
1026.395110	0.148678
1026.564153	0.151110
1026.733177	0.151779
1026.902183	0.153241
1027.071171	0.150998
1027.240141	0.147713
1027.409092	0.145626
1027.578026	0.144575
1027.746940	0.146421
1027.915837	0.147367
1028.084716	0.148127
1028.253576	0.147179
1028.422418	0.146785
1028.591242	0.145661
1028.760048	0.147460
1028.928835	0.147431
1029.097604	0.148912
1029.266355	0.147897
1029.435088	0.146147
1029.603803	0.144739
1029.772499	0.144359
1029.941177	0.144454
1030.109837	0.145367
1030.278478	0.146011
1030.447102	0.147661
1030.615707	0.147096
1030.784294	0.147726
1030.952863	0.147804
1031.121413	0.147573
1031.289945	0.147205
1031.458460	0.146143
1031.626955	0.147419
1031.795433	0.146394
1031.963892	0.147685
1032.132334	0.148526
1032.300756	0.149139
1032.469161	0.150392
1032.637548	0.150611
1032.805916	0.152284
1032.974266	0.151845
1033.142598	0.150560
1033.310911	0.148873
1033.479207	0.146460
1033.647484	0.145224
1033.815743	0.144154
1033.983983	0.144170
1034.152206	0.145177
1034.320410	0.144673
1034.488596	0.146729
1034.656764	0.147497
1034.824914	0.151657
1034.993045	0.151774
1035.161158	0.151933
1035.329253	0.149441
1035.497330	0.149008
1035.665388	0.149306
1035.833428	0.149864
1036.001450	0.149409
1036.169454	0.148614
1036.337440	0.146041
1036.505407	0.145120
1036.673356	0.146381
1036.841287	0.149034
1037.009200	0.148016
1037.177094	0.146604
1037.344970	0.146660
1037.512828	0.146015
1037.680668	0.146521
1037.848489	0.148562
1038.016293	0.150234
1038.184078	0.148881
1038.351845	0.147411
1038.519593	0.147668
1038.687324	0.147147
1038.855036	0.146150
1039.022730	0.146280
1039.190406	0.145888
1039.358063	0.145417
1039.525702	0.144940
1039.693323	0.145822
1039.860926	0.146285
1040.028511	0.146315
1040.196077	0.147680
1040.363625	0.148170
1040.531155	0.148454
1040.698667	0.148995
1040.866161	0.148757
1041.033636	0.150300
1041.201093	0.149425
1041.368532	0.149650
1041.535952	0.148729
1041.703355	0.147513
1041.870739	0.147701
1042.038105	0.147029
1042.205452	0.145635
1042.372782	0.146051
1042.540093	0.144456
1042.707386	0.145661
1042.874661	0.145220
1043.041918	0.146110
1043.209156	0.146166
1043.376376	0.144777
1043.543578	0.145224
1043.710762	0.144821
1043.877927	0.143387
1044.045074	0.145942
1044.212203	0.146240
1044.379314	0.147190
1044.546407	0.148184
1044.713481	0.148468
1044.880537	0.148615
1045.047575	0.149486
1045.214595	0.150676
1045.381596	0.150266
1045.548579	0.149154
1045.715544	0.147985
1045.882491	0.148555
1046.049420	0.148794
1046.216330	0.147705
1046.383222	0.149642
1046.550096	0.147536
1046.716951	0.145895
1046.883789	0.144276
1047.050608	0.142287
1047.217409	0.144632
1047.384192	0.143534
1047.550956	0.141181
1047.717703	0.143069
1047.884431	0.142023
1048.051140	0.143067
1048.217832	0.142890
1048.384505	0.142729
1048.551161	0.143426
1048.717798	0.140419
1048.884416	0.141294
1049.051017	0.141039
1049.217599	0.139891
1049.384163	0.139574
1049.550709	0.139434
1049.717237	0.140823
1049.883746	0.144910
1050.050237	0.145979
1050.216710	0.148771
1050.383165	0.148090
1050.549601	0.148488
1050.716019	0.148067
1050.882420	0.147158
1051.048801	0.148374
1051.215165	0.150370
1051.381510	0.149246
1051.547837	0.147540
1051.714146	0.144228
1051.880437	0.144011
1052.046709	0.145513
1052.212964	0.148068
1052.379200	0.149437
1052.545417	0.148237
1052.711617	0.148040
1052.877798	0.147013
1053.043961	0.147752
1053.210106	0.147652
1053.376233	0.146738
1053.542341	0.145057
1053.708432	0.142058
1053.874504	0.141996
1054.040557	0.140859
1054.206593	0.139512
1054.372610	0.139089
1054.538609	0.141026
1054.704590	0.142563
1054.870553	0.143994
1055.036497	0.145742
1055.202424	0.148253
1055.368331	0.148233
1055.534221	0.146921
1055.700093	0.146094
1055.865946	0.148877
1056.031781	0.147334
1056.197598	0.149441
1056.363397	0.148098
1056.529177	0.146860
1056.694939	0.145424
1056.860683	0.144430
1057.026409	0.146679
1057.192116	0.146078
1057.357806	0.144512
1057.523477	0.144959
1057.689130	0.144103
1057.854764	0.145072
1058.020381	0.146480
1058.185979	0.146029
1058.351559	0.146792
1058.517120	0.148104
1058.682664	0.150490
1058.848189	0.148544
1059.013696	0.147919
1059.179185	0.149334
1059.344656	0.149122
1059.510108	0.148364
1059.675542	0.149451
1059.840958	0.150413
1060.006356	0.149361
1060.171735	0.147210
1060.337096	0.148679
1060.502439	0.146507
1060.667764	0.144366
1060.833071	0.144744
1060.998359	0.145141
1061.163629	0.142999
1061.328881	0.143710
1061.494115	0.144752
1061.659330	0.143559
1061.824527	0.144764
1061.989706	0.147082
1062.154867	0.146639
1062.320010	0.147568
1062.485134	0.149106
1062.650240	0.152671
1062.815328	0.148544
1062.980398	0.147832
1063.145449	0.148820
1063.310482	0.147701
1063.475497	0.148386
1063.640494	0.148696
1063.805473	0.148738
1063.970433	0.148351
1064.135375	0.145671
1064.300299	0.148828
1064.465204	0.147779
1064.630092	0.149074
1064.794961	0.150743
1064.959812	0.151963
1065.124645	0.154154
1065.289459	0.153461
1065.454256	0.153501
1065.619034	0.155439
1065.783793	0.155810
1065.948535	0.154626
1066.113258	0.152268
1066.277964	0.150374
1066.442651	0.148575
1066.607319	0.148841
1066.771970	0.149587
1066.936602	0.148425
1067.101216	0.146888
1067.265812	0.145952
1067.430389	0.147900
1067.594949	0.152705
1067.759490	0.153590
1067.924013	0.152248
1068.088518	0.151420
1068.253004	0.149291
1068.417472	0.146882
1068.581922	0.148642
1068.746354	0.148323
1068.910768	0.150192
1069.075163	0.147110
1069.239540	0.146080
1069.403899	0.146759
1069.568240	0.145821
1069.732562	0.146415
1069.896866	0.149067
1070.061152	0.151400
1070.225420	0.152072
1070.389670	0.150706
1070.553901	0.149683
1070.718114	0.150517
1070.882309	0.152128
1071.046486	0.151364
1071.210644	0.154149
1071.374784	0.151904
1071.538906	0.148297
1071.703010	0.145716
1071.867096	0.144045
1072.031163	0.145024
1072.195212	0.144869
1072.359243	0.145959
1072.523256	0.149194
1072.687250	0.144943
1072.851226	0.147245
1073.015184	0.149454
1073.179124	0.150923
1073.343045	0.152275
1073.506949	0.152554
1073.670834	0.154273
1073.834701	0.152310
1073.998549	0.149470
1074.162380	0.150541
1074.326192	0.150290
1074.489986	0.148557
1074.653761	0.149830
1074.817519	0.148756
1074.981258	0.148476
1075.144979	0.149102
1075.308682	0.149955
1075.472367	0.150234
1075.636033	0.150766
1075.799681	0.153235
1075.963311	0.152094
1076.126923	0.150671
1076.290516	0.152518
1076.454092	0.153969
1076.617649	0.152043
1076.781187	0.151881
1076.944708	0.153978
1077.108210	0.153958
1077.271695	0.153242
1077.435160	0.153001
1077.598608	0.155487
1077.762038	0.155366
1077.925449	0.156207
1078.088842	0.155752
1078.252217	0.155276
1078.415573	0.155130
1078.578912	0.157765
1078.742232	0.155163
1078.905534	0.157523
1079.068817	0.156639
1079.232083	0.156706
1079.395330	0.155884
1079.558559	0.154925
1079.721770	0.156032
1079.884962	0.151928
1080.048136	0.145963
1080.211293	0.149259
1080.374430	0.148516
1080.537550	0.146885
1080.700651	0.147912
1080.863735	0.149894
1081.026800	0.150231
1081.189846	0.146894
1081.352875	0.149110
1081.515885	0.154448
1081.678877	0.155569
1081.841851	0.155363
1082.004807	0.154864
1082.167744	0.153755
1082.330663	0.154382
1082.493564	0.155033
1082.656447	0.158347
1082.819312	0.159027
1082.982158	0.155898
1083.144986	0.155383
1083.307796	0.153223
1083.470587	0.154894
1083.633361	0.155749
1083.796116	0.149759
1083.958853	0.147609
1084.121571	0.148797
1084.284272	0.151803
1084.446954	0.154183
1084.609618	0.154870
1084.772264	0.157703
1084.934892	0.157328
1085.097501	0.156215
1085.260092	0.158747
1085.422665	0.160953
1085.585220	0.159924
1085.747756	0.154417
1085.910274	0.153431
1086.072774	0.151259
1086.235256	0.151111
1086.397720	0.150594
1086.560165	0.150386
1086.722592	0.153721
1086.885001	0.153089
1087.047392	0.150744
1087.209764	0.153244
1087.372119	0.154310
1087.534455	0.154099
1087.696772	0.152730
1087.859072	0.155431
1088.021353	0.157219
1088.183616	0.157019
1088.345861	0.158667
1088.508088	0.157526
1088.670296	0.157991
1088.832486	0.159978
1088.994658	0.159754
1089.156812	0.161854
1089.318948	0.163258
1089.481065	0.163752
1089.643164	0.164849
1089.805245	0.164702
1089.967308	0.166607
1090.129352	0.164272
1090.291378	0.162335
1090.453386	0.165097
1090.615376	0.161749
1090.777347	0.159092
1090.939301	0.157708
1091.101236	0.156598
1091.263153	0.156592
1091.425051	0.157658
1091.586932	0.159012
1091.748794	0.160669
1091.910638	0.160907
1092.072463	0.161812
1092.234271	0.162468
1092.396060	0.163113
1092.557831	0.158434
1092.719584	0.160676
1092.881319	0.159535
1093.043035	0.161746
1093.204733	0.160999
1093.366413	0.159758
1093.528075	0.159303
1093.689718	0.160670
1093.851343	0.160398
1094.012950	0.168009
1094.174539	0.166453
1094.336110	0.170382
1094.497662	0.168587
1094.659196	0.169278
1094.820712	0.167319
1094.982210	0.170907
1095.143689	0.171334
1095.305151	0.172230
1095.466594	0.170460
1095.628018	0.168712
1095.789425	0.165637
1095.950813	0.169048
1096.112183	0.168259
1096.273535	0.172835
1096.434869	0.172663
1096.596184	0.169917
1096.757482	0.167797
1096.918761	0.167173
1097.080021	0.169010
1097.241264	0.177136
1097.402488	0.174848
1097.563694	0.176882
1097.724882	0.175116
1097.886052	0.173748
1098.047203	0.173825
1098.208336	0.174245
1098.369451	0.172039
1098.530548	0.172598
1098.691627	0.166881
1098.852687	0.168291
1099.013729	0.160660
1099.174753	0.155344
1099.335758	0.154269
1099.496746	0.153071
1099.657715	0.155276
1099.818666	0.157167
1099.979599	0.156930
1100.140513	0.154002
1100.301409	0.150933
1100.462287	0.159161
1100.623147	0.165409
1100.783989	0.165266
1100.944812	0.167723
1101.105617	0.167546
1101.266404	0.166218
1101.427173	0.165042
1101.587923	0.164937
1101.748656	0.163639
1101.909370	0.162378
1102.070066	0.161164
1102.230743	0.160927
1102.391403	0.162780
1102.552044	0.158224
1102.712667	0.159058
1102.873271	0.157724
1103.033858	0.162748
1103.194426	0.165182
1103.354976	0.165026
1103.515508	0.163991
1103.676021	0.162235
1103.836517	0.160817
1103.996994	0.167783
1104.157453	0.166753
1104.317893	0.170979
1104.478316	0.168479
1104.638720	0.166710
1104.799106	0.166799
1104.959474	0.166204
1105.119823	0.169327
1105.280155	0.168080
1105.440468	0.168058
1105.600763	0.168200
1105.761039	0.167214
1105.921298	0.166193
1106.081538	0.166172
1106.241760	0.165228
1106.401964	0.166141
1106.562149	0.168956
1106.722316	0.169630
1106.882465	0.167202
1107.042596	0.162750
1107.202709	0.158896
1107.362803	0.164174
1107.522879	0.163532
1107.682937	0.160158
1107.842977	0.163776
1108.002999	0.166509
1108.163002	0.164466
1108.322987	0.162090
1108.482954	0.168347
1108.642902	0.172150
1108.802833	0.165275
1108.962745	0.169773
1109.122639	0.174489
1109.282515	0.174722
1109.442372	0.170027
1109.602211	0.176086
1109.762032	0.178574
1109.921835	0.178498
1110.081620	0.174367
1110.241386	0.180722
1110.401134	0.176014
1110.560864	0.177719
1110.720576	0.175916
1110.880269	0.178472
1111.039945	0.176826
1111.199602	0.177811
1111.359240	0.173576
1111.518861	0.174793
1111.678463	0.174706
1111.838047	0.176313
1111.997613	0.167007
1112.157161	0.165825
1112.316690	0.167221
1112.476202	0.163692
1112.635695	0.163921
1112.795169	0.166102
1112.954626	0.165661
1113.114064	0.160338
1113.273484	0.164793
1113.432886	0.173626
1113.592270	0.169156
1113.751635	0.171843
1113.910983	0.174412
1114.070312	0.172774
1114.229622	0.171114
1114.388915	0.173085
1114.548189	0.177970
1114.707445	0.172812
1114.866683	0.173726
1115.025903	0.176929
1115.185104	0.172020
1115.344287	0.173722
1115.503452	0.173199
1115.662599	0.178075
1115.821727	0.182157
1115.980838	0.179703
1116.139930	0.183316
1116.299004	0.180577
1116.458059	0.180023
1116.617097	0.184594
1116.776116	0.179820
1116.935117	0.184455
1117.094099	0.180115
1117.253064	0.180153
1117.412010	0.176354
1117.570938	0.176251
1117.729848	0.178212
1117.888740	0.176087
1118.047613	0.171338
1118.206468	0.178420
1118.365305	0.170548
1118.524124	0.170931
1118.682924	0.170607
1118.841707	0.172006
1119.000471	0.167655
1119.159216	0.165512
1119.317944	0.168380
1119.476653	0.163083
1119.635344	0.164662
1119.794017	0.174733
1119.952672	0.176107
1120.111308	0.173202
1120.269927	0.173355
1120.428527	0.176482
1120.587108	0.176297
1120.745672	0.177461
1120.904217	0.183221
1121.062744	0.176329
1121.221253	0.169466
1121.379744	0.174929
1121.538216	0.177476
1121.696671	0.179498
1121.855107	0.184755
1122.013524	0.191574
1122.171924	0.183480
1122.330305	0.181572
1122.488668	0.184004
1122.647013	0.183431
1122.805340	0.178380
1122.963648	0.172788
1123.121938	0.172049
1123.280210	0.165730
1123.438464	0.157059
1123.596700	0.165836
1123.754917	0.165224
1123.913116	0.161691
1124.071297	0.167814
1124.229459	0.167680
1124.387604	0.175661
1124.545730	0.174670
1124.703838	0.178113
1124.861928	0.174167
1125.019999	0.172035
1125.178052	0.175541
1125.336088	0.180350
1125.494104	0.168169
1125.652103	0.170638
1125.810083	0.169527
1125.968045	0.170082
1126.125989	0.166728
1126.283915	0.170665
1126.441823	0.174354
1126.599712	0.176458
1126.757583	0.173276
1126.915436	0.179134
1127.073270	0.177421
1127.231087	0.181997
1127.388885	0.177270
1127.546665	0.182932
1127.704426	0.185456
1127.862170	0.183487
1128.019895	0.181840
1128.177602	0.172755
1128.335291	0.178401
1128.492961	0.172999
1128.650614	0.163736
1128.808248	0.168017
1128.965864	0.163906
1129.123461	0.162366
1129.281041	0.161534
1129.438602	0.157202
1129.596145	0.166160
1129.753670	0.162735
1129.911176	0.172122
1130.068665	0.169151
1130.226135	0.173678
1130.383587	0.176161
1130.541020	0.178008
1130.698436	0.181841
1130.855833	0.185071
1131.013212	0.189488
1131.170573	0.193451
1131.327915	0.190119
1131.485239	0.190832
1131.642545	0.185075
1131.799833	0.179109
1131.957103	0.180121
1132.114354	0.180061
1132.271588	0.178776
1132.428803	0.168942
1132.585999	0.169189
1132.743178	0.159884
1132.900338	0.166181
1133.057480	0.170031
1133.214604	0.173943
1133.371710	0.166334
1133.528797	0.160133
1133.685866	0.160545
1133.842917	0.168948
1133.999950	0.166271
1134.156964	0.170269
1134.313960	0.175848
1134.470938	0.175334
1134.627898	0.174701
1134.784840	0.176634
1134.941763	0.189479
1135.098668	0.186494
1135.255555	0.191328
1135.412424	0.188222
1135.569274	0.184240
1135.726107	0.185457
1135.882921	0.180710
1136.039716	0.181041
1136.196494	0.185800
1136.353253	0.167965
1136.509995	0.165344
1136.666717	0.162317
1136.823422	0.163202
1136.980109	0.172511
1137.136777	0.159631
1137.293427	0.165809
1137.450059	0.169464
1137.606672	0.168473
1137.763267	0.177499
1137.919844	0.196210
1138.076403	0.188195
1138.232944	0.184521
1138.389466	0.190046
1138.545971	0.199486
1138.702457	0.195770
1138.858924	0.183158
1139.015374	0.190552
1139.171805	0.181307
1139.328218	0.175928
1139.484613	0.180404
1139.640990	0.184306
1139.797348	0.181977
1139.953688	0.189662
1140.110010	0.191964
1140.266314	0.206850
1140.422600	0.202936
1140.578867	0.210119
1140.735116	0.211188
1140.891347	0.205704
1141.047559	0.208980
1141.203754	0.207115
1141.359930	0.208910
1141.516088	0.205584
1141.672228	0.199792
1141.828349	0.195323
1141.984452	0.197705
1142.140537	0.187171
1142.296604	0.189714
1142.452653	0.183990
1142.608683	0.180562
1142.764695	0.163874
1142.920689	0.158790
1143.076665	0.162018
1143.232622	0.170286
1143.388562	0.176939
1143.544483	0.179824
1143.700385	0.191588
1143.856270	0.190527
1144.012136	0.184296
1144.167985	0.180952
1144.323814	0.197417
1144.479626	0.198221
1144.635420	0.198002
1144.791195	0.189220
1144.946952	0.180483
1145.102691	0.170593
1145.258411	0.170800
1145.414113	0.184463
1145.569798	0.192977
1145.725463	0.183649
1145.881111	0.169786
1146.036741	0.167543
1146.192352	0.161265
1146.347945	0.174360
1146.503519	0.171095
1146.659076	0.174713
1146.814614	0.166753
1146.970134	0.168026
1147.125636	0.161461
1147.281120	0.172241
1147.436585	0.175470
1147.592032	0.188572
1147.747461	0.185826
1147.902872	0.196943
1148.058265	0.195879
1148.213639	0.196560
1148.368995	0.199669
1148.524333	0.213233
1148.679653	0.205886
1148.834954	0.203903
1148.990237	0.202617
1149.145502	0.204687
1149.300749	0.198049
1149.455977	0.194680
1149.611188	0.206414
1149.766380	0.200148
1149.921553	0.199623
1150.076709	0.204144
1150.231846	0.202857
1150.386966	0.201217
1150.542066	0.196334
1150.697149	0.194361
1150.852214	0.193926
1151.007260	0.183680
1151.162288	0.176894
1151.317298	0.172768
1151.472289	0.175663
1151.627263	0.165980
1151.782218	0.167205
1151.937155	0.172003
1152.092073	0.172702
1152.246974	0.182325
1152.401856	0.168903
1152.556720	0.179122
1152.711566	0.170673
1152.866393	0.178221
1153.021203	0.186188
1153.175994	0.190657
1153.330767	0.190161
1153.485521	0.178393
1153.640258	0.175026
1153.794976	0.168957
1153.949676	0.172512
1154.104358	0.193181
1154.259021	0.182546
1154.413667	0.187642
1154.568294	0.173878
1154.722903	0.161464
1154.877493	0.188253
1155.032066	0.174244
1155.186620	0.197628
1155.341156	0.182903
1155.495674	0.164779
1155.650173	0.158876
1155.804654	0.145119
1155.959118	0.147629
1156.113562	0.152902
1156.267989	0.143387
1156.422397	0.156827
1156.576788	0.164676
1156.731160	0.173503
1156.885513	0.172885
1157.039849	0.187588
1157.194166	0.190169
1157.348465	0.188133
1157.502746	0.179917
1157.657009	0.189667
1157.811253	0.178736
1157.965479	0.173675
1158.119687	0.167301
1158.273877	0.176549
1158.428048	0.157174
1158.582201	0.159454
1158.736337	0.174020
1158.890453	0.184295
1159.044552	0.168322
1159.198632	0.181725
1159.352694	0.167024
1159.506738	0.176034
1159.660764	0.171666
1159.814771	0.188797
1159.968761	0.190952
1160.122732	0.154762
1160.276685	0.160049
1160.430619	0.167845
1160.584535	0.156821
1160.738434	0.155292
1160.892313	0.150419
1161.046175	0.161139
1161.200019	0.140292
1161.353844	0.144055
1161.507651	0.155373
1161.661440	0.154242
1161.815210	0.130926
1161.968962	0.134782
1162.122697	0.129431
1162.276412	0.126893
1162.430110	0.116744
1162.583789	0.127928
1162.737451	0.120139
1162.891094	0.134025
1163.044718	0.126291
1163.198325	0.140267
1163.351913	0.139128
1163.505483	0.166514
1163.659035	0.175741
1163.812569	0.188815
1163.966084	0.197666
1164.119581	0.199084
1164.273060	0.183664
1164.426521	0.187826
1164.579964	0.175140
1164.733388	0.184375
1164.886794	0.176845
1165.040182	0.169020
1165.193551	0.170982
1165.346903	0.156454
1165.500236	0.165172
1165.653551	0.178784
1165.806848	0.175646
1165.960126	0.175283
1166.113386	0.144139
1166.266628	0.150976
1166.419852	0.150491
1166.573058	0.129018
1166.726245	0.138371
1166.879414	0.124829
1167.032565	0.128770
1167.185698	0.125894
1167.338812	0.160708
1167.491909	0.193629
1167.644987	0.176025
1167.798046	0.154856
1167.951088	0.174052
1168.104111	0.180474
1168.257117	0.185564
1168.410103	0.189641
1168.563072	0.184098
1168.716023	0.171749
1168.868955	0.172488
1169.021869	0.176286
1169.174765	0.190178
1169.327642	0.170574
1169.480501	0.182670
1169.633343	0.180977
1169.786165	0.149689
1169.938970	0.158949
1170.091757	0.161867
1170.244525	0.172719
1170.397275	0.157648
1170.550007	0.149288
1170.702720	0.153108
1170.855415	0.127211
1171.008092	0.136285
1171.160751	0.159042
1171.313392	0.161590
1171.466014	0.098644
1171.618619	0.187522
1171.771205	0.187522
1171.923772	0.187522
