sample name	sample
index	1198
start time	 04-26-2021  12:34:58 PM
880	0.467461
Peak Time (s)	91.037
Peak Height 	0.4675
calc peak height	90,93
Baseline Time (s)	9.537
Baseline Value 	-0.003118
subtract baseline	10,4
Abs	0.295419
Peak Time (s)	92.038
Peak Height 	0.2954
calc peak height	90,93
Baseline Time (s)	9.537
Baseline Value 	0.003758
subtract baseline	10,3
PK_550	0.172496
Peak Time (s)	90.54
Peak Height 	0.1725
calc peak height	90,93
Baseline Time (s)	10.534
Baseline Value 	1.7392E-4
subtract baseline	10,2
PK_880	0.284006
Peak Time (s)	92.038
Peak Height 	0.284
calc peak height	90,93
Baseline Time (s)	9.537
Baseline Value 	-7.5214E-4
subtract baseline	10,1


Time (s)	A880-A510	A880-A775	A880-A975	A880	I510	I775	I975	I880	
0.034500	-0.000025	0.000742	-0.005880	0.004019	6138.177266	43477.296440	3860.017898	22477.023625
0.537500	0.000351	0.000013	-0.004712	0.004694	6135.958530	43346.465507	3861.128134	22446.641286
1.037500	0.001390	-0.000427	0.001841	0.003209	6154.761608	43443.716926	3879.387072	22513.557573
1.537000	-0.000931	0.000364	-0.004045	0.006612	6112.278344	43200.839601	3858.316523	22360.513833
2.035500	0.003667	-0.000367	-0.004245	0.000765	6190.218942	43677.936907	3871.071100	22624.214335
2.536000	0.000824	-0.000707	-0.004381	0.000244	6172.733340	43695.007732	3871.949777	22647.926502
3.039000	0.002403	-0.000002	-0.000291	-0.001485	6197.676258	43924.100156	3885.277469	22726.663660
3.536500	-0.001054	0.000081	-0.001674	0.003938	6131.136117	43423.154327	3869.703622	22480.670602
4.036500	0.002525	0.000484	-0.003880	0.000713	6182.006812	43762.834111	3872.022282	22626.613774
4.537000	0.000404	0.000177	-0.005076	0.000594	6166.956257	43745.189776	3869.573777	22632.014213
5.037000	0.001361	-0.001152	-0.006070	-0.000409	6181.687979	43714.507342	3869.592489	22677.616926
5.534500	-0.000874	-0.001052	-0.003771	-0.000248	6163.686109	43708.784779	3874.456877	22670.269340
6.035500	0.002050	-0.000145	-0.000784	0.000444	6180.451434	43728.979626	3879.709022	22638.821849
6.535500	0.001144	-0.000043	-0.007415	0.000191	6175.533218	43762.321009	3865.186642	22650.303623
7.035500	0.001082	0.000056	-0.005677	0.000608	6171.936727	43732.512397	3868.178654	22631.367207
7.539000	-0.000566	0.000003	0.003332	0.000432	6160.903573	43744.087950	3889.221781	22639.382551
8.036000	0.004055	-0.000368	0.006620	0.000485	6195.274563	43704.128721	3896.737141	22636.938982
8.536500	-0.000550	0.000397	0.002601	0.000440	6160.959108	43780.291530	3887.511386	22638.981277
9.036500	0.000848	0.000497	-0.003594	0.000152	6173.605943	43816.899722	3873.949811	22652.107471
9.537000	0.000000	0.000017	0.000000	0.000000	6168.378874	43785.998676	3882.528516	22659.002069
10.037500	0.001365	-0.000283	0.000531	-0.000264	6180.618682	43782.476031	3884.358151	22670.993472
10.534500	0.002485	0.000000	0.000940	0.000553	6182.910789	43732.389147	3883.418537	22633.873313
11.035500	-0.000341	-0.000314	-0.002599	-0.000534	6169.826937	43805.025613	3877.789463	22683.286913
11.535500	-0.000164	-0.000154	-0.000417	-0.000189	6168.563810	43787.660003	3882.003789	22667.603685
12.038500	0.000919	-0.000793	-0.000060	-0.000673	6180.342390	43773.073388	3883.939133	22689.624421
12.536000	-0.000125	-0.000099	-0.002877	-0.000043	6167.762899	43779.059240	3876.033004	22660.966246
13.036500	0.000547	-0.000212	0.000162	-0.001538	6184.061660	43909.236719	3886.446388	22729.078083
13.536500	-0.001229	-0.000566	-0.004610	0.004022	6129.220156	43355.034355	3862.872113	22476.901530
14.039500	0.000238	-0.000399	-0.005728	0.002235	6153.436325	43537.391262	3864.381003	22557.609869
14.534000	0.000434	-0.000275	-0.000146	0.001597	6159.664903	43608.563422	3878.527038	22586.471151
15.034500	0.001129	-0.000022	0.000622	-0.001185	6185.787942	43893.946259	3886.693939	22712.996797
15.535000	-0.002193	-0.001010	-0.003152	0.002422	6133.935155	43462.839555	3869.790241	22549.143798
16.035000	0.000807	0.000390	0.003245	-0.000491	6178.137093	43867.313762	3891.159449	22681.359587
16.535500	0.000426	-0.000060	-0.001404	-0.000753	6177.241120	43849.634289	3881.033380	22693.303912
17.035500	0.004470	0.001228	-0.002018	-0.002046	6217.635840	44093.461499	3882.593516	22752.284715
17.536500	-0.001374	-0.000277	0.007609	0.002008	6143.102992	43569.947777	3895.492723	22567.862038
18.036000	0.000194	-0.000314	-0.005997	0.000739	6164.293438	43685.439140	3867.155415	22625.431399
18.536500	0.002156	0.000200	-0.000063	0.001467	6173.550951	43665.268902	3879.013895	22592.361538
19.037000	0.000519	-0.000260	-0.000629	0.000694	6167.066932	43694.717106	3879.490458	22627.441204
19.537500	0.000222	-0.000376	0.000826	0.001989	6155.149070	43562.479382	3879.857696	22568.741175
20.037000	-0.001545	-0.000439	-0.000799	0.000775	6151.017041	43670.355993	3878.916069	22623.781778
20.534500	-0.000663	-0.001048	0.000831	-0.000044	6163.739717	43689.971216	3884.542373	22660.997499
21.035500	-0.001296	0.000101	-0.001392	0.001562	6147.003987	43647.133274	3875.757119	22588.071258
21.538000	0.002507	0.000822	-0.001444	0.002091	6171.497536	43665.129393	3874.430952	22564.097327
22.036000	-0.001439	0.000040	-0.000383	0.000960	6150.424337	43697.914956	3879.444394	22615.370240
22.536000	-0.000786	-0.000830	-0.005250	0.000397	6159.510205	43669.050240	3869.624576	22640.944187
23.036500	0.002162	-0.000028	0.003980	0.000922	6177.699384	43695.117725	3889.587901	22617.126736
23.537000	-0.000905	0.001472	0.003273	0.002907	6139.903746	43649.642239	3883.371646	22527.223650
24.037000	0.001609	-0.000167	-0.000972	0.001126	6172.000761	43662.922847	3877.714703	22607.836908
24.534500	0.002312	0.000389	-0.004170	0.001546	6174.131797	43675.594770	3869.466570	22588.787294
25.035000	-0.000482	0.000579	0.001684	0.001479	6153.698684	43699.827543	3883.001551	22591.844210
25.535000	0.001272	0.000324	-0.006602	0.001227	6168.719694	43699.568630	3864.684534	22603.283993
26.035500	0.000761	-0.000189	-0.004275	0.000816	6167.967994	43689.982880	3870.888978	22621.931187
26.536000	-0.000884	0.000056	-0.001191	0.000791	6155.838910	43715.269121	3877.980071	22623.056172
27.036500	0.003112	0.000526	0.000571	-0.000871	6198.400734	43916.006360	3885.850585	22698.679529
27.536000	0.003225	0.000129	-0.002104	0.001067	6184.609304	43696.191518	3875.260725	22610.522505
28.036000	0.001543	0.000058	0.002984	-0.001144	6188.604274	43897.637234	3892.068697	22711.123255
28.536500	0.002435	-0.000019	-0.000279	-0.000223	6188.376649	43803.548948	3882.399448	22669.127087
29.034500	0.001003	-0.000357	-0.004168	-0.001108	6184.255045	43855.011623	3875.514215	22709.447162
29.534500	-0.002028	-0.000790	-0.004062	0.002819	6132.221078	43446.312538	3866.827992	22531.199831
30.035000	0.000844	0.000176	-0.004419	-0.000336	6177.239440	43832.471416	3873.180975	22674.275416
30.535500	0.001524	0.000115	0.000112	0.002248	6162.952097	43584.137673	3877.628152	22556.989907
31.038000	-0.002991	-0.000100	-0.001098	0.001352	6135.954923	43648.046390	3876.910475	22597.607117
31.536000	0.000109	0.000563	-0.002752	0.003767	6141.051504	43484.090287	3867.647161	22488.386283
32.036000	0.001406	0.000147	-0.000403	-0.000692	6184.164282	43863.427540	3883.195395	22690.523531
32.536000	0.001580	-0.000194	0.005428	-0.000692	6185.469801	43831.183571	3896.703333	22690.489268
33.036500	0.001592	0.000648	0.004327	-0.000628	6185.073298	43904.524869	3893.989616	22687.579568
33.538000	-0.000129	-0.000583	-0.002879	0.000823	6161.240489	43652.319371	3874.049513	22621.593382
34.037000	0.000998	-0.000227	-0.005287	0.001704	6163.088662	43603.149303	3866.578100	22581.651118
34.537000	0.001352	0.000092	-0.000906	0.001674	6165.965173	43635.801784	3876.612574	22582.990308
35.035500	0.000295	-0.000533	-0.001677	0.000804	6164.558316	43658.741658	3876.836852	22622.448843
35.535500	0.000696	0.000764	-0.001175	0.002263	6156.640217	43643.572579	3874.650945	22556.310174
36.035500	-0.000756	0.000452	0.004365	0.002066	6147.274943	43632.765489	3887.829049	22565.229171
36.536000	-0.001659	0.000177	0.000906	0.001840	6142.230884	43628.176594	3880.381684	22575.463682
37.035500	-0.000436	0.000016	0.000125	0.001774	6151.842063	43619.341344	3878.743415	22578.471236
37.537000	-0.000535	0.000235	-0.003207	0.002005	6149.378755	43618.200790	3870.613472	22567.999630
38.037000	-0.000146	0.000064	-0.003611	0.001734	6154.308978	43627.627457	3870.312645	22580.300800
38.537000	0.001351	0.000465	0.000008	0.002232	6161.777065	43618.557812	3877.427543	22557.750555
39.037500	-0.000155	0.000419	-0.001334	0.001873	6153.204303	43647.836880	3875.180182	22574.000173
39.535500	0.001543	0.001428	0.000558	0.003330	6155.000597	43605.801532	3876.172229	22508.091381
40.035500	-0.000080	0.000428	0.001396	0.002153	6151.671999	43622.480637	3880.789805	22561.318688
40.538000	0.000026	0.000664	-0.004463	0.002119	6152.713085	43647.709126	3867.504407	22562.842334
41.036000	0.000106	0.000095	-0.003656	0.001807	6155.639350	43623.600298	3870.041028	22576.961910
41.536000	-0.002953	-0.000220	0.001885	0.001975	6131.613847	43578.419450	3882.321228	22569.372869
42.036000	0.002181	0.000715	-0.000757	0.002514	6165.885427	43615.531295	3875.035621	22544.987888
42.536500	0.001456	0.001093	-0.002797	0.002615	6159.695882	43641.428362	3870.159373	22540.404171
43.037000	0.000195	0.000992	0.001658	0.002816	6148.771624	43613.131736	3879.868369	22531.317535
43.537000	-0.000567	0.000920	-0.001194	0.002244	6147.355924	43660.005424	3874.652597	22557.193343
44.035000	0.002921	0.000392	-0.002168	-0.000401	6193.395312	43859.007690	3878.472195	22677.229247
44.537000	0.002533	0.001078	-0.001334	-0.000043	6187.762847	43889.964986	3879.564236	22660.970875
45.037500	0.001347	0.000813	0.002720	-0.000520	6182.416507	43909.944170	3890.008192	22682.686534
45.535500	0.000416	-0.000337	-0.004870	0.003984	6141.721186	43379.972565	3862.372173	22478.615315
46.036000	0.002770	0.000810	-0.002806	-0.000494	6192.958640	43907.135294	3877.224386	22681.474434
46.536000	0.003030	0.000212	0.002692	-0.000982	6198.625740	43896.823874	3891.015937	22703.736054
47.036500	0.000406	0.000042	-0.004394	0.002152	6155.302285	43586.274127	3867.583900	22561.328495
47.537000	-0.000803	0.000317	-0.003088	0.003806	6133.983180	43457.536892	3866.799366	22486.645216
48.034500	0.002592	0.000424	-0.003707	-0.000546	6192.006539	43875.700584	3875.285289	22683.844819
48.535000	0.001554	0.001550	0.001929	0.000245	6178.216146	43907.285185	3886.407915	22647.855151
49.035000	0.002120	0.000224	-0.000008	-0.001132	6192.864221	43912.041695	3885.117433	22710.552327
49.535500	0.000925	0.000679	0.003837	0.002570	6156.060458	43606.929744	3885.448539	22542.460183
50.035500	0.002729	0.000281	0.001234	0.005013	6151.288590	43341.642767	3873.874449	22432.274449
50.535500	0.035431	-0.020694	0.055461	0.641707	3716.661868	11819.395390	3142.646716	7411.041523
51.036000	0.008251	-0.026272	-0.017870	0.034867	5974.678374	38419.554538	3768.311454	21134.892881
51.536500	0.006800	-0.071691	-0.018620	-0.242160	8690.513844	63422.945276	4554.928191	37406.226767
52.037000	0.011278	-0.052118	-0.007636	-0.211212	8348.701973	61858.988759	4479.840919	35033.032634
52.537000	0.013256	-0.075264	-0.000127	-0.253107	8926.859767	64458.835030	4672.150193	38287.011375
53.037000	0.017043	-0.046575	0.006989	-0.206690	8364.309658	61997.722141	4517.411641	34700.268691
53.535000	0.012809	-0.027627	0.007213	-0.157481	7732.747553	58022.092225	4343.145840	31293.960961
54.034500	0.017671	-0.020481	0.009554	-0.142872	7625.724350	57083.644980	4302.497985	30354.867640
54.538000	0.012956	-0.019383	0.005716	-0.150266	7654.904290	58152.915065	4314.164204	30826.244827
55.036000	0.029496	-0.014390	0.022592	-0.141570	7741.383903	57684.004756	4341.361668	30272.662011
55.535500	0.039082	-0.003048	0.036119	-0.086248	7258.446177	52410.776786	4207.616358	26999.122767
56.036500	0.058183	0.009250	0.055159	-0.026719	6871.923709	47311.967567	4089.768205	23912.637381
56.536500	0.070543	0.020675	0.069991	0.035950	6438.544241	42372.461324	3963.972008	21089.499952
57.037000	0.082127	0.030653	0.078772	0.089287	6115.096207	38624.827333	3858.633652	18987.639577
57.537000	0.101867	0.041811	0.096644	0.134801	5930.418629	35910.018383	3798.513012	17387.302438
58.034500	0.113256	0.053970	0.111375	0.181721	5693.135724	33373.253149	3733.160523	15904.024903
58.537500	0.130713	0.061796	0.128108	0.231766	5491.935811	30553.127458	3670.435715	14488.952787
59.035000	0.145341	0.068762	0.147058	0.244133	5505.417549	30211.736321	3682.453853	14163.695864
59.535500	0.164319	0.081437	0.164222	0.237799	5661.186440	31432.335611	3726.863054	14329.136429
60.035500	0.181094	0.092084	0.185437	0.262580	5610.930287	30519.692324	3719.969267	13695.401102
60.536000	0.193838	0.103006	0.201325	0.311440	5395.395698	28211.930377	3658.826077	12547.007861
61.036000	0.203592	0.111869	0.205281	0.327145	5361.571808	27816.768157	3638.137347	12204.495481
61.536500	0.213145	0.120696	0.211987	0.350809	5283.193600	26980.947651	3609.244517	11711.230459
62.037000	0.218221	0.124739	0.223354	0.357401	5274.929542	26840.202640	3617.267700	11578.547186
62.537000	0.222784	0.127994	0.219365	0.356584	5304.403413	27065.417685	3611.928023	11594.875764
63.053500	0.231183	0.132562	0.235836	0.357331	5346.970622	27278.699222	3638.778233	11579.943590
63.535000	0.235257	0.135204	0.236467	0.360697	5350.945829	27238.161852	3634.039093	11512.953759
64.038000	0.234608	0.137171	0.234530	0.365020	5323.153970	27106.609900	3623.299938	11427.661313
64.535500	0.236012	0.138983	0.240778	0.369218	5307.683887	26974.231935	3626.799910	11345.669493
65.036500	0.242581	0.142253	0.244813	0.374670	5313.861376	26853.701089	3624.379896	11240.345120
65.535500	0.248151	0.144145	0.248944	0.378311	5324.556874	26757.546333	3625.214695	11170.728653
66.036500	0.245770	0.145138	0.250084	0.381419	5294.231003	26641.769800	3621.862950	11111.777209
66.537000	0.249931	0.148285	0.253693	0.384747	5298.810425	26631.912722	3622.340270	11049.107108
67.037000	0.249956	0.149273	0.262378	0.386584	5288.863121	26585.620324	3634.079734	11014.725674
67.537000	0.254503	0.153027	0.257673	0.392026	5283.966397	26493.848796	3616.750788	10913.716730
68.034500	0.260274	0.155410	0.263455	0.392044	5315.619774	26622.515059	3626.543116	10913.372036
68.535500	0.254435	0.154024	0.264850	0.392248	5282.381078	26535.946621	3628.585065	10909.622577
69.036500	0.258683	0.155346	0.260410	0.395242	5289.238180	26445.219388	3615.940484	10854.603635
69.535000	0.255720	0.156167	0.256491	0.401917	5237.021451	26130.427570	3598.294993	10733.334849
70.037000	0.263977	0.158810	0.269329	0.401640	5283.201801	26286.943752	3620.205901	10738.332862
70.536500	0.262717	0.159404	0.267673	0.403539	5265.996642	26216.810136	3614.200636	10704.137778
71.037000	0.268353	0.160290	0.267324	0.407646	5274.308675	26044.758626	3606.742443	10630.705972
71.537000	0.263557	0.160575	0.265086	0.410040	5235.484008	25932.766909	3599.072091	10588.225989
72.034500	0.268611	0.163029	0.278888	0.409521	5265.518763	26090.781417	3623.054780	10597.414267
72.537500	0.266049	0.163227	0.272211	0.411240	5242.417842	26009.816651	3608.899209	10567.028742
73.035500	0.267223	0.165422	0.272425	0.416088	5222.764494	25869.269175	3601.201796	10481.944483
73.538000	0.269359	0.164543	0.276527	0.416000	5234.641099	25827.575541	3608.158999	10483.490325
74.035500	0.271148	0.166077	0.271777	0.418063	5233.171593	25799.635368	3596.880847	10447.552760
74.535500	0.273842	0.167629	0.281608	0.421261	5230.482440	25713.203070	3607.857861	10392.215864
75.036500	0.268756	0.165837	0.273496	0.422877	5194.945361	25535.127218	3591.817968	10364.400700
75.536500	0.271917	0.168520	0.270410	0.428269	5183.233384	25394.521825	3578.126032	10272.323746
76.036500	0.271043	0.168969	0.272725	0.426145	5189.790676	25528.041095	3585.262052	10308.463065
76.537500	0.274054	0.169675	0.277443	0.426940	5201.453591	25523.377292	3591.627876	10294.912103
77.036500	0.272817	0.168956	0.277625	0.429362	5182.225204	25360.537957	3587.985373	10253.797630
77.534500	0.277881	0.170270	0.285126	0.429857	5206.255647	25402.853532	3599.439640	10245.423334
78.038000	0.277694	0.170644	0.284751	0.430493	5201.909235	25389.335271	3597.774620	10234.680790
78.535500	0.276850	0.171520	0.282072	0.432141	5188.796133	25349.466039	3590.696232	10206.918625
79.036000	0.275564	0.172510	0.282248	0.436515	5159.290443	25175.457190	3583.894487	10133.730473
79.535500	0.274850	0.174312	0.277859	0.435985	5158.337799	25295.228180	3577.700025	10142.561004
80.036500	0.279110	0.174586	0.274762	0.438017	5169.898833	25204.830906	3569.550992	10108.753415
80.536500	0.280105	0.175938	0.278678	0.440280	5163.309327	25158.184013	3572.167038	10071.303876
81.037000	0.278035	0.176521	0.296362	0.442475	5141.293019	25075.866564	3597.165150	10035.172018
81.537000	0.279102	0.175652	0.281116	0.443337	5142.344283	24987.752613	3571.187609	10021.032829
82.034500	0.281034	0.176020	0.285220	0.445454	5141.392627	24899.086155	3574.338744	9986.407891
82.535000	0.280518	0.175900	0.283941	0.446620	5132.771642	24834.186080	3570.461756	9967.426986
83.038000	0.278051	0.174879	0.284515	0.452232	5091.803340	24502.203958	3562.542027	9876.730824
83.535500	0.279211	0.174449	0.279201	0.449504	5111.418940	24616.604024	3558.509960	9920.664393
84.036000	0.277463	0.172416	0.278618	0.449504	5102.578286	24515.340131	3557.605067	9920.666287
84.536000	0.281421	0.173652	0.284193	0.452454	5107.669481	24430.298327	3561.691306	9873.151830
85.036000	0.278271	0.172929	0.280428	0.457848	5064.855031	24129.620380	3547.541140	9787.116632
85.536500	0.281864	0.172221	0.282808	0.454112	5101.529641	24277.952769	3556.957123	9846.596501
86.036500	0.280748	0.173425	0.285340	0.455289	5089.992619	24279.284706	3559.061593	9827.812173
86.548000	0.277606	0.172192	0.278199	0.455814	5071.663220	24193.047288	3547.244512	9819.448347
87.039000	0.278781	0.173018	0.290034	0.462129	5046.227699	23925.946291	3555.731107	9719.590586
87.535000	0.281948	0.173303	0.289615	0.461498	5064.992535	23970.315555	3556.060269	9729.509372
88.035500	0.280317	0.172679	0.296149	0.459286	5067.878236	24047.376723	3569.737624	9764.364156
88.536000	0.284092	0.172370	0.289295	0.459684	5084.724245	24013.048302	3558.377655	9758.083984
89.035000	0.281748	0.172643	0.286446	0.464993	5046.736952	23769.969597	3545.821122	9674.791146
89.536000	0.282716	0.171938	0.290233	0.464870	5052.105625	23742.037920	3551.808812	9676.702288
90.039000	0.281807	0.171693	0.291258	0.460952	5067.006720	23918.844128	3559.457991	9738.099860
90.539500	0.283372	0.172496	0.287587	0.462451	5067.330592	23885.216091	3551.460198	9714.544440
91.037000	0.278649	0.170734	0.291601	0.467461	5019.517836	23561.049901	3549.930875	9636.420660
91.537000	0.279624	0.171256	0.282727	0.466353	5029.658031	23638.569752	3538.122591	9653.615047
92.037500	0.284006	0.171183	0.295419	0.463426	5065.636130	23775.129894	3562.087928	9699.269199
92.534500	0.278887	0.169029	0.291783	0.462285	5045.983720	23726.563584	3558.202522	9717.152279
93.062500	0.280828	0.169967	0.292433	0.469721	5019.122815	23417.699244	3547.743694	9601.463150
93.535500	0.282959	0.168930	0.293427	0.465913	5048.166882	23548.874985	3555.127867	9660.460253
94.035500	0.280556	0.168586	0.286918	0.464387	5043.852734	23605.070018	3547.468256	9684.251865
94.536500	0.283436	0.169809	0.287495	0.465685	5051.638567	23601.466037	3546.366438	9664.009407
95.036000	0.280381	0.168894	0.291062	0.471069	5010.428212	23303.853132	3543.599754	9580.710253
95.539000	0.281409	0.166567	0.285864	0.468321	5028.767839	23323.584536	3539.886779	9623.096536
96.036500	0.284806	0.167749	0.297543	0.466203	5055.846783	23479.114742	3561.068374	9655.943227
