sample name	sample
index	711
start time	 03-25-2021  11:11:19 AM


Wavelength (nm)	Absorbance
494.344910	0.121195
494.563924	0.121195
494.782919	0.121195
495.001897	-0.003219
495.220856	-0.016439
495.439797	-0.030438
495.658719	-0.030248
495.877624	-0.038358
496.096510	-0.039156
496.315378	-0.020779
496.534227	-0.010874
496.753059	-0.004124
496.971872	-0.011461
497.190667	0.053205
497.409444	0.069206
497.628203	0.071596
497.846943	0.074328
498.065665	0.075510
498.284369	0.077111
498.503055	0.077740
498.721723	0.078017
498.940372	0.079415
499.159003	0.079394
499.377616	0.080473
499.596210	0.080831
499.814787	0.080842
500.033345	0.081862
500.251885	0.082448
500.470406	0.084038
500.688910	0.084416
500.907395	0.083768
501.125862	0.084271
501.344311	0.083461
501.562742	0.083363
501.781154	0.083466
501.999548	0.084058
502.217924	0.084143
502.436282	0.083761
502.654621	0.084377
502.872942	0.085569
503.091245	0.085524
503.309530	0.084599
503.527797	0.085490
503.746045	0.084950
503.964275	0.082980
504.182487	0.082985
504.400681	0.082354
504.618856	0.081359
504.837013	0.080067
505.055152	0.080329
505.273273	0.081467
505.491376	0.081119
505.709460	0.081769
505.927526	0.082755
506.145574	0.082408
506.363604	0.082451
506.581615	0.083229
506.799608	0.084677
507.017583	0.084853
507.235540	0.085151
507.453478	0.084752
507.671399	0.085618
507.889301	0.086469
508.107185	0.086405
508.325050	0.087527
508.542898	0.087701
508.760727	0.086925
508.978538	0.086751
509.196330	0.087073
509.414105	0.087225
509.631861	0.086413
509.849599	0.084993
510.067319	0.085062
510.285021	0.084367
510.502704	0.084706
510.720369	0.084227
510.938016	0.084169
511.155645	0.083792
511.373255	0.084031
511.590848	0.084537
511.808422	0.086189
512.025977	0.086782
512.243515	0.087348
512.461034	0.086641
512.678536	0.087381
512.896018	0.087681
513.113483	0.087058
513.330930	0.086707
513.548358	0.086452
513.765768	0.086084
513.983160	0.085989
514.200533	0.085739
514.417889	0.085949
514.635226	0.086257
514.852545	0.086270
515.069845	0.087675
515.287128	0.087841
515.504392	0.087853
515.721638	0.088221
515.938866	0.088069
516.156075	0.088050
516.373267	0.088240
516.590440	0.088159
516.807594	0.087698
517.024731	0.087578
517.241850	0.088523
517.458950	0.088944
517.676032	0.087970
517.893095	0.087765
518.110141	0.087973
518.327168	0.088127
518.544177	0.087934
518.761168	0.088409
518.978141	0.088113
519.195095	0.087664
519.412031	0.087091
519.628949	0.087940
519.845849	0.088454
520.062731	0.088077
520.279594	0.088470
520.496439	0.089138
520.713266	0.089810
520.930074	0.089787
521.146865	0.089915
521.363637	0.090498
521.580391	0.090600
521.797127	0.090668
522.013844	0.091063
522.230543	0.091105
522.447224	0.091002
522.663887	0.091152
522.880532	0.091597
523.097158	0.092112
523.313766	0.092154
523.530356	0.092750
523.746928	0.093123
523.963481	0.093472
524.180017	0.093652
524.396534	0.094103
524.613032	0.093912
524.829513	0.093699
525.045975	0.094118
525.262420	0.094293
525.478845	0.094030
525.695253	0.093546
525.911643	0.093389
526.128014	0.093628
526.344367	0.093369
526.560702	0.093167
526.777018	0.093875
526.993316	0.094185
527.209597	0.095111
527.425858	0.095430
527.642102	0.095727
527.858328	0.096173
528.074535	0.096450
528.290724	0.097015
528.506894	0.097606
528.723047	0.097720
528.939181	0.097392
529.155297	0.096909
529.371395	0.096820
529.587475	0.097601
529.803536	0.098029
530.019579	0.098553
530.235604	0.098839
530.451611	0.098887
530.667600	0.098911
530.883570	0.099192
531.099522	0.099432
531.315456	0.099459
531.531372	0.099916
531.747269	0.099674
531.963148	0.099215
532.179009	0.099391
532.394852	0.099477
532.610676	0.099710
532.826482	0.099484
533.042271	0.099227
533.258040	0.100043
533.473792	0.100030
533.689525	0.099898
533.905240	0.099801
534.120937	0.099578
534.336616	0.100490
534.552277	0.100227
534.767919	0.100730
534.983543	0.101216
535.199149	0.101337
535.414736	0.101205
535.630306	0.102074
535.845857	0.102240
536.061390	0.102536
536.276904	0.101908
536.492401	0.102407
536.707879	0.102420
536.923339	0.102501
537.138781	0.102345
537.354204	0.102394
537.569610	0.101955
537.784997	0.102824
538.000366	0.103025
538.215716	0.103427
538.431049	0.103422
538.646363	0.103517
538.861659	0.103620
539.076937	0.103545
539.292196	0.103885
539.507438	0.104221
539.722661	0.104055
539.937866	0.104198
540.153052	0.104505
540.368221	0.105389
540.583371	0.105800
540.798503	0.106306
541.013617	0.106867
541.228712	0.106684
541.443789	0.106992
541.658848	0.106873
541.873889	0.107218
542.088912	0.106966
542.303916	0.106137
542.518902	0.105902
542.733870	0.105775
542.948820	0.105726
543.163752	0.106164
543.378665	0.106510
543.593560	0.107189
543.808437	0.106657
544.023295	0.106986
544.238136	0.107853
544.452958	0.108277
544.667762	0.109157
544.882548	0.109142
545.097315	0.109063
545.312064	0.108985
545.526795	0.108613
545.741508	0.109085
545.956203	0.109512
546.170879	0.109281
546.385537	0.109639
546.600177	0.109441
546.814799	0.109588
547.029402	0.109796
547.243988	0.109916
547.458555	0.110219
547.673103	0.110562
547.887634	0.110569
548.102146	0.110922
548.316640	0.110559
548.531116	0.110498
548.745574	0.110967
548.960013	0.111592
549.174435	0.111571
549.388838	0.111741
549.603222	0.111677
549.817589	0.111767
550.031937	0.111635
550.246267	0.112081
550.460579	0.112166
550.674873	0.112387
550.889148	0.112575
551.103405	0.112726
551.317644	0.113023
551.531865	0.113184
551.746068	0.113302
551.960252	0.113354
552.174418	0.113430
552.388566	0.113562
552.602696	0.113393
552.816807	0.113490
553.030900	0.113851
553.244975	0.113794
553.459032	0.113736
553.673070	0.113723
553.887091	0.113751
554.101093	0.113735
554.315077	0.114040
554.529042	0.114065
554.742990	0.113802
554.956919	0.113773
555.170830	0.113858
555.384722	0.114108
555.598597	0.114139
555.812453	0.114676
556.026291	0.115004
556.240111	0.114861
556.453913	0.115110
556.667696	0.115228
556.881461	0.115350
557.095208	0.115730
557.308937	0.115991
557.522647	0.116600
557.736339	0.116777
557.950013	0.117128
558.163669	0.117451
558.377307	0.117971
558.590926	0.118368
558.804527	0.118552
559.018110	0.118357
559.231675	0.118556
559.445221	0.118572
559.658749	0.118557
559.872259	0.118241
560.085751	0.118435
560.299225	0.118141
560.512680	0.117925
560.726117	0.118142
560.939536	0.118586
561.152937	0.118327
561.366319	0.118293
561.579683	0.118152
561.793029	0.118549
562.006357	0.118383
562.219667	0.118454
562.432958	0.118555
562.646231	0.118728
562.859486	0.118752
563.072723	0.119072
563.285941	0.119351
563.499141	0.119690
563.712323	0.119774
563.925487	0.119947
564.138632	0.120040
564.351760	0.120290
564.564869	0.120264
564.777960	0.120235
564.991032	0.120390
565.204087	0.120396
565.417123	0.120274
565.630141	0.120396
565.843140	0.120563
566.056122	0.120548
566.269085	0.120609
566.482030	0.120436
566.694957	0.120546
566.907866	0.120696
567.120756	0.120858
567.333628	0.121188
567.546482	0.121269
567.759318	0.121585
567.972135	0.121775
568.184935	0.121977
568.397716	0.122458
568.610478	0.122785
568.823223	0.122792
569.035949	0.122762
569.248657	0.123144
569.461347	0.122900
569.674019	0.122739
569.886672	0.123181
570.099308	0.123377
570.311925	0.123416
570.524523	0.123452
570.737104	0.123771
570.949666	0.123911
571.162210	0.123843
571.374736	0.124172
571.587244	0.124492
571.799733	0.124833
572.012205	0.124858
572.224658	0.124903
572.437092	0.124651
572.649509	0.124526
572.861907	0.124507
573.074287	0.124244
573.286649	0.124821
573.498993	0.124697
573.711318	0.124191
573.923625	0.124360
574.135914	0.124446
574.348185	0.124824
574.560438	0.124690
574.772672	0.124739
574.984888	0.124981
575.197086	0.124640
575.409266	0.124910
575.621427	0.125537
575.833570	0.125725
576.045695	0.125966
576.257802	0.126151
576.469890	0.126692
576.681961	0.127021
576.894013	0.127060
577.106046	0.126924
577.318062	0.126909
577.530059	0.126602
577.742039	0.126115
577.954000	0.126180
578.165942	0.125959
578.377867	0.125991
578.589773	0.126207
578.801661	0.126512
579.013531	0.126993
579.225382	0.126779
579.437216	0.126987
579.649031	0.127448
579.860828	0.127504
580.072606	0.127914
580.284367	0.128025
580.496109	0.128054
580.707833	0.127849
580.919539	0.128050
581.131227	0.128429
581.342896	0.128427
581.554547	0.128426
581.766180	0.128963
581.977795	0.128985
582.189391	0.129248
582.400969	0.129413
582.612529	0.130065
582.824071	0.130267
583.035595	0.130474
583.247100	0.130366
583.458587	0.130603
583.670056	0.130181
583.881506	0.130340
584.092939	0.130270
584.304353	0.130116
584.515749	0.130004
584.727127	0.130016
584.938486	0.129870
585.149828	0.129963
585.361151	0.129919
585.572456	0.130181
585.783742	0.130315
585.995011	0.130391
586.206261	0.130618
586.417493	0.130721
586.628706	0.130310
586.839902	0.130614
587.051079	0.131195
587.262238	0.131418
587.473379	0.131580
587.684502	0.131356
587.895606	0.131625
588.106692	0.131983
588.317760	0.131990
588.528810	0.132410
588.739841	0.132344
588.950855	0.131847
589.161850	0.131893
589.372827	0.131994
589.583785	0.132297
589.794726	0.132222
590.005648	0.131881
590.216552	0.132129
590.427437	0.132151
590.638305	0.132380
590.849154	0.132768
591.059985	0.133153
591.270798	0.133021
591.481592	0.133375
591.692369	0.133697
591.903127	0.133956
592.113867	0.133962
592.324588	0.133957
592.535292	0.134112
592.745977	0.134470
592.956644	0.134304
593.167293	0.134374
593.377923	0.133993
593.588536	0.133985
593.799130	0.134071
594.009706	0.134273
594.220263	0.134669
594.430803	0.135010
594.641324	0.135008
594.851827	0.134966
595.062312	0.135076
595.272778	0.135214
595.483227	0.135040
595.693657	0.135299
595.904069	0.135234
596.114462	0.135243
596.324838	0.134970
596.535195	0.134989
596.745534	0.135530
596.955855	0.135778
597.166157	0.136243
597.376441	0.136355
597.586707	0.136307
597.796955	0.136626
598.007185	0.136983
598.217396	0.137026
598.427589	0.137286
598.637764	0.136812
598.847921	0.136649
599.058060	0.136755
599.268180	0.136945
599.478282	0.137024
599.688366	0.136901
599.898431	0.136670
600.108479	0.136663
600.318508	0.136360
600.528519	0.136517
600.738511	0.136808
600.948486	0.136496
601.158442	0.136517
601.368380	0.136643
601.578300	0.136889
601.788202	0.137033
601.998085	0.137128
602.207950	0.137472
602.417797	0.137894
602.627626	0.137956
602.837436	0.138159
603.047228	0.138386
603.257002	0.138662
603.466758	0.138872
603.676496	0.139114
603.886215	0.139613
604.095916	0.139931
604.305599	0.139842
604.515264	0.140102
604.724910	0.140190
604.934538	0.140164
605.144148	0.140040
605.353740	0.140061
605.563314	0.139976
605.772869	0.139771
605.982406	0.139652
606.191925	0.140000
606.401425	0.140013
606.610908	0.140354
606.820372	0.140318
607.029818	0.140381
607.239246	0.140537
607.448655	0.140668
607.658047	0.140734
607.867420	0.140768
608.076775	0.140666
608.286111	0.140644
608.495430	0.140570
608.704730	0.140674
608.914012	0.140777
609.123275	0.140629
609.332521	0.140504
609.541748	0.140789
609.750957	0.140949
609.960148	0.141307
610.169321	0.141403
610.378475	0.141361
610.587611	0.141618
610.796729	0.141607
611.005829	0.141597
611.214910	0.141712
611.423974	0.141738
611.633019	0.141699
611.842045	0.141624
612.051054	0.141739
612.260044	0.141781
612.469017	0.141858
612.677970	0.142169
612.886906	0.142334
613.095824	0.142519
613.304723	0.142624
613.513604	0.142615
613.722467	0.142579
613.931311	0.142502
614.140138	0.142624
614.348946	0.142511
614.557736	0.142471
614.766507	0.142620
614.975261	0.142610
615.183996	0.142405
615.392713	0.142689
615.601412	0.142581
615.810092	0.142735
616.018754	0.142850
616.227399	0.143357
616.436024	0.143558
616.644632	0.143581
616.853222	0.143708
617.061793	0.143973
617.270346	0.144080
617.478880	0.144328
617.687397	0.144597
617.895895	0.144791
618.104375	0.144420
618.312837	0.144255
618.521281	0.144326
618.729706	0.144475
618.938113	0.144717
619.146502	0.144621
619.354873	0.144608
619.563226	0.144400
619.771560	0.144339
619.979876	0.144540
620.188174	0.144728
620.396453	0.144880
620.604715	0.144904
620.812958	0.144876
621.021183	0.145081
621.229390	0.145297
621.437578	0.145737
621.645748	0.145942
621.853900	0.146050
622.062034	0.146216
622.270150	0.146451
622.478247	0.146533
622.686326	0.146461
622.894387	0.146381
623.102430	0.146629
623.310454	0.146574
623.518461	0.146637
623.726449	0.146866
623.934418	0.146800
624.142370	0.146686
624.350303	0.146843
624.558218	0.147061
624.766115	0.147012
624.973994	0.146711
625.181855	0.146436
625.389697	0.146609
625.597521	0.146474
625.805327	0.146666
626.013114	0.146792
626.220883	0.146837
626.428634	0.146881
626.636367	0.146950
626.844082	0.147180
627.051778	0.147444
627.259457	0.147101
627.467117	0.147156
627.674758	0.147161
627.882382	0.147311
628.089987	0.147511
628.297574	0.147675
628.505143	0.148111
628.712694	0.148211
628.920226	0.148293
629.127740	0.148861
629.335236	0.148930
629.542714	0.149050
629.750174	0.149014
629.957615	0.149066
630.165038	0.149195
630.372443	0.148979
630.579829	0.149042
630.787198	0.149048
630.994548	0.148746
631.201880	0.148734
631.409194	0.148762
631.616489	0.148709
631.823766	0.148470
632.031025	0.148284
632.238266	0.148479
632.445489	0.148414
632.652693	0.148625
632.859879	0.148886
633.067047	0.149093
633.274197	0.149241
633.481329	0.149465
633.688442	0.149697
633.895537	0.150030
634.102614	0.149967
634.309672	0.150116
634.516713	0.150373
634.723735	0.150284
634.930739	0.150411
635.137724	0.150371
635.344692	0.150399
635.551641	0.150375
635.758572	0.150517
635.965485	0.151076
636.172379	0.151354
636.379256	0.151350
636.586114	0.151770
636.792954	0.151864
636.999775	0.152137
637.206579	0.152397
637.413364	0.152747
637.620131	0.152841
637.826880	0.152844
638.033610	0.152788
638.240323	0.152798
638.447017	0.152604
638.653692	0.152809
638.860350	0.152822
639.066990	0.152869
639.273611	0.153114
639.480214	0.153130
639.686798	0.153181
639.893365	0.153396
640.099913	0.153358
640.306443	0.153604
640.512955	0.153501
640.719449	0.153631
640.925924	0.153765
641.132381	0.153562
641.338820	0.153595
641.545241	0.153511
641.751644	0.153185
641.958028	0.153245
642.164394	0.153193
642.370742	0.153324
642.577071	0.153324
642.783383	0.153254
642.989676	0.153504
643.195951	0.153641
643.402207	0.153637
643.608446	0.154058
643.814666	0.154438
644.020868	0.154749
644.227052	0.154872
644.433218	0.155007
644.639365	0.155157
644.845494	0.154932
645.051605	0.155089
645.257698	0.155239
645.463772	0.155228
645.669828	0.155278
645.875866	0.155188
646.081886	0.155162
646.287888	0.155253
646.493871	0.155346
646.699836	0.155618
646.905783	0.155625
647.111712	0.155837
647.317622	0.156029
647.523514	0.156186
647.729388	0.156385
647.935244	0.156528
648.141082	0.156809
648.346901	0.156979
648.552702	0.157188
648.758485	0.157172
648.964250	0.157247
649.169996	0.157355
649.375724	0.157504
649.581434	0.157382
649.787126	0.157652
649.992800	0.157495
650.198455	0.157720
650.404092	0.157767
650.609711	0.158036
650.815311	0.157952
651.020894	0.157965
651.226458	0.157942
651.432004	0.158173
651.637532	0.157987
651.843041	0.157889
652.048532	0.157651
652.254006	0.157572
652.459460	0.157527
652.664897	0.157748
652.870315	0.157826
653.075716	0.157718
653.281097	0.157816
653.486461	0.157981
653.691807	0.158137
653.897134	0.158083
654.102443	0.158500
654.307734	0.158619
654.513006	0.158773
654.718261	0.159144
654.923497	0.159457
655.128715	0.159577
655.333915	0.159838
655.539096	0.160104
655.744259	0.160479
655.949404	0.160482
656.154531	0.160640
656.359640	0.160748
656.564730	0.160370
656.769802	0.160501
656.974856	0.160617
657.179892	0.160743
657.384909	0.160525
657.589908	0.160301
657.794889	0.160207
657.999852	0.160267
658.204797	0.160447
658.409723	0.160966
658.614631	0.161073
658.819521	0.161262
659.024393	0.161275
659.229246	0.161749
659.434081	0.161997
659.638898	0.162127
659.843697	0.162050
660.048478	0.161867
660.253240	0.161823
660.457984	0.161864
660.662710	0.161800
660.867417	0.162136
661.072107	0.162318
661.276778	0.162596
661.481431	0.162736
661.686066	0.163032
661.890682	0.163202
662.095281	0.163268
662.299861	0.163412
662.504422	0.163730
662.708966	0.163697
662.913491	0.163547
663.117999	0.163505
663.322488	0.163464
663.526958	0.163521
663.731411	0.163655
663.935845	0.163693
664.140261	0.163772
664.344659	0.163593
664.549038	0.163598
664.753400	0.163627
664.957743	0.163871
665.162068	0.164100
665.366375	0.164284
665.570663	0.164430
665.774933	0.164678
665.979185	0.164798
666.183419	0.165007
666.387635	0.165180
666.591832	0.165624
666.796011	0.165553
667.000172	0.165747
667.204315	0.165916
667.408439	0.165896
667.612545	0.165849
667.816634	0.165936
668.020703	0.166199
668.224755	0.166319
668.428788	0.166399
668.632803	0.166676
668.836800	0.166860
669.040779	0.166907
669.244739	0.167085
669.448681	0.167403
669.652605	0.167538
669.856511	0.167489
670.060399	0.167573
670.264268	0.167551
670.468119	0.167417
670.671952	0.167176
670.875767	0.167164
671.079563	0.167390
671.283341	0.167303
671.487101	0.167214
671.690843	0.167330
671.894567	0.167530
672.098272	0.167594
672.301959	0.167740
672.505628	0.167824
672.709278	0.168107
672.912911	0.168005
673.116525	0.168290
673.320121	0.168422
673.523699	0.168541
673.727258	0.168547
673.930799	0.168654
674.134322	0.169042
674.337827	0.169489
674.541314	0.169520
674.744782	0.169791
674.948232	0.169654
675.151664	0.169875
675.355078	0.170147
675.558474	0.170300
675.761851	0.170509
675.965210	0.170497
676.168551	0.170768
676.371873	0.170879
676.575178	0.171034
676.778464	0.171302
676.981732	0.171422
677.184981	0.171486
677.388213	0.171680
677.591426	0.171955
677.794621	0.171942
677.997798	0.171751
678.200956	0.171971
678.404097	0.172187
678.607219	0.172335
678.810323	0.172501
679.013408	0.172604
679.216476	0.172756
679.419525	0.172803
679.622556	0.173277
679.825569	0.173573
680.028563	0.173594
680.231540	0.173585
680.434498	0.173708
680.637438	0.173777
680.840359	0.173735
681.043263	0.173689
681.246148	0.173697
681.449015	0.173763
681.651864	0.173792
681.854694	0.174078
682.057506	0.174208
682.260301	0.174181
682.463076	0.174230
682.665834	0.174347
682.868573	0.174463
683.071295	0.174550
683.273998	0.174623
683.476682	0.174739
683.679349	0.174473
683.881997	0.174528
684.084627	0.174853
684.287239	0.175015
684.489833	0.175221
684.692408	0.175490
684.894965	0.175537
685.097504	0.175619
685.300025	0.175675
685.502527	0.175858
685.705012	0.176023
685.907478	0.176022
686.109925	0.176183
686.312355	0.176217
686.514766	0.175984
686.717159	0.176208
686.919534	0.176237
687.121891	0.176146
687.324230	0.176095
687.526550	0.175930
687.728852	0.175947
687.931136	0.175934
688.133401	0.176070
688.335649	0.176472
688.537878	0.176535
688.740089	0.176521
688.942281	0.176805
689.144456	0.177067
689.346612	0.177334
689.548750	0.177463
689.750870	0.177810
689.952971	0.177779
690.155055	0.178044
690.357120	0.178321
690.559167	0.178586
690.761195	0.178804
690.963206	0.179043
691.165198	0.178861
691.367172	0.178958
691.569128	0.178746
691.771065	0.178974
691.972984	0.178681
692.174885	0.178564
692.376768	0.178614
692.578633	0.178530
692.780479	0.178646
692.982308	0.178847
693.184118	0.179107
693.385909	0.179212
693.587683	0.179257
693.789438	0.179488
693.991175	0.179585
694.192894	0.179581
694.394595	0.179775
694.596277	0.179669
694.797941	0.179921
694.999587	0.179705
695.201215	0.179748
695.402824	0.179652
695.604416	0.179596
695.805989	0.179589
696.007543	0.179540
696.209080	0.179469
696.410598	0.179532
696.612099	0.179583
696.813580	0.179882
697.015044	0.179964
697.216490	0.180224
697.417917	0.180353
697.619326	0.180301
697.820717	0.180607
698.022089	0.180662
698.223444	0.181006
698.424780	0.181386
698.626098	0.181331
698.827397	0.181583
699.028679	0.181878
699.229942	0.181959
699.431187	0.182278
699.632414	0.182282
699.833622	0.182371
700.034813	0.182246
700.235985	0.182050
700.437139	0.182448
700.638274	0.182422
700.839392	0.182436
701.040491	0.182587
701.241572	0.182755
701.442635	0.182682
701.643679	0.182867
701.844706	0.182998
702.045714	0.183109
702.246704	0.182819
702.447675	0.182745
702.648629	0.182733
702.849564	0.182620
703.050481	0.182580
703.251380	0.182776
703.452260	0.182804
703.653122	0.182902
703.853966	0.183003
704.054792	0.182960
704.255600	0.182893
704.456389	0.182825
704.657160	0.182883
704.857913	0.182846
705.058648	0.182845
705.259365	0.182843
705.460063	0.182789
705.660743	0.182737
705.861405	0.183090
706.062048	0.183606
706.262674	0.183647
706.463281	0.183687
706.663870	0.183722
706.864441	0.183686
707.064993	0.183717
707.265527	0.183618
707.466043	0.183600
707.666541	0.183523
707.867021	0.183454
708.067482	0.183513
708.267925	0.183539
708.468350	0.183535
708.668757	0.183659
708.869145	0.183827
709.069516	0.183997
709.269868	0.184216
709.470201	0.184341
709.670517	0.184166
709.870814	0.184160
710.071093	0.184057
710.271354	0.184221
710.471597	0.184322
710.671821	0.184234
710.872028	0.184099
711.072216	0.183857
711.272385	0.183814
711.472537	0.183786
711.672670	0.183837
711.872785	0.183838
712.072882	0.183938
712.272961	0.183761
712.473021	0.183730
712.673063	0.183768
712.873087	0.183852
713.073093	0.183823
713.273081	0.184014
713.473050	0.184065
713.673001	0.184314
713.872934	0.184100
714.072849	0.184277
714.272745	0.184575
714.472623	0.184597
714.672483	0.184732
714.872325	0.184632
715.072148	0.184533
715.271954	0.184397
715.471741	0.184520
715.671509	0.184539
715.871260	0.184388
716.070992	0.183934
716.270707	0.183890
716.470403	0.183829
716.670080	0.183861
716.869740	0.183899
717.069381	0.184010
717.269004	0.183872
717.468609	0.183771
717.668195	0.183813
717.867764	0.183998
718.067314	0.184096
718.266846	0.183971
718.466360	0.183889
718.665855	0.183532
718.865332	0.183180
719.064791	0.183034
719.264232	0.182839
719.463655	0.182838
719.663059	0.182759
719.862445	0.182669
720.061813	0.182361
720.261163	0.182433
720.460494	0.182603
720.659807	0.182896
720.859102	0.183001
721.058379	0.183169
721.257638	0.183024
721.456878	0.182959
721.656100	0.182691
721.855304	0.182797
722.054490	0.182725
722.253657	0.182869
722.452806	0.182726
722.651937	0.182634
722.851050	0.182576
723.050145	0.182746
723.249221	0.182680
723.448279	0.182916
723.647319	0.182939
723.846340	0.182977
724.045344	0.182871
724.244329	0.182926
724.443296	0.182759
724.642245	0.182650
724.841175	0.182599
725.040088	0.182777
725.238982	0.182576
725.437857	0.182719
725.636715	0.182508
725.835554	0.182526
726.034376	0.182204
726.233179	0.182026
726.431963	0.182099
726.630730	0.181762
726.829478	0.181495
727.028208	0.181361
727.226920	0.181043
727.425614	0.181084
727.624289	0.180876
727.822946	0.180849
728.021585	0.180901
728.220206	0.180805
728.418808	0.180849
728.617392	0.180803
728.815958	0.180940
729.014506	0.181004
729.213036	0.180991
729.411547	0.180715
729.610040	0.180764
729.808515	0.180832
730.006972	0.180767
730.205410	0.180640
730.403831	0.180825
730.602233	0.180811
730.800616	0.180760
730.998982	0.180457
731.197329	0.180386
731.395658	0.180343
731.593969	0.180048
731.792262	0.179953
731.990536	0.180130
732.188793	0.179628
732.387031	0.179334
732.585250	0.179181
732.783452	0.179135
732.981635	0.179297
733.179800	0.179065
733.377947	0.179152
733.576076	0.179079
733.774186	0.178826
733.972278	0.178827
734.170352	0.178995
734.368408	0.179022
734.566446	0.178888
734.764465	0.178954
734.962466	0.178964
735.160449	0.178883
735.358413	0.178880
735.556360	0.178782
735.754288	0.178525
735.952198	0.178198
736.150090	0.177943
736.347963	0.177634
736.545818	0.177277
736.743655	0.177074
736.941474	0.176762
737.139275	0.176515
737.337057	0.176234
737.534821	0.176155
737.732567	0.175942
737.930295	0.175872
738.128005	0.176162
738.325696	0.175981
738.523369	0.175911
738.721024	0.175771
738.918660	0.175812
739.116279	0.175653
739.313879	0.175786
739.511461	0.175933
739.709024	0.175861
739.906570	0.175893
740.104097	0.175920
740.301606	0.176038
740.499097	0.176140
740.696569	0.176008
740.894024	0.176226
741.091460	0.176075
741.288878	0.175871
741.486277	0.175739
741.683659	0.175307
741.881022	0.175140
742.078367	0.174926
742.275694	0.174752
742.473002	0.174452
742.670293	0.174498
742.867565	0.174557
743.064819	0.174409
743.262054	0.174447
743.459272	0.174535
743.656471	0.174552
743.853652	0.174385
744.050815	0.174388
744.247959	0.174205
744.445085	0.173906
744.642194	0.173650
744.839283	0.173729
745.036355	0.173802
745.233408	0.173718
745.430444	0.173471
745.627461	0.173319
745.824459	0.173252
746.021440	0.173337
746.218402	0.173140
746.415346	0.172971
746.612272	0.172854
746.809180	0.172378
747.006069	0.172276
747.202940	0.172395
747.399793	0.172574
747.596628	0.172302
747.793444	0.172362
747.990243	0.172310
748.187023	0.172311
748.383784	0.172152
748.580528	0.172222
748.777253	0.172010
748.973960	0.171806
749.170649	0.171516
749.367320	0.171641
749.563973	0.171542
749.760607	0.171399
749.957223	0.171536
750.153821	0.171234
750.350400	0.170900
750.546962	0.170754
750.743505	0.170726
750.940030	0.170634
751.136536	0.170499
751.333025	0.170143
751.529495	0.170367
751.725947	0.170041
751.922381	0.170148
752.118796	0.170502
752.315194	0.170524
752.511573	0.170431
752.707934	0.170426
752.904276	0.170335
753.100601	0.170638
753.296907	0.170064
753.493195	0.170124
753.689465	0.170185
753.885716	0.169729
754.081949	0.169735
754.278164	0.169519
754.474361	0.169383
754.670540	0.169312
754.866700	0.169125
755.062843	0.169433
755.258967	0.169311
755.455072	0.169265
755.651160	0.169433
755.847229	0.169119
756.043280	0.169215
756.239313	0.169334
756.435328	0.169341
756.631324	0.169158
756.827302	0.169002
757.023262	0.168675
757.219204	0.168401
757.415127	0.168387
757.611033	0.168385
757.806920	0.168228
758.002788	0.168099
758.198639	0.167853
758.394471	0.167653
758.590286	0.167665
758.786081	0.167662
758.981859	0.167685
759.177619	0.167530
759.373360	0.167573
759.569083	0.167600
759.764788	0.167620
759.960474	0.167659
760.156143	0.167744
760.351793	0.167553
760.547425	0.167850
760.743038	0.167774
760.938634	0.167541
761.134211	0.167619
761.329770	0.167515
761.525311	0.167556
761.720833	0.167408
761.916338	0.167298
762.111824	0.166968
762.307292	0.166759
762.502741	0.166880
762.698173	0.167272
762.893586	0.167165
763.088981	0.167076
763.284358	0.166619
763.479716	0.166775
763.675057	0.166683
763.870379	0.166935
764.065683	0.166802
764.260968	0.166808
764.456236	0.166488
764.651485	0.166312
764.846716	0.166422
765.041929	0.166462
765.237123	0.166420
765.432299	0.166434
765.627457	0.166251
765.822597	0.166288
766.017719	0.165947
766.212822	0.165990
766.407907	0.165955
766.602974	0.165915
766.798023	0.165947
766.993054	0.165654
767.188066	0.165618
767.383060	0.165620
767.578036	0.165211
767.772993	0.165194
767.967933	0.165025
768.162854	0.164987
768.357757	0.164911
768.552642	0.164779
768.747508	0.164725
768.942356	0.164856
769.137186	0.165044
769.331998	0.165329
769.526792	0.165463
769.721567	0.165370
769.916324	0.165360
770.111063	0.165109
770.305784	0.165114
770.500486	0.165116
770.695171	0.164874
770.889837	0.164605
771.084484	0.164513
771.279114	0.164363
771.473725	0.164465
771.668318	0.164555
771.862893	0.164505
772.057450	0.164685
772.251988	0.164722
772.446509	0.164761
772.641011	0.164894
772.835494	0.164891
773.029960	0.164844
773.224407	0.164884
773.418836	0.164690
773.613247	0.164817
773.807640	0.164707
774.002014	0.164748
774.196370	0.164736
774.390708	0.164748
774.585028	0.164752
774.779330	0.164731
774.973613	0.164927
775.167878	0.164944
775.362125	0.164883
775.556354	0.164627
775.750564	0.164602
775.944756	0.164616
776.138930	0.164457
776.333086	0.164304
776.527223	0.164197
776.721343	0.163745
776.915444	0.163568
777.109526	0.163325
777.303591	0.163439
777.497637	0.163208
777.691666	0.163230
777.885676	0.163415
778.079667	0.163523
778.273641	0.163629
778.467596	0.163512
778.661533	0.163701
778.855452	0.163975
779.049352	0.163927
779.243235	0.164061
779.437099	0.163990
779.630945	0.164008
779.824773	0.163912
780.018582	0.163930
780.212373	0.164333
780.406146	0.164347
780.599901	0.164337
780.793638	0.164291
780.987356	0.164246
781.181056	0.164137
781.374738	0.163783
781.568402	0.163862
781.762047	0.163828
781.955674	0.163656
782.149283	0.163679
782.342874	0.163699
782.536447	0.163495
782.730001	0.163721
782.923537	0.163798
783.117055	0.163889
783.310555	0.163928
783.504036	0.163950
783.697499	0.163973
783.890944	0.163904
784.084371	0.163768
784.277780	0.164125
784.471170	0.163850
784.664542	0.163724
784.857896	0.164108
785.051231	0.164109
785.244549	0.164255
785.437848	0.164296
785.631129	0.164310
785.824392	0.164554
786.017636	0.164503
786.210863	0.164644
786.404071	0.165031
786.597260	0.164650
786.790432	0.164533
786.983585	0.164302
787.176721	0.164269
787.369838	0.164474
787.562936	0.164542
787.756017	0.164721
787.949079	0.164773
788.142123	0.164509
788.335149	0.164723
788.528156	0.164860
788.721146	0.165096
788.914117	0.165175
789.107070	0.164997
789.300005	0.164854
789.492921	0.164885
789.685819	0.165082
789.878699	0.164996
790.071561	0.165207
790.264405	0.165299
790.457230	0.165326
790.650037	0.165532
790.842826	0.165972
791.035597	0.166136
791.228349	0.166290
791.421084	0.166270
791.613800	0.166622
791.806497	0.166549
791.999177	0.166742
792.191838	0.166750
792.384481	0.166734
792.577106	0.166608
792.769713	0.166652
792.962301	0.166629
793.154871	0.166684
793.347423	0.166854
793.539957	0.167060
793.732473	0.166985
793.924970	0.167290
794.117449	0.167205
794.309910	0.167311
794.502353	0.167341
794.694777	0.167476
794.887183	0.167516
795.079571	0.167496
795.271941	0.167430
795.464293	0.167583
795.656626	0.167451
795.848941	0.167780
796.041238	0.167846
796.233516	0.167934
796.425777	0.167874
796.618019	0.167726
796.810243	0.167869
797.002449	0.167953
797.194636	0.167916
797.386805	0.168081
797.578956	0.167999
797.771089	0.167976
797.963204	0.168142
798.155300	0.168305
798.347378	0.168822
798.539438	0.168919
798.731480	0.169018
798.923503	0.169301
799.115509	0.169313
799.307496	0.169447
799.499465	0.169499
799.691415	0.169589
799.883348	0.169602
800.075262	0.169602
800.267158	0.169617
800.459035	0.169867
800.650895	0.169854
800.842736	0.170047
801.034559	0.170093
801.226364	0.170372
801.418150	0.170708
801.609919	0.171064
801.801669	0.171221
801.993401	0.171433
802.185114	0.171443
802.376810	0.171636
802.568487	0.171593
802.760146	0.171683
802.951787	0.171952
803.143409	0.172004
803.335014	0.171992
803.526600	0.172212
803.718168	0.172300
803.909717	0.172421
804.101249	0.172540
804.292762	0.173140
804.484257	0.173358
804.675734	0.173457
804.867192	0.173412
805.058632	0.173363
805.250054	0.173416
805.441458	0.173590
805.632844	0.173538
805.824211	0.173554
806.015561	0.173361
806.206891	0.173598
806.398204	0.173472
806.589499	0.173586
806.780775	0.173876
806.972033	0.173952
807.163273	0.173770
807.354495	0.174011
807.545698	0.174220
807.736883	0.174475
807.928050	0.174569
808.119199	0.174922
808.310329	0.175015
808.501441	0.175014
808.692535	0.174995
808.883611	0.175412
809.074669	0.175593
809.265708	0.175933
809.456729	0.175970
809.647732	0.175797
809.838717	0.175798
810.029683	0.176109
810.220632	0.176687
810.411562	0.176936
810.602474	0.176949
810.793367	0.176952
810.984242	0.177059
811.175100	0.177367
811.365938	0.177911
811.556759	0.178031
811.747562	0.177960
811.938346	0.177668
812.129112	0.177647
812.319860	0.177802
812.510589	0.177758
812.701300	0.177664
812.891994	0.177469
813.082668	0.177309
813.273325	0.177267
813.463964	0.177519
813.654584	0.177788
813.845186	0.178021
814.035769	0.178203
814.226335	0.178691
814.416882	0.178973
814.607411	0.179411
814.797922	0.179526
814.988415	0.179991
815.178889	0.180222
815.369345	0.180679
815.559783	0.180941
815.750203	0.181205
815.940605	0.181370
816.130988	0.181504
816.321353	0.181663
816.511700	0.182219
816.702028	0.182492
816.892339	0.183050
817.082631	0.183165
817.272905	0.183325
817.463161	0.183504
817.653398	0.183809
817.843617	0.184202
818.033819	0.184292
818.224001	0.184328
818.414166	0.184185
818.604312	0.183715
818.794440	0.183884
818.984550	0.184052
819.174642	0.184214
819.364716	0.184292
819.554771	0.184476
819.744808	0.184654
819.934827	0.185061
820.124827	0.185474
820.314810	0.185871
820.504774	0.185883
820.694720	0.186197
820.884647	0.186223
821.074557	0.186165
821.264448	0.186199
821.454321	0.186174
821.644176	0.186056
821.834012	0.186291
822.023831	0.186328
822.213631	0.186367
822.403413	0.186451
822.593176	0.186796
822.782922	0.187172
822.972649	0.187339
823.162358	0.187850
823.352049	0.188040
823.541721	0.188076
823.731376	0.188522
823.921012	0.188807
824.110629	0.188982
824.300229	0.189273
824.489811	0.189426
824.679374	0.189586
824.868919	0.189631
825.058445	0.190001
825.247954	0.190178
825.437444	0.190147
825.626916	0.190360
825.816370	0.190570
826.005806	0.190678
826.195223	0.190755
826.384622	0.191141
826.574003	0.191338
826.763366	0.191438
826.952711	0.191733
827.142037	0.192109
827.331345	0.192489
827.520635	0.192347
827.709906	0.192303
827.899160	0.192733
828.088395	0.192542
828.277612	0.192875
828.466810	0.192868
828.655991	0.192694
828.845153	0.192687
829.034297	0.192849
829.223423	0.193566
829.412531	0.193973
829.601620	0.194095
829.790691	0.194459
829.979744	0.194753
830.168779	0.195013
830.357795	0.195561
830.546793	0.195796
830.735773	0.195784
830.924735	0.195848
831.113679	0.195888
831.302604	0.196239
831.491511	0.196717
831.680400	0.196956
831.869271	0.197372
832.058123	0.197437
832.246957	0.197980
832.435773	0.198411
832.624571	0.198734
832.813351	0.199015
833.002112	0.199120
833.190855	0.199185
833.379580	0.198870
833.568287	0.198921
833.756975	0.199251
833.945645	0.199252
834.134297	0.199139
834.322931	0.199212
834.511547	0.199417
834.700144	0.199773
834.888723	0.200050
835.077284	0.200752
835.265826	0.201216
835.454351	0.201687
835.642857	0.201986
835.831345	0.202421
836.019815	0.202806
836.208266	0.203042
836.396699	0.203162
836.585114	0.203180
836.773511	0.203539
836.961890	0.203725
837.150250	0.203673
837.338592	0.203927
837.526916	0.204575
837.715222	0.204952
837.903510	0.205141
838.091779	0.205548
838.280030	0.206107
838.468263	0.206346
838.656477	0.206677
838.844674	0.207103
839.032852	0.207454
839.221012	0.207417
839.409153	0.207458
839.597277	0.208002
839.785382	0.208046
839.973469	0.208031
840.161538	0.208389
840.349589	0.208600
840.537621	0.208568
840.725635	0.208683
840.913631	0.208722
841.101609	0.208907
841.289568	0.209033
841.477509	0.209176
841.665432	0.209445
841.853337	0.209171
842.041224	0.209279
842.229092	0.209652
842.416942	0.209829
842.604774	0.210129
842.792588	0.210356
842.980383	0.210638
843.168160	0.211104
843.355919	0.211497
843.543660	0.211786
843.731382	0.212111
843.919087	0.212425
844.106773	0.212820
844.294441	0.213219
844.482090	0.213441
844.669722	0.213594
844.857335	0.213689
845.044930	0.213947
845.232507	0.214344
845.420065	0.214309
845.607605	0.214445
845.795127	0.214625
845.982631	0.214970
846.170117	0.215488
846.357584	0.215672
846.545033	0.216203
846.732464	0.216479
846.919877	0.216387
847.107272	0.217029
847.294648	0.217746
847.482006	0.217844
847.669346	0.217909
847.856667	0.218078
848.043971	0.218541
848.231256	0.218706
848.418523	0.219028
848.605771	0.219518
848.793002	0.219643
848.980214	0.219712
849.167408	0.220330
849.354584	0.220539
849.541742	0.220921
849.728881	0.220978
849.916002	0.221157
850.103105	0.221099
850.290190	0.221416
850.477256	0.221786
850.664304	0.221952
850.851334	0.221584
851.038346	0.221928
851.225340	0.222006
851.412315	0.222689
851.599272	0.222730
851.786211	0.223164
851.973132	0.223302
852.160034	0.223316
852.346918	0.223412
852.533784	0.224115
852.720632	0.224219
852.907462	0.224093
853.094273	0.224095
853.281066	0.224352
853.467841	0.224341
853.654598	0.224483
853.841336	0.224632
854.028056	0.225033
854.214758	0.225212
854.401442	0.225568
854.588107	0.226187
854.774755	0.226333
854.961384	0.226881
855.147995	0.227449
855.334587	0.227950
855.521162	0.228357
855.707718	0.228669
855.894256	0.228753
856.080775	0.228976
856.267277	0.229143
856.453760	0.229445
856.640225	0.229620
856.826672	0.229888
857.013101	0.230293
857.199511	0.230361
857.385903	0.230475
857.572277	0.230845
857.758633	0.230836
857.944970	0.231468
858.131290	0.231636
858.317591	0.231816
858.503873	0.231974
858.690138	0.232173
858.876384	0.232527
859.062612	0.232573
859.248822	0.232623
859.435014	0.233014
859.621188	0.232855
859.807343	0.233080
859.993480	0.233212
860.179599	0.233519
860.365699	0.233701
860.551781	0.234091
860.737846	0.234526
860.923891	0.234893
861.109919	0.234976
861.295929	0.235239
861.481920	0.235651
861.667893	0.235941
861.853848	0.235788
862.039784	0.236004
862.225702	0.236249
862.411603	0.236410
862.597484	0.236775
862.783348	0.237180
862.969193	0.237455
863.155021	0.237387
863.340830	0.237549
863.526620	0.238290
863.712393	0.238335
863.898147	0.238536
864.083883	0.238673
864.269601	0.239132
864.455301	0.239315
864.640982	0.239449
864.826645	0.239874
865.012290	0.239841
865.197917	0.239791
865.383526	0.239959
865.569116	0.239866
865.754688	0.239903
865.940242	0.239904
866.125777	0.240165
866.311295	0.240084
866.496794	0.240097
866.682275	0.240580
866.867737	0.240785
867.053182	0.240871
867.238608	0.241276
867.424016	0.241689
867.609406	0.241745
867.794778	0.241991
867.980131	0.242445
868.165466	0.242744
868.350783	0.243078
868.536082	0.243035
868.721362	0.243395
868.906625	0.243652
869.091869	0.243908
869.277094	0.244324
869.462302	0.244397
869.647491	0.244433
869.832662	0.244703
870.017815	0.244931
870.202950	0.245094
870.388066	0.245089
870.573165	0.245087
870.758245	0.245144
870.943306	0.245150
871.128350	0.245094
871.313375	0.245469
871.498382	0.245559
871.683371	0.245375
871.868342	0.245644
872.053294	0.245947
872.238229	0.245921
872.423144	0.246129
872.608042	0.245967
872.792922	0.246511
872.977783	0.246447
873.162626	0.246524
873.347451	0.247153
873.532258	0.247579
873.717046	0.247884
873.901816	0.248315
874.086568	0.248655
874.271302	0.248721
874.456017	0.248778
874.640715	0.248886
874.825394	0.249002
875.010055	0.248776
875.194697	0.248887
875.379322	0.249047
875.563928	0.248934
875.748516	0.248997
875.933085	0.249645
876.117637	0.249321
876.302170	0.249367
876.486685	0.249897
876.671182	0.250122
876.855661	0.249873
877.040121	0.249477
877.224563	0.249818
877.408987	0.249633
877.593393	0.249404
877.777780	0.249629
877.962150	0.249793
878.146501	0.249308
878.330833	0.248951
878.515148	0.249115
878.699444	0.249783
878.883722	0.249359
879.067982	0.249691
879.252224	0.249614
879.436447	0.249677
879.620653	0.249990
879.804840	0.250319
879.989008	0.250457
880.173159	0.250337
880.357291	0.250065
880.541405	0.250412
880.725501	0.249897
880.909579	0.250446
881.093638	0.251046
881.277680	0.251224
881.461703	0.251402
881.645707	0.251883
881.829694	0.252154
882.013662	0.252526
882.197612	0.252946
882.381544	0.253662
882.565458	0.253438
882.749353	0.253185
882.933230	0.253054
883.117089	0.253430
883.300930	0.253066
883.484753	0.253261
883.668557	0.253055
883.852343	0.253072
884.036111	0.252849
884.219861	0.253004
884.403592	0.253063
884.587305	0.252854
884.771000	0.252972
884.954677	0.253308
885.138335	0.253357
885.321976	0.253558
885.505598	0.253372
885.689201	0.253470
885.872787	0.253801
886.056354	0.253760
886.239904	0.254032
886.423434	0.253278
886.606947	0.253009
886.790442	0.253055
886.973918	0.253100
887.157376	0.253385
887.340816	0.253572
887.524237	0.252865
887.707641	0.252926
887.891026	0.252791
888.074393	0.252807
888.257741	0.252948
888.441072	0.252889
888.624384	0.252459
888.807678	0.252294
888.990954	0.251888
889.174211	0.252183
889.357451	0.252201
889.540672	0.252433
889.723875	0.252366
889.907059	0.252550
890.090226	0.252626
890.273374	0.253176
890.456504	0.253252
890.639616	0.253515
890.822709	0.253825
891.005785	0.253735
891.188842	0.253612
891.371881	0.253636
891.554901	0.253303
891.737904	0.253629
891.920888	0.253382
892.103854	0.252890
892.286802	0.252999
892.469731	0.252574
892.652643	0.253043
892.835536	0.252795
893.018410	0.252718
893.201267	0.252758
893.384106	0.252240
893.566926	0.252117
893.749728	0.251945
893.932511	0.251845
894.115277	0.251585
894.298024	0.251229
894.480753	0.251317
894.663464	0.251853
894.846157	0.252040
895.028831	0.251658
895.211487	0.251419
895.394125	0.251810
895.576745	0.251165
895.759346	0.251589
895.941930	0.251391
896.124495	0.251186
896.307041	0.250462
896.489570	0.250329
896.672080	0.250410
896.854573	0.250250
897.037046	0.250079
897.219502	0.250630
897.401940	0.250591
897.584359	0.250446
897.766760	0.250602
897.949143	0.251054
898.131507	0.251182
898.313854	0.250981
898.496182	0.251298
898.678492	0.251560
898.860783	0.251343
899.043057	0.250918
899.225312	0.251085
899.407549	0.250816
899.589768	0.250325
899.771968	0.249941
899.954151	0.249815
900.136315	0.249563
900.318461	0.248893
900.500588	0.248763
900.682698	0.248861
900.864789	0.248616
901.046862	0.248696
901.228917	0.248687
901.410953	0.248283
901.592971	0.248257
901.774972	0.247833
901.956953	0.247838
902.138917	0.247488
902.320862	0.247368
902.502790	0.247205
902.684699	0.246763
902.866589	0.246701
903.048462	0.246836
903.230316	0.246858
903.412152	0.246867
903.593970	0.246532
903.775770	0.246294
903.957551	0.246111
904.139314	0.245738
904.321059	0.245688
904.502786	0.245610
904.684494	0.245179
904.866185	0.244659
905.047857	0.244538
905.229510	0.244742
905.411146	0.244584
905.592763	0.244000
905.774363	0.243825
905.955943	0.243820
906.137506	0.243257
906.319051	0.243082
906.500577	0.242990
906.682085	0.242648
906.863575	0.241865
907.045046	0.241534
907.226500	0.241330
907.407935	0.241143
907.589352	0.240395
907.770750	0.239842
907.952131	0.239508
908.133493	0.239211
908.314837	0.238941
908.496163	0.238928
908.677470	0.238824
908.858760	0.238412
909.040031	0.237855
909.221284	0.237632
909.402518	0.237562
909.583735	0.237406
909.764933	0.237510
909.946113	0.237041
910.127275	0.237040
910.308418	0.236329
910.489544	0.236251
910.670651	0.236149
910.851740	0.236217
911.032810	0.236229
911.213863	0.236258
911.394897	0.235510
911.575913	0.235380
911.756911	0.235311
911.937890	0.235061
912.118851	0.234394
912.299794	0.234054
912.480719	0.233279
912.661626	0.232633
912.842514	0.232166
913.023384	0.231800
913.204236	0.230912
913.385070	0.230585
913.565886	0.230554
913.746683	0.230777
913.927462	0.230054
914.108223	0.229774
914.288965	0.229442
914.469690	0.228753
914.650396	0.227925
914.831084	0.228307
915.011754	0.227559
915.192405	0.227026
915.373038	0.226351
915.553653	0.226238
915.734250	0.225879
915.914829	0.225376
916.095389	0.224919
916.275931	0.225360
916.456455	0.224791
916.636961	0.224716
916.817448	0.224496
916.997917	0.224037
917.178368	0.223665
917.358801	0.223477
917.539216	0.223432
917.719612	0.223450
917.899990	0.222670
918.080350	0.222387
918.260692	0.221710
918.441015	0.221657
918.621320	0.221196
918.801607	0.221293
918.981876	0.220957
919.162127	0.220533
919.342359	0.220108
919.522573	0.220108
919.702769	0.219537
919.882947	0.219043
920.063106	0.217765
920.243247	0.217695
920.423370	0.216899
920.603475	0.215875
920.783562	0.215478
920.963630	0.214513
921.143680	0.213847
921.323712	0.213405
921.503725	0.212863
921.683721	0.213165
921.863698	0.212174
922.043657	0.211450
922.223598	0.211165
922.403520	0.210268
922.583424	0.210114
922.763311	0.209077
922.943178	0.208630
923.123028	0.207370
923.302859	0.206125
923.482673	0.205624
923.662467	0.205457
923.842244	0.205346
924.022003	0.205220
924.201743	0.205019
924.381465	0.204835
924.561169	0.203823
924.740854	0.204074
924.920522	0.204315
925.100171	0.204092
925.279802	0.203646
925.459414	0.203193
925.639009	0.202224
925.818585	0.201213
925.998143	0.201266
926.177683	0.201477
926.357205	0.201230
926.536708	0.199920
926.716193	0.198971
926.895660	0.198587
927.075109	0.197961
927.254539	0.197574
927.433951	0.196975
927.613345	0.195927
927.792721	0.195444
927.972079	0.194504
928.151418	0.194380
928.330739	0.194264
928.510042	0.193490
928.689327	0.192449
928.868593	0.192037
929.047841	0.191079
929.227071	0.190375
929.406283	0.189441
929.585476	0.188654
929.764652	0.188555
929.943809	0.187966
930.122948	0.186418
930.302068	0.185906
930.481171	0.185320
930.660255	0.185504
930.839321	0.184811
931.018369	0.184486
931.197398	0.183780
931.376409	0.183179
931.555402	0.182311
931.734377	0.182124
931.913334	0.181780
932.092272	0.181137
932.271192	0.180572
932.450094	0.180813
932.628978	0.180006
932.807844	0.179375
932.986691	0.178511
933.165520	0.178412
933.344331	0.177854
933.523123	0.177151
933.701898	0.176081
933.880654	0.174899
934.059392	0.173984
934.238111	0.173424
934.416813	0.172331
934.595496	0.170556
934.774161	0.169361
934.952808	0.168390
935.131437	0.167813
935.310047	0.167976
935.488639	0.167764
935.667213	0.166905
935.845769	0.166373
936.024306	0.167065
936.202825	0.166312
936.381326	0.166106
936.559809	0.165604
936.738274	0.164666
936.916720	0.163381
937.095148	0.162904
937.273558	0.161414
937.451950	0.160102
937.630323	0.159541
937.808678	0.160129
937.987015	0.159356
938.165334	0.159314
938.343635	0.158517
938.521917	0.157703
938.700181	0.156732
938.878427	0.156932
939.056655	0.156441
939.234864	0.155766
939.413055	0.154865
939.591228	0.154090
939.769383	0.152935
939.947519	0.152639
940.125638	0.151959
940.303738	0.151301
940.481820	0.150190
940.659883	0.149995
940.837929	0.148252
941.015956	0.148109
941.193965	0.147951
941.371955	0.147667
941.549928	0.147114
941.727882	0.146580
941.905818	0.146725
942.083736	0.145050
942.261636	0.143665
942.439517	0.143173
942.617380	0.142343
942.795225	0.140688
942.973052	0.140444
943.150860	0.139240
943.328651	0.138575
943.506423	0.137359
943.684176	0.138040
943.861912	0.137275
944.039629	0.136521
944.217328	0.135537
944.395009	0.134638
944.572672	0.133977
944.750317	0.133673
944.927943	0.133213
945.105551	0.132204
945.283141	0.131366
945.460712	0.131534
945.638265	0.130063
945.815801	0.128967
945.993317	0.128557
946.170816	0.127426
946.348297	0.127429
946.525759	0.126263
946.703203	0.125847
946.880629	0.124889
947.058036	0.123208
947.235425	0.123870
947.412797	0.123586
947.590149	0.123618
947.767484	0.122643
947.944800	0.120913
948.122099	0.121306
948.299379	0.120416
948.476640	0.120701
948.653884	0.120186
948.831109	0.118668
949.008316	0.117576
949.185505	0.116262
949.362676	0.115374
949.539828	0.114875
949.716962	0.114083
949.894078	0.114265
950.071176	0.113256
950.248256	0.113000
950.425317	0.113144
950.602360	0.112806
950.779385	0.112792
950.956391	0.110720
951.133380	0.110741
951.310350	0.109935
951.487302	0.107469
951.664235	0.106597
951.841151	0.106198
952.018048	0.104524
952.194927	0.103891
952.371788	0.103323
952.548631	0.104375
952.725455	0.102560
952.902261	0.101002
953.079049	0.102075
953.255819	0.102337
953.432570	0.101773
953.609303	0.101959
953.786018	0.101311
953.962715	0.100263
954.139394	0.099583
954.316054	0.099613
954.492696	0.099018
954.669320	0.096318
954.845926	0.094565
955.022513	0.093471
955.199083	0.093503
955.375634	0.093300
955.552166	0.092610
955.728681	0.092588
955.905177	0.091141
956.081655	0.091201
956.258115	0.091020
956.434557	0.089995
956.610980	0.088160
956.787385	0.085416
956.963772	0.084531
957.140141	0.083351
957.316492	0.083625
957.492824	0.084835
957.669138	0.084792
957.845434	0.084866
958.021712	0.084387
958.197971	0.083549
958.374212	0.083679
958.550435	0.083587
958.726640	0.083642
958.902826	0.081206
959.078995	0.079001
959.255145	0.079218
959.431277	0.079874
959.607390	0.080293
959.783486	0.081004
959.959563	0.081965
960.135622	0.081425
960.311662	0.082314
960.487685	0.083280
960.663689	0.083667
960.839675	0.081919
961.015643	0.081384
961.191593	0.081035
961.367524	0.081405
961.543437	0.081791
961.719332	0.079298
961.895209	0.077565
962.071067	0.077438
962.246907	0.077905
962.422730	0.078340
962.598533	0.076775
962.774319	0.074819
962.950086	0.075503
963.125835	0.074691
963.301566	0.076200
963.477279	0.076686
963.652973	0.076617
963.828650	0.074989
964.004308	0.075839
964.179947	0.075839
964.355569	0.077662
964.531172	0.075140
964.706757	0.074860
964.882324	0.072904
965.057873	0.072608
965.233403	0.072451
965.408916	0.073164
965.584410	0.071814
965.759885	0.070203
965.935343	0.069863
966.110782	0.070425
966.286203	0.067884
966.461606	0.070795
966.636991	0.071842
966.812357	0.072982
966.987705	0.074236
967.163035	0.073614
967.338347	0.074619
967.513641	0.074899
967.688916	0.076415
967.864173	0.076657
968.039412	0.074621
968.214632	0.073443
968.389835	0.073624
968.565019	0.071278
968.740185	0.072127
968.915333	0.072498
969.090462	0.071151
969.265573	0.069010
969.440667	0.072192
969.615741	0.073533
969.790798	0.074025
969.965836	0.072302
970.140856	0.074134
970.315858	0.073831
970.490842	0.074671
970.665808	0.075340
970.840755	0.074859
971.015684	0.072844
971.190595	0.072725
971.365487	0.071860
971.540362	0.069759
971.715218	0.068067
971.890056	0.068190
972.064875	0.066241
972.239677	0.067896
972.414460	0.071273
972.589225	0.071594
972.763972	0.073569
972.938700	0.076047
973.113411	0.077679
973.288103	0.078520
973.462777	0.077671
973.637432	0.076954
973.812070	0.073807
973.986689	0.072294
974.161290	0.071922
974.335873	0.070166
974.510437	0.068966
974.684984	0.069293
974.859512	0.069001
975.034022	0.070480
975.208513	0.072081
975.382987	0.073863
975.557442	0.074060
975.731879	0.074103
975.906298	0.073613
976.080698	0.072294
976.255080	0.072166
976.429445	0.071941
976.603790	0.071352
976.778118	0.070560
976.952427	0.068670
977.126719	0.068647
977.300992	0.069936
977.475246	0.069891
977.649483	0.068858
977.823701	0.069261
977.997901	0.071408
978.172083	0.070810
978.346247	0.072651
978.520392	0.075095
978.694519	0.073477
978.868628	0.071967
979.042719	0.072584
979.216791	0.074429
979.390845	0.074829
979.564882	0.073561
979.738899	0.074470
979.912899	0.072283
980.086880	0.071919
980.260843	0.074159
980.434788	0.075260
980.608715	0.075849
980.782623	0.075556
980.956514	0.074684
981.130386	0.074408
981.304240	0.073454
981.478075	0.074177
981.651892	0.073614
981.825692	0.072414
981.999472	0.071212
982.173235	0.070092
982.346980	0.071579
982.520706	0.071559
982.694414	0.072479
982.868104	0.072718
983.041775	0.074317
983.215428	0.074042
983.389064	0.072863
983.562680	0.074389
983.736279	0.075243
983.909860	0.072869
984.083422	0.072432
984.256966	0.072276
984.430491	0.072620
984.603999	0.072048
984.777488	0.073020
984.950959	0.075086
985.124412	0.076751
985.297847	0.075980
985.471263	0.077375
985.644661	0.078181
985.818041	0.078532
985.991403	0.076688
986.164747	0.075175
986.338072	0.075295
986.511379	0.074373
986.684668	0.073521
986.857938	0.073543
987.031191	0.074523
987.204425	0.075497
987.377641	0.075326
987.550839	0.076649
987.724018	0.078310
987.897179	0.076522
988.070322	0.077313
988.243447	0.077245
988.416554	0.076511
988.589642	0.076141
988.762712	0.076257
988.935764	0.073100
989.108798	0.072294
989.281813	0.072446
989.454811	0.073961
989.627790	0.075298
989.800751	0.075277
989.973693	0.075623
990.146617	0.074125
990.319524	0.073280
990.492412	0.076526
990.665281	0.077503
990.838133	0.077055
991.010966	0.077551
991.183781	0.075342
991.356578	0.075388
991.529356	0.075086
991.702117	0.075410
991.874859	0.075378
992.047583	0.075432
992.220288	0.075906
992.392976	0.073210
992.565645	0.072200
992.738296	0.072245
992.910929	0.071245
993.083543	0.070480
993.256139	0.070690
993.428718	0.070222
993.601277	0.069818
993.773819	0.068733
993.946342	0.072787
994.118848	0.072347
994.291335	0.072768
994.463803	0.072188
994.636254	0.074611
994.808686	0.076546
994.981100	0.076829
995.153496	0.076634
995.325874	0.077792
995.498233	0.075685
995.670574	0.075674
995.842897	0.077544
996.015202	0.078578
996.187488	0.077319
996.359757	0.076198
996.532007	0.074272
996.704239	0.073360
996.876452	0.074411
997.048648	0.074121
997.220825	0.075195
997.392984	0.074523
997.565124	0.071800
997.737247	0.072277
997.909351	0.072912
998.081437	0.074928
998.253505	0.075829
998.425554	0.075095
998.597586	0.076149
998.769599	0.076998
998.941594	0.076441
999.113571	0.079621
999.285529	0.078341
999.457469	0.076516
999.629391	0.076518
999.801295	0.076005
999.973181	0.074035
1000.145048	0.072582
1000.316897	0.072731
1000.488728	0.071804
1000.660541	0.071954
1000.832335	0.073451
1001.004111	0.073814
1001.175869	0.073629
1001.347609	0.074954
1001.519331	0.075956
1001.691034	0.078010
1001.862719	0.076965
1002.034386	0.077923
1002.206035	0.076291
1002.377665	0.076051
1002.549277	0.076386
1002.720871	0.075718
1002.892447	0.076333
1003.064004	0.076686
1003.235544	0.076141
1003.407065	0.077651
1003.578568	0.078149
1003.750052	0.079897
1003.921519	0.079516
1004.092967	0.078681
1004.264397	0.079230
1004.435809	0.077846
1004.607202	0.078229
1004.778577	0.079228
1004.949934	0.078427
1005.121273	0.077526
1005.292594	0.075384
1005.463896	0.074665
1005.635180	0.075599
1005.806446	0.076890
1005.977694	0.076682
1006.148923	0.075960
1006.320135	0.074793
1006.491328	0.072973
1006.662503	0.073430
1006.833659	0.073893
1007.004798	0.075581
1007.175918	0.076133
1007.347020	0.075257
1007.518103	0.075516
1007.689169	0.076702
1007.860216	0.077020
1008.031245	0.077994
1008.202256	0.077510
1008.373248	0.076799
1008.544223	0.075750
1008.715179	0.076795
1008.886117	0.076606
1009.057036	0.076095
1009.227938	0.077984
1009.398821	0.078382
1009.569686	0.077725
1009.740533	0.077845
1009.911361	0.078914
1010.082172	0.078938
1010.252964	0.077646
1010.423738	0.076480
1010.594493	0.077024
1010.765231	0.074629
1010.935950	0.074635
1011.106651	0.076377
1011.277334	0.075399
1011.447998	0.076025
1011.618645	0.078039
1011.789273	0.076339
1011.959882	0.077481
1012.130474	0.076675
1012.301048	0.076971
1012.471603	0.077173
1012.642140	0.076628
1012.812658	0.077773
1012.983159	0.077261
1013.153641	0.076701
1013.324105	0.077877
1013.494551	0.078889
1013.664979	0.077744
1013.835388	0.078327
1014.005779	0.077882
1014.176152	0.079018
1014.346507	0.078561
1014.516843	0.079289
1014.687162	0.079150
1014.857462	0.078725
1015.027744	0.078103
1015.198007	0.080086
1015.368252	0.078463
1015.538480	0.079021
1015.708689	0.075575
1015.878879	0.075983
1016.049052	0.076623
1016.219206	0.076166
1016.389342	0.078037
1016.559460	0.078024
1016.729559	0.080133
1016.899641	0.081324
1017.069704	0.080724
1017.239749	0.082937
1017.409775	0.083163
1017.579784	0.080040
1017.749774	0.079162
1017.919746	0.077919
1018.089700	0.077666
1018.259635	0.075949
1018.429553	0.076828
1018.599452	0.077921
1018.769333	0.077249
1018.939195	0.077151
1019.109040	0.079171
1019.278866	0.078847
1019.448674	0.078321
1019.618464	0.078277
1019.788235	0.077688
1019.957989	0.077020
1020.127724	0.075915
1020.297441	0.075545
1020.467139	0.074838
1020.636820	0.073393
1020.806482	0.075128
1020.976126	0.074916
1021.145752	0.075096
1021.315359	0.074644
1021.484948	0.073814
1021.654519	0.073035
1021.824072	0.073213
1021.993607	0.074659
1022.163123	0.075841
1022.332621	0.074934
1022.502101	0.075855
1022.671563	0.075529
1022.841007	0.075974
1023.010432	0.078511
1023.179839	0.078956
1023.349228	0.078590
1023.518598	0.077170
1023.687951	0.076664
1023.857285	0.076857
1024.026601	0.076477
1024.195899	0.075544
1024.365178	0.075491
1024.534439	0.071838
1024.703682	0.072098
1024.872907	0.074072
1025.042114	0.075132
1025.211302	0.077364
1025.380472	0.076213
1025.549624	0.077378
1025.718758	0.078147
1025.887873	0.078679
1026.056970	0.080719
1026.226049	0.079986
1026.395110	0.078847
1026.564153	0.079349
1026.733177	0.077427
1026.902183	0.078724
1027.071171	0.077699
1027.240141	0.077188
1027.409092	0.077664
1027.578026	0.077405
1027.746940	0.079049
1027.915837	0.079975
1028.084716	0.078827
1028.253576	0.080363
1028.422418	0.080085
1028.591242	0.080129
1028.760048	0.080485
1028.928835	0.080170
1029.097604	0.080846
1029.266355	0.079294
1029.435088	0.079047
1029.603803	0.080362
1029.772499	0.078968
1029.941177	0.079158
1030.109837	0.078767
1030.278478	0.079158
1030.447102	0.076483
1030.615707	0.074978
1030.784294	0.074729
1030.952863	0.074301
1031.121413	0.073977
1031.289945	0.074149
1031.458460	0.074532
1031.626955	0.074206
1031.795433	0.074418
1031.963892	0.077993
1032.132334	0.079817
1032.300756	0.081656
1032.469161	0.080447
1032.637548	0.079953
1032.805916	0.080761
1032.974266	0.080782
1033.142598	0.081775
1033.310911	0.082301
1033.479207	0.081317
1033.647484	0.079837
1033.815743	0.078976
1033.983983	0.079256
1034.152206	0.077859
1034.320410	0.076776
1034.488596	0.075971
1034.656764	0.075758
1034.824914	0.075613
1034.993045	0.074264
1035.161158	0.075443
1035.329253	0.075017
1035.497330	0.075243
1035.665388	0.076681
1035.833428	0.075567
1036.001450	0.075338
1036.169454	0.075050
1036.337440	0.074920
1036.505407	0.076382
1036.673356	0.073908
1036.841287	0.073994
1037.009200	0.075783
1037.177094	0.074409
1037.344970	0.074976
1037.512828	0.074745
1037.680668	0.073449
1037.848489	0.072854
1038.016293	0.073807
1038.184078	0.075177
1038.351845	0.075375
1038.519593	0.074825
1038.687324	0.076432
1038.855036	0.079099
1039.022730	0.080140
1039.190406	0.082984
1039.358063	0.082755
1039.525702	0.082055
1039.693323	0.081204
1039.860926	0.081568
1040.028511	0.080387
1040.196077	0.079791
1040.363625	0.078528
1040.531155	0.077680
1040.698667	0.076184
1040.866161	0.076787
1041.033636	0.077097
1041.201093	0.077967
1041.368532	0.077211
1041.535952	0.078508
1041.703355	0.079961
1041.870739	0.080193
1042.038105	0.079152
1042.205452	0.080437
1042.372782	0.079762
1042.540093	0.077982
1042.707386	0.077727
1042.874661	0.077966
1043.041918	0.076930
1043.209156	0.076112
1043.376376	0.076227
1043.543578	0.077665
1043.710762	0.077920
1043.877927	0.076848
1044.045074	0.078482
1044.212203	0.079356
1044.379314	0.079362
1044.546407	0.080042
1044.713481	0.077986
1044.880537	0.076570
1045.047575	0.077733
1045.214595	0.076946
1045.381596	0.079340
1045.548579	0.077805
1045.715544	0.078088
1045.882491	0.077895
1046.049420	0.077526
1046.216330	0.079847
1046.383222	0.080650
1046.550096	0.079750
1046.716951	0.078780
1046.883789	0.076573
1047.050608	0.076506
1047.217409	0.076874
1047.384192	0.077805
1047.550956	0.077287
1047.717703	0.075974
1047.884431	0.074588
1048.051140	0.075183
1048.217832	0.075236
1048.384505	0.076561
1048.551161	0.077731
1048.717798	0.076130
1048.884416	0.075054
1049.051017	0.074818
1049.217599	0.074753
1049.384163	0.075429
1049.550709	0.074524
1049.717237	0.073765
1049.883746	0.073617
1050.050237	0.072791
1050.216710	0.071197
1050.383165	0.071020
1050.549601	0.070392
1050.716019	0.070125
1050.882420	0.070984
1051.048801	0.071562
1051.215165	0.072225
1051.381510	0.072387
1051.547837	0.073170
1051.714146	0.075272
1051.880437	0.075235
1052.046709	0.077748
1052.212964	0.078690
1052.379200	0.078102
1052.545417	0.078166
1052.711617	0.077475
1052.877798	0.076140
1053.043961	0.076425
1053.210106	0.077034
1053.376233	0.078131
1053.542341	0.077996
1053.708432	0.078052
1053.874504	0.079892
1054.040557	0.078316
1054.206593	0.079303
1054.372610	0.080923
1054.538609	0.078073
1054.704590	0.077340
1054.870553	0.076825
1055.036497	0.076001
1055.202424	0.075533
1055.368331	0.075624
1055.534221	0.077510
1055.700093	0.078745
1055.865946	0.077594
1056.031781	0.080140
1056.197598	0.079720
1056.363397	0.079142
1056.529177	0.077863
1056.694939	0.079658
1056.860683	0.078275
1057.026409	0.075501
1057.192116	0.075192
1057.357806	0.076327
1057.523477	0.076220
1057.689130	0.077513
1057.854764	0.078223
1058.020381	0.078289
1058.185979	0.077336
1058.351559	0.075362
1058.517120	0.076654
1058.682664	0.074402
1058.848189	0.074244
1059.013696	0.073019
1059.179185	0.072021
1059.344656	0.071300
1059.510108	0.070867
1059.675542	0.070612
1059.840958	0.072368
1060.006356	0.070491
1060.171735	0.070781
1060.337096	0.072600
1060.502439	0.073754
1060.667764	0.074407
1060.833071	0.076705
1060.998359	0.077919
1061.163629	0.078713
1061.328881	0.079312
1061.494115	0.080278
1061.659330	0.081490
1061.824527	0.079005
1061.989706	0.078790
1062.154867	0.076983
1062.320010	0.075371
1062.485134	0.075466
1062.650240	0.075513
1062.815328	0.074217
1062.980398	0.076100
1063.145449	0.075734
1063.310482	0.077116
1063.475497	0.076942
1063.640494	0.079587
1063.805473	0.078964
1063.970433	0.079391
1064.135375	0.077984
1064.300299	0.079079
1064.465204	0.078276
1064.630092	0.079775
1064.794961	0.079028
1064.959812	0.080551
1065.124645	0.078325
1065.289459	0.081156
1065.454256	0.081737
1065.619034	0.081944
1065.783793	0.081501
1065.948535	0.081224
1066.113258	0.080312
1066.277964	0.081892
1066.442651	0.081483
1066.607319	0.082046
1066.771970	0.081197
1066.936602	0.080918
1067.101216	0.081682
1067.265812	0.082640
1067.430389	0.081502
1067.594949	0.079353
1067.759490	0.077038
1067.924013	0.077854
1068.088518	0.077429
1068.253004	0.077028
1068.417472	0.074978
1068.581922	0.074836
1068.746354	0.074242
1068.910768	0.077314
1069.075163	0.078540
1069.239540	0.080460
1069.403899	0.080246
1069.568240	0.081799
1069.732562	0.080771
1069.896866	0.081735
1070.061152	0.080495
1070.225420	0.080384
1070.389670	0.079140
1070.553901	0.079129
1070.718114	0.079784
1070.882309	0.077004
1071.046486	0.076118
1071.210644	0.076630
1071.374784	0.078110
1071.538906	0.078727
1071.703010	0.078769
1071.867096	0.077386
1072.031163	0.079153
1072.195212	0.079921
1072.359243	0.083944
1072.523256	0.084629
1072.687250	0.085656
1072.851226	0.082983
1073.015184	0.084882
1073.179124	0.085587
1073.343045	0.086955
1073.506949	0.087939
1073.670834	0.083728
1073.834701	0.079817
1073.998549	0.079378
1074.162380	0.079668
1074.326192	0.081057
1074.489986	0.080948
1074.653761	0.079305
1074.817519	0.079510
1074.981258	0.077787
1075.144979	0.080598
1075.308682	0.083554
1075.472367	0.082800
1075.636033	0.080219
1075.799681	0.079840
1075.963311	0.077957
1076.126923	0.080103
1076.290516	0.080305
1076.454092	0.082504
1076.617649	0.082631
1076.781187	0.080955
1076.944708	0.082059
1077.108210	0.083581
1077.271695	0.082528
1077.435160	0.084262
1077.598608	0.081868
1077.762038	0.082280
1077.925449	0.079690
1078.088842	0.079201
1078.252217	0.077933
1078.415573	0.078422
1078.578912	0.080091
1078.742232	0.082354
1078.905534	0.080471
1079.068817	0.082855
1079.232083	0.082443
1079.395330	0.081386
1079.558559	0.080678
1079.721770	0.082958
1079.884962	0.083167
1080.048136	0.080060
1080.211293	0.079683
1080.374430	0.080515
1080.537550	0.081016
1080.700651	0.079149
1080.863735	0.083335
1081.026800	0.084916
1081.189846	0.085087
1081.352875	0.082979
1081.515885	0.084662
1081.678877	0.084627
1081.841851	0.085522
1082.004807	0.084814
1082.167744	0.084717
1082.330663	0.081980
1082.493564	0.081450
1082.656447	0.081136
1082.819312	0.081254
1082.982158	0.081049
1083.144986	0.080304
1083.307796	0.083849
1083.470587	0.082809
1083.633361	0.084228
1083.796116	0.084684
1083.958853	0.083731
1084.121571	0.082875
1084.284272	0.084314
1084.446954	0.083481
1084.609618	0.084622
1084.772264	0.078929
1084.934892	0.078371
1085.097501	0.080219
1085.260092	0.080465
1085.422665	0.080269
1085.585220	0.078915
1085.747756	0.077970
1085.910274	0.078881
1086.072774	0.079823
1086.235256	0.080655
1086.397720	0.082201
1086.560165	0.081438
1086.722592	0.081966
1086.885001	0.084321
1087.047392	0.086343
1087.209764	0.088243
1087.372119	0.088537
1087.534455	0.087354
1087.696772	0.085915
1087.859072	0.085384
1088.021353	0.087759
1088.183616	0.087531
1088.345861	0.085127
1088.508088	0.086204
1088.670296	0.084664
1088.832486	0.084321
1088.994658	0.084944
1089.156812	0.087546
1089.318948	0.086719
1089.481065	0.082330
1089.643164	0.080597
1089.805245	0.080869
1089.967308	0.081302
1090.129352	0.082959
1090.291378	0.085658
1090.453386	0.083232
1090.615376	0.081911
1090.777347	0.081570
1090.939301	0.084273
1091.101236	0.081834
1091.263153	0.084166
1091.425051	0.083717
1091.586932	0.083800
1091.748794	0.082669
1091.910638	0.087076
1092.072463	0.088334
1092.234271	0.087588
1092.396060	0.084100
1092.557831	0.086313
1092.719584	0.084265
1092.881319	0.083930
1093.043035	0.084773
1093.204733	0.082467
1093.366413	0.081615
1093.528075	0.082885
1093.689718	0.083656
1093.851343	0.085759
1094.012950	0.088206
1094.174539	0.090210
1094.336110	0.089708
1094.497662	0.087298
1094.659196	0.088429
1094.820712	0.088185
1094.982210	0.088538
1095.143689	0.088008
1095.305151	0.088473
1095.466594	0.088044
1095.628018	0.086225
1095.789425	0.087151
1095.950813	0.087583
1096.112183	0.087647
1096.273535	0.087626
1096.434869	0.086791
1096.596184	0.088214
1096.757482	0.087300
1096.918761	0.086310
1097.080021	0.086362
1097.241264	0.085355
1097.402488	0.085425
1097.563694	0.086237
1097.724882	0.085946
1097.886052	0.082670
1098.047203	0.087077
1098.208336	0.084982
1098.369451	0.086490
1098.530548	0.086739
1098.691627	0.084967
1098.852687	0.083616
1099.013729	0.080106
1099.174753	0.079560
1099.335758	0.082389
1099.496746	0.080266
1099.657715	0.083034
1099.818666	0.080807
1099.979599	0.080487
1100.140513	0.083708
1100.301409	0.083169
1100.462287	0.086567
1100.623147	0.088069
1100.783989	0.088622
1100.944812	0.086597
1101.105617	0.086211
1101.266404	0.085633
1101.427173	0.089531
1101.587923	0.087651
1101.748656	0.088779
1101.909370	0.086006
1102.070066	0.083938
1102.230743	0.081526
1102.391403	0.083252
1102.552044	0.084244
1102.712667	0.083473
1102.873271	0.080873
1103.033858	0.081973
1103.194426	0.084397
1103.354976	0.087553
1103.515508	0.086977
1103.676021	0.086867
1103.836517	0.083440
1103.996994	0.084495
1104.157453	0.087315
1104.317893	0.086008
1104.478316	0.084027
1104.638720	0.084857
1104.799106	0.081577
1104.959474	0.083734
1105.119823	0.083663
1105.280155	0.083565
1105.440468	0.080930
1105.600763	0.079826
1105.761039	0.078276
1105.921298	0.079359
1106.081538	0.075086
1106.241760	0.076503
1106.401964	0.072391
1106.562149	0.074207
1106.722316	0.078379
1106.882465	0.079159
1107.042596	0.081213
1107.202709	0.085554
1107.362803	0.084837
1107.522879	0.086284
1107.682937	0.086839
1107.842977	0.092496
1108.002999	0.092547
1108.163002	0.089790
1108.322987	0.093887
1108.482954	0.096120
1108.642902	0.091618
1108.802833	0.096023
1108.962745	0.094945
1109.122639	0.092222
1109.282515	0.088927
1109.442372	0.088755
1109.602211	0.089766
1109.762032	0.085308
1109.921835	0.077657
1110.081620	0.077918
1110.241386	0.075950
1110.401134	0.073535
1110.560864	0.074891
1110.720576	0.078519
1110.880269	0.079664
1111.039945	0.075414
1111.199602	0.077883
1111.359240	0.081938
1111.518861	0.083450
1111.678463	0.080760
1111.838047	0.082166
1111.997613	0.079984
1112.157161	0.076753
1112.316690	0.073499
1112.476202	0.077262
1112.635695	0.078840
1112.795169	0.076515
1112.954626	0.076027
1113.114064	0.078776
1113.273484	0.081277
1113.432886	0.084446
1113.592270	0.084788
1113.751635	0.087489
1113.910983	0.083135
1114.070312	0.079648
1114.229622	0.082466
1114.388915	0.085800
1114.548189	0.085467
1114.707445	0.085179
1114.866683	0.083225
1115.025903	0.085042
1115.185104	0.085355
1115.344287	0.089374
1115.503452	0.088946
1115.662599	0.088213
1115.821727	0.084597
1115.980838	0.083372
1116.139930	0.082289
1116.299004	0.081159
1116.458059	0.077555
1116.617097	0.071485
1116.776116	0.069410
1116.935117	0.071550
1117.094099	0.073153
1117.253064	0.073139
1117.412010	0.073854
1117.570938	0.070668
1117.729848	0.072450
1117.888740	0.077904
1118.047613	0.084463
1118.206468	0.085939
1118.365305	0.082562
1118.524124	0.083727
1118.682924	0.088774
1118.841707	0.086710
1119.000471	0.089752
1119.159216	0.088761
1119.317944	0.084169
1119.476653	0.082997
1119.635344	0.085510
1119.794017	0.086776
1119.952672	0.081837
1120.111308	0.079784
1120.269927	0.079991
1120.428527	0.082679
1120.587108	0.085293
1120.745672	0.087827
1120.904217	0.084305
1121.062744	0.080100
1121.221253	0.082567
1121.379744	0.083747
1121.538216	0.082412
1121.696671	0.083167
1121.855107	0.080773
1122.013524	0.083576
1122.171924	0.080790
1122.330305	0.082046
1122.488668	0.084623
1122.647013	0.082744
1122.805340	0.080992
1122.963648	0.079467
1123.121938	0.081698
1123.280210	0.081475
1123.438464	0.082206
1123.596700	0.086977
1123.754917	0.086688
1123.913116	0.086542
1124.071297	0.086753
1124.229459	0.088786
1124.387604	0.089753
1124.545730	0.087777
1124.703838	0.089818
1124.861928	0.085665
1125.019999	0.080526
1125.178052	0.082314
1125.336088	0.083136
1125.494104	0.083795
1125.652103	0.085239
1125.810083	0.085197
1125.968045	0.085559
1126.125989	0.084498
1126.283915	0.087213
1126.441823	0.087238
1126.599712	0.088940
1126.757583	0.087094
1126.915436	0.081157
1127.073270	0.081107
1127.231087	0.081310
1127.388885	0.082552
1127.546665	0.082321
1127.704426	0.077379
1127.862170	0.081569
1128.019895	0.079805
1128.177602	0.081213
1128.335291	0.084028
1128.492961	0.086142
1128.650614	0.086692
1128.808248	0.087965
1128.965864	0.087763
1129.123461	0.088223
1129.281041	0.081188
1129.438602	0.082442
1129.596145	0.083863
1129.753670	0.089270
1129.911176	0.084820
1130.068665	0.084802
1130.226135	0.079910
1130.383587	0.082313
1130.541020	0.084074
1130.698436	0.089057
1130.855833	0.084652
1131.013212	0.080716
1131.170573	0.078419
1131.327915	0.084523
1131.485239	0.082724
1131.642545	0.083363
1131.799833	0.083430
1131.957103	0.084036
1132.114354	0.081499
1132.271588	0.079957
1132.428803	0.086316
1132.585999	0.085227
1132.743178	0.080186
1132.900338	0.078886
1133.057480	0.077923
1133.214604	0.077707
1133.371710	0.072316
1133.528797	0.074153
1133.685866	0.076072
1133.842917	0.069382
1133.999950	0.066991
1134.156964	0.068058
1134.313960	0.073169
1134.470938	0.075138
1134.627898	0.077543
1134.784840	0.077455
1134.941763	0.077062
1135.098668	0.077042
1135.255555	0.078967
1135.412424	0.082560
1135.569274	0.084499
1135.726107	0.076641
1135.882921	0.076358
1136.039716	0.071496
1136.196494	0.073029
1136.353253	0.075741
1136.509995	0.075954
1136.666717	0.076007
1136.823422	0.076201
1136.980109	0.072963
1137.136777	0.073883
1137.293427	0.070441
1137.450059	0.072663
1137.606672	0.075470
1137.763267	0.073851
1137.919844	0.079181
1138.076403	0.078667
1138.232944	0.078164
1138.389466	0.081632
1138.545971	0.084210
1138.702457	0.091876
1138.858924	0.090918
1139.015374	0.091124
1139.171805	0.090770
1139.328218	0.082104
1139.484613	0.082120
1139.640990	0.081238
1139.797348	0.079162
1139.953688	0.074190
1140.110010	0.066988
1140.266314	0.071060
1140.422600	0.077300
1140.578867	0.073656
1140.735116	0.077526
1140.891347	0.083513
1141.047559	0.083522
1141.203754	0.083773
1141.359930	0.086576
1141.516088	0.091618
1141.672228	0.085244
1141.828349	0.082934
1141.984452	0.081630
1142.140537	0.082895
1142.296604	0.073764
1142.452653	0.072875
1142.608683	0.076310
1142.764695	0.079395
1142.920689	0.076795
1143.076665	0.078695
1143.232622	0.070637
1143.388562	0.071276
1143.544483	0.073192
1143.700385	0.074597
1143.856270	0.074966
1144.012136	0.069819
1144.167985	0.065503
1144.323814	0.066866
1144.479626	0.067287
1144.635420	0.070695
1144.791195	0.072986
1144.946952	0.068640
1145.102691	0.071314
1145.258411	0.066999
1145.414113	0.069881
1145.569798	0.071493
1145.725463	0.070788
1145.881111	0.066531
1146.036741	0.073840
1146.192352	0.070267
1146.347945	0.075027
1146.503519	0.068004
1146.659076	0.076923
1146.814614	0.076298
1146.970134	0.077349
1147.125636	0.073819
1147.281120	0.075145
1147.436585	0.062945
1147.592032	0.069039
1147.747461	0.069954
1147.902872	0.084358
1148.058265	0.085746
1148.213639	0.081964
1148.368995	0.086373
1148.524333	0.091489
1148.679653	0.094685
1148.834954	0.095485
1148.990237	0.096776
1149.145502	0.089695
1149.300749	0.087707
1149.455977	0.080129
1149.611188	0.080637
1149.766380	0.079103
1149.921553	0.080889
1150.076709	0.076628
1150.231846	0.084599
1150.386966	0.083976
1150.542066	0.089638
1150.697149	0.082346
1150.852214	0.082345
1151.007260	0.080553
1151.162288	0.078048
1151.317298	0.074524
1151.472289	0.078743
1151.627263	0.078304
1151.782218	0.074969
1151.937155	0.069231
1152.092073	0.070638
1152.246974	0.072179
1152.401856	0.075293
1152.556720	0.078465
1152.711566	0.081779
1152.866393	0.080524
1153.021203	0.076002
1153.175994	0.079701
1153.330767	0.082685
1153.485521	0.082277
1153.640258	0.085173
1153.794976	0.082684
1153.949676	0.079593
1154.104358	0.078122
1154.259021	0.079142
1154.413667	0.079667
1154.568294	0.077398
1154.722903	0.076436
1154.877493	0.078644
1155.032066	0.072503
1155.186620	0.072706
1155.341156	0.078617
1155.495674	0.074766
1155.650173	0.076788
1155.804654	0.082375
1155.959118	0.081197
1156.113562	0.081173
1156.267989	0.086327
1156.422397	0.088489
1156.576788	0.082593
1156.731160	0.078535
1156.885513	0.085036
1157.039849	0.078669
1157.194166	0.073913
1157.348465	0.073235
1157.502746	0.076177
1157.657009	0.074539
1157.811253	0.068696
1157.965479	0.078563
1158.119687	0.082235
1158.273877	0.071377
1158.428048	0.078652
1158.582201	0.077343
1158.736337	0.072626
1158.890453	0.070175
1159.044552	0.063882
1159.198632	0.065485
1159.352694	0.064077
1159.506738	0.055942
1159.660764	0.063442
1159.814771	0.058906
1159.968761	0.063266
1160.122732	0.070031
1160.276685	0.078527
1160.430619	0.075081
1160.584535	0.083561
1160.738434	0.084591
1160.892313	0.083229
1161.046175	0.078333
1161.200019	0.084611
1161.353844	0.078129
1161.507651	0.075709
1161.661440	0.059327
1161.815210	0.060985
1161.968962	0.054083
1162.122697	0.055290
1162.276412	0.059767
1162.430110	0.064860
1162.583789	0.061374
1162.737451	0.057504
1162.891094	0.056097
1163.044718	0.063126
1163.198325	0.066505
1163.351913	0.068922
1163.505483	0.063995
1163.659035	0.063934
1163.812569	0.055006
1163.966084	0.047053
1164.119581	0.056784
1164.273060	0.057387
1164.426521	0.052963
1164.579964	0.051275
1164.733388	0.050889
1164.886794	0.050434
1165.040182	0.049700
1165.193551	0.059791
1165.346903	0.065776
1165.500236	0.061258
1165.653551	0.063734
1165.806848	0.065091
1165.960126	0.065373
1166.113386	0.060823
1166.266628	0.057570
1166.419852	0.056649
1166.573058	0.056213
1166.726245	0.057395
1166.879414	0.057422
1167.032565	0.059139
1167.185698	0.063199
1167.338812	0.056610
1167.491909	0.061133
1167.644987	0.062640
1167.798046	0.063907
1167.951088	0.058818
1168.104111	0.054812
1168.257117	0.052543
1168.410103	0.048158
1168.563072	0.049075
1168.716023	0.061368
1168.868955	0.063016
1169.021869	0.058647
1169.174765	0.057729
1169.327642	0.059064
1169.480501	0.055065
1169.633343	0.057664
1169.786165	0.060784
1169.938970	0.057969
1170.091757	0.049785
1170.244525	0.048691
1170.397275	0.056977
1170.550007	0.064155
1170.702720	0.068165
1170.855415	0.077407
1171.008092	0.071710
1171.160751	0.062963
1171.313392	0.058581
1171.466014	0.095245
1171.618619	0.009736
1171.771205	0.009736
1171.923772	0.009736
