sample name	sample
index	20
start time	 02-11-2021  12:01:23 PM
880	0.096719
Peak Time (s)	81.535
Peak Height 	0.09672
calc peak height	80,83
Baseline Time (s)	10.536
Baseline Value 	-1.7372E-4
subtract baseline	10,4
Abs	0.063063
Peak Time (s)	80.037
Peak Height 	0.06306
calc peak height	80,83
Baseline Time (s)	10.036
Baseline Value 	0.008638
subtract baseline	10,3
PK_550	0.034710
Peak Time (s)	81.535
Peak Height 	0.03471
calc peak height	80,83
Baseline Time (s)	11.536
Baseline Value 	-2.316E-4
subtract baseline	10,2
PK_880	0.048749
Peak Time (s)	80.037
Peak Height 	0.04875
calc peak height	80,83
Baseline Time (s)	11.036
Baseline Value 	9.334E-4
subtract baseline	10,1


Time (s)	A880-A510	A880-A775	A880-A975	A880	I510	I775	I975	I880	
0.035000	-0.005025	-0.000300	-0.013741	0.005111	4436.581256	19007.381934	3220.953273	10217.891106
0.535500	0.001389	0.000958	0.002241	0.003297	4465.512425	19121.086505	3236.016371	10248.506989
1.038000	0.002006	0.000180	0.001721	-0.000352	4480.728005	19228.061828	3238.729107	10310.456777
1.536000	0.000399	0.000461	-0.000395	-0.000235	4474.562867	19234.184552	3236.790768	10308.461530
2.039500	-0.004896	-0.000538	-0.001580	0.005282	4436.438169	18992.329073	3231.034259	10215.027460
2.536500	-0.005085	0.001018	-0.010802	0.002550	4445.316967	19151.094191	3225.542826	10261.141512
3.037000	0.000308	-0.000622	-0.013462	0.001333	4468.652628	19135.374876	3224.333558	10281.793943
3.537500	-0.003297	-0.000673	-0.001499	0.001367	4455.762704	19132.177356	3234.455272	10281.206045
4.034500	-0.006590	-0.000278	-0.008109	0.006574	4426.071584	18954.357853	3224.426495	10193.302239
4.534000	-0.002746	-0.000642	-0.011404	0.002485	4453.762947	19091.846054	3225.092324	10262.240842
5.035000	-0.004150	0.000704	-0.008263	0.003330	4445.860509	19110.435366	3227.023382	10247.946135
5.538500	0.002180	0.000484	-0.011777	0.000164	4479.502428	19220.111496	3226.729767	10301.661983
6.036000	0.000387	-0.000416	-0.010695	-0.000152	4474.224123	19198.329790	3227.909650	10307.053517
6.535500	-0.002028	-0.000805	-0.003470	0.002197	4457.309238	19096.486841	3232.053659	10267.121090
7.036500	-0.001347	0.000020	-0.011349	-0.000341	4468.721010	19221.694307	3227.517004	10310.279844
7.536000	0.003009	0.000976	0.000732	-0.000271	4484.037827	19254.812905	3237.799271	10309.083745
8.037000	0.001784	0.002061	-0.019628	-0.000222	4479.469670	19293.650165	3220.494061	10308.239955
8.537500	0.003747	0.001085	-0.003832	-0.000368	4487.039638	19262.523495	3233.941889	10310.728677
9.035000	0.002532	-0.000017	0.001133	-0.003616	4494.377831	19343.139607	3241.064981	10366.328446
9.535000	-0.001875	-0.000114	-0.011257	-0.000708	4468.147526	19230.401072	3227.904985	10316.537516
10.035500	0.000154	-0.000084	0.000000	0.000418	4471.362731	19189.464016	3236.568073	10297.350349
10.535500	-0.001056	0.001070	-0.012991	0.000000	4468.542349	19248.211026	3225.845977	10304.462489
11.036000	0.000000	0.001160	0.004161	0.000860	4469.238020	19219.396738	3239.798702	10289.826250
11.536000	-0.002273	0.000000	0.003627	0.000034	4464.099146	19206.938629	3240.054223	10303.890690
12.036500	-0.001267	0.001184	-0.014208	0.000641	4465.511733	19228.474477	3224.287959	10293.543134
12.536500	0.003699	0.000981	-0.007280	0.001011	4481.914598	19207.074366	3229.817710	10287.255530
13.034500	-0.003887	0.000314	-0.008771	-0.000248	4459.381577	19229.203150	3229.620716	10308.690774
13.534500	0.000275	0.000223	-0.012506	0.000476	4471.583241	19198.726949	3225.853121	10296.349506
14.035000	0.002560	0.000366	-0.007031	-0.000516	4483.305792	19241.147609	3231.329527	10313.250967
14.535500	0.000418	0.001603	-0.004727	0.001214	4469.465546	19222.721610	3231.820291	10283.816472
15.038000	0.000037	-0.000361	-0.013480	-0.000206	4473.168709	19202.404026	3225.608410	10307.971186
15.535500	0.002526	-0.000603	-0.002534	-0.000699	4483.839107	19211.773216	3235.343262	10316.376194
16.035500	-0.002527	-0.000347	-0.005484	0.000192	4462.638780	19188.087181	3232.045999	10301.192215
16.536000	-0.000424	0.001349	-0.011822	0.001039	4467.096015	19219.780091	3225.955371	10286.787595
17.036500	0.000468	0.000480	-0.010232	-0.000038	4474.107272	19227.547133	3228.204471	10305.110580
17.537000	-0.002350	-0.000735	0.004887	-0.000721	4466.505535	19207.672979	3241.818031	10316.764415
18.037500	0.002893	0.002162	0.009413	0.001605	4476.898850	19228.996368	3243.752326	10277.169136
18.535000	-0.002005	-0.000466	-0.003204	-0.000955	4468.561914	19226.470721	3234.986988	10320.750220
19.035000	0.001274	0.000099	-0.003952	-0.001380	4481.790039	19263.509891	3234.709072	10328.009698
19.535500	0.002079	0.000222	-0.008768	-0.002355	4488.190756	19304.685022	3231.416990	10344.690126
20.035500	-0.000660	0.000213	0.002665	-0.001189	4474.190871	19260.630226	3240.281806	10324.753049
20.536000	0.001964	0.001676	-0.012411	-0.000264	4480.265937	19280.776971	3226.556355	10308.961108
21.036500	-0.003866	-0.000189	0.001845	-0.001741	4464.743086	19266.236022	3240.048439	10334.186182
21.539500	0.003144	0.001342	-0.004388	-0.000228	4484.371038	19266.953617	3233.345036	10308.355704
22.037000	-0.002850	-0.000880	-0.013171	0.000445	4460.598112	19158.807912	3225.321629	10296.888761
22.540000	0.001773	0.000621	-0.012510	0.001347	4473.817887	19181.084903	3225.118919	10281.544720
23.035000	-0.000739	0.000305	-0.008513	0.000876	4466.553115	19186.913119	3228.886669	10289.557902
23.535000	-0.000542	0.001477	-0.001507	-0.001169	4474.536780	19307.304493	3236.636962	10324.403422
24.035000	0.000657	0.001039	0.001716	0.002159	4466.954361	19166.425392	3236.546212	10267.773871
24.538000	0.001817	-0.000101	0.002146	-0.001532	4484.285660	19261.705465	3240.128535	10330.609265
25.036000	0.000926	-0.000271	0.005735	-0.001851	4482.233134	19267.306207	3243.556984	10336.068477
25.536000	-0.000035	0.000368	-0.000925	-0.003551	4484.887011	19355.208761	3239.211161	10365.215643
26.036500	0.000367	0.001249	-0.004785	0.001636	4467.785066	19193.763803	3231.410294	10276.646844
26.536500	-0.005349	0.000725	-0.007423	0.000764	4450.658910	19206.727910	3229.905466	10291.449881
27.037500	-0.001558	0.000396	-0.005313	0.000751	4464.091092	19194.947588	3231.714737	10291.673893
27.537000	-0.003522	-0.000583	-0.020110	0.000051	4459.613599	19184.506675	3219.869184	10303.587384
28.035000	0.000136	0.000158	0.004058	0.001105	4468.849225	19172.882562	3239.495687	10285.658280
28.534500	0.000550	-0.000166	-0.005037	0.000234	4473.426918	19193.265990	3232.392804	10300.473018
29.035500	0.001632	-0.000551	-0.012980	0.000597	4475.997096	19165.374982	3225.354163	10294.302697
29.535500	-0.004098	0.000667	-0.000278	0.001124	4453.795062	19191.135122	3235.717196	10285.331962
30.036000	0.001071	-0.000578	-0.001501	0.000705	4473.606814	19160.366114	3235.023791	10292.460622
30.536000	0.000143	0.001243	-0.006221	0.000835	4469.836307	19223.424484	3230.868818	10290.253905
31.036500	0.002175	0.000183	-0.002548	0.000657	4477.722736	19190.484562	3234.163757	10293.273641
31.537000	0.000332	0.001994	-0.012350	0.001862	4466.858262	19213.118831	3224.822068	10272.814632
32.037500	0.000121	-0.000444	0.001809	0.000647	4470.429109	19167.524180	3237.937738	10293.455959
32.534500	-0.003693	0.000313	-0.006096	0.001057	4455.457508	19180.424217	3230.785796	10286.475629
33.035000	-0.002648	0.002598	-0.009153	0.002572	4453.803412	19209.182456	3226.912267	10260.779282
33.535000	0.000520	0.002579	-0.013990	0.002200	4466.322526	19222.349939	3223.167652	10267.079190
34.038500	0.001024	0.000814	-0.006414	0.001067	4472.150253	19198.773678	3230.507432	10286.314757
34.535500	-0.003130	0.001024	0.001180	0.002100	4453.767937	19168.052589	3236.133959	10268.771888
35.036500	0.002403	-0.000448	-0.007426	0.000755	4478.186088	19163.344914	3229.911405	10291.608828
35.535500	-0.000794	0.001218	-0.003754	0.000666	4467.104415	19228.809141	3233.120912	10293.119597
36.036500	0.002942	0.000788	-0.001818	0.000047	4482.654440	19235.892701	3235.317648	10303.658827
36.540000	-0.003120	0.000591	-0.003830	-0.000609	4463.375213	19253.069838	3234.150537	10314.851166
37.037000	-0.002193	0.000343	-0.013935	-0.001376	4469.391680	19272.514460	3226.209618	10327.946947
37.537500	0.003115	0.001376	-0.019733	-0.000423	4484.964335	19275.497416	3220.573176	10311.664936
38.035000	0.000875	0.001727	0.000671	0.000663	4473.056898	19247.957771	3236.936155	10293.170494
38.537500	0.000598	0.000629	-0.010752	-0.000351	4475.689331	19244.849863	3228.030009	10310.448506
39.035500	-0.003966	0.000085	0.001026	0.000209	4457.487455	19203.552930	3237.637513	10300.900794
39.536000	-0.001497	-0.000201	-0.009819	0.001342	4462.212484	19150.655375	3227.387246	10281.628406
40.036000	-0.004569	-0.000580	-0.006684	0.000647	4453.819174	19162.452103	3230.635003	10293.456501
40.536500	0.000622	0.000184	-0.007657	-0.000568	4476.551607	19236.325235	3230.840501	10314.151161
41.037000	0.000456	0.000749	-0.009984	-0.001092	4477.829112	19277.095261	3229.307563	10323.093499
41.536500	0.001069	-0.000809	-0.008446	-0.001814	4482.614963	19245.758549	3231.230203	10335.434591
42.038000	-0.002438	-0.000598	-0.004264	-0.002063	4470.963363	19262.969067	3235.028456	10339.693343
42.538000	0.006965	0.001150	0.000150	-0.010114	4534.401592	19634.247296	3245.923430	10478.786528
43.035000	-0.013669	-0.010990	-0.002928	0.115022	4075.227305	15124.205216	3147.483235	8582.915915
43.535500	-0.025990	-0.022656	-0.003230	0.178266	3891.370253	13202.134419	3108.465299	7813.529287
44.035500	-0.037556	-0.023565	0.002059	0.094370	4066.681372	15351.926663	3164.914139	8859.400379
44.536000	-0.021238	-0.016454	-0.004999	-0.128155	4904.498912	23964.367661	3360.237647	12844.077942
45.036500	-0.013155	-0.011315	0.006128	-0.159512	5092.779503	25802.988474	3411.561310	13588.219280
45.536500	-0.005081	-0.003044	-0.002554	-0.105411	4874.688916	23518.477116	3337.434463	12337.011115
46.037000	0.000725	0.001961	0.000348	-0.075375	4768.832196	22368.845475	3308.567625	11706.760657
46.537500	-0.000874	0.001545	0.005317	-0.088344	4817.773936	22937.103427	3327.448067	11973.558892
47.035000	0.005396	0.006295	0.018549	-0.070260	4766.948499	22334.043540	3322.264364	11603.721181
47.535000	0.010015	0.007462	0.010968	-0.062718	4754.582453	22052.201220	3306.472176	11453.958398
48.038000	0.017739	0.010816	0.022453	-0.053285	4747.396339	21787.283661	3308.583772	11270.293786
48.535500	0.024867	0.014553	0.029474	-0.031330	4686.196610	21015.169722	3293.448995	10857.946734
49.035500	0.021651	0.020274	0.017135	-0.022514	4638.042539	20887.190128	3272.880623	10698.139610
49.536500	0.029647	0.021721	0.034238	-0.004546	4599.133285	20219.245858	3272.061454	10382.322617
50.036500	0.033327	0.019383	0.033904	0.030672	4481.798241	18792.131706	3239.739194	9799.948938
50.537000	0.032540	0.018720	0.033707	0.033266	4469.712934	18674.065074	3237.311880	9758.882926
51.037000	0.033260	0.021430	0.028100	0.035884	4462.973077	18677.399394	3230.248830	9717.700860
51.534500	0.034500	0.022528	0.032600	0.031718	4482.250427	18868.649340	3237.693716	9783.354930
52.037500	0.037550	0.024663	0.029674	0.031844	4492.775317	18942.241476	3235.054604	9781.355558
52.543500	0.035479	0.025300	0.029243	0.032186	4484.085457	18953.114851	3234.389825	9775.952598
53.035500	0.035529	0.026056	0.031374	0.032792	4482.088516	18958.638249	3235.703976	9766.371617
53.535500	0.036458	0.026476	0.033452	0.033947	4481.279156	18931.640838	3236.501507	9748.153405
54.036000	0.038529	0.026584	0.028206	0.036423	4479.825263	18844.925109	3229.880145	9709.242579
54.536500	0.036027	0.026117	0.035162	0.039585	4459.665873	18713.032047	3233.118210	9659.886254
55.037000	0.039857	0.026362	0.036554	0.040430	4470.259292	18691.327594	3233.588163	9646.758860
55.536500	0.034916	0.027869	0.036889	0.043803	4440.938044	18624.002233	3230.989331	9594.604404
56.037000	0.036470	0.027725	0.045001	0.046463	4437.080628	18523.436709	3235.665951	9553.767124
56.537500	0.035454	0.026451	0.040773	0.048524	4426.399607	18404.637888	3230.277593	9522.295298
57.035000	0.037758	0.028395	0.051461	0.051436	4424.296685	18370.298134	3236.951028	9478.073616
57.538000	0.037173	0.027619	0.031595	0.053468	4415.282261	18271.186203	3218.457294	9447.392369
58.035000	0.036525	0.027749	0.043674	0.055071	4407.572467	18219.454820	3227.187774	9423.285842
58.535500	0.036894	0.028050	0.047020	0.058227	4398.081351	18119.660890	3227.348102	9376.095296
59.036500	0.040223	0.031833	0.048346	0.061247	4399.132170	18146.299192	3225.921787	9331.263037
59.536500	0.040911	0.028495	0.043781	0.059203	4408.441908	18101.213394	3223.808986	9361.578746
60.037000	0.036653	0.029949	0.039428	0.062072	4384.277815	18052.059367	3217.822794	9319.065373
60.537000	0.042598	0.029383	0.036062	0.064357	4396.639612	17953.531401	3213.208075	9285.416189
61.037500	0.040953	0.030145	0.045106	0.064377	4391.001762	17979.109972	3220.606381	9285.114479
61.534500	0.037884	0.029402	0.046298	0.064651	4379.751655	17944.053354	3221.367781	9281.092128
62.035500	0.044739	0.032502	0.040486	0.068223	4390.799681	17927.815151	3213.661056	9228.868910
62.535500	0.042062	0.030284	0.037496	0.066883	4386.291555	17897.670062	3212.323391	9248.417529
63.036000	0.043494	0.029501	0.054407	0.067967	4387.462832	17833.706724	3225.368364	9232.604865
63.535500	0.036490	0.031175	0.056224	0.069179	4360.037090	17849.509572	3225.877014	9214.971269
64.036500	0.041988	0.030440	0.041221	0.068732	4379.829226	17839.667655	3213.845054	9221.466219
64.537000	0.043068	0.032190	0.047177	0.072038	4372.386337	17786.536256	3216.004882	9173.567963
65.037000	0.039580	0.031749	0.039608	0.071875	4361.339595	17777.076098	3209.999997	9175.921080
65.537500	0.043914	0.030925	0.052000	0.072359	4374.138904	17732.617918	3219.705464	9168.931516
66.037500	0.040792	0.030994	0.055607	0.072308	4363.920396	17736.696603	3222.740975	9169.667287
66.535000	0.038954	0.030395	0.045581	0.072543	4357.060626	17708.374543	3214.290666	9166.277019
67.038000	0.043551	0.031978	0.043904	0.074497	4365.814025	17695.862747	3211.348850	9138.184510
67.535500	0.046032	0.032369	0.047348	0.075340	4371.259627	17680.544839	3213.453768	9126.095078
68.035500	0.042586	0.030610	0.050899	0.075274	4360.040499	17623.383698	3216.402796	9127.037142
68.536000	0.043545	0.032604	0.047426	0.076578	4358.899361	17646.673416	3212.513327	9108.383723
69.036500	0.042937	0.031818	0.046777	0.076786	4356.205267	17613.154053	3211.820077	9105.417442
69.536000	0.045735	0.032862	0.039438	0.080251	4354.008270	17531.895126	3203.196512	9056.153043
70.037000	0.044625	0.033357	0.054137	0.079458	4352.966542	17575.060170	3215.629450	9067.391979
70.537000	0.042714	0.033531	0.042038	0.080622	4342.882574	17541.865675	3204.958376	9050.898559
71.034000	0.042782	0.032738	0.052443	0.080477	4343.577306	17520.158860	3213.419873	9052.945879
71.538000	0.044223	0.031304	0.051039	0.081801	4343.960913	17428.175405	3211.211501	9034.230343
72.035500	0.043778	0.032125	0.053434	0.080870	4345.550927	17486.562464	3213.905233	9047.385835
72.536000	0.042865	0.031233	0.045100	0.082651	4336.761361	17397.639455	3205.777545	9022.253199
73.036000	0.043423	0.032588	0.043328	0.082549	4338.910233	17446.034689	3204.454305	9023.694963
73.536000	0.045458	0.032634	0.057669	0.086288	4333.368581	17323.637197	3212.945186	8971.244396
74.039000	0.046620	0.032238	0.057300	0.083278	4346.971222	17410.178883	3215.092931	9013.429077
74.536500	0.045577	0.031628	0.052690	0.084860	4338.398065	17337.598027	3210.078577	8991.224792
75.037500	0.046607	0.032664	0.043854	0.085465	4339.783923	17351.821267	3202.567951	8982.753123
75.534500	0.046182	0.032211	0.048699	0.087912	4330.448739	17256.254394	3204.460089	8948.598045
76.035000	0.049238	0.034581	0.049507	0.088072	4339.857591	17328.999515	3204.972646	8946.371386
76.535000	0.049438	0.032822	0.052783	0.087901	4341.070469	17276.698926	3207.715213	8948.751485
77.035500	0.050257	0.033537	0.051647	0.088276	4342.519372	17287.870527	3206.510232	8943.539267
77.535000	0.048423	0.032607	0.054288	0.091257	4326.879078	17159.729488	3206.239907	8902.237390
78.036000	0.051954	0.034018	0.052812	0.089334	4344.610289	17268.899383	3206.595664	8928.851436
78.536500	0.042902	0.031195	0.050276	0.089058	4316.188324	17185.440153	3204.800818	8932.678264
79.037000	0.048122	0.033910	0.050579	0.090160	4329.451825	17238.206767	3204.168953	8917.397937
79.534000	0.044622	0.034216	0.058999	0.093904	4306.201541	17125.882712	3207.885009	8865.793657
80.037000	0.048749	0.031887	0.063063	0.089754	4332.798902	17185.299765	3214.511777	8923.022685
80.537500	0.048420	0.033946	0.048637	0.093421	4319.893809	17132.821690	3200.079942	8872.424993
81.035000	0.041256	0.032639	0.055420	0.091266	4303.888682	17160.484474	3207.134059	8902.113187
81.535500	0.045367	0.034710	0.039511	0.096719	4299.631848	17050.564465	3190.512701	8827.286962
82.035500	0.045042	0.033802	0.053199	0.093492	4308.855121	17125.839059	3203.606510	8871.451883
82.536000	0.047524	0.034328	0.044736	0.093873	4315.570520	17130.545746	3196.697179	8866.223297
83.036000	0.046707	0.034631	0.049580	0.094588	4310.670832	17117.164082	3199.905704	8856.420923
83.536500	0.041575	0.031428	0.059541	0.097760	4284.407029	16911.329699	3205.247258	8813.113785
84.036500	0.046355	0.033580	0.052525	0.095303	4307.266145	17059.822655	3201.650286	8846.624958
84.537000	0.045781	0.034595	0.052732	0.096658	4301.135051	17048.811803	3200.750797	8828.115385
