sample name	sample
index	961
start time	 04-12-2021  04:12:00 PM


Wavelength (nm)	Absorbance
494.344910	-0.088941
494.563924	-0.088941
494.782919	-0.088941
495.001897	-0.118672
495.220856	-0.031286
495.439797	-0.023418
495.658719	-0.010155
495.877624	0.004157
496.096510	0.008278
496.315378	-0.027061
496.534227	-0.056416
496.753059	-0.049316
496.971872	-0.036490
497.190667	0.130434
497.409444	0.158870
497.628203	0.168915
497.846943	0.173180
498.065665	0.174947
498.284369	0.178875
498.503055	0.181073
498.721723	0.182632
498.940372	0.183643
499.159003	0.183927
499.377616	0.184566
499.596210	0.184195
499.814787	0.184689
500.033345	0.184508
500.251885	0.184051
500.470406	0.183649
500.688910	0.183343
500.907395	0.183048
501.125862	0.184011
501.344311	0.184249
501.562742	0.185548
501.781154	0.186953
501.999548	0.188284
502.217924	0.188825
502.436282	0.188846
502.654621	0.189117
502.872942	0.189106
503.091245	0.189381
503.309530	0.189411
503.527797	0.188447
503.746045	0.186945
503.964275	0.186923
504.182487	0.186837
504.400681	0.187537
504.618856	0.187952
504.837013	0.188205
505.055152	0.187959
505.273273	0.187773
505.491376	0.188030
505.709460	0.188512
505.927526	0.188982
506.145574	0.188361
506.363604	0.188982
506.581615	0.188261
506.799608	0.187984
507.017583	0.188844
507.235540	0.189560
507.453478	0.190055
507.671399	0.190747
507.889301	0.190466
508.107185	0.190917
508.325050	0.190902
508.542898	0.192022
508.760727	0.193182
508.978538	0.192825
509.196330	0.193761
509.414105	0.193693
509.631861	0.193402
509.849599	0.193787
510.067319	0.194814
510.285021	0.194508
510.502704	0.194239
510.720369	0.194693
510.938016	0.194501
511.155645	0.194685
511.373255	0.195017
511.590848	0.195304
511.808422	0.195716
512.025977	0.195529
512.243515	0.196202
512.461034	0.197027
512.678536	0.197694
512.896018	0.198461
513.113483	0.198081
513.330930	0.199104
513.548358	0.200070
513.765768	0.200481
513.983160	0.200574
514.200533	0.200604
514.417889	0.201088
514.635226	0.201088
514.852545	0.201176
515.069845	0.201805
515.287128	0.202059
515.504392	0.201687
515.721638	0.201231
515.938866	0.201937
516.156075	0.202823
516.373267	0.202609
516.590440	0.203040
516.807594	0.203582
517.024731	0.203671
517.241850	0.203767
517.458950	0.204367
517.676032	0.205329
517.893095	0.205693
518.110141	0.205125
518.327168	0.205397
518.544177	0.204951
518.761168	0.204902
518.978141	0.205300
519.195095	0.206242
519.412031	0.206088
519.628949	0.206530
519.845849	0.207218
520.062731	0.208481
520.279594	0.208944
520.496439	0.209803
520.713266	0.211206
520.930074	0.211343
521.146865	0.210704
521.363637	0.211337
521.580391	0.211055
521.797127	0.210341
522.013844	0.210010
522.230543	0.210551
522.447224	0.210875
522.663887	0.210599
522.880532	0.211038
523.097158	0.212212
523.313766	0.211704
523.530356	0.212892
523.746928	0.213921
523.963481	0.214372
524.180017	0.214843
524.396534	0.214664
524.613032	0.214571
524.829513	0.214640
525.045975	0.214062
525.262420	0.215121
525.478845	0.214665
525.695253	0.215276
525.911643	0.215563
526.128014	0.215376
526.344367	0.215816
526.560702	0.215975
526.777018	0.216593
526.993316	0.217330
527.209597	0.217662
527.425858	0.218683
527.642102	0.218781
527.858328	0.219417
528.074535	0.220578
528.290724	0.221678
528.506894	0.222078
528.723047	0.222500
528.939181	0.222473
529.155297	0.222808
529.371395	0.223165
529.587475	0.223584
529.803536	0.223696
530.019579	0.223802
530.235604	0.223654
530.451611	0.224162
530.667600	0.224766
530.883570	0.225569
531.099522	0.226137
531.315456	0.226641
531.531372	0.226683
531.747269	0.227483
531.963148	0.228022
532.179009	0.228527
532.394852	0.229142
532.610676	0.229105
532.826482	0.229406
533.042271	0.229847
533.258040	0.229508
533.473792	0.230183
533.689525	0.230835
533.905240	0.230203
534.120937	0.230670
534.336616	0.231290
534.552277	0.231786
534.767919	0.232516
534.983543	0.232877
535.199149	0.233610
535.414736	0.234231
535.630306	0.234335
535.845857	0.235004
536.061390	0.234653
536.276904	0.234829
536.492401	0.235710
536.707879	0.235953
536.923339	0.235942
537.138781	0.236036
537.354204	0.235691
537.569610	0.235737
537.784997	0.236326
538.000366	0.237297
538.215716	0.237770
538.431049	0.237374
538.646363	0.237690
538.861659	0.238361
539.076937	0.238563
539.292196	0.239777
539.507438	0.240200
539.722661	0.240530
539.937866	0.240348
540.153052	0.240773
540.368221	0.241159
540.583371	0.241401
540.798503	0.241973
541.013617	0.242501
541.228712	0.241842
541.443789	0.242131
541.658848	0.242523
541.873889	0.243492
542.088912	0.243640
542.303916	0.244004
542.518902	0.244077
542.733870	0.243866
542.948820	0.244007
543.163752	0.244946
543.378665	0.245561
543.593560	0.245238
543.808437	0.245524
544.023295	0.245616
544.238136	0.246026
544.452958	0.246216
544.667762	0.246417
544.882548	0.247061
545.097315	0.247839
545.312064	0.248348
545.526795	0.249238
545.741508	0.249448
545.956203	0.249568
546.170879	0.250106
546.385537	0.250658
546.600177	0.251505
546.814799	0.252046
547.029402	0.251795
547.243988	0.251690
547.458555	0.251991
547.673103	0.252430
547.887634	0.253046
548.102146	0.253117
548.316640	0.253507
548.531116	0.253726
548.745574	0.254182
548.960013	0.254399
549.174435	0.255023
549.388838	0.255174
549.603222	0.255506
549.817589	0.256093
550.031937	0.256412
550.246267	0.256625
550.460579	0.256469
550.674873	0.256163
550.889148	0.256575
551.103405	0.256835
551.317644	0.257263
551.531865	0.257155
551.746068	0.257772
551.960252	0.258120
552.174418	0.257827
552.388566	0.258336
552.602696	0.258601
552.816807	0.258854
553.030900	0.258834
553.244975	0.258896
553.459032	0.259343
553.673070	0.258957
553.887091	0.259033
554.101093	0.259994
554.315077	0.259802
554.529042	0.260673
554.742990	0.260947
554.956919	0.261327
555.170830	0.261518
555.384722	0.261862
555.598597	0.261634
555.812453	0.261995
556.026291	0.262071
556.240111	0.262951
556.453913	0.263048
556.667696	0.263093
556.881461	0.263110
557.095208	0.263504
557.308937	0.263365
557.522647	0.264220
557.736339	0.264252
557.950013	0.264455
558.163669	0.264611
558.377307	0.264469
558.590926	0.264615
558.804527	0.264535
559.018110	0.264290
559.231675	0.264570
559.445221	0.264974
559.658749	0.265819
559.872259	0.266256
560.085751	0.266562
560.299225	0.267052
560.512680	0.267374
560.726117	0.268024
560.939536	0.268568
561.152937	0.268632
561.366319	0.268378
561.579683	0.267676
561.793029	0.267604
562.006357	0.267717
562.219667	0.267565
562.432958	0.268195
562.646231	0.268519
562.859486	0.269104
563.072723	0.269327
563.285941	0.269723
563.499141	0.269849
563.712323	0.270143
563.925487	0.270180
564.138632	0.270668
564.351760	0.270518
564.564869	0.269813
564.777960	0.269453
564.991032	0.269772
565.204087	0.269525
565.417123	0.269950
565.630141	0.269796
565.843140	0.269809
566.056122	0.269347
566.269085	0.269534
566.482030	0.270779
566.694957	0.271238
566.907866	0.271698
567.120756	0.272255
567.333628	0.272551
567.546482	0.273079
567.759318	0.273652
567.972135	0.274277
568.184935	0.274707
568.397716	0.274160
568.610478	0.274039
568.823223	0.274266
569.035949	0.274298
569.248657	0.274706
569.461347	0.274504
569.674019	0.274177
569.886672	0.274352
570.099308	0.274248
570.311925	0.275163
570.524523	0.275847
570.737104	0.275414
570.949666	0.275911
571.162210	0.275734
571.374736	0.276044
571.587244	0.276328
571.799733	0.276682
572.012205	0.276795
572.224658	0.276323
572.437092	0.276258
572.649509	0.277113
572.861907	0.277042
573.074287	0.277426
573.286649	0.277744
573.498993	0.277886
573.711318	0.278281
573.923625	0.278260
574.135914	0.278193
574.348185	0.278302
574.560438	0.278342
574.772672	0.278567
574.984888	0.278649
575.197086	0.278942
575.409266	0.279222
575.621427	0.278791
575.833570	0.278927
576.045695	0.279715
576.257802	0.279984
576.469890	0.279614
576.681961	0.279912
576.894013	0.280254
577.106046	0.280750
577.318062	0.281052
577.530059	0.281344
577.742039	0.281582
577.954000	0.281529
578.165942	0.281780
578.377867	0.282251
578.589773	0.282762
578.801661	0.283048
579.013531	0.282891
579.225382	0.283287
579.437216	0.283734
579.649031	0.284195
579.860828	0.284313
580.072606	0.284442
580.284367	0.284599
580.496109	0.283965
580.707833	0.283790
580.919539	0.284028
581.131227	0.284197
581.342896	0.284352
581.554547	0.284603
581.766180	0.284999
581.977795	0.285258
582.189391	0.284981
582.400969	0.285532
582.612529	0.285474
582.824071	0.285676
583.035595	0.285724
583.247100	0.285816
583.458587	0.285938
583.670056	0.285566
583.881506	0.285865
584.092939	0.286261
584.304353	0.286572
584.515749	0.287190
584.727127	0.287400
584.938486	0.287506
585.149828	0.287856
585.361151	0.288015
585.572456	0.288817
585.783742	0.288944
585.995011	0.289540
586.206261	0.290020
586.417493	0.289794
586.628706	0.289755
586.839902	0.289980
587.051079	0.289982
587.262238	0.290342
587.473379	0.290321
587.684502	0.290476
587.895606	0.290550
588.106692	0.290273
588.317760	0.290639
588.528810	0.290972
588.739841	0.291237
588.950855	0.291510
589.161850	0.291783
589.372827	0.292414
589.583785	0.292554
589.794726	0.292834
590.005648	0.293133
590.216552	0.293331
590.427437	0.292982
590.638305	0.293114
590.849154	0.293270
591.059985	0.293229
591.270798	0.292643
591.481592	0.292402
591.692369	0.292745
591.903127	0.292780
592.113867	0.293357
592.324588	0.293877
592.535292	0.294083
592.745977	0.294221
592.956644	0.294087
593.167293	0.294803
593.377923	0.295837
593.588536	0.295818
593.799130	0.295960
594.009706	0.295687
594.220263	0.295919
594.430803	0.295994
594.641324	0.296397
594.851827	0.296829
595.062312	0.296774
595.272778	0.296362
595.483227	0.296346
595.693657	0.296597
595.904069	0.297120
596.114462	0.297243
596.324838	0.297413
596.535195	0.297442
596.745534	0.297111
596.955855	0.297472
597.166157	0.297572
597.376441	0.297912
597.586707	0.298329
597.796955	0.298454
598.007185	0.298902
598.217396	0.298796
598.427589	0.298993
598.637764	0.299545
598.847921	0.299755
599.058060	0.299693
599.268180	0.299499
599.478282	0.299225
599.688366	0.299038
599.898431	0.298904
600.108479	0.299656
600.318508	0.299855
600.528519	0.300297
600.738511	0.300016
600.948486	0.300534
601.158442	0.301066
601.368380	0.301827
601.578300	0.301888
601.788202	0.302186
601.998085	0.302244
602.207950	0.301866
602.417797	0.302117
602.627626	0.302470
602.837436	0.302626
603.047228	0.302548
603.257002	0.302506
603.466758	0.303247
603.676496	0.303488
603.886215	0.303650
604.095916	0.304083
604.305599	0.303812
604.515264	0.304173
604.724910	0.304533
604.934538	0.304822
605.144148	0.304464
605.353740	0.304735
605.563314	0.304953
605.772869	0.304789
605.982406	0.305034
606.191925	0.305534
606.401425	0.305353
606.610908	0.305430
606.820372	0.305742
607.029818	0.306335
607.239246	0.306179
607.448655	0.306111
607.658047	0.306242
607.867420	0.306501
608.076775	0.306449
608.286111	0.307327
608.495430	0.306797
608.704730	0.307002
608.914012	0.307286
609.123275	0.307534
609.332521	0.307987
609.541748	0.308331
609.750957	0.308786
609.960148	0.309112
610.169321	0.308884
610.378475	0.309695
610.587611	0.309974
610.796729	0.310119
611.005829	0.310058
611.214910	0.310237
611.423974	0.310320
611.633019	0.310128
611.842045	0.310340
612.051054	0.310510
612.260044	0.310742
612.469017	0.310511
612.677970	0.310758
612.886906	0.311165
613.095824	0.311416
613.304723	0.311827
613.513604	0.311755
613.722467	0.311768
613.931311	0.312131
614.140138	0.312234
614.348946	0.312857
614.557736	0.312603
614.766507	0.312713
614.975261	0.312523
615.183996	0.312710
615.392713	0.313106
615.601412	0.313133
615.810092	0.312982
616.018754	0.313382
616.227399	0.312967
616.436024	0.313491
616.644632	0.313839
616.853222	0.313845
617.061793	0.314342
617.270346	0.314510
617.478880	0.314729
617.687397	0.314753
617.895895	0.314603
618.104375	0.314786
618.312837	0.314625
618.521281	0.314405
618.729706	0.314560
618.938113	0.314373
619.146502	0.314560
619.354873	0.314806
619.563226	0.315063
619.771560	0.315220
619.979876	0.315663
620.188174	0.315931
620.396453	0.316310
620.604715	0.316407
620.812958	0.316453
621.021183	0.316608
621.229390	0.316774
621.437578	0.317183
621.645748	0.317147
621.853900	0.317389
622.062034	0.317253
622.270150	0.317599
622.478247	0.317928
622.686326	0.318027
622.894387	0.318323
623.102430	0.318514
623.310454	0.318592
623.518461	0.319053
623.726449	0.318773
623.934418	0.319251
624.142370	0.318953
624.350303	0.319303
624.558218	0.319407
624.766115	0.319470
624.973994	0.319346
625.181855	0.319556
625.389697	0.319958
625.597521	0.320393
625.805327	0.320538
626.013114	0.320900
626.220883	0.320852
626.428634	0.320818
626.636367	0.320824
626.844082	0.321010
627.051778	0.321229
627.259457	0.320948
627.467117	0.320970
627.674758	0.321041
627.882382	0.321465
628.089987	0.321534
628.297574	0.321893
628.505143	0.321675
628.712694	0.322087
628.920226	0.322321
629.127740	0.322815
629.335236	0.323163
629.542714	0.323244
629.750174	0.323178
629.957615	0.323553
630.165038	0.323719
630.372443	0.324256
630.579829	0.324367
630.787198	0.323752
630.994548	0.323836
631.201880	0.323554
631.409194	0.323874
631.616489	0.324182
631.823766	0.324078
632.031025	0.324332
632.238266	0.324878
632.445489	0.325009
632.652693	0.325649
632.859879	0.325742
633.067047	0.326199
633.274197	0.326245
633.481329	0.326184
633.688442	0.326876
633.895537	0.327019
634.102614	0.327060
634.309672	0.327148
634.516713	0.327275
634.723735	0.327148
634.930739	0.327426
635.137724	0.327773
635.344692	0.328205
635.551641	0.328099
635.758572	0.328374
635.965485	0.328367
636.172379	0.328551
636.379256	0.328765
636.586114	0.329179
636.792954	0.329500
636.999775	0.329758
637.206579	0.329596
637.413364	0.330091
637.620131	0.330422
637.826880	0.330682
638.033610	0.330787
638.240323	0.330869
638.447017	0.331147
638.653692	0.331149
638.860350	0.331368
639.066990	0.331761
639.273611	0.331778
639.480214	0.331879
639.686798	0.332009
639.893365	0.332113
640.099913	0.332575
640.306443	0.332515
640.512955	0.332675
640.719449	0.332867
640.925924	0.332916
641.132381	0.333303
641.338820	0.333318
641.545241	0.333964
641.751644	0.334594
641.958028	0.334731
642.164394	0.335051
642.370742	0.335502
642.577071	0.335492
642.783383	0.335989
642.989676	0.335917
643.195951	0.336118
643.402207	0.335819
643.608446	0.335776
643.814666	0.335889
644.020868	0.336056
644.227052	0.336021
644.433218	0.336214
644.639365	0.336320
644.845494	0.336250
645.051605	0.336397
645.257698	0.336563
645.463772	0.336811
645.669828	0.337168
645.875866	0.337365
646.081886	0.337560
646.287888	0.337656
646.493871	0.337631
646.699836	0.338029
646.905783	0.338293
647.111712	0.338596
647.317622	0.338837
647.523514	0.339127
647.729388	0.339504
647.935244	0.339833
648.141082	0.340043
648.346901	0.340564
648.552702	0.340688
648.758485	0.340881
648.964250	0.341023
649.169996	0.341172
649.375724	0.340920
649.581434	0.340930
649.787126	0.341128
649.992800	0.341508
650.198455	0.341554
650.404092	0.341884
650.609711	0.342089
650.815311	0.342354
651.020894	0.342867
651.226458	0.343366
651.432004	0.343875
651.637532	0.344103
651.843041	0.344196
652.048532	0.344176
652.254006	0.344540
652.459460	0.344792
652.664897	0.345194
652.870315	0.345327
653.075716	0.345359
653.281097	0.345306
653.486461	0.345452
653.691807	0.345811
653.897134	0.346287
654.102443	0.346303
654.307734	0.346522
654.513006	0.346338
654.718261	0.346351
654.923497	0.346739
655.128715	0.347033
655.333915	0.347511
655.539096	0.347772
655.744259	0.347893
655.949404	0.348119
656.154531	0.348267
656.359640	0.348481
656.564730	0.348695
656.769802	0.349050
656.974856	0.349239
657.179892	0.349151
657.384909	0.349187
657.589908	0.349564
657.794889	0.349787
657.999852	0.349898
658.204797	0.350427
658.409723	0.350706
658.614631	0.350871
658.819521	0.351263
659.024393	0.351528
659.229246	0.351863
659.434081	0.352022
659.638898	0.352132
659.843697	0.352646
660.048478	0.352699
660.253240	0.352871
660.457984	0.352878
660.662710	0.352916
660.867417	0.353356
661.072107	0.353737
661.276778	0.353907
661.481431	0.354454
661.686066	0.354441
661.890682	0.354494
662.095281	0.354762
662.299861	0.354925
662.504422	0.355284
662.708966	0.355197
662.913491	0.355442
663.117999	0.355822
663.322488	0.356052
663.526958	0.356195
663.731411	0.356498
663.935845	0.356583
664.140261	0.356978
664.344659	0.357244
664.549038	0.357644
664.753400	0.357795
664.957743	0.357939
665.162068	0.358258
665.366375	0.358638
665.570663	0.359311
665.774933	0.359509
665.979185	0.359946
666.183419	0.360165
666.387635	0.360468
666.591832	0.360645
666.796011	0.360752
667.000172	0.360803
667.204315	0.361086
667.408439	0.361437
667.612545	0.361878
667.816634	0.362040
668.020703	0.362311
668.224755	0.362419
668.428788	0.362483
668.632803	0.362922
668.836800	0.363094
669.040779	0.363137
669.244739	0.363160
669.448681	0.363531
669.652605	0.364017
669.856511	0.364126
670.060399	0.364455
670.264268	0.364878
670.468119	0.364929
670.671952	0.365291
670.875767	0.365639
671.079563	0.365707
671.283341	0.365661
671.487101	0.365587
671.690843	0.366000
671.894567	0.365937
672.098272	0.366103
672.301959	0.366693
672.505628	0.366823
672.709278	0.367158
672.912911	0.367484
673.116525	0.367957
673.320121	0.368014
673.523699	0.368152
673.727258	0.368792
673.930799	0.369210
674.134322	0.369288
674.337827	0.369676
674.541314	0.369737
674.744782	0.369876
674.948232	0.370258
675.151664	0.370683
675.355078	0.370859
675.558474	0.370949
675.761851	0.370975
675.965210	0.371231
676.168551	0.371366
676.371873	0.371893
676.575178	0.372172
676.778464	0.372049
676.981732	0.372109
677.184981	0.372490
677.388213	0.372723
677.591426	0.373131
677.794621	0.373255
677.997798	0.373315
678.200956	0.373267
678.404097	0.373470
678.607219	0.373801
678.810323	0.374295
679.013408	0.374346
679.216476	0.374569
679.419525	0.374544
679.622556	0.374606
679.825569	0.374897
680.028563	0.375287
680.231540	0.375439
680.434498	0.375685
680.637438	0.375751
680.840359	0.375842
681.043263	0.375907
681.246148	0.376543
681.449015	0.376861
681.651864	0.377060
681.854694	0.377301
682.057506	0.377511
682.260301	0.377489
682.463076	0.377728
682.665834	0.378157
682.868573	0.378972
683.071295	0.378742
683.273998	0.378859
683.476682	0.379115
683.679349	0.379352
683.881997	0.379580
684.084627	0.380023
684.287239	0.380364
684.489833	0.380643
684.692408	0.380397
684.894965	0.380946
685.097504	0.381542
685.300025	0.381773
685.502527	0.381904
685.705012	0.382223
685.907478	0.382599
686.109925	0.382698
686.312355	0.382745
686.514766	0.382974
686.717159	0.382979
686.919534	0.382868
687.121891	0.382935
687.324230	0.383092
687.526550	0.383247
687.728852	0.383507
687.931136	0.383790
688.133401	0.383975
688.335649	0.384048
688.537878	0.384324
688.740089	0.384393
688.942281	0.384425
689.144456	0.384715
689.346612	0.385108
689.548750	0.385014
689.750870	0.385364
689.952971	0.385230
690.155055	0.385407
690.357120	0.385438
690.559167	0.385978
690.761195	0.386533
690.963206	0.386725
691.165198	0.386728
691.367172	0.386986
691.569128	0.386919
691.771065	0.387629
691.972984	0.387874
692.174885	0.388066
692.376768	0.388195
692.578633	0.388428
692.780479	0.388557
692.982308	0.388689
693.184118	0.389159
693.385909	0.389311
693.587683	0.389247
693.789438	0.389481
693.991175	0.389651
694.192894	0.389663
694.394595	0.389635
694.596277	0.389681
694.797941	0.390051
694.999587	0.390057
695.201215	0.390327
695.402824	0.390623
695.604416	0.390632
695.805989	0.391063
696.007543	0.391327
696.209080	0.391569
696.410598	0.391685
696.612099	0.391599
696.813580	0.391564
697.015044	0.391799
697.216490	0.391960
697.417917	0.392407
697.619326	0.392288
697.820717	0.392575
698.022089	0.392933
698.223444	0.393529
698.424780	0.393829
698.626098	0.394225
698.827397	0.394242
699.028679	0.394230
699.229942	0.394421
699.431187	0.394718
699.632414	0.394711
699.833622	0.394556
700.034813	0.394516
700.235985	0.394721
700.437139	0.394578
700.638274	0.394589
700.839392	0.394853
701.040491	0.394751
701.241572	0.395007
701.442635	0.395036
701.643679	0.395126
701.844706	0.395427
702.045714	0.395441
702.246704	0.395889
702.447675	0.396100
702.648629	0.396114
702.849564	0.396127
703.050481	0.396032
703.251380	0.396144
703.452260	0.396316
703.653122	0.396504
703.853966	0.396653
704.054792	0.396584
704.255600	0.396699
704.456389	0.396978
704.657160	0.397090
704.857913	0.397130
705.058648	0.397111
705.259365	0.397147
705.460063	0.396805
705.660743	0.396524
705.861405	0.396447
706.062048	0.396348
706.262674	0.396175
706.463281	0.396280
706.663870	0.396262
706.864441	0.396549
707.064993	0.396627
707.265527	0.396526
707.466043	0.396825
707.666541	0.397121
707.867021	0.397386
708.067482	0.397439
708.267925	0.397465
708.468350	0.397614
708.668757	0.397742
708.869145	0.397916
709.069516	0.398323
709.269868	0.398427
709.470201	0.398245
709.670517	0.398096
709.870814	0.398137
710.071093	0.398194
710.271354	0.398327
710.471597	0.397840
710.671821	0.397864
710.872028	0.397410
711.072216	0.397320
711.272385	0.397353
711.472537	0.397315
711.672670	0.397157
711.872785	0.397086
712.072882	0.396557
712.272961	0.396846
712.473021	0.396804
712.673063	0.397042
712.873087	0.396947
713.073093	0.396880
713.273081	0.396875
713.473050	0.397259
713.673001	0.397279
713.872934	0.397599
714.072849	0.397835
714.272745	0.397882
714.472623	0.398019
714.672483	0.398008
714.872325	0.397800
715.072148	0.397854
715.271954	0.397602
715.471741	0.397689
715.671509	0.397655
715.871260	0.397231
716.070992	0.397026
716.270707	0.396987
716.470403	0.396795
716.670080	0.396615
716.869740	0.396499
717.069381	0.396329
717.269004	0.396001
717.468609	0.395954
717.668195	0.396021
717.867764	0.395948
718.067314	0.395888
718.266846	0.396036
718.466360	0.396245
718.665855	0.396308
718.865332	0.396281
719.064791	0.396119
719.264232	0.396160
719.463655	0.396138
719.663059	0.396152
719.862445	0.396211
720.061813	0.395976
720.261163	0.395876
720.460494	0.395812
720.659807	0.395769
720.859102	0.395781
721.058379	0.395779
721.257638	0.395693
721.456878	0.395521
721.656100	0.394802
721.855304	0.395021
722.054490	0.394937
722.253657	0.394599
722.452806	0.394410
722.651937	0.394457
722.851050	0.394009
723.050145	0.393864
723.249221	0.393722
723.448279	0.393840
723.647319	0.393395
723.846340	0.393104
724.045344	0.393075
724.244329	0.392952
724.443296	0.392750
724.642245	0.392744
724.841175	0.392933
725.040088	0.392745
725.238982	0.392725
725.437857	0.392873
725.636715	0.392921
725.835554	0.392951
726.034376	0.393012
726.233179	0.393110
726.431963	0.392836
726.630730	0.392479
726.829478	0.392362
727.028208	0.392342
727.226920	0.391979
727.425614	0.391818
727.624289	0.391270
727.822946	0.391080
728.021585	0.390531
728.220206	0.390801
728.418808	0.390325
728.617392	0.390188
728.815958	0.389746
729.014506	0.389599
729.213036	0.389705
729.411547	0.389601
729.610040	0.389480
729.808515	0.389779
730.006972	0.389359
730.205410	0.389393
730.403831	0.389310
730.602233	0.389353
730.800616	0.389370
730.998982	0.389098
731.197329	0.389055
731.395658	0.388931
731.593969	0.388332
731.792262	0.388015
731.990536	0.387807
732.188793	0.387512
732.387031	0.387291
732.585250	0.387069
732.783452	0.386594
732.981635	0.386537
733.179800	0.386112
733.377947	0.386116
733.576076	0.385813
733.774186	0.385608
733.972278	0.385429
734.170352	0.385240
734.368408	0.385232
734.566446	0.385269
734.764465	0.385183
734.962466	0.384932
735.160449	0.384729
735.358413	0.384831
735.556360	0.384494
735.754288	0.384194
735.952198	0.383870
736.150090	0.383442
736.347963	0.383433
736.545818	0.383010
736.743655	0.383141
736.941474	0.383150
737.139275	0.382839
737.337057	0.382970
737.534821	0.382991
737.732567	0.383056
737.930295	0.382836
738.128005	0.382519
738.325696	0.382284
738.523369	0.382081
738.721024	0.381675
738.918660	0.381475
739.116279	0.381159
739.313879	0.380816
739.511461	0.380241
739.709024	0.379824
739.906570	0.379516
740.104097	0.379274
740.301606	0.378974
740.499097	0.378574
740.696569	0.378392
740.894024	0.378056
741.091460	0.377700
741.288878	0.377863
741.486277	0.377794
741.683659	0.377486
741.881022	0.377330
742.078367	0.377207
742.275694	0.377114
742.473002	0.377016
742.670293	0.377008
742.867565	0.377091
743.064819	0.376463
743.262054	0.376214
743.459272	0.375983
743.656471	0.375574
743.853652	0.374822
744.050815	0.374521
744.247959	0.374060
744.445085	0.373664
744.642194	0.373452
744.839283	0.373401
745.036355	0.373230
745.233408	0.373139
745.430444	0.372950
745.627461	0.373026
745.824459	0.372994
746.021440	0.373047
746.218402	0.372826
746.415346	0.372535
746.612272	0.372521
746.809180	0.372573
747.006069	0.372316
747.202940	0.372213
747.399793	0.371902
747.596628	0.371813
747.793444	0.371270
747.990243	0.370938
748.187023	0.370727
748.383784	0.370454
748.580528	0.370174
748.777253	0.369728
748.973960	0.369656
749.170649	0.369509
749.367320	0.369071
749.563973	0.369054
749.760607	0.368999
749.957223	0.368828
750.153821	0.368458
750.350400	0.368106
750.546962	0.367872
750.743505	0.367331
750.940030	0.367024
751.136536	0.366743
751.333025	0.366290
751.529495	0.365612
751.725947	0.365268
751.922381	0.364912
752.118796	0.364427
752.315194	0.364429
752.511573	0.364126
752.707934	0.364011
752.904276	0.363554
753.100601	0.363481
753.296907	0.363316
753.493195	0.362918
753.689465	0.362752
753.885716	0.362896
754.081949	0.362412
754.278164	0.362412
754.474361	0.362107
754.670540	0.362283
754.866700	0.361847
755.062843	0.362117
755.258967	0.362122
755.455072	0.362058
755.651160	0.361687
755.847229	0.361222
756.043280	0.360959
756.239313	0.360915
756.435328	0.360558
756.631324	0.360441
756.827302	0.359806
757.023262	0.359277
757.219204	0.358567
757.415127	0.358407
757.611033	0.358417
757.806920	0.358221
758.002788	0.357543
758.198639	0.356877
758.394471	0.356517
758.590286	0.356172
758.786081	0.356306
758.981859	0.356432
759.177619	0.355816
759.373360	0.355816
759.569083	0.355452
759.764788	0.355765
759.960474	0.355882
760.156143	0.355841
760.351793	0.356044
760.547425	0.355573
760.743038	0.355245
760.938634	0.355496
761.134211	0.355130
761.329770	0.355054
761.525311	0.354710
761.720833	0.354614
761.916338	0.354553
762.111824	0.354337
762.307292	0.354213
762.502741	0.354239
762.698173	0.353576
762.893586	0.353682
763.088981	0.353529
763.284358	0.353261
763.479716	0.353133
763.675057	0.352912
763.870379	0.352555
764.065683	0.352374
764.260968	0.352321
764.456236	0.352588
764.651485	0.352153
764.846716	0.351911
765.041929	0.351880
765.237123	0.352233
765.432299	0.352213
765.627457	0.352241
765.822597	0.352358
766.017719	0.352324
766.212822	0.352162
766.407907	0.351938
766.602974	0.352128
766.798023	0.351824
766.993054	0.351116
767.188066	0.350936
767.383060	0.350640
767.578036	0.350285
767.772993	0.349817
767.967933	0.349524
768.162854	0.349429
768.357757	0.349234
768.552642	0.349177
768.747508	0.349246
768.942356	0.349024
769.137186	0.349118
769.331998	0.348985
769.526792	0.348929
769.721567	0.349057
769.916324	0.349274
770.111063	0.348847
770.305784	0.348808
770.500486	0.348669
770.695171	0.348853
770.889837	0.348848
771.084484	0.348979
771.279114	0.348717
771.473725	0.348319
771.668318	0.348079
771.862893	0.348235
772.057450	0.348355
772.251988	0.348188
772.446509	0.347803
772.641011	0.347688
772.835494	0.347330
773.029960	0.347555
773.224407	0.347569
773.418836	0.347463
773.613247	0.347172
773.807640	0.346999
774.002014	0.346913
774.196370	0.346826
774.390708	0.346732
774.585028	0.346735
774.779330	0.346714
774.973613	0.346559
775.167878	0.346655
775.362125	0.346930
775.556354	0.346814
775.750564	0.346965
775.944756	0.346823
776.138930	0.346890
776.333086	0.346929
776.527223	0.346805
776.721343	0.346714
776.915444	0.346723
777.109526	0.346467
777.303591	0.346235
777.497637	0.345855
777.691666	0.346036
777.885676	0.345690
778.079667	0.345595
778.273641	0.345236
778.467596	0.345654
778.661533	0.345548
778.855452	0.345457
779.049352	0.345440
779.243235	0.345587
779.437099	0.345373
779.630945	0.345430
779.824773	0.344995
780.018582	0.345244
780.212373	0.345080
780.406146	0.344887
780.599901	0.345015
780.793638	0.345073
780.987356	0.344994
781.181056	0.345205
781.374738	0.345129
781.568402	0.345426
781.762047	0.345562
781.955674	0.345421
782.149283	0.345350
782.342874	0.345313
782.536447	0.345457
782.730001	0.345251
782.923537	0.345124
783.117055	0.345266
783.310555	0.345482
783.504036	0.345339
783.697499	0.345373
783.890944	0.345705
784.084371	0.345701
784.277780	0.345901
784.471170	0.346543
784.664542	0.346632
784.857896	0.346574
785.051231	0.346393
785.244549	0.346331
785.437848	0.346329
785.631129	0.346234
785.824392	0.346335
786.017636	0.345918
786.210863	0.345675
786.404071	0.345717
786.597260	0.345520
786.790432	0.345365
786.983585	0.345510
787.176721	0.345596
787.369838	0.345379
787.562936	0.345254
787.756017	0.345449
787.949079	0.345474
788.142123	0.345709
788.335149	0.346017
788.528156	0.346353
788.721146	0.346297
788.914117	0.346255
789.107070	0.346342
789.300005	0.346703
789.492921	0.346829
789.685819	0.346958
789.878699	0.346600
790.071561	0.346660
790.264405	0.346726
790.457230	0.346857
790.650037	0.347175
790.842826	0.347452
791.035597	0.347344
791.228349	0.347540
791.421084	0.347803
791.613800	0.348326
791.806497	0.348537
791.999177	0.348819
792.191838	0.348768
792.384481	0.348955
792.577106	0.349195
792.769713	0.349500
792.962301	0.349523
793.154871	0.349423
793.347423	0.349823
793.539957	0.349787
793.732473	0.349781
793.924970	0.349976
794.117449	0.350183
794.309910	0.350147
794.502353	0.350251
794.694777	0.350404
794.887183	0.350367
795.079571	0.350056
795.271941	0.350212
795.464293	0.350323
795.656626	0.350537
795.848941	0.350478
796.041238	0.350601
796.233516	0.351050
796.425777	0.351235
796.618019	0.351674
796.810243	0.351809
797.002449	0.352225
797.194636	0.352556
797.386805	0.353042
797.578956	0.353414
797.771089	0.353662
797.963204	0.353363
798.155300	0.353586
798.347378	0.353686
798.539438	0.353973
798.731480	0.354200
798.923503	0.354285
799.115509	0.354300
799.307496	0.354317
799.499465	0.354663
799.691415	0.355217
799.883348	0.355425
800.075262	0.355556
800.267158	0.355631
800.459035	0.355998
800.650895	0.356680
800.842736	0.356786
801.034559	0.357165
801.226364	0.357199
801.418150	0.357199
801.609919	0.357412
801.801669	0.357804
801.993401	0.358097
802.185114	0.358173
802.376810	0.357985
802.568487	0.358469
802.760146	0.358595
802.951787	0.358831
803.143409	0.359276
803.335014	0.359395
803.526600	0.359460
803.718168	0.359565
803.909717	0.359648
804.101249	0.360238
804.292762	0.360716
804.484257	0.361134
804.675734	0.361813
804.867192	0.362026
805.058632	0.362593
805.250054	0.363257
805.441458	0.363603
805.632844	0.364365
805.824211	0.364740
806.015561	0.364741
806.206891	0.364853
806.398204	0.364653
806.589499	0.365079
806.780775	0.365210
806.972033	0.365511
807.163273	0.366002
807.354495	0.366120
807.545698	0.366267
807.736883	0.366645
807.928050	0.366902
808.119199	0.367472
808.310329	0.367687
808.501441	0.368073
808.692535	0.368197
808.883611	0.368456
809.074669	0.368589
809.265708	0.368513
809.456729	0.368651
809.647732	0.369215
809.838717	0.369685
810.029683	0.370127
810.220632	0.370372
810.411562	0.370697
810.602474	0.371299
810.793367	0.371821
810.984242	0.372594
811.175100	0.373015
811.365938	0.373292
811.556759	0.373551
811.747562	0.373708
811.938346	0.374263
812.129112	0.374496
812.319860	0.374514
812.510589	0.374664
812.701300	0.375099
812.891994	0.375426
813.082668	0.375715
813.273325	0.375962
813.463964	0.376421
813.654584	0.376655
813.845186	0.377283
814.035769	0.377647
814.226335	0.378166
814.416882	0.378099
814.607411	0.378661
814.797922	0.379119
814.988415	0.379611
815.178889	0.379608
815.369345	0.379714
815.559783	0.379791
815.750203	0.380416
815.940605	0.380555
816.130988	0.381154
816.321353	0.381666
816.511700	0.381875
816.702028	0.382466
816.892339	0.383231
817.082631	0.383950
817.272905	0.384740
817.463161	0.385079
817.653398	0.385815
817.843617	0.386083
818.033819	0.386208
818.224001	0.386627
818.414166	0.386864
818.604312	0.387200
818.794440	0.387637
818.984550	0.387945
819.174642	0.388391
819.364716	0.388513
819.554771	0.389054
819.744808	0.389821
819.934827	0.390368
820.124827	0.390440
820.314810	0.390878
820.504774	0.391479
820.694720	0.391794
820.884647	0.392332
821.074557	0.393061
821.264448	0.393380
821.454321	0.393568
821.644176	0.394123
821.834012	0.394832
822.023831	0.395359
822.213631	0.395785
822.403413	0.396280
822.593176	0.396929
822.782922	0.397045
822.972649	0.397321
823.162358	0.397738
823.352049	0.398033
823.541721	0.398802
823.731376	0.399371
823.921012	0.399603
824.110629	0.400366
824.300229	0.400402
824.489811	0.401260
824.679374	0.402493
824.868919	0.403215
825.058445	0.403694
825.247954	0.403852
825.437444	0.404350
825.626916	0.405016
825.816370	0.405166
826.005806	0.405752
826.195223	0.405680
826.384622	0.405857
826.574003	0.405848
826.763366	0.406609
826.952711	0.407341
827.142037	0.407670
827.331345	0.407963
827.520635	0.408815
827.709906	0.409459
827.899160	0.410360
828.088395	0.410506
828.277612	0.411588
828.466810	0.411945
828.655991	0.412219
828.845153	0.412833
829.034297	0.413061
829.223423	0.413386
829.412531	0.413983
829.601620	0.414397
829.790691	0.415244
829.979744	0.415516
830.168779	0.416182
830.357795	0.416835
830.546793	0.417252
830.735773	0.418265
830.924735	0.418631
831.113679	0.418984
831.302604	0.419416
831.491511	0.419747
831.680400	0.420319
831.869271	0.420778
832.058123	0.421411
832.246957	0.422199
832.435773	0.422556
832.624571	0.422900
832.813351	0.423485
833.002112	0.424208
833.190855	0.425020
833.379580	0.425717
833.568287	0.426359
833.756975	0.426947
833.945645	0.427037
834.134297	0.427640
834.322931	0.428182
834.511547	0.428834
834.700144	0.429678
834.888723	0.430127
835.077284	0.430778
835.265826	0.431190
835.454351	0.431603
835.642857	0.432643
835.831345	0.433130
836.019815	0.433827
836.208266	0.434128
836.396699	0.434318
836.585114	0.434882
836.773511	0.435048
836.961890	0.435409
837.150250	0.436035
837.338592	0.436433
837.526916	0.436875
837.715222	0.437539
837.903510	0.438408
838.091779	0.439484
838.280030	0.439960
838.468263	0.440838
838.656477	0.441829
838.844674	0.442415
839.032852	0.443009
839.221012	0.444326
839.409153	0.444930
839.597277	0.445245
839.785382	0.445481
839.973469	0.446410
840.161538	0.446935
840.349589	0.447437
840.537621	0.447877
840.725635	0.448477
840.913631	0.448636
841.101609	0.449301
841.289568	0.449934
841.477509	0.450755
841.665432	0.451343
841.853337	0.452128
842.041224	0.452991
842.229092	0.453622
842.416942	0.454205
842.604774	0.454855
842.792588	0.455820
842.980383	0.456443
843.168160	0.456402
843.355919	0.456841
843.543660	0.457178
843.731382	0.457478
843.919087	0.458047
844.106773	0.458646
844.294441	0.459367
844.482090	0.459614
844.669722	0.460397
844.857335	0.461142
845.044930	0.461587
845.232507	0.462122
845.420065	0.462332
845.607605	0.462917
845.795127	0.463216
845.982631	0.463599
846.170117	0.464004
846.357584	0.464300
846.545033	0.464851
846.732464	0.465546
846.919877	0.465962
847.107272	0.466926
847.294648	0.467627
847.482006	0.468652
847.669346	0.469348
847.856667	0.470048
848.043971	0.471162
848.231256	0.472205
848.418523	0.472831
848.605771	0.473725
848.793002	0.474326
848.980214	0.475204
849.167408	0.475393
849.354584	0.476079
849.541742	0.476583
849.728881	0.476543
849.916002	0.476982
850.103105	0.477367
850.290190	0.477342
850.477256	0.477853
850.664304	0.478218
850.851334	0.479428
851.038346	0.479915
851.225340	0.480505
851.412315	0.481657
851.599272	0.482261
851.786211	0.482860
851.973132	0.483960
852.160034	0.484361
852.346918	0.485135
852.533784	0.485361
852.720632	0.485686
852.907462	0.486651
853.094273	0.486728
853.281066	0.487380
853.467841	0.488324
853.654598	0.489036
853.841336	0.490288
854.028056	0.490501
854.214758	0.491171
854.401442	0.491764
854.588107	0.492101
854.774755	0.492503
854.961384	0.492737
855.147995	0.492992
855.334587	0.493726
855.521162	0.493733
855.707718	0.494143
855.894256	0.494340
856.080775	0.495300
856.267277	0.495555
856.453760	0.496308
856.640225	0.497005
856.826672	0.497541
857.013101	0.497672
857.199511	0.498515
857.385903	0.499040
857.572277	0.499814
857.758633	0.500412
857.944970	0.500919
858.131290	0.501376
858.317591	0.501910
858.503873	0.502919
858.690138	0.503858
858.876384	0.504179
859.062612	0.504980
859.248822	0.505457
859.435014	0.505836
859.621188	0.506714
859.807343	0.507291
859.993480	0.507795
860.179599	0.508706
860.365699	0.509281
860.551781	0.509733
860.737846	0.510007
860.923891	0.510551
861.109919	0.510801
861.295929	0.511714
861.481920	0.512419
861.667893	0.513237
861.853848	0.512803
862.039784	0.513153
862.225702	0.513636
862.411603	0.514795
862.597484	0.515081
862.783348	0.515570
862.969193	0.515477
863.155021	0.516287
863.340830	0.516736
863.526620	0.517171
863.712393	0.517747
863.898147	0.518353
864.083883	0.518476
864.269601	0.519192
864.455301	0.519538
864.640982	0.519909
864.826645	0.520250
865.012290	0.520698
865.197917	0.521052
865.383526	0.520887
865.569116	0.521462
865.754688	0.522201
865.940242	0.522464
866.125777	0.522879
866.311295	0.523858
866.496794	0.524870
866.682275	0.525029
866.867737	0.525983
867.053182	0.526911
867.238608	0.527183
867.424016	0.526947
867.609406	0.527238
867.794778	0.528004
867.980131	0.528032
868.165466	0.527895
868.350783	0.528820
868.536082	0.528804
868.721362	0.529276
868.906625	0.529821
869.091869	0.530863
869.277094	0.531424
869.462302	0.531639
869.647491	0.531790
869.832662	0.532678
870.017815	0.532524
870.202950	0.533645
870.388066	0.533822
870.573165	0.534046
870.758245	0.534070
870.943306	0.534393
871.128350	0.534560
871.313375	0.535724
871.498382	0.535562
871.683371	0.536482
871.868342	0.536425
872.053294	0.536791
872.238229	0.537304
872.423144	0.537670
872.608042	0.539028
872.792922	0.539866
872.977783	0.540067
873.162626	0.540047
873.347451	0.539908
873.532258	0.540814
873.717046	0.541582
873.901816	0.541128
874.086568	0.541665
874.271302	0.541246
874.456017	0.541147
874.640715	0.541417
874.825394	0.542211
875.010055	0.542570
875.194697	0.541936
875.379322	0.541809
875.563928	0.542515
875.748516	0.542698
875.933085	0.542941
876.117637	0.543415
876.302170	0.543378
876.486685	0.543588
876.671182	0.543810
876.855661	0.544893
877.040121	0.545273
877.224563	0.545292
877.408987	0.545363
877.593393	0.545257
877.777780	0.545856
877.962150	0.546454
878.146501	0.546196
878.330833	0.546759
878.515148	0.546736
878.699444	0.546925
878.883722	0.547414
879.067982	0.547912
879.252224	0.548398
879.436447	0.548855
879.620653	0.549295
879.804840	0.549962
879.989008	0.550034
880.173159	0.550133
880.357291	0.550103
880.541405	0.550809
880.725501	0.551398
880.909579	0.551759
881.093638	0.551442
881.277680	0.551255
881.461703	0.551385
881.645707	0.551732
881.829694	0.551771
882.013662	0.551715
882.197612	0.551434
882.381544	0.551297
882.565458	0.551344
882.749353	0.551951
882.933230	0.551543
883.117089	0.551615
883.300930	0.551399
883.484753	0.551373
883.668557	0.552164
883.852343	0.552100
884.036111	0.552454
884.219861	0.552652
884.403592	0.551838
884.587305	0.552232
884.771000	0.552304
884.954677	0.552227
885.138335	0.552427
885.321976	0.552693
885.505598	0.553072
885.689201	0.552497
885.872787	0.552476
886.056354	0.553139
886.239904	0.552996
886.423434	0.552587
886.606947	0.552788
886.790442	0.553068
886.973918	0.552775
887.157376	0.552828
887.340816	0.552721
887.524237	0.552391
887.707641	0.551830
887.891026	0.551963
888.074393	0.552421
888.257741	0.552210
888.441072	0.551356
888.624384	0.551124
888.807678	0.551635
888.990954	0.551765
889.174211	0.552480
889.357451	0.552722
889.540672	0.552762
889.723875	0.553004
889.907059	0.553479
890.090226	0.554430
890.273374	0.554345
890.456504	0.553674
890.639616	0.553765
890.822709	0.553288
891.005785	0.553292
891.188842	0.553212
891.371881	0.553107
891.554901	0.553083
891.737904	0.553176
891.920888	0.553405
892.103854	0.553629
892.286802	0.554125
892.469731	0.553813
892.652643	0.553804
892.835536	0.554443
893.018410	0.554764
893.201267	0.554599
893.384106	0.554415
893.566926	0.554954
893.749728	0.554846
893.932511	0.553991
894.115277	0.554037
894.298024	0.553902
894.480753	0.553437
894.663464	0.552959
894.846157	0.552394
895.028831	0.552037
895.211487	0.550928
895.394125	0.550770
895.576745	0.550624
895.759346	0.550938
895.941930	0.551234
896.124495	0.551154
896.307041	0.550852
896.489570	0.550987
896.672080	0.550424
896.854573	0.550719
897.037046	0.550060
897.219502	0.550135
897.401940	0.549157
897.584359	0.548554
897.766760	0.547921
897.949143	0.547823
898.131507	0.547782
898.313854	0.547638
898.496182	0.547666
898.678492	0.548111
898.860783	0.547818
899.043057	0.547605
899.225312	0.547568
899.407549	0.547811
899.589768	0.546933
899.771968	0.546360
899.954151	0.546381
900.136315	0.545983
900.318461	0.545449
900.500588	0.545520
900.682698	0.545747
900.864789	0.545130
901.046862	0.544197
901.228917	0.543864
901.410953	0.543555
901.592971	0.542754
901.774972	0.541983
901.956953	0.541686
902.138917	0.541109
902.320862	0.540895
902.502790	0.541080
902.684699	0.540864
902.866589	0.540835
903.048462	0.540706
903.230316	0.540585
903.412152	0.540474
903.593970	0.539914
903.775770	0.539409
903.957551	0.537988
904.139314	0.537080
904.321059	0.536295
904.502786	0.535762
904.684494	0.535494
904.866185	0.534768
905.047857	0.534154
905.229510	0.533247
905.411146	0.532530
905.592763	0.532089
905.774363	0.531406
905.955943	0.531729
906.137506	0.531706
906.319051	0.531091
906.500577	0.531251
906.682085	0.530362
906.863575	0.530299
907.045046	0.529766
907.226500	0.529799
907.407935	0.529585
907.589352	0.529008
907.770750	0.528359
907.952131	0.527583
908.133493	0.526801
908.314837	0.526837
908.496163	0.526143
908.677470	0.525873
908.858760	0.525032
909.040031	0.524475
909.221284	0.522700
909.402518	0.521845
909.583735	0.521060
909.764933	0.519653
909.946113	0.518612
910.127275	0.517911
910.308418	0.516864
910.489544	0.516288
910.670651	0.515630
910.851740	0.516234
911.032810	0.515133
911.213863	0.514780
911.394897	0.514378
911.575913	0.513779
911.756911	0.512959
911.937890	0.513310
912.118851	0.512847
912.299794	0.511492
912.480719	0.510293
912.661626	0.510923
912.842514	0.509986
913.023384	0.510177
913.204236	0.510123
913.385070	0.510636
913.565886	0.509070
913.746683	0.508080
913.927462	0.507996
914.108223	0.507633
914.288965	0.506345
914.469690	0.505752
914.650396	0.504295
914.831084	0.503836
915.011754	0.502326
915.192405	0.501811
915.373038	0.501309
915.553653	0.500174
915.734250	0.499612
915.914829	0.498264
916.095389	0.497867
916.275931	0.497642
916.456455	0.496157
916.636961	0.495042
916.817448	0.494114
916.997917	0.494127
917.178368	0.493596
917.358801	0.491821
917.539216	0.491702
917.719612	0.490575
917.899990	0.489650
918.080350	0.488830
918.260692	0.488354
918.441015	0.487424
918.621320	0.486260
918.801607	0.485714
918.981876	0.485654
919.162127	0.484540
919.342359	0.483988
919.522573	0.483126
919.702769	0.481732
919.882947	0.480862
920.063106	0.480350
920.243247	0.479566
920.423370	0.478635
920.603475	0.477783
920.783562	0.476813
920.963630	0.475071
921.143680	0.474171
921.323712	0.473640
921.503725	0.472658
921.683721	0.471693
921.863698	0.470477
922.043657	0.469007
922.223598	0.466917
922.403520	0.466214
922.583424	0.466240
922.763311	0.465358
922.943178	0.464288
923.123028	0.463304
923.302859	0.462780
923.482673	0.461710
923.662467	0.461948
923.842244	0.461249
924.022003	0.460674
924.201743	0.459345
924.381465	0.458881
924.561169	0.458433
924.740854	0.457182
924.920522	0.456481
925.100171	0.455210
925.279802	0.453663
925.459414	0.453854
925.639009	0.452524
925.818585	0.451194
925.998143	0.449693
926.177683	0.448140
926.357205	0.447492
926.536708	0.445272
926.716193	0.444370
926.895660	0.442187
927.075109	0.440332
927.254539	0.439108
927.433951	0.438086
927.613345	0.436575
927.792721	0.435990
927.972079	0.434210
928.151418	0.433842
928.330739	0.433037
928.510042	0.432703
928.689327	0.431304
928.868593	0.430540
929.047841	0.428998
929.227071	0.427718
929.406283	0.425969
929.585476	0.424915
929.764652	0.423557
929.943809	0.422546
930.122948	0.421103
930.302068	0.420744
930.481171	0.419276
930.660255	0.419047
930.839321	0.417738
931.018369	0.417870
931.197398	0.417186
931.376409	0.415656
931.555402	0.414277
931.734377	0.413069
931.913334	0.410910
932.092272	0.409275
932.271192	0.407897
932.450094	0.406467
932.628978	0.403612
932.807844	0.402685
932.986691	0.400905
933.165520	0.399446
933.344331	0.398732
933.523123	0.397594
933.701898	0.396356
933.880654	0.394239
934.059392	0.394337
934.238111	0.393594
934.416813	0.392129
934.595496	0.391129
934.774161	0.389710
934.952808	0.387712
935.131437	0.386959
935.310047	0.385824
935.488639	0.385093
935.667213	0.382231
935.845769	0.380610
936.024306	0.379013
936.202825	0.376643
936.381326	0.374919
936.559809	0.374179
936.738274	0.372398
936.916720	0.370972
937.095148	0.370187
937.273558	0.370029
937.451950	0.367829
937.630323	0.364571
937.808678	0.365028
937.987015	0.364969
938.165334	0.363195
938.343635	0.362324
938.521917	0.361324
938.700181	0.358646
938.878427	0.356911
939.056655	0.356705
939.234864	0.358404
939.413055	0.356075
939.591228	0.354212
939.769383	0.353408
939.947519	0.352644
940.125638	0.349938
940.303738	0.349292
940.481820	0.347416
940.659883	0.347313
940.837929	0.344263
941.015956	0.344006
941.193965	0.341885
941.371955	0.340224
941.549928	0.337792
941.727882	0.338178
941.905818	0.335894
942.083736	0.336184
942.261636	0.333995
942.439517	0.333421
942.617380	0.331904
942.795225	0.331368
942.973052	0.330807
943.150860	0.329569
943.328651	0.327540
943.506423	0.327377
943.684176	0.324764
943.861912	0.322561
944.039629	0.318473
944.217328	0.316540
944.395009	0.314596
944.572672	0.311888
944.750317	0.310771
944.927943	0.309812
945.105551	0.308301
945.283141	0.306219
945.460712	0.304119
945.638265	0.304221
945.815801	0.302105
945.993317	0.301164
946.170816	0.300308
946.348297	0.297687
946.525759	0.295515
946.703203	0.292440
946.880629	0.290842
947.058036	0.288976
947.235425	0.287906
947.412797	0.286598
947.590149	0.283495
947.767484	0.280022
947.944800	0.279837
948.122099	0.278831
948.299379	0.279205
948.476640	0.277465
948.653884	0.277177
948.831109	0.276489
949.008316	0.274928
949.185505	0.274093
949.362676	0.274264
949.539828	0.273160
949.716962	0.269764
949.894078	0.267755
950.071176	0.266123
950.248256	0.263821
950.425317	0.261611
950.602360	0.258718
950.779385	0.258729
950.956391	0.257193
951.133380	0.254693
951.310350	0.253619
951.487302	0.250890
951.664235	0.250491
951.841151	0.248702
952.018048	0.247192
952.194927	0.247953
952.371788	0.244874
952.548631	0.243695
952.725455	0.243484
952.902261	0.242481
953.079049	0.241760
953.255819	0.240165
953.432570	0.240439
953.609303	0.238943
953.786018	0.236948
953.962715	0.234533
954.139394	0.233025
954.316054	0.229597
954.492696	0.228560
954.669320	0.229800
954.845926	0.226509
955.022513	0.225119
955.199083	0.224124
955.375634	0.223105
955.552166	0.223179
955.728681	0.219716
955.905177	0.221073
956.081655	0.219827
956.258115	0.215638
956.434557	0.213791
956.610980	0.210732
956.787385	0.211349
956.963772	0.210827
957.140141	0.209738
957.316492	0.209956
957.492824	0.208280
957.669138	0.206852
957.845434	0.205648
958.021712	0.206549
958.197971	0.206983
958.374212	0.202991
958.550435	0.201745
958.726640	0.199582
958.902826	0.199444
959.078995	0.196187
959.255145	0.195596
959.431277	0.194610
959.607390	0.193782
959.783486	0.192334
959.959563	0.191054
960.135622	0.190314
960.311662	0.188285
960.487685	0.188481
960.663689	0.188103
960.839675	0.184591
961.015643	0.185558
961.191593	0.186344
961.367524	0.186263
961.543437	0.187051
961.719332	0.185076
961.895209	0.186750
962.071067	0.184420
962.246907	0.185924
962.422730	0.188747
962.598533	0.187138
962.774319	0.185215
962.950086	0.183984
963.125835	0.183026
963.301566	0.184044
963.477279	0.183010
963.652973	0.184337
963.828650	0.183403
964.004308	0.183195
964.179947	0.184570
964.355569	0.184155
964.531172	0.182467
964.706757	0.181545
964.882324	0.179280
965.057873	0.178586
965.233403	0.180072
965.408916	0.179785
965.584410	0.177544
965.759885	0.174063
965.935343	0.172856
966.110782	0.172914
966.286203	0.173478
966.461606	0.175361
966.636991	0.175300
966.812357	0.172836
966.987705	0.171763
967.163035	0.173187
967.338347	0.174368
967.513641	0.176563
967.688916	0.178364
967.864173	0.179179
968.039412	0.178002
968.214632	0.179428
968.389835	0.178403
968.565019	0.177857
968.740185	0.179079
968.915333	0.179042
969.090462	0.177337
969.265573	0.176053
969.440667	0.176464
969.615741	0.175569
969.790798	0.174865
969.965836	0.176326
970.140856	0.177215
970.315858	0.174207
970.490842	0.172599
970.665808	0.173463
970.840755	0.173437
971.015684	0.170267
971.190595	0.172448
971.365487	0.170516
971.540362	0.172157
971.715218	0.170157
971.890056	0.170065
972.064875	0.172566
972.239677	0.172217
972.414460	0.173419
972.589225	0.174071
972.763972	0.170892
972.938700	0.172175
973.113411	0.168366
973.288103	0.170773
973.462777	0.171204
973.637432	0.169081
973.812070	0.170228
973.986689	0.169651
974.161290	0.172966
974.335873	0.173769
974.510437	0.175258
974.684984	0.174832
974.859512	0.173069
975.034022	0.173076
975.208513	0.173393
975.382987	0.171767
975.557442	0.169831
975.731879	0.168714
975.906298	0.170222
976.080698	0.169509
976.255080	0.169879
976.429445	0.170329
976.603790	0.172181
976.778118	0.172048
976.952427	0.173056
977.126719	0.175826
977.300992	0.174702
977.475246	0.174246
977.649483	0.174888
977.823701	0.175847
977.997901	0.175816
978.172083	0.173053
978.346247	0.174306
978.520392	0.173194
978.694519	0.170676
978.868628	0.171167
979.042719	0.171672
979.216791	0.170730
979.390845	0.170079
979.564882	0.170537
979.738899	0.172732
979.912899	0.170371
980.086880	0.171800
980.260843	0.171512
980.434788	0.173102
980.608715	0.169783
980.782623	0.169962
980.956514	0.172185
981.130386	0.170510
981.304240	0.171497
981.478075	0.174467
981.651892	0.171886
981.825692	0.173858
981.999472	0.175152
982.173235	0.177678
982.346980	0.177531
982.520706	0.177525
982.694414	0.177876
982.868104	0.174687
983.041775	0.172224
983.215428	0.173084
983.389064	0.172496
983.562680	0.169958
983.736279	0.170230
983.909860	0.168908
984.083422	0.167801
984.256966	0.168102
984.430491	0.169129
984.603999	0.168706
984.777488	0.169507
984.950959	0.170474
985.124412	0.171164
985.297847	0.171166
985.471263	0.174312
985.644661	0.174231
985.818041	0.176295
985.991403	0.178885
986.164747	0.182458
986.338072	0.182167
986.511379	0.180729
986.684668	0.179442
986.857938	0.180722
987.031191	0.178332
987.204425	0.178095
987.377641	0.177656
987.550839	0.176094
987.724018	0.176031
987.897179	0.176088
988.070322	0.178025
988.243447	0.178483
988.416554	0.177228
988.589642	0.175547
988.762712	0.174591
988.935764	0.172538
989.108798	0.173317
989.281813	0.170766
989.454811	0.171855
989.627790	0.171208
989.800751	0.169781
989.973693	0.171041
990.146617	0.173687
990.319524	0.174884
990.492412	0.176198
990.665281	0.177613
990.838133	0.178316
991.010966	0.177451
991.183781	0.177888
991.356578	0.179034
991.529356	0.177736
991.702117	0.177827
991.874859	0.178275
992.047583	0.179127
992.220288	0.176446
992.392976	0.177295
992.565645	0.179849
992.738296	0.178624
992.910929	0.176770
993.083543	0.177960
993.256139	0.176660
993.428718	0.177016
993.601277	0.175854
993.773819	0.177180
993.946342	0.175867
994.118848	0.173550
994.291335	0.174857
994.463803	0.178347
994.636254	0.177277
994.808686	0.179746
994.981100	0.177620
995.153496	0.178033
995.325874	0.175593
995.498233	0.176911
995.670574	0.175528
995.842897	0.174909
996.015202	0.176113
996.187488	0.174661
996.359757	0.172749
996.532007	0.173585
996.704239	0.174228
996.876452	0.176722
997.048648	0.177132
997.220825	0.180558
997.392984	0.181099
997.565124	0.176892
997.737247	0.177717
997.909351	0.178367
998.081437	0.179879
998.253505	0.180454
998.425554	0.180049
998.597586	0.178987
998.769599	0.177348
998.941594	0.176298
999.113571	0.177522
999.285529	0.177397
999.457469	0.177250
999.629391	0.177526
999.801295	0.175479
999.973181	0.174501
1000.145048	0.174537
1000.316897	0.174272
1000.488728	0.175535
1000.660541	0.174872
1000.832335	0.174763
1001.004111	0.175383
1001.175869	0.176108
1001.347609	0.177921
1001.519331	0.176210
1001.691034	0.176418
1001.862719	0.176360
1002.034386	0.176390
1002.206035	0.176310
1002.377665	0.177699
1002.549277	0.176612
1002.720871	0.176778
1002.892447	0.175179
1003.064004	0.179061
1003.235544	0.178214
1003.407065	0.178671
1003.578568	0.178676
1003.750052	0.180285
1003.921519	0.179398
1004.092967	0.180451
1004.264397	0.179882
1004.435809	0.181683
1004.607202	0.180564
1004.778577	0.181547
1004.949934	0.180404
1005.121273	0.179805
1005.292594	0.178801
1005.463896	0.181091
1005.635180	0.182236
1005.806446	0.181004
1005.977694	0.181081
1006.148923	0.179772
1006.320135	0.180088
1006.491328	0.180887
1006.662503	0.182298
1006.833659	0.184939
1007.004798	0.184262
1007.175918	0.183741
1007.347020	0.183435
1007.518103	0.181404
1007.689169	0.180457
1007.860216	0.181574
1008.031245	0.181397
1008.202256	0.179474
1008.373248	0.177524
1008.544223	0.176551
1008.715179	0.174325
1008.886117	0.172549
1009.057036	0.174167
1009.227938	0.175899
1009.398821	0.176465
1009.569686	0.177245
1009.740533	0.176955
1009.911361	0.176200
1010.082172	0.176334
1010.252964	0.176527
1010.423738	0.178042
1010.594493	0.176942
1010.765231	0.176653
1010.935950	0.174438
1011.106651	0.175520
1011.277334	0.177209
1011.447998	0.178760
1011.618645	0.178040
1011.789273	0.179936
1011.959882	0.180879
1012.130474	0.181336
1012.301048	0.179668
1012.471603	0.182568
1012.642140	0.182187
1012.812658	0.181441
1012.983159	0.180458
1013.153641	0.179593
1013.324105	0.178693
1013.494551	0.179122
1013.664979	0.178601
1013.835388	0.181193
1014.005779	0.178184
1014.176152	0.176808
1014.346507	0.175691
1014.516843	0.174146
1014.687162	0.176035
1014.857462	0.176153
1015.027744	0.175122
1015.198007	0.176142
1015.368252	0.175359
1015.538480	0.176011
1015.708689	0.174888
1015.878879	0.176615
1016.049052	0.178830
1016.219206	0.179602
1016.389342	0.178589
1016.559460	0.177741
1016.729559	0.177325
1016.899641	0.176587
1017.069704	0.176746
1017.239749	0.179479
1017.409775	0.178503
1017.579784	0.179856
1017.749774	0.177613
1017.919746	0.176918
1018.089700	0.176820
1018.259635	0.177375
1018.429553	0.179333
1018.599452	0.180199
1018.769333	0.178248
1018.939195	0.178644
1019.109040	0.176537
1019.278866	0.178725
1019.448674	0.180831
1019.618464	0.179791
1019.788235	0.176626
1019.957989	0.174771
1020.127724	0.175358
1020.297441	0.176901
1020.467139	0.176435
1020.636820	0.177844
1020.806482	0.175720
1020.976126	0.174992
1021.145752	0.177197
1021.315359	0.180198
1021.484948	0.179214
1021.654519	0.177572
1021.824072	0.176335
1021.993607	0.175660
1022.163123	0.174728
1022.332621	0.175914
1022.502101	0.177469
1022.671563	0.175581
1022.841007	0.176102
1023.010432	0.177849
1023.179839	0.177874
1023.349228	0.177953
1023.518598	0.178097
1023.687951	0.177122
1023.857285	0.176226
1024.026601	0.176210
1024.195899	0.178155
1024.365178	0.176168
1024.534439	0.176194
1024.703682	0.175811
1024.872907	0.176104
1025.042114	0.178281
1025.211302	0.180051
1025.380472	0.178898
1025.549624	0.177897
1025.718758	0.178931
1025.887873	0.177906
1026.056970	0.176861
1026.226049	0.177865
1026.395110	0.177793
1026.564153	0.176598
1026.733177	0.173828
1026.902183	0.174736
1027.071171	0.174401
1027.240141	0.172689
1027.409092	0.175673
1027.578026	0.174063
1027.746940	0.171976
1027.915837	0.171821
1028.084716	0.171622
1028.253576	0.172450
1028.422418	0.172758
1028.591242	0.173008
1028.760048	0.172438
1028.928835	0.170303
1029.097604	0.173603
1029.266355	0.174022
1029.435088	0.174130
1029.603803	0.175462
1029.772499	0.176292
1029.941177	0.176004
1030.109837	0.175039
1030.278478	0.175623
1030.447102	0.175529
1030.615707	0.174075
1030.784294	0.175856
1030.952863	0.175016
1031.121413	0.173273
1031.289945	0.172940
1031.458460	0.174713
1031.626955	0.175930
1031.795433	0.175850
1031.963892	0.174529
1032.132334	0.174534
1032.300756	0.173291
1032.469161	0.173441
1032.637548	0.172831
1032.805916	0.172712
1032.974266	0.171110
1033.142598	0.170358
1033.310911	0.169618
1033.479207	0.170276
1033.647484	0.170557
1033.815743	0.171107
1033.983983	0.170351
1034.152206	0.171282
1034.320410	0.171986
1034.488596	0.172824
1034.656764	0.171077
1034.824914	0.171303
1034.993045	0.172100
1035.161158	0.171051
1035.329253	0.171616
1035.497330	0.175309
1035.665388	0.175469
1035.833428	0.175768
1036.001450	0.176133
1036.169454	0.178997
1036.337440	0.177877
1036.505407	0.175577
1036.673356	0.176354
1036.841287	0.175259
1037.009200	0.172663
1037.177094	0.171306
1037.344970	0.171159
1037.512828	0.168514
1037.680668	0.164758
1037.848489	0.166211
1038.016293	0.168616
1038.184078	0.170240
1038.351845	0.172212
1038.519593	0.173705
1038.687324	0.173941
1038.855036	0.173303
1039.022730	0.174296
1039.190406	0.177071
1039.358063	0.178794
1039.525702	0.177902
1039.693323	0.177604
1039.860926	0.175486
1040.028511	0.173762
1040.196077	0.173932
1040.363625	0.174317
1040.531155	0.175344
1040.698667	0.175198
1040.866161	0.172263
1041.033636	0.172502
1041.201093	0.170534
1041.368532	0.171031
1041.535952	0.170607
1041.703355	0.170810
1041.870739	0.171514
1042.038105	0.171107
1042.205452	0.171054
1042.372782	0.172594
1042.540093	0.174078
1042.707386	0.174611
1042.874661	0.174150
1043.041918	0.174531
1043.209156	0.174216
1043.376376	0.172954
1043.543578	0.172820
1043.710762	0.174021
1043.877927	0.173418
1044.045074	0.172935
1044.212203	0.172673
1044.379314	0.171775
1044.546407	0.171605
1044.713481	0.170365
1044.880537	0.168512
1045.047575	0.168834
1045.214595	0.167998
1045.381596	0.168850
1045.548579	0.167873
1045.715544	0.168604
1045.882491	0.169147
1046.049420	0.168014
1046.216330	0.169688
1046.383222	0.172975
1046.550096	0.171310
1046.716951	0.171179
1046.883789	0.169442
1047.050608	0.168822
1047.217409	0.168184
1047.384192	0.168212
1047.550956	0.171604
1047.717703	0.172451
1047.884431	0.169619
1048.051140	0.169994
1048.217832	0.171412
1048.384505	0.172676
1048.551161	0.173092
1048.717798	0.175047
1048.884416	0.175151
1049.051017	0.171539
1049.217599	0.172037
1049.384163	0.173827
1049.550709	0.174556
1049.717237	0.173163
1049.883746	0.172463
1050.050237	0.172741
1050.216710	0.170787
1050.383165	0.171143
1050.549601	0.174176
1050.716019	0.173008
1050.882420	0.172058
1051.048801	0.172935
1051.215165	0.173291
1051.381510	0.172199
1051.547837	0.173205
1051.714146	0.173513
1051.880437	0.174113
1052.046709	0.172443
1052.212964	0.173216
1052.379200	0.172272
1052.545417	0.172198
1052.711617	0.171247
1052.877798	0.172601
1053.043961	0.174217
1053.210106	0.172221
1053.376233	0.171734
1053.542341	0.172431
1053.708432	0.171937
1053.874504	0.173028
1054.040557	0.172827
1054.206593	0.173071
1054.372610	0.172840
1054.538609	0.171709
1054.704590	0.174090
1054.870553	0.174505
1055.036497	0.173491
1055.202424	0.173413
1055.368331	0.174633
1055.534221	0.173531
1055.700093	0.172654
1055.865946	0.173912
1056.031781	0.174437
1056.197598	0.175317
1056.363397	0.178224
1056.529177	0.178403
1056.694939	0.179402
1056.860683	0.179446
1057.026409	0.181488
1057.192116	0.185793
1057.357806	0.186773
1057.523477	0.185804
1057.689130	0.185090
1057.854764	0.182778
1058.020381	0.183736
1058.185979	0.183279
1058.351559	0.183244
1058.517120	0.182904
1058.682664	0.179803
1058.848189	0.178590
1059.013696	0.179178
1059.179185	0.178728
1059.344656	0.178491
1059.510108	0.177797
1059.675542	0.180448
1059.840958	0.179866
1060.006356	0.180485
1060.171735	0.180272
1060.337096	0.180551
1060.502439	0.180471
1060.667764	0.181333
1060.833071	0.179857
1060.998359	0.180339
1061.163629	0.176182
1061.328881	0.176881
1061.494115	0.177872
1061.659330	0.175592
1061.824527	0.174543
1061.989706	0.174548
1062.154867	0.173775
1062.320010	0.175208
1062.485134	0.175709
1062.650240	0.176737
1062.815328	0.175116
1062.980398	0.173413
1063.145449	0.177745
1063.310482	0.180098
1063.475497	0.179388
1063.640494	0.181696
1063.805473	0.181370
1063.970433	0.180175
1064.135375	0.179528
1064.300299	0.180846
1064.465204	0.181655
1064.630092	0.180684
1064.794961	0.178989
1064.959812	0.180667
1065.124645	0.179076
1065.289459	0.179249
1065.454256	0.180250
1065.619034	0.179624
1065.783793	0.181380
1065.948535	0.179569
1066.113258	0.179918
1066.277964	0.180815
1066.442651	0.179571
1066.607319	0.177289
1066.771970	0.176071
1066.936602	0.175612
1067.101216	0.177042
1067.265812	0.177598
1067.430389	0.177948
1067.594949	0.175643
1067.759490	0.177717
1067.924013	0.176757
1068.088518	0.180180
1068.253004	0.181931
1068.417472	0.181820
1068.581922	0.183021
1068.746354	0.181025
1068.910768	0.183145
1069.075163	0.184833
1069.239540	0.181940
1069.403899	0.183613
1069.568240	0.182971
1069.732562	0.183722
1069.896866	0.184148
1070.061152	0.181585
1070.225420	0.179781
1070.389670	0.177514
1070.553901	0.179313
1070.718114	0.178989
1070.882309	0.180886
1071.046486	0.182578
1071.210644	0.180467
1071.374784	0.180642
1071.538906	0.185198
1071.703010	0.190691
1071.867096	0.191032
1072.031163	0.188764
1072.195212	0.189920
1072.359243	0.187735
1072.523256	0.188269
1072.687250	0.189045
1072.851226	0.191659
1073.015184	0.189077
1073.179124	0.185207
1073.343045	0.189275
1073.506949	0.192067
1073.670834	0.190625
1073.834701	0.191446
1073.998549	0.189651
1074.162380	0.189919
1074.326192	0.188260
1074.489986	0.189830
1074.653761	0.189174
1074.817519	0.185817
1074.981258	0.181684
1075.144979	0.181549
1075.308682	0.178899
1075.472367	0.174541
1075.636033	0.173409
1075.799681	0.170963
1075.963311	0.171083
1076.126923	0.172407
1076.290516	0.170896
1076.454092	0.172093
1076.617649	0.174604
1076.781187	0.176657
1076.944708	0.180402
1077.108210	0.183302
1077.271695	0.186161
1077.435160	0.182290
1077.598608	0.182948
1077.762038	0.187518
1077.925449	0.188729
1078.088842	0.188296
1078.252217	0.186732
1078.415573	0.185395
1078.578912	0.184787
1078.742232	0.180106
1078.905534	0.183137
1079.068817	0.182507
1079.232083	0.179146
1079.395330	0.178211
1079.558559	0.176966
1079.721770	0.177643
1079.884962	0.178907
1080.048136	0.177616
1080.211293	0.182062
1080.374430	0.181031
1080.537550	0.179594
1080.700651	0.182085
1080.863735	0.183126
1081.026800	0.187807
1081.189846	0.190734
1081.352875	0.192346
1081.515885	0.193595
1081.678877	0.192212
1081.841851	0.192579
1082.004807	0.194553
1082.167744	0.192521
1082.330663	0.193781
1082.493564	0.189285
1082.656447	0.188969
1082.819312	0.186930
1082.982158	0.186478
1083.144986	0.187825
1083.307796	0.185669
1083.470587	0.185427
1083.633361	0.183115
1083.796116	0.186197
1083.958853	0.190559
1084.121571	0.189294
1084.284272	0.191321
1084.446954	0.190846
1084.609618	0.189265
1084.772264	0.192394
1084.934892	0.190988
1085.097501	0.196214
1085.260092	0.191887
1085.422665	0.187234
1085.585220	0.190258
1085.747756	0.189917
1085.910274	0.191052
1086.072774	0.193613
1086.235256	0.195476
1086.397720	0.196431
1086.560165	0.196134
1086.722592	0.197639
1086.885001	0.196968
1087.047392	0.193565
1087.209764	0.192426
1087.372119	0.193558
1087.534455	0.192025
1087.696772	0.192337
1087.859072	0.196589
1088.021353	0.193821
1088.183616	0.190066
1088.345861	0.193025
1088.508088	0.193928
1088.670296	0.194656
1088.832486	0.195224
1088.994658	0.197009
1089.156812	0.192944
1089.318948	0.188971
1089.481065	0.191854
1089.643164	0.196539
1089.805245	0.193883
1089.967308	0.197864
1090.129352	0.199329
1090.291378	0.197736
1090.453386	0.192827
1090.615376	0.196770
1090.777347	0.198369
1090.939301	0.195229
1091.101236	0.195054
1091.263153	0.197922
1091.425051	0.193181
1091.586932	0.192676
1091.748794	0.194355
1091.910638	0.197090
1092.072463	0.198590
1092.234271	0.197843
1092.396060	0.202441
1092.557831	0.201709
1092.719584	0.201712
1092.881319	0.202788
1093.043035	0.201882
1093.204733	0.203766
1093.366413	0.203516
1093.528075	0.201649
1093.689718	0.200846
1093.851343	0.198854
1094.012950	0.196366
1094.174539	0.198582
1094.336110	0.200856
1094.497662	0.204483
1094.659196	0.202691
1094.820712	0.204688
1094.982210	0.202433
1095.143689	0.202105
1095.305151	0.204703
1095.466594	0.204959
1095.628018	0.204343
1095.789425	0.206484
1095.950813	0.207953
1096.112183	0.207390
1096.273535	0.210123
1096.434869	0.210875
1096.596184	0.212220
1096.757482	0.206931
1096.918761	0.211405
1097.080021	0.208312
1097.241264	0.204022
1097.402488	0.200969
1097.563694	0.203745
1097.724882	0.199576
1097.886052	0.198195
1098.047203	0.198901
1098.208336	0.201753
1098.369451	0.197659
1098.530548	0.202070
1098.691627	0.200282
1098.852687	0.200721
1099.013729	0.196360
1099.174753	0.199550
1099.335758	0.200930
1099.496746	0.202681
1099.657715	0.203762
1099.818666	0.204710
1099.979599	0.206798
1100.140513	0.210787
1100.301409	0.210005
1100.462287	0.213302
1100.623147	0.214455
1100.783989	0.215379
1100.944812	0.213484
1101.105617	0.211423
1101.266404	0.215054
1101.427173	0.209047
1101.587923	0.210912
1101.748656	0.205480
1101.909370	0.203950
1102.070066	0.199618
1102.230743	0.199658
1102.391403	0.199699
1102.552044	0.199400
1102.712667	0.199510
1102.873271	0.199554
1103.033858	0.198185
1103.194426	0.201451
1103.354976	0.199947
1103.515508	0.200979
1103.676021	0.202019
1103.836517	0.201357
1103.996994	0.199291
1104.157453	0.195896
1104.317893	0.201499
1104.478316	0.200345
1104.638720	0.199998
1104.799106	0.200288
1104.959474	0.205570
1105.119823	0.200634
1105.280155	0.200087
1105.440468	0.204122
1105.600763	0.202000
1105.761039	0.199352
1105.921298	0.198364
1106.081538	0.195275
1106.241760	0.193653
1106.401964	0.187206
1106.562149	0.192839
1106.722316	0.193448
1106.882465	0.192498
1107.042596	0.194791
1107.202709	0.192909
1107.362803	0.194837
1107.522879	0.199132
1107.682937	0.200824
1107.842977	0.203242
1108.002999	0.199345
1108.163002	0.201218
1108.322987	0.203529
1108.482954	0.203149
1108.642902	0.198409
1108.802833	0.195316
1108.962745	0.194898
1109.122639	0.193935
1109.282515	0.193258
1109.442372	0.192609
1109.602211	0.186993
1109.762032	0.182904
1109.921835	0.183718
1110.081620	0.188258
1110.241386	0.190957
1110.401134	0.193279
1110.560864	0.195650
1110.720576	0.197808
1110.880269	0.204888
1111.039945	0.213289
1111.199602	0.215370
1111.359240	0.217650
1111.518861	0.220455
1111.678463	0.221735
1111.838047	0.220128
1111.997613	0.218429
1112.157161	0.219388
1112.316690	0.212236
1112.476202	0.208983
1112.635695	0.206920
1112.795169	0.205884
1112.954626	0.201523
1113.114064	0.190832
1113.273484	0.188577
1113.432886	0.186669
1113.592270	0.191697
1113.751635	0.196438
1113.910983	0.193219
1114.070312	0.197756
1114.229622	0.195726
1114.388915	0.196249
1114.548189	0.205785
1114.707445	0.208671
1114.866683	0.210925
1115.025903	0.202962
1115.185104	0.203890
1115.344287	0.210904
1115.503452	0.213379
1115.662599	0.214307
1115.821727	0.213974
1115.980838	0.211286
1116.139930	0.209254
1116.299004	0.212274
1116.458059	0.218646
1116.617097	0.214175
1116.776116	0.208479
1116.935117	0.205347
1117.094099	0.204202
1117.253064	0.209905
1117.412010	0.211283
1117.570938	0.218927
1117.729848	0.216737
1117.888740	0.211438
1118.047613	0.214678
1118.206468	0.217902
1118.365305	0.215046
1118.524124	0.219788
1118.682924	0.218952
1118.841707	0.220332
1119.000471	0.217576
1119.159216	0.218735
1119.317944	0.216918
1119.476653	0.216924
1119.635344	0.214892
1119.794017	0.217555
1119.952672	0.220559
1120.111308	0.216949
1120.269927	0.218897
1120.428527	0.222965
1120.587108	0.221075
1120.745672	0.221360
1120.904217	0.218981
1121.062744	0.221784
1121.221253	0.222049
1121.379744	0.221452
1121.538216	0.219761
1121.696671	0.213519
1121.855107	0.208903
1122.013524	0.210029
1122.171924	0.215924
1122.330305	0.215306
1122.488668	0.216206
1122.647013	0.215265
1122.805340	0.207471
1122.963648	0.214100
1123.121938	0.221368
1123.280210	0.221030
1123.438464	0.223134
1123.596700	0.217557
1123.754917	0.221567
1123.913116	0.218875
1124.071297	0.222618
1124.229459	0.225202
1124.387604	0.221950
1124.545730	0.219771
1124.703838	0.214732
1124.861928	0.213324
1125.019999	0.218348
1125.178052	0.215517
1125.336088	0.220357
1125.494104	0.212778
1125.652103	0.216758
1125.810083	0.221123
1125.968045	0.221751
1126.125989	0.224530
1126.283915	0.226479
1126.441823	0.225792
1126.599712	0.229743
1126.757583	0.237730
1126.915436	0.243830
1127.073270	0.243275
1127.231087	0.240822
1127.388885	0.242630
1127.546665	0.241811
1127.704426	0.240957
1127.862170	0.241566
1128.019895	0.238867
1128.177602	0.227177
1128.335291	0.222956
1128.492961	0.217620
1128.650614	0.218610
1128.808248	0.217953
1128.965864	0.224564
1129.123461	0.225113
1129.281041	0.222148
1129.438602	0.220263
1129.596145	0.220618
1129.753670	0.220612
1129.911176	0.217837
1130.068665	0.212029
1130.226135	0.205153
1130.383587	0.199772
1130.541020	0.195729
1130.698436	0.193537
1130.855833	0.194755
1131.013212	0.196482
1131.170573	0.199689
1131.327915	0.204058
1131.485239	0.209441
1131.642545	0.214961
1131.799833	0.222841
1131.957103	0.224468
1132.114354	0.223883
1132.271588	0.222755
1132.428803	0.225848
1132.585999	0.224903
1132.743178	0.221125
1132.900338	0.215939
1133.057480	0.223395
1133.214604	0.219836
1133.371710	0.226896
1133.528797	0.231191
1133.685866	0.239515
1133.842917	0.233433
1133.999950	0.231533
1134.156964	0.238056
1134.313960	0.241300
1134.470938	0.226767
1134.627898	0.226790
1134.784840	0.218525
1134.941763	0.218884
1135.098668	0.207025
1135.255555	0.206971
1135.412424	0.208612
1135.569274	0.199717
1135.726107	0.193420
1135.882921	0.195776
1136.039716	0.195624
1136.196494	0.196773
1136.353253	0.194393
1136.509995	0.193371
1136.666717	0.191266
1136.823422	0.189246
1136.980109	0.192306
1137.136777	0.203050
1137.293427	0.208070
1137.450059	0.206030
1137.606672	0.215718
1137.763267	0.219567
1137.919844	0.234562
1138.076403	0.233986
1138.232944	0.231857
1138.389466	0.230556
1138.545971	0.222906
1138.702457	0.221107
1138.858924	0.226781
1139.015374	0.225822
1139.171805	0.227347
1139.328218	0.213698
1139.484613	0.218681
1139.640990	0.231865
1139.797348	0.237355
1139.953688	0.243043
1140.110010	0.240365
1140.266314	0.234521
1140.422600	0.226702
1140.578867	0.228626
1140.735116	0.246313
1140.891347	0.251632
1141.047559	0.233735
1141.203754	0.238076
1141.359930	0.227350
1141.516088	0.229792
1141.672228	0.234258
1141.828349	0.234386
1141.984452	0.228406
1142.140537	0.213366
1142.296604	0.205857
1142.452653	0.209197
1142.608683	0.205051
1142.764695	0.211084
1142.920689	0.212584
1143.076665	0.211958
1143.232622	0.204559
1143.388562	0.207472
1143.544483	0.213848
1143.700385	0.218507
1143.856270	0.224532
1144.012136	0.225951
1144.167985	0.225452
1144.323814	0.221194
1144.479626	0.217078
1144.635420	0.222529
1144.791195	0.213232
1144.946952	0.212188
1145.102691	0.203246
1145.258411	0.202499
1145.414113	0.195507
1145.569798	0.195108
1145.725463	0.194745
1145.881111	0.195257
1146.036741	0.194686
1146.192352	0.197549
1146.347945	0.196981
1146.503519	0.199682
1146.659076	0.193357
1146.814614	0.210339
1146.970134	0.210436
1147.125636	0.213511
1147.281120	0.214701
1147.436585	0.215247
1147.592032	0.214861
1147.747461	0.206350
1147.902872	0.195811
1148.058265	0.190201
1148.213639	0.182495
1148.368995	0.181260
1148.524333	0.169894
1148.679653	0.169879
1148.834954	0.172147
1148.990237	0.173620
1149.145502	0.175095
1149.300749	0.193564
1149.455977	0.207728
1149.611188	0.207728
1149.766380	0.216693
1149.921553	0.229071
1150.076709	0.221195
1150.231846	0.227277
1150.386966	0.231490
1150.542066	0.237492
1150.697149	0.233309
1150.852214	0.226975
1151.007260	0.229622
1151.162288	0.222571
1151.317298	0.225882
1151.472289	0.234265
1151.627263	0.225302
1151.782218	0.219100
1151.937155	0.215672
1152.092073	0.207658
1152.246974	0.212170
1152.401856	0.209645
1152.556720	0.207817
1152.711566	0.197615
1152.866393	0.198401
1153.021203	0.203133
1153.175994	0.206265
1153.330767	0.209726
1153.485521	0.219542
1153.640258	0.211398
1153.794976	0.206332
1153.949676	0.202575
1154.104358	0.219733
1154.259021	0.207374
1154.413667	0.197127
1154.568294	0.197880
1154.722903	0.185666
1154.877493	0.177741
1155.032066	0.192744
1155.186620	0.187739
1155.341156	0.190225
1155.495674	0.176409
1155.650173	0.184497
1155.804654	0.197577
1155.959118	0.197080
1156.113562	0.204136
1156.267989	0.207812
1156.422397	0.194509
1156.576788	0.196460
1156.731160	0.206599
1156.885513	0.212712
1157.039849	0.213550
1157.194166	0.197435
1157.348465	0.198825
1157.502746	0.198389
1157.657009	0.193355
1157.811253	0.195663
1157.965479	0.201962
1158.119687	0.195404
1158.273877	0.183412
1158.428048	0.182274
1158.582201	0.192568
1158.736337	0.190337
1158.890453	0.207159
1159.044552	0.207572
1159.198632	0.212314
1159.352694	0.209799
1159.506738	0.216185
1159.660764	0.221737
1159.814771	0.234105
1159.968761	0.237158
1160.122732	0.236504
1160.276685	0.224049
1160.430619	0.220309
1160.584535	0.201704
1160.738434	0.203080
1160.892313	0.193871
1161.046175	0.197738
1161.200019	0.183327
1161.353844	0.183968
1161.507651	0.181300
1161.661440	0.190400
1161.815210	0.195254
1161.968962	0.212594
1162.122697	0.207403
1162.276412	0.204945
1162.430110	0.207086
1162.583789	0.211132
1162.737451	0.200688
1162.891094	0.216963
1163.044718	0.203013
1163.198325	0.202166
1163.351913	0.198157
1163.505483	0.198501
1163.659035	0.201566
1163.812569	0.195616
1163.966084	0.196127
1164.119581	0.186240
1164.273060	0.169367
1164.426521	0.167079
1164.579964	0.161991
1164.733388	0.177800
1164.886794	0.192355
1165.040182	0.184035
1165.193551	0.182994
1165.346903	0.180430
1165.500236	0.201302
1165.653551	0.215962
1165.806848	0.211910
1165.960126	0.215235
1166.113386	0.205354
1166.266628	0.195528
1166.419852	0.202581
1166.573058	0.216440
1166.726245	0.214004
1166.879414	0.205611
1167.032565	0.199881
1167.185698	0.207781
1167.338812	0.216305
1167.491909	0.204791
1167.644987	0.212654
1167.798046	0.201082
1167.951088	0.200796
1168.104111	0.207238
1168.257117	0.212455
1168.410103	0.200911
1168.563072	0.204421
1168.716023	0.212114
1168.868955	0.227128
1169.021869	0.219105
1169.174765	0.233553
1169.327642	0.233410
1169.480501	0.222200
1169.633343	0.223561
1169.786165	0.227198
1169.938970	0.242040
1170.091757	0.223276
1170.244525	0.215982
1170.397275	0.195052
1170.550007	0.202338
1170.702720	0.188376
1170.855415	0.185943
1171.008092	0.198806
1171.160751	0.221347
1171.313392	0.223479
1171.466014	0.137093
1171.618619	0.421203
1171.771205	0.421203
1171.923772	0.421203
