sample name	sample
index	319
start time	 02-25-2021  03:14:45 PM


Wavelength (nm)	Absorbance
494.344910	-1.391017
494.563924	-1.391017
494.782919	-1.391017
495.001897	NaN
495.220856	-0.028821
495.439797	-0.047700
495.658719	0.231507
495.877624	0.473717
496.096510	0.215943
496.315378	0.051927
496.534227	0.010138
496.753059	-0.105259
496.971872	-0.011904
497.190667	0.129896
497.409444	0.151411
497.628203	0.153974
497.846943	0.157078
498.065665	0.156803
498.284369	0.158150
498.503055	0.157789
498.721723	0.157402
498.940372	0.157726
499.159003	0.157517
499.377616	0.157988
499.596210	0.157346
499.814787	0.157260
500.033345	0.157687
500.251885	0.156919
500.470406	0.157567
500.688910	0.156978
500.907395	0.156446
501.125862	0.156469
501.344311	0.155602
501.562742	0.155816
501.781154	0.155641
501.999548	0.155913
502.217924	0.155951
502.436282	0.155264
502.654621	0.155767
502.872942	0.154345
503.091245	0.154525
503.309530	0.155119
503.527797	0.155466
503.746045	0.154659
503.964275	0.154818
504.182487	0.155077
504.400681	0.155140
504.618856	0.155365
504.837013	0.156469
505.055152	0.156236
505.273273	0.157415
505.491376	0.156814
505.709460	0.157486
505.927526	0.156814
506.145574	0.156691
506.363604	0.156365
506.581615	0.156532
506.799608	0.157171
507.017583	0.157749
507.235540	0.157493
507.453478	0.158502
507.671399	0.158100
507.889301	0.158520
508.107185	0.158149
508.325050	0.158493
508.542898	0.158881
508.760727	0.159773
508.978538	0.160691
509.196330	0.160584
509.414105	0.160996
509.631861	0.161967
509.849599	0.162053
510.067319	0.163316
510.285021	0.163771
510.502704	0.164327
510.720369	0.164024
510.938016	0.163411
511.155645	0.163316
511.373255	0.163178
511.590848	0.163484
511.808422	0.163956
512.025977	0.163156
512.243515	0.163121
512.461034	0.162658
512.678536	0.162280
512.896018	0.162541
513.113483	0.162523
513.330930	0.162837
513.548358	0.162545
513.765768	0.163053
513.983160	0.163358
514.200533	0.165102
514.417889	0.165211
514.635226	0.165590
514.852545	0.165487
515.069845	0.166422
515.287128	0.165874
515.504392	0.166404
515.721638	0.166725
515.938866	0.168441
516.156075	0.167108
516.373267	0.167601
516.590440	0.168542
516.807594	0.169145
517.024731	0.168681
517.241850	0.169772
517.458950	0.170017
517.676032	0.169912
517.893095	0.168533
518.110141	0.168924
518.327168	0.168818
518.544177	0.168888
518.761168	0.168637
518.978141	0.168191
519.195095	0.168338
519.412031	0.169029
519.628949	0.169742
519.845849	0.170666
520.062731	0.171569
520.279594	0.172362
520.496439	0.172217
520.713266	0.173167
520.930074	0.174441
521.146865	0.174107
521.363637	0.174760
521.580391	0.174230
521.797127	0.174827
522.013844	0.173911
522.230543	0.173955
522.447224	0.174061
522.663887	0.174080
522.880532	0.174348
523.097158	0.174834
523.313766	0.174032
523.530356	0.174958
523.746928	0.174973
523.963481	0.176151
524.180017	0.176518
524.396534	0.176779
524.613032	0.177429
524.829513	0.177967
525.045975	0.178936
525.262420	0.178786
525.478845	0.178716
525.695253	0.179304
525.911643	0.179009
526.128014	0.179398
526.344367	0.179806
526.560702	0.179669
526.777018	0.179485
526.993316	0.179446
527.209597	0.180782
527.425858	0.180725
527.642102	0.180532
527.858328	0.180860
528.074535	0.181124
528.290724	0.181486
528.506894	0.182363
528.723047	0.182721
528.939181	0.182891
529.155297	0.183308
529.371395	0.184273
529.587475	0.184945
529.803536	0.186086
530.019579	0.186418
530.235604	0.186323
530.451611	0.186255
530.667600	0.186686
530.883570	0.187370
531.099522	0.186762
531.315456	0.186865
531.531372	0.187185
531.747269	0.187276
531.963148	0.187877
532.179009	0.189245
532.394852	0.189807
532.610676	0.190265
532.826482	0.190112
533.042271	0.190782
533.258040	0.191232
533.473792	0.191226
533.689525	0.191160
533.905240	0.191111
534.120937	0.191188
534.336616	0.191495
534.552277	0.191324
534.767919	0.191889
534.983543	0.192136
535.199149	0.192344
535.414736	0.192853
535.630306	0.193600
535.845857	0.194028
536.061390	0.194194
536.276904	0.194495
536.492401	0.195127
536.707879	0.195030
536.923339	0.195751
537.138781	0.196634
537.354204	0.197182
537.569610	0.197353
537.784997	0.197668
538.000366	0.197445
538.215716	0.197258
538.431049	0.197257
538.646363	0.197939
538.861659	0.197523
539.076937	0.197343
539.292196	0.197139
539.507438	0.197237
539.722661	0.197402
539.937866	0.197969
540.153052	0.198022
540.368221	0.198236
540.583371	0.199256
540.798503	0.199598
541.013617	0.199760
541.228712	0.200323
541.443789	0.200948
541.658848	0.201072
541.873889	0.201492
542.088912	0.202193
542.303916	0.202770
542.518902	0.202073
542.733870	0.202716
542.948820	0.202892
543.163752	0.203567
543.378665	0.203763
543.593560	0.203821
543.808437	0.204346
544.023295	0.205208
544.238136	0.206013
544.452958	0.206477
544.667762	0.206542
544.882548	0.206783
545.097315	0.206730
545.312064	0.206824
545.526795	0.207400
545.741508	0.207640
545.956203	0.207367
546.170879	0.207165
546.385537	0.207264
546.600177	0.207413
546.814799	0.207938
547.029402	0.208005
547.243988	0.208480
547.458555	0.208501
547.673103	0.208193
547.887634	0.209021
548.102146	0.209394
548.316640	0.209492
548.531116	0.210554
548.745574	0.210619
548.960013	0.210370
549.174435	0.210308
549.388838	0.210725
549.603222	0.210974
549.817589	0.210709
550.031937	0.211042
550.246267	0.211564
550.460579	0.211018
550.674873	0.211294
550.889148	0.211928
551.103405	0.212339
551.317644	0.212459
551.531865	0.212791
551.746068	0.213211
551.960252	0.213134
552.174418	0.213794
552.388566	0.214459
552.602696	0.214636
552.816807	0.215093
553.030900	0.215655
553.244975	0.215966
553.459032	0.215951
553.673070	0.216000
553.887091	0.216192
554.101093	0.216733
554.315077	0.216717
554.529042	0.217152
554.742990	0.217480
554.956919	0.217456
555.170830	0.218070
555.384722	0.218670
555.598597	0.218810
555.812453	0.219056
556.026291	0.218868
556.240111	0.218982
556.453913	0.218819
556.667696	0.218745
556.881461	0.218592
557.095208	0.218562
557.308937	0.219152
557.522647	0.219393
557.736339	0.219669
557.950013	0.219235
558.163669	0.219781
558.377307	0.220004
558.590926	0.220380
558.804527	0.220862
559.018110	0.220747
559.231675	0.220395
559.445221	0.220497
559.658749	0.220659
559.872259	0.221234
560.085751	0.221491
560.299225	0.221798
560.512680	0.222485
560.726117	0.222673
560.939536	0.223319
561.152937	0.223847
561.366319	0.224292
561.579683	0.224642
561.793029	0.225110
562.006357	0.225214
562.219667	0.225541
562.432958	0.225375
562.646231	0.225326
562.859486	0.225476
563.072723	0.225406
563.285941	0.225823
563.499141	0.226012
563.712323	0.225765
563.925487	0.226010
564.138632	0.226170
564.351760	0.226228
564.564869	0.226527
564.777960	0.226507
564.991032	0.226839
565.204087	0.226480
565.417123	0.226283
565.630141	0.226807
565.843140	0.226786
566.056122	0.226593
566.269085	0.226674
566.482030	0.226906
566.694957	0.227352
566.907866	0.227346
567.120756	0.227817
567.333628	0.228444
567.546482	0.228566
567.759318	0.228730
567.972135	0.229377
568.184935	0.229363
568.397716	0.229565
568.610478	0.229340
568.823223	0.229123
569.035949	0.229261
569.248657	0.229333
569.461347	0.229422
569.674019	0.229300
569.886672	0.229551
570.099308	0.229992
570.311925	0.230400
570.524523	0.230558
570.737104	0.230971
570.949666	0.231188
571.162210	0.231191
571.374736	0.231386
571.587244	0.231515
571.799733	0.231546
572.012205	0.231694
572.224658	0.231718
572.437092	0.232009
572.649509	0.232375
572.861907	0.232588
573.074287	0.232598
573.286649	0.232737
573.498993	0.232847
573.711318	0.233013
573.923625	0.233143
574.135914	0.233098
574.348185	0.233201
574.560438	0.233583
574.772672	0.233982
574.984888	0.234577
575.197086	0.234408
575.409266	0.235191
575.621427	0.235363
575.833570	0.235805
576.045695	0.236036
576.257802	0.236747
576.469890	0.236971
576.681961	0.237037
576.894013	0.236979
577.106046	0.237108
577.318062	0.236948
577.530059	0.236941
577.742039	0.236816
577.954000	0.237026
578.165942	0.236545
578.377867	0.236613
578.589773	0.236524
578.801661	0.237056
579.013531	0.237459
579.225382	0.237764
579.437216	0.237989
579.649031	0.238446
579.860828	0.238621
580.072606	0.238950
580.284367	0.238961
580.496109	0.239429
580.707833	0.239257
580.919539	0.239597
581.131227	0.239680
581.342896	0.240092
581.554547	0.240105
581.766180	0.240159
581.977795	0.240609
582.189391	0.240578
582.400969	0.240917
582.612529	0.241177
582.824071	0.241151
583.035595	0.241340
583.247100	0.241327
583.458587	0.241470
583.670056	0.242148
583.881506	0.242480
584.092939	0.242945
584.304353	0.242879
584.515749	0.243375
584.727127	0.243951
584.938486	0.244075
585.149828	0.244142
585.361151	0.244432
585.572456	0.244485
585.783742	0.244407
585.995011	0.244485
586.206261	0.244490
586.417493	0.244281
586.628706	0.244267
586.839902	0.244601
587.051079	0.245076
587.262238	0.245545
587.473379	0.245253
587.684502	0.245682
587.895606	0.246139
588.106692	0.246422
588.317760	0.246658
588.528810	0.246801
588.739841	0.247257
588.950855	0.247444
589.161850	0.247484
589.372827	0.248191
589.583785	0.248496
589.794726	0.248468
590.005648	0.248896
590.216552	0.249256
590.427437	0.249253
590.638305	0.249309
590.849154	0.249713
591.059985	0.249609
591.270798	0.249688
591.481592	0.249368
591.692369	0.249590
591.903127	0.249021
592.113867	0.249481
592.324588	0.250238
592.535292	0.250354
592.745977	0.250004
592.956644	0.250369
593.167293	0.250394
593.377923	0.250650
593.588536	0.250967
593.799130	0.251694
594.009706	0.251288
594.220263	0.251228
594.430803	0.251793
594.641324	0.252387
594.851827	0.252376
595.062312	0.252557
595.272778	0.253064
595.483227	0.253131
595.693657	0.253329
595.904069	0.253822
596.114462	0.254008
596.324838	0.253979
596.535195	0.253986
596.745534	0.254433
596.955855	0.254549
597.166157	0.255001
597.376441	0.255188
597.586707	0.255148
597.796955	0.255068
598.007185	0.254987
598.217396	0.255241
598.427589	0.255448
598.637764	0.255471
598.847921	0.256073
599.058060	0.255914
599.268180	0.256305
599.478282	0.256715
599.688366	0.257045
599.898431	0.257800
600.108479	0.257696
600.318508	0.257661
600.528519	0.257873
600.738511	0.257948
600.948486	0.258255
601.158442	0.258601
601.368380	0.258896
601.578300	0.259304
601.788202	0.258999
601.998085	0.259359
602.207950	0.259390
602.417797	0.259577
602.627626	0.259707
602.837436	0.259803
603.047228	0.259385
603.257002	0.259496
603.466758	0.259510
603.676496	0.259469
603.886215	0.259326
604.095916	0.259695
604.305599	0.259707
604.515264	0.259855
604.724910	0.259944
604.934538	0.260435
605.144148	0.260587
605.353740	0.260865
605.563314	0.261383
605.772869	0.261763
605.982406	0.262218
606.191925	0.262549
606.401425	0.262384
606.610908	0.262196
606.820372	0.262362
607.029818	0.262391
607.239246	0.262049
607.448655	0.262029
607.658047	0.262145
607.867420	0.262057
608.076775	0.262209
608.286111	0.262513
608.495430	0.262915
608.704730	0.262665
608.914012	0.262561
609.123275	0.263143
609.332521	0.263255
609.541748	0.263428
609.750957	0.263534
609.960148	0.263690
610.169321	0.263824
610.378475	0.263889
610.587611	0.264229
610.796729	0.264582
611.005829	0.264647
611.214910	0.264971
611.423974	0.264928
611.633019	0.265068
611.842045	0.265196
612.051054	0.265346
612.260044	0.265643
612.469017	0.265830
612.677970	0.265863
612.886906	0.265950
613.095824	0.265912
613.304723	0.265984
613.513604	0.266132
613.722467	0.266372
613.931311	0.266621
614.140138	0.267011
614.348946	0.267507
614.557736	0.267629
614.766507	0.267711
614.975261	0.267927
615.183996	0.268168
615.392713	0.268391
615.601412	0.268570
615.810092	0.268749
616.018754	0.268651
616.227399	0.268570
616.436024	0.268964
616.644632	0.269064
616.853222	0.269349
617.061793	0.269685
617.270346	0.269680
617.478880	0.269991
617.687397	0.269994
617.895895	0.269880
618.104375	0.269900
618.312837	0.270007
618.521281	0.270122
618.729706	0.270122
618.938113	0.270114
619.146502	0.270539
619.354873	0.270207
619.563226	0.270487
619.771560	0.270837
619.979876	0.270766
620.188174	0.271026
620.396453	0.271264
620.604715	0.271323
620.812958	0.271534
621.021183	0.271679
621.229390	0.272114
621.437578	0.272186
621.645748	0.272407
621.853900	0.272820
622.062034	0.272663
622.270150	0.272600
622.478247	0.272725
622.686326	0.272962
622.894387	0.272972
623.102430	0.272942
623.310454	0.273111
623.518461	0.273139
623.726449	0.273412
623.934418	0.273698
624.142370	0.274136
624.350303	0.274642
624.558218	0.274799
624.766115	0.274964
624.973994	0.275141
625.181855	0.275215
625.389697	0.275371
625.597521	0.275400
625.805327	0.275629
626.013114	0.275859
626.220883	0.276007
626.428634	0.276028
626.636367	0.276196
626.844082	0.276510
627.051778	0.276541
627.259457	0.276604
627.467117	0.276655
627.674758	0.276707
627.882382	0.276678
628.089987	0.276456
628.297574	0.276795
628.505143	0.276729
628.712694	0.276873
628.920226	0.277320
629.127740	0.277691
629.335236	0.277947
629.542714	0.278269
629.750174	0.278441
629.957615	0.278678
630.165038	0.278491
630.372443	0.278949
630.579829	0.278822
630.787198	0.279026
630.994548	0.279104
631.201880	0.279509
631.409194	0.279330
631.616489	0.279497
631.823766	0.279629
632.031025	0.279968
632.238266	0.279974
632.445489	0.280281
632.652693	0.280515
632.859879	0.280486
633.067047	0.280471
633.274197	0.280821
633.481329	0.280969
633.688442	0.281180
633.895537	0.281177
634.102614	0.281521
634.309672	0.281755
634.516713	0.281591
634.723735	0.281821
634.930739	0.282082
635.137724	0.282338
635.344692	0.282508
635.551641	0.283024
635.758572	0.283299
635.965485	0.283322
636.172379	0.283458
636.379256	0.283633
636.586114	0.283710
636.792954	0.283911
636.999775	0.283901
637.206579	0.284197
637.413364	0.284083
637.620131	0.284190
637.826880	0.284542
638.033610	0.284624
638.240323	0.284848
638.447017	0.285248
638.653692	0.285065
638.860350	0.285271
639.066990	0.285334
639.273611	0.285598
639.480214	0.285923
639.686798	0.285979
639.893365	0.286186
640.099913	0.286517
640.306443	0.286704
640.512955	0.287125
640.719449	0.287096
640.925924	0.287217
641.132381	0.287297
641.338820	0.287547
641.545241	0.287665
641.751644	0.287822
641.958028	0.287878
642.164394	0.288028
642.370742	0.288223
642.577071	0.288306
642.783383	0.288460
642.989676	0.288628
643.195951	0.288651
643.402207	0.288955
643.608446	0.289290
643.814666	0.289318
644.020868	0.289581
644.227052	0.289447
644.433218	0.289997
644.639365	0.290151
644.845494	0.290489
645.051605	0.290752
645.257698	0.290899
645.463772	0.290953
645.669828	0.291060
645.875866	0.291072
646.081886	0.291304
646.287888	0.291627
646.493871	0.292134
646.699836	0.292347
646.905783	0.292433
647.111712	0.292545
647.317622	0.292624
647.523514	0.292744
647.729388	0.293093
647.935244	0.293109
648.141082	0.293176
648.346901	0.293110
648.552702	0.292915
648.758485	0.293169
648.964250	0.293189
649.169996	0.293514
649.375724	0.294123
649.581434	0.294086
649.787126	0.294770
649.992800	0.294885
650.198455	0.295173
650.404092	0.295571
650.609711	0.295799
650.815311	0.296181
651.020894	0.296369
651.226458	0.296259
651.432004	0.296681
651.637532	0.296547
651.843041	0.296837
652.048532	0.297138
652.254006	0.297301
652.459460	0.297491
652.664897	0.297559
652.870315	0.297478
653.075716	0.297742
653.281097	0.297898
653.486461	0.298183
653.691807	0.298418
653.897134	0.298419
654.102443	0.298598
654.307734	0.298985
654.513006	0.299207
654.718261	0.299727
654.923497	0.300062
655.128715	0.300392
655.333915	0.300628
655.539096	0.300887
655.744259	0.301196
655.949404	0.301177
656.154531	0.301251
656.359640	0.301336
656.564730	0.301661
656.769802	0.301657
656.974856	0.301568
657.179892	0.301650
657.384909	0.301721
657.589908	0.301985
657.794889	0.302621
657.999852	0.302959
658.204797	0.303467
658.409723	0.303696
658.614631	0.304029
658.819521	0.304419
659.024393	0.304809
659.229246	0.304791
659.434081	0.305123
659.638898	0.305214
659.843697	0.305192
660.048478	0.305253
660.253240	0.305556
660.457984	0.305981
660.662710	0.306140
660.867417	0.306296
661.072107	0.306530
661.276778	0.306298
661.481431	0.306652
661.686066	0.306918
661.890682	0.307335
662.095281	0.307321
662.299861	0.307438
662.504422	0.307638
662.708966	0.308017
662.913491	0.308177
663.117999	0.308661
663.322488	0.308534
663.526958	0.308720
663.731411	0.308798
663.935845	0.308889
664.140261	0.308996
664.344659	0.309331
664.549038	0.309255
664.753400	0.309860
664.957743	0.309747
665.162068	0.310179
665.366375	0.310167
665.570663	0.310105
665.774933	0.310416
665.979185	0.310726
666.183419	0.310839
666.387635	0.311204
666.591832	0.311062
666.796011	0.311839
667.000172	0.312086
667.204315	0.312455
667.408439	0.312817
667.612545	0.312921
667.816634	0.313028
668.020703	0.313172
668.224755	0.313230
668.428788	0.313664
668.632803	0.313545
668.836800	0.313292
669.040779	0.313441
669.244739	0.313597
669.448681	0.313911
669.652605	0.314209
669.856511	0.314301
670.060399	0.314694
670.264268	0.314735
670.468119	0.314852
670.671952	0.315494
670.875767	0.315637
671.079563	0.315950
671.283341	0.316156
671.487101	0.316325
671.690843	0.316498
671.894567	0.316691
672.098272	0.317174
672.301959	0.317533
672.505628	0.317550
672.709278	0.317729
672.912911	0.318008
673.116525	0.318099
673.320121	0.318375
673.523699	0.318604
673.727258	0.318662
673.930799	0.318589
674.134322	0.318706
674.337827	0.319140
674.541314	0.319320
674.744782	0.319537
674.948232	0.319697
675.151664	0.319880
675.355078	0.320398
675.558474	0.320850
675.761851	0.321203
675.965210	0.321454
676.168551	0.321749
676.371873	0.322091
676.575178	0.322448
676.778464	0.322957
676.981732	0.323203
677.184981	0.323344
677.388213	0.323513
677.591426	0.323585
677.794621	0.323833
677.997798	0.323821
678.200956	0.324223
678.404097	0.324274
678.607219	0.324372
678.810323	0.324304
679.013408	0.324428
679.216476	0.324629
679.419525	0.325086
679.622556	0.325149
679.825569	0.325394
680.028563	0.325662
680.231540	0.326004
680.434498	0.326103
680.637438	0.326604
680.840359	0.326890
681.043263	0.327104
681.246148	0.327144
681.449015	0.327667
681.651864	0.327867
681.854694	0.327940
682.057506	0.328213
682.260301	0.328288
682.463076	0.328508
682.665834	0.328479
682.868573	0.328882
683.071295	0.329091
683.273998	0.329345
683.476682	0.329753
683.679349	0.329876
683.881997	0.329897
684.084627	0.330340
684.287239	0.330467
684.489833	0.330936
684.692408	0.331060
684.894965	0.331316
685.097504	0.331633
685.300025	0.331740
685.502527	0.332067
685.705012	0.332267
685.907478	0.332620
686.109925	0.332596
686.312355	0.332410
686.514766	0.332435
686.717159	0.332544
686.919534	0.332436
687.121891	0.332507
687.324230	0.332789
687.526550	0.332950
687.728852	0.332875
687.931136	0.333327
688.133401	0.333787
688.335649	0.333698
688.537878	0.333857
688.740089	0.333853
688.942281	0.333959
689.144456	0.334072
689.346612	0.334276
689.548750	0.334591
689.750870	0.334940
689.952971	0.335223
690.155055	0.335738
690.357120	0.336095
690.559167	0.336657
690.761195	0.336824
690.963206	0.336994
691.165198	0.337203
691.367172	0.337410
691.569128	0.337344
691.771065	0.337457
691.972984	0.337455
692.174885	0.337667
692.376768	0.337730
692.578633	0.338295
692.780479	0.338376
692.982308	0.338565
693.184118	0.339025
693.385909	0.339674
693.587683	0.339750
693.789438	0.340178
693.991175	0.340269
694.192894	0.340448
694.394595	0.340501
694.596277	0.340672
694.797941	0.340821
694.999587	0.340741
695.201215	0.340532
695.402824	0.340950
695.604416	0.341100
695.805989	0.341215
696.007543	0.341115
696.209080	0.341175
696.410598	0.341384
696.612099	0.341581
696.813580	0.341470
697.015044	0.341456
697.216490	0.341216
697.417917	0.341170
697.619326	0.341353
697.820717	0.341510
698.022089	0.341423
698.223444	0.341808
698.424780	0.341840
698.626098	0.342137
698.827397	0.342284
699.028679	0.342511
699.229942	0.342611
699.431187	0.342410
699.632414	0.342624
699.833622	0.343007
700.034813	0.342950
700.235985	0.342865
700.437139	0.342811
700.638274	0.342937
700.839392	0.343267
701.040491	0.343458
701.241572	0.344180
701.442635	0.344449
701.643679	0.344357
701.844706	0.344269
702.045714	0.344345
702.246704	0.344475
702.447675	0.344788
702.648629	0.344676
702.849564	0.344763
703.050481	0.344548
703.251380	0.344400
703.452260	0.344642
703.653122	0.344952
703.853966	0.345151
704.054792	0.345212
704.255600	0.345164
704.456389	0.345288
704.657160	0.345325
704.857913	0.345512
705.058648	0.345636
705.259365	0.345615
705.460063	0.345577
705.660743	0.345774
705.861405	0.345857
706.062048	0.345758
706.262674	0.346002
706.463281	0.346072
706.663870	0.346256
706.864441	0.346408
707.064993	0.346487
707.265527	0.346235
707.466043	0.346102
707.666541	0.346480
707.867021	0.346624
708.067482	0.346494
708.267925	0.346657
708.468350	0.346457
708.668757	0.346563
708.869145	0.346805
709.069516	0.347097
709.269868	0.347249
709.470201	0.347091
709.670517	0.347144
709.870814	0.347506
710.071093	0.347374
710.271354	0.347503
710.471597	0.347137
710.671821	0.346966
710.872028	0.346714
711.072216	0.346878
711.272385	0.346675
711.472537	0.346876
711.672670	0.346621
711.872785	0.346862
712.072882	0.346704
712.272961	0.346969
712.473021	0.346923
712.673063	0.347038
712.873087	0.346934
713.073093	0.347284
713.273081	0.347010
713.473050	0.346918
713.673001	0.346646
713.872934	0.346766
714.072849	0.347057
714.272745	0.347130
714.472623	0.347544
714.672483	0.347458
714.872325	0.347339
715.072148	0.347323
715.271954	0.347379
715.471741	0.347546
715.671509	0.347613
715.871260	0.347224
716.070992	0.347479
716.270707	0.347346
716.470403	0.347539
716.670080	0.347561
716.869740	0.347603
717.069381	0.347713
717.269004	0.347702
717.468609	0.347572
717.668195	0.347536
717.867764	0.347342
718.067314	0.347114
718.266846	0.347081
718.466360	0.346789
718.665855	0.346653
718.865332	0.346333
719.064791	0.346225
719.264232	0.346141
719.463655	0.346427
719.663059	0.346356
719.862445	0.346497
720.061813	0.346357
720.261163	0.346566
720.460494	0.346697
720.659807	0.346901
720.859102	0.347041
721.058379	0.347069
721.257638	0.346692
721.456878	0.346669
721.656100	0.346646
721.855304	0.346624
722.054490	0.346320
722.253657	0.346163
722.452806	0.346075
722.651937	0.345863
722.851050	0.345490
723.050145	0.345641
723.249221	0.345626
723.448279	0.345317
723.647319	0.345080
723.846340	0.345072
724.045344	0.345042
724.244329	0.344895
724.443296	0.344816
724.642245	0.345156
724.841175	0.345142
725.040088	0.344966
725.238982	0.344992
725.437857	0.344902
725.636715	0.344865
725.835554	0.344575
726.034376	0.344409
726.233179	0.344196
726.431963	0.343791
726.630730	0.343405
726.829478	0.343236
727.028208	0.343100
727.226920	0.342992
727.425614	0.342840
727.624289	0.342680
727.822946	0.342806
728.021585	0.342698
728.220206	0.342569
728.418808	0.342545
728.617392	0.342511
728.815958	0.342481
729.014506	0.342317
729.213036	0.342183
729.411547	0.342026
729.610040	0.341779
729.808515	0.341982
730.006972	0.341794
730.205410	0.341575
730.403831	0.341153
730.602233	0.340762
730.800616	0.340857
730.998982	0.340881
731.197329	0.340796
731.395658	0.340774
731.593969	0.340485
731.792262	0.340583
731.990536	0.340687
732.188793	0.340802
732.387031	0.340753
732.585250	0.340456
732.783452	0.340254
732.981635	0.340205
733.179800	0.339756
733.377947	0.339359
733.576076	0.339115
733.774186	0.338793
733.972278	0.338554
734.170352	0.338651
734.368408	0.338556
734.566446	0.338240
734.764465	0.338072
734.962466	0.337743
735.160449	0.337454
735.358413	0.337239
735.556360	0.336914
735.754288	0.336808
735.952198	0.336525
736.150090	0.336200
736.347963	0.336257
736.545818	0.336115
736.743655	0.335946
736.941474	0.335985
737.139275	0.335775
737.337057	0.335636
737.534821	0.335262
737.732567	0.334777
737.930295	0.334933
738.128005	0.334666
738.325696	0.334669
738.523369	0.334582
738.721024	0.334298
738.918660	0.334341
739.116279	0.334206
739.313879	0.334148
739.511461	0.334441
739.709024	0.333908
739.906570	0.333581
740.104097	0.333523
740.301606	0.333387
740.499097	0.333226
740.696569	0.332703
740.894024	0.332853
741.091460	0.332559
741.288878	0.332107
741.486277	0.332079
741.683659	0.332103
741.881022	0.331682
742.078367	0.331763
742.275694	0.331725
742.473002	0.331862
742.670293	0.331238
742.867565	0.331239
743.064819	0.331178
743.262054	0.331013
743.459272	0.330673
743.656471	0.330505
743.853652	0.330069
744.050815	0.329802
744.247959	0.329561
744.445085	0.329615
744.642194	0.329410
744.839283	0.329166
745.036355	0.328958
745.233408	0.328718
745.430444	0.328430
745.627461	0.328418
745.824459	0.328287
746.021440	0.327970
746.218402	0.327856
746.415346	0.327702
746.612272	0.327421
746.809180	0.327201
747.006069	0.327305
747.202940	0.327147
747.399793	0.326773
747.596628	0.326240
747.793444	0.326144
747.990243	0.325674
748.187023	0.325263
748.383784	0.324928
748.580528	0.324854
748.777253	0.324539
748.973960	0.324283
749.170649	0.324113
749.367320	0.324325
749.563973	0.324076
749.760607	0.323861
749.957223	0.323717
750.153821	0.323800
750.350400	0.323300
750.546962	0.323026
750.743505	0.322873
750.940030	0.322860
751.136536	0.322465
751.333025	0.322337
751.529495	0.322001
751.725947	0.321855
751.922381	0.321416
752.118796	0.321420
752.315194	0.321289
752.511573	0.320957
752.707934	0.320652
752.904276	0.320259
753.100601	0.320001
753.296907	0.320115
753.493195	0.320044
753.689465	0.320056
753.885716	0.319744
754.081949	0.319598
754.278164	0.319560
754.474361	0.319394
754.670540	0.319491
754.866700	0.319412
755.062843	0.319252
755.258967	0.319022
755.455072	0.318700
755.651160	0.318771
755.847229	0.318407
756.043280	0.318169
756.239313	0.318040
756.435328	0.317939
756.631324	0.317695
756.827302	0.317490
757.023262	0.317349
757.219204	0.317358
757.415127	0.317359
757.611033	0.317250
757.806920	0.317022
758.002788	0.316810
758.198639	0.316600
758.394471	0.316359
758.590286	0.315960
758.786081	0.315526
758.981859	0.315187
759.177619	0.314821
759.373360	0.314909
759.569083	0.315036
759.764788	0.314970
759.960474	0.314748
760.156143	0.314546
760.351793	0.314721
760.547425	0.314608
760.743038	0.314516
760.938634	0.314239
761.134211	0.313830
761.329770	0.313327
761.525311	0.313072
761.720833	0.312892
761.916338	0.312715
762.111824	0.312341
762.307292	0.312379
762.502741	0.312015
762.698173	0.311810
762.893586	0.311807
763.088981	0.311731
763.284358	0.311445
763.479716	0.311327
763.675057	0.311341
763.870379	0.311325
764.065683	0.310783
764.260968	0.310925
764.456236	0.310792
764.651485	0.310484
764.846716	0.310762
765.041929	0.310796
765.237123	0.310807
765.432299	0.310668
765.627457	0.310436
765.822597	0.310693
766.017719	0.310657
766.212822	0.310669
766.407907	0.310771
766.602974	0.310575
766.798023	0.310381
766.993054	0.310091
767.188066	0.310129
767.383060	0.310287
767.578036	0.310102
767.772993	0.310016
767.967933	0.309777
768.162854	0.309459
768.357757	0.309060
768.552642	0.309094
768.747508	0.309181
768.942356	0.309222
769.137186	0.309126
769.331998	0.309202
769.526792	0.309058
769.721567	0.309083
769.916324	0.308990
770.111063	0.309167
770.305784	0.309223
770.500486	0.308914
770.695171	0.308661
770.889837	0.308552
771.084484	0.308474
771.279114	0.308289
771.473725	0.308437
771.668318	0.308531
771.862893	0.308429
772.057450	0.308302
772.251988	0.308655
772.446509	0.308487
772.641011	0.308217
772.835494	0.308213
773.029960	0.308326
773.224407	0.308168
773.418836	0.307962
773.613247	0.307917
773.807640	0.307537
774.002014	0.307241
774.196370	0.307064
774.390708	0.306874
774.585028	0.306831
774.779330	0.306643
774.973613	0.306316
775.167878	0.306250
775.362125	0.306203
775.556354	0.306292
775.750564	0.306469
775.944756	0.306798
776.138930	0.306829
776.333086	0.306703
776.527223	0.306874
776.721343	0.307133
776.915444	0.307197
777.109526	0.307142
777.303591	0.307176
777.497637	0.306923
777.691666	0.306551
777.885676	0.306754
778.079667	0.306537
778.273641	0.306239
778.467596	0.306012
778.661533	0.305806
778.855452	0.305827
779.049352	0.305756
779.243235	0.305725
779.437099	0.305843
779.630945	0.305616
779.824773	0.305871
780.018582	0.305787
780.212373	0.305740
780.406146	0.305629
780.599901	0.305234
780.793638	0.305427
780.987356	0.305451
781.181056	0.305353
781.374738	0.305394
781.568402	0.305109
781.762047	0.305039
781.955674	0.305130
782.149283	0.305263
782.342874	0.305515
782.536447	0.305385
782.730001	0.305411
782.923537	0.305671
783.117055	0.305779
783.310555	0.305969
783.504036	0.306089
783.697499	0.305887
783.890944	0.305975
784.084371	0.305923
784.277780	0.305853
784.471170	0.305969
784.664542	0.305750
784.857896	0.305566
785.051231	0.305377
785.244549	0.305557
785.437848	0.305530
785.631129	0.305526
785.824392	0.305644
786.017636	0.305533
786.210863	0.305482
786.404071	0.305669
786.597260	0.305923
786.790432	0.306081
786.983585	0.305826
787.176721	0.305904
787.369838	0.305945
787.562936	0.306272
787.756017	0.306412
787.949079	0.306394
788.142123	0.306222
788.335149	0.306270
788.528156	0.306211
788.721146	0.306347
788.914117	0.306540
789.107070	0.306714
789.300005	0.306175
789.492921	0.306444
789.685819	0.306482
789.878699	0.306668
790.071561	0.306951
790.264405	0.307130
790.457230	0.307343
790.650037	0.307669
790.842826	0.307974
791.035597	0.308541
791.228349	0.308552
791.421084	0.308738
791.613800	0.308820
791.806497	0.308821
791.999177	0.308977
792.191838	0.309055
792.384481	0.308775
792.577106	0.308829
792.769713	0.308941
792.962301	0.308922
793.154871	0.308951
793.347423	0.308787
793.539957	0.308808
793.732473	0.308768
793.924970	0.308993
794.117449	0.309521
794.309910	0.309390
794.502353	0.309189
794.694777	0.309506
794.887183	0.309647
795.079571	0.310160
795.271941	0.310280
795.464293	0.310620
795.656626	0.310506
795.848941	0.310431
796.041238	0.310518
796.233516	0.310813
796.425777	0.310718
796.618019	0.310903
796.810243	0.310762
797.002449	0.311045
797.194636	0.311155
797.386805	0.311518
797.578956	0.311387
797.771089	0.311433
797.963204	0.311435
798.155300	0.311633
798.347378	0.311525
798.539438	0.311793
798.731480	0.311486
798.923503	0.311342
799.115509	0.311343
799.307496	0.311766
799.499465	0.312154
799.691415	0.312462
799.883348	0.312568
800.075262	0.313048
800.267158	0.313185
800.459035	0.313472
800.650895	0.313469
800.842736	0.313437
801.034559	0.313439
801.226364	0.313292
801.418150	0.313281
801.609919	0.313789
801.801669	0.313751
801.993401	0.313878
802.185114	0.314236
802.376810	0.314948
802.568487	0.315423
802.760146	0.315753
802.951787	0.316040
803.143409	0.316430
803.335014	0.316605
803.526600	0.316752
803.718168	0.317140
803.909717	0.317434
804.101249	0.317492
804.292762	0.317754
804.484257	0.318023
804.675734	0.318488
804.867192	0.318672
805.058632	0.318919
805.250054	0.319366
805.441458	0.319524
805.632844	0.319457
805.824211	0.320013
806.015561	0.320030
806.206891	0.320462
806.398204	0.320569
806.589499	0.320683
806.780775	0.320549
806.972033	0.320506
807.163273	0.320604
807.354495	0.321203
807.545698	0.320993
807.736883	0.321584
807.928050	0.321798
808.119199	0.322240
808.310329	0.322358
808.501441	0.322657
808.692535	0.323190
808.883611	0.323617
809.074669	0.323537
809.265708	0.324002
809.456729	0.324121
809.647732	0.324255
809.838717	0.324355
810.029683	0.324836
810.220632	0.325437
810.411562	0.325549
810.602474	0.325741
810.793367	0.326186
810.984242	0.326449
811.175100	0.326413
811.365938	0.326668
811.556759	0.327054
811.747562	0.327408
811.938346	0.327495
812.129112	0.327902
812.319860	0.328325
812.510589	0.328570
812.701300	0.329114
812.891994	0.329900
813.082668	0.330110
813.273325	0.330154
813.463964	0.330214
813.654584	0.330419
813.845186	0.330608
814.035769	0.330689
814.226335	0.331133
814.416882	0.331030
814.607411	0.331176
814.797922	0.331570
814.988415	0.332056
815.178889	0.332600
815.369345	0.332846
815.559783	0.333267
815.750203	0.333373
815.940605	0.333738
816.130988	0.334699
816.321353	0.334798
816.511700	0.335161
816.702028	0.335358
816.892339	0.335648
817.082631	0.335921
817.272905	0.335927
817.463161	0.336382
817.653398	0.336587
817.843617	0.336382
818.033819	0.336897
818.224001	0.336941
818.414166	0.337402
818.604312	0.337673
818.794440	0.338214
818.984550	0.338998
819.174642	0.339321
819.364716	0.339527
819.554771	0.340084
819.744808	0.340267
819.934827	0.341027
820.124827	0.341294
820.314810	0.341442
820.504774	0.341852
820.694720	0.342010
820.884647	0.343069
821.074557	0.343753
821.264448	0.343830
821.454321	0.344368
821.644176	0.344544
821.834012	0.344937
822.023831	0.345456
822.213631	0.345706
822.403413	0.346047
822.593176	0.345843
822.782922	0.345779
822.972649	0.346154
823.162358	0.346473
823.352049	0.347035
823.541721	0.347660
823.731376	0.348259
823.921012	0.348929
824.110629	0.349305
824.300229	0.349808
824.489811	0.350237
824.679374	0.350610
824.868919	0.350875
825.058445	0.351001
825.247954	0.351211
825.437444	0.351458
825.626916	0.351532
825.816370	0.351657
826.005806	0.352089
826.195223	0.352677
826.384622	0.352792
826.574003	0.353230
826.763366	0.353900
826.952711	0.354133
827.142037	0.354282
827.331345	0.354396
827.520635	0.355266
827.709906	0.355451
827.899160	0.355765
828.088395	0.356538
828.277612	0.356829
828.466810	0.356629
828.655991	0.356973
828.845153	0.357543
829.034297	0.358463
829.223423	0.358685
829.412531	0.359304
829.601620	0.359465
829.790691	0.359829
829.979744	0.360241
830.168779	0.361014
830.357795	0.361469
830.546793	0.361814
830.735773	0.361602
830.924735	0.361993
831.113679	0.362242
831.302604	0.362764
831.491511	0.363098
831.680400	0.363454
831.869271	0.363470
832.058123	0.363835
832.246957	0.364159
832.435773	0.365027
832.624571	0.365318
832.813351	0.365805
833.002112	0.365975
833.190855	0.366272
833.379580	0.366752
833.568287	0.367577
833.756975	0.368236
833.945645	0.368930
834.134297	0.369436
834.322931	0.369887
834.511547	0.370377
834.700144	0.371049
834.888723	0.371803
835.077284	0.372303
835.265826	0.372680
835.454351	0.372830
835.642857	0.373134
835.831345	0.373413
836.019815	0.374163
836.208266	0.374658
836.396699	0.375319
836.585114	0.375601
836.773511	0.376102
836.961890	0.376600
837.150250	0.377205
837.338592	0.377712
837.526916	0.378222
837.715222	0.378297
837.903510	0.378465
838.091779	0.378723
838.280030	0.379139
838.468263	0.379790
838.656477	0.380270
838.844674	0.380743
839.032852	0.381287
839.221012	0.381526
839.409153	0.382105
839.597277	0.382568
839.785382	0.382880
839.973469	0.383395
840.161538	0.383640
840.349589	0.383832
840.537621	0.384051
840.725635	0.384359
840.913631	0.384868
841.101609	0.385218
841.289568	0.385798
841.477509	0.386444
841.665432	0.386677
841.853337	0.387117
842.041224	0.387697
842.229092	0.388434
842.416942	0.388642
842.604774	0.389398
842.792588	0.390207
842.980383	0.390837
843.168160	0.390977
843.355919	0.391570
843.543660	0.392031
843.731382	0.392667
843.919087	0.393043
844.106773	0.393975
844.294441	0.394023
844.482090	0.394026
844.669722	0.394200
844.857335	0.394930
845.044930	0.395297
845.232507	0.395578
845.420065	0.395812
845.607605	0.396016
845.795127	0.396335
845.982631	0.397015
846.170117	0.397617
846.357584	0.397605
846.545033	0.398256
846.732464	0.398929
846.919877	0.399405
847.107272	0.399990
847.294648	0.400785
847.482006	0.400892
847.669346	0.400985
847.856667	0.401343
848.043971	0.402382
848.231256	0.402638
848.418523	0.403329
848.605771	0.403958
848.793002	0.404168
848.980214	0.404527
849.167408	0.405370
849.354584	0.406219
849.541742	0.406710
849.728881	0.407327
849.916002	0.408064
850.103105	0.408235
850.290190	0.408643
850.477256	0.409398
850.664304	0.409840
850.851334	0.410140
851.038346	0.410575
851.225340	0.411428
851.412315	0.412124
851.599272	0.412570
851.786211	0.413253
851.973132	0.413976
852.160034	0.414426
852.346918	0.415098
852.533784	0.415297
852.720632	0.416030
852.907462	0.416291
853.094273	0.416448
853.281066	0.416684
853.467841	0.416616
853.654598	0.416558
853.841336	0.416966
854.028056	0.417234
854.214758	0.417869
854.401442	0.417752
854.588107	0.418011
854.774755	0.418055
854.961384	0.418764
855.147995	0.419394
855.334587	0.420244
855.521162	0.420669
855.707718	0.421040
855.894256	0.421529
856.080775	0.422081
856.267277	0.422483
856.453760	0.422735
856.640225	0.422900
856.826672	0.423390
857.013101	0.423326
857.199511	0.423631
857.385903	0.423725
857.572277	0.424368
857.758633	0.424767
857.944970	0.425229
858.131290	0.426204
858.317591	0.426355
858.503873	0.426570
858.690138	0.427426
858.876384	0.427795
859.062612	0.428453
859.248822	0.428737
859.435014	0.429285
859.621188	0.429812
859.807343	0.430169
859.993480	0.430747
860.179599	0.431300
860.365699	0.431906
860.551781	0.432397
860.737846	0.432461
860.923891	0.432902
861.109919	0.433509
861.295929	0.433426
861.481920	0.433771
861.667893	0.433936
861.853848	0.434374
862.039784	0.434384
862.225702	0.434828
862.411603	0.435775
862.597484	0.436011
862.783348	0.436112
862.969193	0.436734
863.155021	0.437000
863.340830	0.437572
863.526620	0.438332
863.712393	0.439019
863.898147	0.439491
864.083883	0.439553
864.269601	0.440286
864.455301	0.440796
864.640982	0.441653
864.826645	0.441917
865.012290	0.442417
865.197917	0.442583
865.383526	0.442452
865.569116	0.442884
865.754688	0.443623
865.940242	0.443524
866.125777	0.443824
866.311295	0.444229
866.496794	0.444736
866.682275	0.445059
866.867737	0.445434
867.053182	0.446351
867.238608	0.446569
867.424016	0.446629
867.609406	0.447240
867.794778	0.447574
867.980131	0.447720
868.165466	0.447611
868.350783	0.447748
868.536082	0.447503
868.721362	0.447150
868.906625	0.447477
869.091869	0.447839
869.277094	0.447943
869.462302	0.448218
869.647491	0.448441
869.832662	0.449625
870.017815	0.449799
870.202950	0.450663
870.388066	0.451332
870.573165	0.451686
870.758245	0.451978
870.943306	0.452115
871.128350	0.452315
871.313375	0.453018
871.498382	0.452549
871.683371	0.453060
871.868342	0.453486
872.053294	0.453980
872.238229	0.454035
872.423144	0.454847
872.608042	0.455653
872.792922	0.456031
872.977783	0.455513
873.162626	0.456014
873.347451	0.456555
873.532258	0.456589
873.717046	0.457059
873.901816	0.457602
874.086568	0.457495
874.271302	0.457649
874.456017	0.457967
874.640715	0.458909
874.825394	0.459599
875.010055	0.459833
875.194697	0.460098
875.379322	0.459666
875.563928	0.459803
875.748516	0.460152
875.933085	0.460010
876.117637	0.460081
876.302170	0.459864
876.486685	0.459869
876.671182	0.459981
876.855661	0.459394
877.040121	0.459981
877.224563	0.459986
877.408987	0.459906
877.593393	0.460592
877.777780	0.460742
877.962150	0.460941
878.146501	0.461058
878.330833	0.461207
878.515148	0.462018
878.699444	0.462288
878.883722	0.462694
879.067982	0.463174
879.252224	0.463027
879.436447	0.463458
879.620653	0.463515
879.804840	0.463889
879.989008	0.463967
880.173159	0.464518
880.357291	0.464452
880.541405	0.464536
880.725501	0.464221
880.909579	0.464339
881.093638	0.464516
881.277680	0.464829
881.461703	0.464961
881.645707	0.465305
881.829694	0.465033
882.013662	0.465248
882.197612	0.465836
882.381544	0.466728
882.565458	0.466926
882.749353	0.466881
882.933230	0.467572
883.117089	0.467465
883.300930	0.467388
883.484753	0.467172
883.668557	0.467190
883.852343	0.466682
884.036111	0.466352
884.219861	0.466480
884.403592	0.466706
884.587305	0.466285
884.771000	0.466524
884.954677	0.466824
885.138335	0.467264
885.321976	0.467294
885.505598	0.467298
885.689201	0.467365
885.872787	0.467329
886.056354	0.467106
886.239904	0.466939
886.423434	0.467029
886.606947	0.466576
886.790442	0.467250
886.973918	0.467733
887.157376	0.468429
887.340816	0.468431
887.524237	0.468652
887.707641	0.468814
887.891026	0.468929
888.074393	0.468144
888.257741	0.468320
888.441072	0.467488
888.624384	0.466947
888.807678	0.466625
888.990954	0.466949
889.174211	0.466630
889.357451	0.466665
889.540672	0.466802
889.723875	0.467237
889.907059	0.466925
890.090226	0.467156
890.273374	0.467608
890.456504	0.467526
890.639616	0.467178
890.822709	0.467122
891.005785	0.467552
891.188842	0.467615
891.371881	0.467689
891.554901	0.468025
891.737904	0.467776
891.920888	0.467494
892.103854	0.467613
892.286802	0.467413
892.469731	0.467465
892.652643	0.466672
892.835536	0.466272
893.018410	0.466290
893.201267	0.466025
893.384106	0.465894
893.566926	0.465554
893.749728	0.465459
893.932511	0.465825
894.115277	0.465571
894.298024	0.465749
894.480753	0.465914
894.663464	0.465258
894.846157	0.465424
895.028831	0.464761
895.211487	0.464307
895.394125	0.463844
895.576745	0.463605
895.759346	0.463676
895.941930	0.463585
896.124495	0.463156
896.307041	0.463744
896.489570	0.463300
896.672080	0.463842
896.854573	0.464345
897.037046	0.464232
897.219502	0.464077
897.401940	0.463622
897.584359	0.462899
897.766760	0.461995
897.949143	0.461177
898.131507	0.461386
898.313854	0.460709
898.496182	0.459655
898.678492	0.459148
898.860783	0.458339
899.043057	0.458451
899.225312	0.458520
899.407549	0.459568
899.589768	0.459287
899.771968	0.458345
899.954151	0.458708
900.136315	0.459500
900.318461	0.459067
900.500588	0.458962
900.682698	0.458351
900.864789	0.458094
901.046862	0.457038
901.228917	0.457120
901.410953	0.457393
901.592971	0.456968
901.774972	0.456032
901.956953	0.456069
902.138917	0.455616
902.320862	0.455521
902.502790	0.455775
902.684699	0.455740
902.866589	0.455309
903.048462	0.454728
903.230316	0.453983
903.412152	0.454026
903.593970	0.453422
903.775770	0.453439
903.957551	0.452964
904.139314	0.452413
904.321059	0.451780
904.502786	0.451361
904.684494	0.451534
904.866185	0.451670
905.047857	0.450914
905.229510	0.450786
905.411146	0.450213
905.592763	0.449824
905.774363	0.448693
905.955943	0.448867
906.137506	0.448453
906.319051	0.447732
906.500577	0.446781
906.682085	0.446247
906.863575	0.445813
907.045046	0.445221
907.226500	0.444886
907.407935	0.444517
907.589352	0.443970
907.770750	0.443963
907.952131	0.443016
908.133493	0.443032
908.314837	0.442992
908.496163	0.442257
908.677470	0.442066
908.858760	0.441354
909.040031	0.441273
909.221284	0.440701
909.402518	0.440026
909.583735	0.439705
909.764933	0.439522
909.946113	0.438879
910.127275	0.438408
910.308418	0.437257
910.489544	0.437573
910.670651	0.436745
910.851740	0.435821
911.032810	0.435104
911.213863	0.434514
911.394897	0.433868
911.575913	0.433206
911.756911	0.432831
911.937890	0.432343
912.118851	0.430976
912.299794	0.430709
912.480719	0.430506
912.661626	0.430156
912.842514	0.429715
913.023384	0.428889
913.204236	0.428796
913.385070	0.428425
913.565886	0.428351
913.746683	0.428461
913.927462	0.427947
914.108223	0.427037
914.288965	0.426393
914.469690	0.425664
914.650396	0.424926
914.831084	0.423825
915.011754	0.423428
915.192405	0.422739
915.373038	0.421608
915.553653	0.420764
915.734250	0.420617
915.914829	0.419302
916.095389	0.418764
916.275931	0.418334
916.456455	0.417900
916.636961	0.416240
916.817448	0.415341
916.997917	0.414638
917.178368	0.413899
917.358801	0.412894
917.539216	0.412372
917.719612	0.411862
917.899990	0.410583
918.080350	0.409727
918.260692	0.409877
918.441015	0.409475
918.621320	0.408794
918.801607	0.408191
918.981876	0.407609
919.162127	0.407845
919.342359	0.407115
919.522573	0.407210
919.702769	0.406825
919.882947	0.406401
920.063106	0.405667
920.243247	0.405255
920.423370	0.405085
920.603475	0.404672
920.783562	0.403620
920.963630	0.402852
921.143680	0.402048
921.323712	0.401232
921.503725	0.400144
921.683721	0.399197
921.863698	0.398184
922.043657	0.397218
922.223598	0.396092
922.403520	0.395259
922.583424	0.394752
922.763311	0.394040
922.943178	0.392569
923.123028	0.391972
923.302859	0.391692
923.482673	0.390675
923.662467	0.389695
923.842244	0.388979
924.022003	0.388365
924.201743	0.387192
924.381465	0.385856
924.561169	0.385832
924.740854	0.384557
924.920522	0.383758
925.100171	0.383094
925.279802	0.382151
925.459414	0.381261
925.639009	0.380054
925.818585	0.379192
925.998143	0.378359
926.177683	0.377126
926.357205	0.376404
926.536708	0.375083
926.716193	0.374180
926.895660	0.373143
927.075109	0.371796
927.254539	0.370571
927.433951	0.369686
927.613345	0.368871
927.792721	0.368513
927.972079	0.367685
928.151418	0.366641
928.330739	0.366115
928.510042	0.365254
928.689327	0.365214
928.868593	0.364832
929.047841	0.364283
929.227071	0.363745
929.406283	0.361988
929.585476	0.361921
929.764652	0.361331
929.943809	0.360222
930.122948	0.359685
930.302068	0.358014
930.481171	0.356814
930.660255	0.355173
930.839321	0.354133
931.018369	0.353340
931.197398	0.350675
931.376409	0.349420
931.555402	0.348064
931.734377	0.346440
931.913334	0.345611
932.092272	0.345091
932.271192	0.345098
932.450094	0.343834
932.628978	0.343433
932.807844	0.343653
932.986691	0.341965
933.165520	0.341388
933.344331	0.340817
933.523123	0.339806
933.701898	0.338259
933.880654	0.335979
934.059392	0.335027
934.238111	0.333709
934.416813	0.332381
934.595496	0.332725
934.774161	0.331265
934.952808	0.330585
935.131437	0.329879
935.310047	0.328973
935.488639	0.329211
935.667213	0.328029
935.845769	0.327117
936.024306	0.326817
936.202825	0.325280
936.381326	0.324683
936.559809	0.323260
936.738274	0.322042
936.916720	0.321197
937.095148	0.319806
937.273558	0.318997
937.451950	0.319625
937.630323	0.317401
937.808678	0.316765
937.987015	0.316298
938.165334	0.315780
938.343635	0.314942
938.521917	0.314306
938.700181	0.312344
938.878427	0.311758
939.056655	0.309199
939.234864	0.308923
939.413055	0.307406
939.591228	0.305847
939.769383	0.303922
939.947519	0.301575
940.125638	0.299754
940.303738	0.299870
940.481820	0.299325
940.659883	0.297635
940.837929	0.295193
941.015956	0.294638
941.193965	0.293599
941.371955	0.292243
941.549928	0.291261
941.727882	0.291096
941.905818	0.288967
942.083736	0.285555
942.261636	0.283558
942.439517	0.282935
942.617380	0.281178
942.795225	0.279554
942.973052	0.279044
943.150860	0.279008
943.328651	0.277321
943.506423	0.277499
943.684176	0.278536
943.861912	0.278305
944.039629	0.276472
944.217328	0.275527
944.395009	0.274590
944.572672	0.272936
944.750317	0.271463
944.927943	0.269684
945.105551	0.267396
945.283141	0.265180
945.460712	0.263560
945.638265	0.263038
945.815801	0.262012
945.993317	0.260053
946.170816	0.258843
946.348297	0.256990
946.525759	0.255789
946.703203	0.254859
946.880629	0.252952
947.058036	0.251620
947.235425	0.250508
947.412797	0.248929
947.590149	0.248939
947.767484	0.247839
947.944800	0.249153
948.122099	0.248213
948.299379	0.246159
948.476640	0.243673
948.653884	0.242450
948.831109	0.241646
949.008316	0.240279
949.185505	0.237053
949.362676	0.236212
949.539828	0.233769
949.716962	0.232328
949.894078	0.232989
950.071176	0.233397
950.248256	0.232152
950.425317	0.230131
950.602360	0.227520
950.779385	0.226804
950.956391	0.223506
951.133380	0.220348
951.310350	0.219054
951.487302	0.216750
951.664235	0.214139
951.841151	0.213319
952.018048	0.212225
952.194927	0.214104
952.371788	0.212872
952.548631	0.212109
952.725455	0.211103
952.902261	0.210397
953.079049	0.208875
953.255819	0.209728
953.432570	0.209249
953.609303	0.207827
953.786018	0.205329
953.962715	0.205576
954.139394	0.204124
954.316054	0.204675
954.492696	0.204375
954.669320	0.204046
954.845926	0.203537
955.022513	0.200096
955.199083	0.200109
955.375634	0.198080
955.552166	0.197406
955.728681	0.197838
955.905177	0.194137
956.081655	0.190582
956.258115	0.188669
956.434557	0.186846
956.610980	0.187812
956.787385	0.187079
956.963772	0.189108
957.140141	0.187449
957.316492	0.187542
957.492824	0.187150
957.669138	0.186089
957.845434	0.186432
958.021712	0.185518
958.197971	0.184010
958.374212	0.180969
958.550435	0.176931
958.726640	0.175251
958.902826	0.173629
959.078995	0.174526
959.255145	0.175316
959.431277	0.176269
959.607390	0.176993
959.783486	0.177086
959.959563	0.178028
960.135622	0.177571
960.311662	0.176915
960.487685	0.176788
960.663689	0.175727
960.839675	0.174444
961.015643	0.173209
961.191593	0.169968
961.367524	0.167516
961.543437	0.167024
961.719332	0.167719
961.895209	0.169024
962.071067	0.168051
962.246907	0.168877
962.422730	0.168249
962.598533	0.165756
962.774319	0.166145
962.950086	0.165066
963.125835	0.162926
963.301566	0.162027
963.477279	0.160705
963.652973	0.161164
963.828650	0.157507
964.004308	0.157479
964.179947	0.155351
964.355569	0.154812
964.531172	0.155988
964.706757	0.155979
964.882324	0.155747
965.057873	0.154440
965.233403	0.152473
965.408916	0.153201
965.584410	0.153170
965.759885	0.153408
965.935343	0.152963
966.110782	0.154410
966.286203	0.155276
966.461606	0.155502
966.636991	0.155305
966.812357	0.154487
966.987705	0.155464
967.163035	0.154343
967.338347	0.155167
967.513641	0.155836
967.688916	0.152755
967.864173	0.154726
968.039412	0.152646
968.214632	0.151839
968.389835	0.151279
968.565019	0.148717
968.740185	0.149669
968.915333	0.149489
969.090462	0.150476
969.265573	0.152556
969.440667	0.149103
969.615741	0.150347
969.790798	0.149870
969.965836	0.154288
970.140856	0.156170
970.315858	0.154736
970.490842	0.153850
970.665808	0.151123
970.840755	0.149493
971.015684	0.149922
971.190595	0.149470
971.365487	0.151790
971.540362	0.151278
971.715218	0.149929
971.890056	0.148668
972.064875	0.148580
972.239677	0.148221
972.414460	0.148685
972.589225	0.149658
972.763972	0.151324
972.938700	0.149108
973.113411	0.146880
973.288103	0.147433
973.462777	0.148593
973.637432	0.149648
973.812070	0.148999
973.986689	0.148098
974.161290	0.147516
974.335873	0.145312
974.510437	0.146303
974.684984	0.143890
974.859512	0.145906
975.034022	0.145370
975.208513	0.145244
975.382987	0.147411
975.557442	0.149604
975.731879	0.148608
975.906298	0.149292
976.080698	0.149610
976.255080	0.152180
976.429445	0.150198
976.603790	0.152557
976.778118	0.152020
976.952427	0.153266
977.126719	0.151360
977.300992	0.152542
977.475246	0.153937
977.649483	0.152285
977.823701	0.153538
977.997901	0.157746
978.172083	0.155623
978.346247	0.156528
978.520392	0.153994
978.694519	0.155108
978.868628	0.154474
979.042719	0.151867
979.216791	0.154321
979.390845	0.151337
979.564882	0.147129
979.738899	0.147461
979.912899	0.147013
980.086880	0.146476
980.260843	0.145577
980.434788	0.147893
980.608715	0.150179
980.782623	0.148748
980.956514	0.149165
981.130386	0.149411
981.304240	0.149366
981.478075	0.148791
981.651892	0.150672
981.825692	0.150458
981.999472	0.148982
982.173235	0.148000
982.346980	0.149142
982.520706	0.150811
982.694414	0.151315
982.868104	0.151749
983.041775	0.150942
983.215428	0.148563
983.389064	0.148620
983.562680	0.146003
983.736279	0.146581
983.909860	0.146337
984.083422	0.145637
984.256966	0.146115
984.430491	0.144572
984.603999	0.144834
984.777488	0.148268
984.950959	0.146700
985.124412	0.148657
985.297847	0.147107
985.471263	0.145397
985.644661	0.143429
985.818041	0.143108
985.991403	0.146376
986.164747	0.148282
986.338072	0.147515
986.511379	0.150958
986.684668	0.150831
986.857938	0.151961
987.031191	0.151114
987.204425	0.155438
987.377641	0.155302
987.550839	0.153692
987.724018	0.153104
987.897179	0.151735
988.070322	0.150415
988.243447	0.149949
988.416554	0.150019
988.589642	0.150034
988.762712	0.147757
988.935764	0.146662
989.108798	0.147179
989.281813	0.145874
989.454811	0.148243
989.627790	0.148371
989.800751	0.148800
989.973693	0.147627
990.146617	0.150375
990.319524	0.150488
990.492412	0.152349
990.665281	0.152970
990.838133	0.153053
991.010966	0.150615
991.183781	0.150271
991.356578	0.148254
991.529356	0.149587
991.702117	0.148562
991.874859	0.148099
992.047583	0.147360
992.220288	0.148761
992.392976	0.150121
992.565645	0.150887
992.738296	0.149809
992.910929	0.150053
993.083543	0.151073
993.256139	0.153233
993.428718	0.155724
993.601277	0.154232
993.773819	0.152395
993.946342	0.153033
994.118848	0.151673
994.291335	0.154508
994.463803	0.156518
994.636254	0.155107
994.808686	0.152143
994.981100	0.149977
995.153496	0.151350
995.325874	0.150008
995.498233	0.147618
995.670574	0.148468
995.842897	0.145966
996.015202	0.146042
996.187488	0.146392
996.359757	0.145173
996.532007	0.146932
996.704239	0.147487
996.876452	0.148211
997.048648	0.149405
997.220825	0.147049
997.392984	0.147723
997.565124	0.148735
997.737247	0.146192
997.909351	0.147359
998.081437	0.145063
998.253505	0.143790
998.425554	0.143805
998.597586	0.140564
998.769599	0.143513
998.941594	0.143166
999.113571	0.143057
999.285529	0.144142
999.457469	0.143960
999.629391	0.143646
999.801295	0.144448
999.973181	0.144278
1000.145048	0.148656
1000.316897	0.147626
1000.488728	0.148340
1000.660541	0.145341
1000.832335	0.147379
1001.004111	0.149265
1001.175869	0.149755
1001.347609	0.149143
1001.519331	0.148984
1001.691034	0.149259
1001.862719	0.149922
1002.034386	0.148148
1002.206035	0.151113
1002.377665	0.148020
1002.549277	0.146488
1002.720871	0.148044
1002.892447	0.150343
1003.064004	0.151304
1003.235544	0.150809
1003.407065	0.151652
1003.578568	0.152723
1003.750052	0.152919
1003.921519	0.153382
1004.092967	0.154749
1004.264397	0.154677
1004.435809	0.152315
1004.607202	0.153229
1004.778577	0.152620
1004.949934	0.153419
1005.121273	0.153631
1005.292594	0.154418
1005.463896	0.155379
1005.635180	0.155296
1005.806446	0.154391
1005.977694	0.152599
1006.148923	0.150919
1006.320135	0.150395
1006.491328	0.148950
1006.662503	0.148211
1006.833659	0.146135
1007.004798	0.147637
1007.175918	0.145998
1007.347020	0.147269
1007.518103	0.148490
1007.689169	0.151889
1007.860216	0.152449
1008.031245	0.151312
1008.202256	0.153241
1008.373248	0.152542
1008.544223	0.151455
1008.715179	0.152852
1008.886117	0.152670
1009.057036	0.154979
1009.227938	0.151548
1009.398821	0.150385
1009.569686	0.150266
1009.740533	0.149258
1009.911361	0.149433
1010.082172	0.149357
1010.252964	0.149240
1010.423738	0.146778
1010.594493	0.147413
1010.765231	0.147722
1010.935950	0.147275
1011.106651	0.147095
1011.277334	0.149611
1011.447998	0.148956
1011.618645	0.150200
1011.789273	0.151807
1011.959882	0.153129
1012.130474	0.152245
1012.301048	0.153360
1012.471603	0.155358
1012.642140	0.155854
1012.812658	0.153804
1012.983159	0.155587
1013.153641	0.153623
1013.324105	0.149849
1013.494551	0.150308
1013.664979	0.152529
1013.835388	0.152517
1014.005779	0.151013
1014.176152	0.150311
1014.346507	0.149250
1014.516843	0.149647
1014.687162	0.151608
1014.857462	0.153439
1015.027744	0.153913
1015.198007	0.150448
1015.368252	0.150538
1015.538480	0.151939
1015.708689	0.153616
1015.878879	0.154574
1016.049052	0.154500
1016.219206	0.152819
1016.389342	0.152741
1016.559460	0.152231
1016.729559	0.152707
1016.899641	0.151339
1017.069704	0.149310
1017.239749	0.148902
1017.409775	0.148851
1017.579784	0.147330
1017.749774	0.146509
1017.919746	0.148099
1018.089700	0.148300
1018.259635	0.149207
1018.429553	0.151314
1018.599452	0.155045
1018.769333	0.153855
1018.939195	0.152974
1019.109040	0.152621
1019.278866	0.154664
1019.448674	0.154229
1019.618464	0.152345
1019.788235	0.151160
1019.957989	0.150919
1020.127724	0.146753
1020.297441	0.147303
1020.467139	0.146621
1020.636820	0.147839
1020.806482	0.147439
1020.976126	0.145640
1021.145752	0.147512
1021.315359	0.147963
1021.484948	0.147827
1021.654519	0.149501
1021.824072	0.151546
1021.993607	0.151098
1022.163123	0.150980
1022.332621	0.151350
1022.502101	0.151559
1022.671563	0.151617
1022.841007	0.152339
1023.010432	0.150957
1023.179839	0.151494
1023.349228	0.152303
1023.518598	0.154969
1023.687951	0.154138
1023.857285	0.153353
1024.026601	0.154368
1024.195899	0.152946
1024.365178	0.153726
1024.534439	0.151013
1024.703682	0.150923
1024.872907	0.147474
1025.042114	0.146566
1025.211302	0.147064
1025.380472	0.147182
1025.549624	0.146131
1025.718758	0.148206
1025.887873	0.146163
1026.056970	0.150442
1026.226049	0.147760
1026.395110	0.149534
1026.564153	0.149347
1026.733177	0.151023
1026.902183	0.150400
1027.071171	0.153251
1027.240141	0.151323
1027.409092	0.151928
1027.578026	0.149849
1027.746940	0.153375
1027.915837	0.154424
1028.084716	0.154927
1028.253576	0.152506
1028.422418	0.153707
1028.591242	0.151854
1028.760048	0.152235
1028.928835	0.152396
1029.097604	0.152121
1029.266355	0.150565
1029.435088	0.150345
1029.603803	0.149233
1029.772499	0.150814
1029.941177	0.150128
1030.109837	0.149319
1030.278478	0.147807
1030.447102	0.146719
1030.615707	0.147908
1030.784294	0.148269
1030.952863	0.147226
1031.121413	0.148523
1031.289945	0.148280
1031.458460	0.146891
1031.626955	0.147266
1031.795433	0.149875
1031.963892	0.150403
1032.132334	0.147620
1032.300756	0.148460
1032.469161	0.147528
1032.637548	0.147037
1032.805916	0.144873
1032.974266	0.146592
1033.142598	0.146544
1033.310911	0.145330
1033.479207	0.145379
1033.647484	0.150178
1033.815743	0.148969
1033.983983	0.150023
1034.152206	0.150630
1034.320410	0.152260
1034.488596	0.151678
1034.656764	0.153423
1034.824914	0.154544
1034.993045	0.154224
1035.161158	0.151904
1035.329253	0.152539
1035.497330	0.152823
1035.665388	0.153050
1035.833428	0.152780
1036.001450	0.152621
1036.169454	0.149481
1036.337440	0.148738
1036.505407	0.149682
1036.673356	0.149781
1036.841287	0.149234
1037.009200	0.147451
1037.177094	0.145936
1037.344970	0.146330
1037.512828	0.146595
1037.680668	0.148797
1037.848489	0.149706
1038.016293	0.147487
1038.184078	0.148696
1038.351845	0.149441
1038.519593	0.150764
1038.687324	0.151106
1038.855036	0.150147
1039.022730	0.149849
1039.190406	0.149233
1039.358063	0.148238
1039.525702	0.150448
1039.693323	0.148181
1039.860926	0.145711
1040.028511	0.144696
1040.196077	0.145114
1040.363625	0.144735
1040.531155	0.146508
1040.698667	0.148478
1040.866161	0.148234
1041.033636	0.148816
1041.201093	0.149497
1041.368532	0.150898
1041.535952	0.151885
1041.703355	0.151367
1041.870739	0.151944
1042.038105	0.150232
1042.205452	0.146785
1042.372782	0.147272
1042.540093	0.145641
1042.707386	0.144760
1042.874661	0.146316
1043.041918	0.145714
1043.209156	0.147389
1043.376376	0.147513
1043.543578	0.149092
1043.710762	0.149561
1043.877927	0.146950
1044.045074	0.146146
1044.212203	0.146478
1044.379314	0.145110
1044.546407	0.144260
1044.713481	0.143649
1044.880537	0.144581
1045.047575	0.142815
1045.214595	0.143837
1045.381596	0.147284
1045.548579	0.148468
1045.715544	0.147827
1045.882491	0.148353
1046.049420	0.149600
1046.216330	0.149390
1046.383222	0.148618
1046.550096	0.148303
1046.716951	0.148003
1046.883789	0.144815
1047.050608	0.146476
1047.217409	0.148153
1047.384192	0.148328
1047.550956	0.147882
1047.717703	0.148570
1047.884431	0.147784
1048.051140	0.148857
1048.217832	0.148085
1048.384505	0.150060
1048.551161	0.148719
1048.717798	0.149556
1048.884416	0.150272
1049.051017	0.150748
1049.217599	0.148882
1049.384163	0.149997
1049.550709	0.148625
1049.717237	0.149623
1049.883746	0.150424
1050.050237	0.148500
1050.216710	0.148113
1050.383165	0.147151
1050.549601	0.147267
1050.716019	0.145325
1050.882420	0.143918
1051.048801	0.145640
1051.215165	0.147246
1051.381510	0.146532
1051.547837	0.146543
1051.714146	0.146677
1051.880437	0.149310
1052.046709	0.149962
1052.212964	0.151566
1052.379200	0.153009
1052.545417	0.153795
1052.711617	0.151650
1052.877798	0.152761
1053.043961	0.153634
1053.210106	0.151220
1053.376233	0.149287
1053.542341	0.148069
1053.708432	0.150803
1053.874504	0.150917
1054.040557	0.149002
1054.206593	0.150256
1054.372610	0.148133
1054.538609	0.149818
1054.704590	0.152399
1054.870553	0.151354
1055.036497	0.149042
1055.202424	0.146707
1055.368331	0.146913
1055.534221	0.146770
1055.700093	0.145594
1055.865946	0.145700
1056.031781	0.145803
1056.197598	0.144477
1056.363397	0.142854
1056.529177	0.145709
1056.694939	0.147086
1056.860683	0.145537
1057.026409	0.146991
1057.192116	0.148580
1057.357806	0.149345
1057.523477	0.147781
1057.689130	0.147554
1057.854764	0.148946
1058.020381	0.148113
1058.185979	0.146689
1058.351559	0.146804
1058.517120	0.146231
1058.682664	0.146294
1058.848189	0.145633
1059.013696	0.143972
1059.179185	0.145568
1059.344656	0.146799
1059.510108	0.147739
1059.675542	0.148969
1059.840958	0.151419
1060.006356	0.150686
1060.171735	0.149891
1060.337096	0.149877
1060.502439	0.149546
1060.667764	0.149446
1060.833071	0.148264
1060.998359	0.150950
1061.163629	0.150615
1061.328881	0.149018
1061.494115	0.149644
1061.659330	0.149260
1061.824527	0.148714
1061.989706	0.152807
1062.154867	0.151782
1062.320010	0.151521
1062.485134	0.148882
1062.650240	0.148468
1062.815328	0.149982
1062.980398	0.149434
1063.145449	0.149833
1063.310482	0.153275
1063.475497	0.151194
1063.640494	0.151584
1063.805473	0.153460
1063.970433	0.151749
1064.135375	0.150497
1064.300299	0.149034
1064.465204	0.149134
1064.630092	0.150476
1064.794961	0.147387
1064.959812	0.147962
1065.124645	0.147150
1065.289459	0.148036
1065.454256	0.150965
1065.619034	0.153157
1065.783793	0.154953
1065.948535	0.154936
1066.113258	0.153342
1066.277964	0.153266
1066.442651	0.154950
1066.607319	0.154567
1066.771970	0.153094
1066.936602	0.151496
1067.101216	0.150079
1067.265812	0.149955
1067.430389	0.150509
1067.594949	0.151594
1067.759490	0.151316
1067.924013	0.152223
1068.088518	0.154012
1068.253004	0.154677
1068.417472	0.155224
1068.581922	0.157832
1068.746354	0.157121
1068.910768	0.157842
1069.075163	0.157388
1069.239540	0.157326
1069.403899	0.155226
1069.568240	0.153968
1069.732562	0.155339
1069.896866	0.155751
1070.061152	0.155149
1070.225420	0.153118
1070.389670	0.153645
1070.553901	0.154165
1070.718114	0.155247
1070.882309	0.156105
1071.046486	0.157589
1071.210644	0.156986
1071.374784	0.157465
1071.538906	0.157552
1071.703010	0.159661
1071.867096	0.160837
1072.031163	0.162097
1072.195212	0.164044
1072.359243	0.162531
1072.523256	0.159736
1072.687250	0.157478
1072.851226	0.157249
1073.015184	0.155984
1073.179124	0.156502
1073.343045	0.153668
1073.506949	0.153047
1073.670834	0.153766
1073.834701	0.155510
1073.998549	0.160877
1074.162380	0.164164
1074.326192	0.165245
1074.489986	0.164494
1074.653761	0.165367
1074.817519	0.166508
1074.981258	0.166401
1075.144979	0.164692
1075.308682	0.165536
1075.472367	0.163029
1075.636033	0.161795
1075.799681	0.162553
1075.963311	0.168775
1076.126923	0.168533
1076.290516	0.169882
1076.454092	0.167235
1076.617649	0.168379
1076.781187	0.166584
1076.944708	0.168101
1077.108210	0.169845
1077.271695	0.169550
1077.435160	0.163917
1077.598608	0.163330
1077.762038	0.161845
1077.925449	0.166218
1078.088842	0.167099
1078.252217	0.167097
1078.415573	0.165808
1078.578912	0.162524
1078.742232	0.162295
1078.905534	0.162942
1079.068817	0.162281
1079.232083	0.164247
1079.395330	0.161284
1079.558559	0.159808
1079.721770	0.160605
1079.884962	0.157864
1080.048136	0.158442
1080.211293	0.155426
1080.374430	0.157032
1080.537550	0.156264
1080.700651	0.155664
1080.863735	0.159199
1081.026800	0.162386
1081.189846	0.161797
1081.352875	0.162445
1081.515885	0.165052
1081.678877	0.168129
1081.841851	0.169139
1082.004807	0.172290
1082.167744	0.172276
1082.330663	0.168718
1082.493564	0.164000
1082.656447	0.164433
1082.819312	0.167468
1082.982158	0.164266
1083.144986	0.166190
1083.307796	0.165759
1083.470587	0.164683
1083.633361	0.166039
1083.796116	0.168386
1083.958853	0.170482
1084.121571	0.170827
1084.284272	0.167879
1084.446954	0.170026
1084.609618	0.167699
1084.772264	0.167493
1084.934892	0.168109
1085.097501	0.166082
1085.260092	0.163877
1085.422665	0.166251
1085.585220	0.164945
1085.747756	0.166151
1085.910274	0.165449
1086.072774	0.166317
1086.235256	0.164913
1086.397720	0.166724
1086.560165	0.167302
1086.722592	0.170037
1086.885001	0.168161
1087.047392	0.169104
1087.209764	0.170946
1087.372119	0.173257
1087.534455	0.172975
1087.696772	0.174826
1087.859072	0.174278
1088.021353	0.173962
1088.183616	0.175422
1088.345861	0.173976
1088.508088	0.175549
1088.670296	0.175650
1088.832486	0.174923
1088.994658	0.175298
1089.156812	0.174600
1089.318948	0.171736
1089.481065	0.175643
1089.643164	0.172280
1089.805245	0.174299
1089.967308	0.173925
1090.129352	0.174124
1090.291378	0.172757
1090.453386	0.169615
1090.615376	0.169799
1090.777347	0.172143
1090.939301	0.168492
1091.101236	0.170305
1091.263153	0.171275
1091.425051	0.173921
1091.586932	0.176018
1091.748794	0.177092
1091.910638	0.181098
1092.072463	0.182155
1092.234271	0.180614
1092.396060	0.181709
1092.557831	0.184297
1092.719584	0.180701
1092.881319	0.179660
1093.043035	0.177092
1093.204733	0.175030
1093.366413	0.175928
1093.528075	0.173500
1093.689718	0.174031
1093.851343	0.175706
1094.012950	0.173586
1094.174539	0.175561
1094.336110	0.174808
1094.497662	0.171525
1094.659196	0.173137
1094.820712	0.175443
1094.982210	0.179129
1095.143689	0.178430
1095.305151	0.177809
1095.466594	0.177837
1095.628018	0.176317
1095.789425	0.176472
1095.950813	0.182108
1096.112183	0.183040
1096.273535	0.178621
1096.434869	0.177750
1096.596184	0.180824
1096.757482	0.178109
1096.918761	0.178840
1097.080021	0.180847
1097.241264	0.180922
1097.402488	0.177880
1097.563694	0.178463
1097.724882	0.178449
1097.886052	0.181284
1098.047203	0.179682
1098.208336	0.178921
1098.369451	0.175810
1098.530548	0.174977
1098.691627	0.172793
1098.852687	0.176674
1099.013729	0.176646
1099.174753	0.177724
1099.335758	0.172313
1099.496746	0.169278
1099.657715	0.172333
1099.818666	0.173056
1099.979599	0.173674
1100.140513	0.177692
1100.301409	0.172106
1100.462287	0.170950
1100.623147	0.171795
1100.783989	0.174204
1100.944812	0.180489
1101.105617	0.183241
1101.266404	0.181054
1101.427173	0.179367
1101.587923	0.183260
1101.748656	0.187710
1101.909370	0.190857
1102.070066	0.188722
1102.230743	0.188285
1102.391403	0.184604
1102.552044	0.178756
1102.712667	0.185661
1102.873271	0.190056
1103.033858	0.186707
1103.194426	0.185421
1103.354976	0.183369
1103.515508	0.186718
1103.676021	0.189097
1103.836517	0.189186
1103.996994	0.193845
1104.157453	0.188860
1104.317893	0.187731
1104.478316	0.181287
1104.638720	0.180530
1104.799106	0.180448
1104.959474	0.179434
1105.119823	0.178133
1105.280155	0.179894
1105.440468	0.179976
1105.600763	0.179923
1105.761039	0.177238
1105.921298	0.183939
1106.081538	0.182816
1106.241760	0.184347
1106.401964	0.182137
1106.562149	0.183667
1106.722316	0.182713
1106.882465	0.184024
1107.042596	0.185868
1107.202709	0.191374
1107.362803	0.188872
1107.522879	0.190053
1107.682937	0.186768
1107.842977	0.189291
1108.002999	0.189160
1108.163002	0.191078
1108.322987	0.186460
1108.482954	0.185542
1108.642902	0.181048
1108.802833	0.187080
1108.962745	0.186325
1109.122639	0.186270
1109.282515	0.187261
1109.442372	0.181914
1109.602211	0.179708
1109.762032	0.181044
1109.921835	0.181642
1110.081620	0.184172
1110.241386	0.174802
1110.401134	0.175796
1110.560864	0.179638
1110.720576	0.180850
1110.880269	0.183253
1111.039945	0.186282
1111.199602	0.185933
1111.359240	0.188429
1111.518861	0.185701
1111.678463	0.189282
1111.838047	0.189355
1111.997613	0.195037
1112.157161	0.192078
1112.316690	0.197009
1112.476202	0.195358
1112.635695	0.194362
1112.795169	0.187342
1112.954626	0.188997
1113.114064	0.192730
1113.273484	0.194003
1113.432886	0.187686
1113.592270	0.188512
1113.751635	0.189990
1113.910983	0.189993
1114.070312	0.193226
1114.229622	0.194962
1114.388915	0.196495
1114.548189	0.193881
1114.707445	0.196004
1114.866683	0.193408
1115.025903	0.190979
1115.185104	0.187675
1115.344287	0.191192
1115.503452	0.187762
1115.662599	0.193131
1115.821727	0.192882
1115.980838	0.195734
1116.139930	0.190642
1116.299004	0.198498
1116.458059	0.197747
1116.617097	0.195113
1116.776116	0.191435
1116.935117	0.190959
1117.094099	0.184480
1117.253064	0.188963
1117.412010	0.190894
1117.570938	0.196828
1117.729848	0.186126
1117.888740	0.184217
1118.047613	0.182906
1118.206468	0.183497
1118.365305	0.187260
1118.524124	0.194831
1118.682924	0.191389
1118.841707	0.190514
1119.000471	0.190066
1119.159216	0.199970
1119.317944	0.204078
1119.476653	0.209560
1119.635344	0.207142
1119.794017	0.209918
1119.952672	0.206360
1120.111308	0.204497
1120.269927	0.202297
1120.428527	0.198610
1120.587108	0.203677
1120.745672	0.204992
1120.904217	0.197942
1121.062744	0.197375
1121.221253	0.198870
1121.379744	0.198748
1121.538216	0.197090
1121.696671	0.193211
1121.855107	0.200805
1122.013524	0.191305
1122.171924	0.198860
1122.330305	0.200847
1122.488668	0.199711
1122.647013	0.192857
1122.805340	0.193163
1122.963648	0.201844
1123.121938	0.201724
1123.280210	0.197738
1123.438464	0.202191
1123.596700	0.193585
1123.754917	0.201495
1123.913116	0.207352
1124.071297	0.214260
1124.229459	0.220047
1124.387604	0.215890
1124.545730	0.214436
1124.703838	0.210975
1124.861928	0.203435
1125.019999	0.211603
1125.178052	0.203224
1125.336088	0.204048
1125.494104	0.198369
1125.652103	0.190028
1125.810083	0.190543
1125.968045	0.199597
1126.125989	0.195308
1126.283915	0.194932
1126.441823	0.191408
1126.599712	0.198215
1126.757583	0.193979
1126.915436	0.194969
1127.073270	0.196871
1127.231087	0.197830
1127.388885	0.193656
1127.546665	0.201142
1127.704426	0.209774
1127.862170	0.206015
1128.019895	0.200245
1128.177602	0.198306
1128.335291	0.195846
1128.492961	0.192129
1128.650614	0.189888
1128.808248	0.195282
1128.965864	0.194670
1129.123461	0.191667
1129.281041	0.192095
1129.438602	0.193504
1129.596145	0.193753
1129.753670	0.202494
1129.911176	0.212044
1130.068665	0.215826
1130.226135	0.212521
1130.383587	0.214779
1130.541020	0.212754
1130.698436	0.211793
1130.855833	0.214532
1131.013212	0.218924
1131.170573	0.212937
1131.327915	0.214201
1131.485239	0.207574
1131.642545	0.206832
1131.799833	0.196963
1131.957103	0.199273
1132.114354	0.201662
1132.271588	0.195675
1132.428803	0.197171
1132.585999	0.202929
1132.743178	0.192043
1132.900338	0.194783
1133.057480	0.201527
1133.214604	0.210288
1133.371710	0.209174
1133.528797	0.205256
1133.685866	0.207854
1133.842917	0.206339
1133.999950	0.197240
1134.156964	0.211561
1134.313960	0.214006
1134.470938	0.207231
1134.627898	0.208716
1134.784840	0.204921
1134.941763	0.208737
1135.098668	0.207384
1135.255555	0.215920
1135.412424	0.220915
1135.569274	0.209460
1135.726107	0.206210
1135.882921	0.208257
1136.039716	0.208694
1136.196494	0.208393
1136.353253	0.206948
1136.509995	0.208601
1136.666717	0.195656
1136.823422	0.199526
1136.980109	0.203693
1137.136777	0.208017
1137.293427	0.210713
1137.450059	0.209342
1137.606672	0.215525
1137.763267	0.217016
1137.919844	0.212419
1138.076403	0.221721
1138.232944	0.219153
1138.389466	0.220579
1138.545971	0.216976
1138.702457	0.215264
1138.858924	0.216659
1139.015374	0.209322
1139.171805	0.209108
1139.328218	0.219266
1139.484613	0.212050
1139.640990	0.211313
1139.797348	0.209553
1139.953688	0.212398
1140.110010	0.208748
1140.266314	0.209727
1140.422600	0.216513
1140.578867	0.222460
1140.735116	0.216495
1140.891347	0.219513
1141.047559	0.216552
1141.203754	0.214510
1141.359930	0.213225
1141.516088	0.216585
1141.672228	0.212030
1141.828349	0.197518
1141.984452	0.186348
1142.140537	0.193857
1142.296604	0.186546
1142.452653	0.194003
1142.608683	0.201960
1142.764695	0.206150
1142.920689	0.193972
1143.076665	0.198534
1143.232622	0.206206
1143.388562	0.217555
1143.544483	0.219746
1143.700385	0.236231
1143.856270	0.229603
1144.012136	0.219050
1144.167985	0.217008
1144.323814	0.219311
1144.479626	0.217474
1144.635420	0.229249
1144.791195	0.225582
1144.946952	0.210876
1145.102691	0.199805
1145.258411	0.191229
1145.414113	0.205462
1145.569798	0.193249
1145.725463	0.194188
1145.881111	0.191403
1146.036741	0.188170
1146.192352	0.193961
1146.347945	0.207113
1146.503519	0.213272
1146.659076	0.229740
1146.814614	0.221048
1146.970134	0.228537
1147.125636	0.236496
1147.281120	0.249076
1147.436585	0.247796
1147.592032	0.253485
1147.747461	0.245380
1147.902872	0.232063
1148.058265	0.217379
1148.213639	0.228077
1148.368995	0.225659
1148.524333	0.222265
1148.679653	0.212089
1148.834954	0.207611
1148.990237	0.200649
1149.145502	0.206398
1149.300749	0.217257
1149.455977	0.227992
1149.611188	0.214229
1149.766380	0.225247
1149.921553	0.223431
1150.076709	0.227102
1150.231846	0.232581
1150.386966	0.224437
1150.542066	0.216311
1150.697149	0.212413
1150.852214	0.211619
1151.007260	0.210806
1151.162288	0.200504
1151.317298	0.200616
1151.472289	0.196243
1151.627263	0.192809
1151.782218	0.196370
1151.937155	0.194357
1152.092073	0.197969
1152.246974	0.202705
1152.401856	0.218474
1152.556720	0.230297
1152.711566	0.231768
1152.866393	0.228017
1153.021203	0.233510
1153.175994	0.233166
1153.330767	0.238163
1153.485521	0.241183
1153.640258	0.238580
1153.794976	0.228857
1153.949676	0.219751
1154.104358	0.222217
1154.259021	0.236826
1154.413667	0.239854
1154.568294	0.234008
1154.722903	0.234417
1154.877493	0.230934
1155.032066	0.231944
1155.186620	0.236354
1155.341156	0.240943
1155.495674	0.240260
1155.650173	0.235419
1155.804654	0.236994
1155.959118	0.236215
1156.113562	0.241518
1156.267989	0.238496
1156.422397	0.244875
1156.576788	0.229566
1156.731160	0.239400
1156.885513	0.250576
1157.039849	0.257562
1157.194166	0.256544
1157.348465	0.250549
1157.502746	0.254441
1157.657009	0.262288
1157.811253	0.255048
1157.965479	0.265314
1158.119687	0.262461
1158.273877	0.253320
1158.428048	0.252893
1158.582201	0.239342
1158.736337	0.243263
1158.890453	0.238470
1159.044552	0.237260
1159.198632	0.224032
1159.352694	0.222132
1159.506738	0.220779
1159.660764	0.221410
1159.814771	0.214920
1159.968761	0.218058
1160.122732	0.219907
1160.276685	0.216431
1160.430619	0.227335
1160.584535	0.225019
1160.738434	0.226038
1160.892313	0.227813
1161.046175	0.239107
1161.200019	0.233353
1161.353844	0.240583
1161.507651	0.238446
1161.661440	0.243299
1161.815210	0.234604
1161.968962	0.241303
1162.122697	0.243328
1162.276412	0.243144
1162.430110	0.238562
1162.583789	0.232769
1162.737451	0.226861
1162.891094	0.223557
1163.044718	0.220866
1163.198325	0.214554
1163.351913	0.214319
1163.505483	0.208494
1163.659035	0.196724
1163.812569	0.181386
1163.966084	0.188113
1164.119581	0.193362
1164.273060	0.200137
1164.426521	0.199584
1164.579964	0.206095
1164.733388	0.207729
1164.886794	0.211150
1165.040182	0.207650
1165.193551	0.213693
1165.346903	0.215548
1165.500236	0.217281
1165.653551	0.221777
1165.806848	0.219848
1165.960126	0.203569
1166.113386	0.215153
1166.266628	0.220091
1166.419852	0.228728
1166.573058	0.221063
1166.726245	0.210034
1166.879414	0.189962
1167.032565	0.185279
1167.185698	0.196093
1167.338812	0.211575
1167.491909	0.213726
1167.644987	0.211339
1167.798046	0.211771
1167.951088	0.205468
1168.104111	0.205607
1168.257117	0.224128
1168.410103	0.237594
1168.563072	0.233584
1168.716023	0.239855
1168.868955	0.237043
1169.021869	0.219646
1169.174765	0.212786
1169.327642	0.224951
1169.480501	0.252754
1169.633343	0.241476
1169.786165	0.238068
1169.938970	0.223949
1170.091757	0.209036
1170.244525	0.209314
1170.397275	0.233694
1170.550007	0.243533
1170.702720	0.244439
1170.855415	0.241552
1171.008092	0.236578
1171.160751	0.215650
1171.313392	0.208988
1171.466014	0.393407
1171.618619	0.098949
1171.771205	0.098949
1171.923772	0.098949
