sample name	sample
index	482
start time	 03-11-2021  01:13:51 PM


Wavelength (nm)	Absorbance
494.344910	0.157491
494.563924	0.157491
494.782919	0.157491
495.001897	0.059950
495.220856	0.076398
495.439797	0.075140
495.658719	0.062686
495.877624	0.016888
496.096510	0.023426
496.315378	0.087185
496.534227	0.063767
496.753059	0.087883
496.971872	0.081241
497.190667	0.163499
497.409444	0.170164
497.628203	0.170157
497.846943	0.172606
498.065665	0.173617
498.284369	0.173119
498.503055	0.174228
498.721723	0.173453
498.940372	0.174565
499.159003	0.173192
499.377616	0.172796
499.596210	0.174441
499.814787	0.176283
500.033345	0.177583
500.251885	0.178169
500.470406	0.178980
500.688910	0.178858
500.907395	0.178482
501.125862	0.179880
501.344311	0.181482
501.562742	0.180602
501.781154	0.179058
501.999548	0.177590
502.217924	0.178152
502.436282	0.177522
502.654621	0.178400
502.872942	0.178869
503.091245	0.178814
503.309530	0.178920
503.527797	0.179818
503.746045	0.180358
503.964275	0.180823
504.182487	0.180867
504.400681	0.181685
504.618856	0.182476
504.837013	0.182340
505.055152	0.181846
505.273273	0.181926
505.491376	0.181438
505.709460	0.181871
505.927526	0.181533
506.145574	0.182029
506.363604	0.181848
506.581615	0.181301
506.799608	0.181169
507.017583	0.181381
507.235540	0.180888
507.453478	0.180978
507.671399	0.180953
507.889301	0.181943
508.107185	0.181735
508.325050	0.181636
508.542898	0.182413
508.760727	0.182774
508.978538	0.183727
509.196330	0.183173
509.414105	0.183552
509.631861	0.183324
509.849599	0.183530
510.067319	0.183805
510.285021	0.184287
510.502704	0.184406
510.720369	0.183716
510.938016	0.183635
511.155645	0.184716
511.373255	0.185677
511.590848	0.186688
511.808422	0.186523
512.025977	0.186934
512.243515	0.186189
512.461034	0.186637
512.678536	0.187160
512.896018	0.187938
513.113483	0.188379
513.330930	0.187545
513.548358	0.187869
513.765768	0.188731
513.983160	0.188648
514.200533	0.189525
514.417889	0.188982
514.635226	0.189554
514.852545	0.188879
515.069845	0.188361
515.287128	0.189021
515.504392	0.189106
515.721638	0.188718
515.938866	0.189307
516.156075	0.189402
516.373267	0.189955
516.590440	0.190282
516.807594	0.190657
517.024731	0.191675
517.241850	0.192362
517.458950	0.192733
517.676032	0.193177
517.893095	0.192507
518.110141	0.192691
518.327168	0.193256
518.544177	0.193456
518.761168	0.193438
518.978141	0.193036
519.195095	0.193103
519.412031	0.193200
519.628949	0.192516
519.845849	0.193714
520.062731	0.194679
520.279594	0.194259
520.496439	0.193897
520.713266	0.194115
520.930074	0.195094
521.146865	0.195331
521.363637	0.195726
521.580391	0.197071
521.797127	0.197289
522.013844	0.197315
522.230543	0.198258
522.447224	0.199060
522.663887	0.199573
522.880532	0.198950
523.097158	0.199044
523.313766	0.198742
523.530356	0.198658
523.746928	0.198817
523.963481	0.199120
524.180017	0.199192
524.396534	0.199904
524.613032	0.200337
524.829513	0.200728
525.045975	0.201251
525.262420	0.201978
525.478845	0.202280
525.695253	0.202561
525.911643	0.202750
526.128014	0.202952
526.344367	0.202981
526.560702	0.203577
526.777018	0.204103
526.993316	0.204401
527.209597	0.204203
527.425858	0.204336
527.642102	0.204942
527.858328	0.205465
528.074535	0.206215
528.290724	0.206434
528.506894	0.205931
528.723047	0.206261
528.939181	0.206355
529.155297	0.207132
529.371395	0.207662
529.587475	0.207358
529.803536	0.206875
530.019579	0.206963
530.235604	0.207417
530.451611	0.208900
530.667600	0.209884
530.883570	0.210366
531.099522	0.210453
531.315456	0.210638
531.531372	0.210890
531.747269	0.211543
531.963148	0.212017
532.179009	0.212092
532.394852	0.211618
532.610676	0.211211
532.826482	0.210985
533.042271	0.211046
533.258040	0.211671
533.473792	0.212202
533.689525	0.212738
533.905240	0.212885
534.120937	0.213352
534.336616	0.213551
534.552277	0.214079
534.767919	0.215207
534.983543	0.215977
535.199149	0.216653
535.414736	0.216842
535.630306	0.217141
535.845857	0.217450
536.061390	0.217956
536.276904	0.218093
536.492401	0.218377
536.707879	0.218352
536.923339	0.218347
537.138781	0.218254
537.354204	0.218933
537.569610	0.219025
537.784997	0.219148
538.000366	0.219008
538.215716	0.220285
538.431049	0.220422
538.646363	0.220258
538.861659	0.220984
539.076937	0.221118
539.292196	0.220655
539.507438	0.221043
539.722661	0.221856
539.937866	0.222152
540.153052	0.221501
540.368221	0.222426
540.583371	0.223203
540.798503	0.223684
541.013617	0.224028
541.228712	0.224691
541.443789	0.225396
541.658848	0.225377
541.873889	0.225955
542.088912	0.227049
542.303916	0.227040
542.518902	0.227245
542.733870	0.227246
542.948820	0.227490
543.163752	0.228329
543.378665	0.228279
543.593560	0.228581
543.808437	0.228993
544.023295	0.228733
544.238136	0.229001
544.452958	0.229308
544.667762	0.229846
544.882548	0.230411
545.097315	0.229965
545.312064	0.229704
545.526795	0.229993
545.741508	0.229752
545.956203	0.230064
546.170879	0.230522
546.385537	0.231062
546.600177	0.230999
546.814799	0.230652
547.029402	0.231216
547.243988	0.232197
547.458555	0.232405
547.673103	0.232742
547.887634	0.233624
548.102146	0.233552
548.316640	0.233880
548.531116	0.234336
548.745574	0.234995
548.960013	0.235509
549.174435	0.236087
549.388838	0.236258
549.603222	0.236674
549.817589	0.236589
550.031937	0.236628
550.246267	0.236739
550.460579	0.236678
550.674873	0.237292
550.889148	0.237526
551.103405	0.237436
551.317644	0.238013
551.531865	0.238131
551.746068	0.238452
551.960252	0.238909
552.174418	0.238902
552.388566	0.239103
552.602696	0.238888
552.816807	0.239287
553.030900	0.239770
553.244975	0.239896
553.459032	0.240062
553.673070	0.239918
553.887091	0.240086
554.101093	0.240628
554.315077	0.241033
554.529042	0.241671
554.742990	0.241508
554.956919	0.241547
555.170830	0.241538
555.384722	0.242109
555.598597	0.242292
555.812453	0.242467
556.026291	0.241930
556.240111	0.241916
556.453913	0.241762
556.667696	0.242191
556.881461	0.242171
557.095208	0.242584
557.308937	0.242980
557.522647	0.243723
557.736339	0.244276
557.950013	0.245089
558.163669	0.245758
558.377307	0.245929
558.590926	0.246119
558.804527	0.246388
559.018110	0.246329
559.231675	0.246543
559.445221	0.246215
559.658749	0.246229
559.872259	0.246465
560.085751	0.246419
560.299225	0.246913
560.512680	0.247029
560.726117	0.247565
560.939536	0.248497
561.152937	0.248499
561.366319	0.249063
561.579683	0.249071
561.793029	0.249632
562.006357	0.250054
562.219667	0.250020
562.432958	0.250258
562.646231	0.250435
562.859486	0.249933
563.072723	0.250483
563.285941	0.250716
563.499141	0.251100
563.712323	0.251059
563.925487	0.251386
564.138632	0.251801
564.351760	0.252299
564.564869	0.252348
564.777960	0.252820
564.991032	0.252919
565.204087	0.253100
565.417123	0.253868
565.630141	0.253713
565.843140	0.253587
566.056122	0.253492
566.269085	0.253324
566.482030	0.253705
566.694957	0.253632
566.907866	0.253902
567.120756	0.253666
567.333628	0.253438
567.546482	0.253856
567.759318	0.254094
567.972135	0.254587
568.184935	0.254610
568.397716	0.254516
568.610478	0.254957
568.823223	0.255029
569.035949	0.255732
569.248657	0.255834
569.461347	0.255709
569.674019	0.255880
569.886672	0.255590
570.099308	0.256219
570.311925	0.256388
570.524523	0.256607
570.737104	0.256422
570.949666	0.256480
571.162210	0.256401
571.374736	0.256727
571.587244	0.256836
571.799733	0.257681
572.012205	0.257422
572.224658	0.257751
572.437092	0.257978
572.649509	0.258444
572.861907	0.258437
573.074287	0.258680
573.286649	0.259166
573.498993	0.259523
573.711318	0.259659
573.923625	0.260028
574.135914	0.260521
574.348185	0.260607
574.560438	0.260784
574.772672	0.260967
574.984888	0.261169
575.197086	0.261050
575.409266	0.261400
575.621427	0.261446
575.833570	0.261937
576.045695	0.261634
576.257802	0.261836
576.469890	0.262087
576.681961	0.262434
576.894013	0.262805
577.106046	0.262919
577.318062	0.262951
577.530059	0.262976
577.742039	0.263089
577.954000	0.263071
578.165942	0.263102
578.377867	0.263429
578.589773	0.263714
578.801661	0.264060
579.013531	0.264494
579.225382	0.264962
579.437216	0.265177
579.649031	0.265722
579.860828	0.266432
580.072606	0.266584
580.284367	0.266842
580.496109	0.266923
580.707833	0.267383
580.919539	0.267153
581.131227	0.266676
581.342896	0.266857
581.554547	0.266717
581.766180	0.266855
581.977795	0.267206
582.189391	0.267252
582.400969	0.267247
582.612529	0.267027
582.824071	0.267905
583.035595	0.268352
583.247100	0.268426
583.458587	0.268915
583.670056	0.268869
583.881506	0.268898
584.092939	0.269014
584.304353	0.269509
584.515749	0.270044
584.727127	0.269952
584.938486	0.270412
585.149828	0.270902
585.361151	0.270851
585.572456	0.271088
585.783742	0.271692
585.995011	0.271841
586.206261	0.272223
586.417493	0.272138
586.628706	0.272048
586.839902	0.272012
587.051079	0.272065
587.262238	0.272273
587.473379	0.272636
587.684502	0.272496
587.895606	0.272809
588.106692	0.272975
588.317760	0.272999
588.528810	0.273743
588.739841	0.273800
588.950855	0.274139
589.161850	0.274041
589.372827	0.274484
589.583785	0.275207
589.794726	0.275383
590.005648	0.275240
590.216552	0.275534
590.427437	0.275818
590.638305	0.276295
590.849154	0.276411
591.059985	0.276799
591.270798	0.276646
591.481592	0.276379
591.692369	0.276847
591.903127	0.277610
592.113867	0.278043
592.324588	0.278461
592.535292	0.278785
592.745977	0.278856
592.956644	0.279078
593.167293	0.279453
593.377923	0.279423
593.588536	0.279471
593.799130	0.279353
594.009706	0.279569
594.220263	0.279116
594.430803	0.279197
594.641324	0.279446
594.851827	0.279677
595.062312	0.279905
595.272778	0.280628
595.483227	0.280708
595.693657	0.280859
595.904069	0.281081
596.114462	0.281299
596.324838	0.281339
596.535195	0.281800
596.745534	0.281956
596.955855	0.281895
597.166157	0.281949
597.376441	0.282296
597.586707	0.282477
597.796955	0.282483
598.007185	0.282853
598.217396	0.283189
598.427589	0.283066
598.637764	0.283050
598.847921	0.283516
599.058060	0.283581
599.268180	0.283635
599.478282	0.283964
599.688366	0.284501
599.898431	0.284657
600.108479	0.284867
600.318508	0.285135
600.528519	0.285626
600.738511	0.285681
600.948486	0.286127
601.158442	0.286537
601.368380	0.286751
601.578300	0.286222
601.788202	0.286183
601.998085	0.286206
602.207950	0.286285
602.417797	0.286334
602.627626	0.286563
602.837436	0.286781
603.047228	0.286994
603.257002	0.287099
603.466758	0.287791
603.676496	0.288325
603.886215	0.288522
604.095916	0.289201
604.305599	0.289453
604.515264	0.289550
604.724910	0.289284
604.934538	0.289111
605.144148	0.289153
605.353740	0.289274
605.563314	0.289241
605.772869	0.289608
605.982406	0.289428
606.191925	0.289491
606.401425	0.289683
606.610908	0.290102
606.820372	0.290427
607.029818	0.290445
607.239246	0.290474
607.448655	0.290639
607.658047	0.290783
607.867420	0.290825
608.076775	0.290835
608.286111	0.291114
608.495430	0.291246
608.704730	0.291459
608.914012	0.291809
609.123275	0.292089
609.332521	0.292356
609.541748	0.292429
609.750957	0.292710
609.960148	0.293100
610.169321	0.293333
610.378475	0.293564
610.587611	0.293435
610.796729	0.293684
611.005829	0.293745
611.214910	0.294144
611.423974	0.294111
611.633019	0.294400
611.842045	0.294694
612.051054	0.295013
612.260044	0.295288
612.469017	0.295734
612.677970	0.295849
612.886906	0.296021
613.095824	0.296025
613.304723	0.296411
613.513604	0.296551
613.722467	0.296692
613.931311	0.296326
614.140138	0.296381
614.348946	0.296408
614.557736	0.296420
614.766507	0.296632
614.975261	0.297014
615.183996	0.297291
615.392713	0.297205
615.601412	0.296982
615.810092	0.297238
616.018754	0.297541
616.227399	0.297619
616.436024	0.297938
616.644632	0.298039
616.853222	0.297873
617.061793	0.298007
617.270346	0.298456
617.478880	0.299119
617.687397	0.299460
617.895895	0.299454
618.104375	0.299656
618.312837	0.300048
618.521281	0.300587
618.729706	0.300960
618.938113	0.301294
619.146502	0.301474
619.354873	0.301310
619.563226	0.301475
619.771560	0.301722
619.979876	0.302092
620.188174	0.302108
620.396453	0.301993
620.604715	0.301866
620.812958	0.301807
621.021183	0.302175
621.229390	0.302426
621.437578	0.302290
621.645748	0.302420
621.853900	0.302534
622.062034	0.302896
622.270150	0.303071
622.478247	0.303282
622.686326	0.303489
622.894387	0.303453
623.102430	0.303731
623.310454	0.304265
623.518461	0.304517
623.726449	0.304527
623.934418	0.304488
624.142370	0.304761
624.350303	0.305116
624.558218	0.305279
624.766115	0.305447
624.973994	0.305315
625.181855	0.305640
625.389697	0.305565
625.597521	0.305873
625.805327	0.306056
626.013114	0.306119
626.220883	0.306255
626.428634	0.306516
626.636367	0.306818
626.844082	0.307157
627.051778	0.307046
627.259457	0.307489
627.467117	0.307891
627.674758	0.308060
627.882382	0.308514
628.089987	0.308809
628.297574	0.308954
628.505143	0.308900
628.712694	0.308971
628.920226	0.309456
629.127740	0.309681
629.335236	0.309477
629.542714	0.309474
629.750174	0.309537
629.957615	0.309495
630.165038	0.309341
630.372443	0.309620
630.579829	0.310114
630.787198	0.309980
630.994548	0.310006
631.201880	0.310678
631.409194	0.311123
631.616489	0.310908
631.823766	0.311332
632.031025	0.311681
632.238266	0.312184
632.445489	0.312282
632.652693	0.312501
632.859879	0.312615
633.067047	0.312533
633.274197	0.312512
633.481329	0.312907
633.688442	0.313007
633.895537	0.313322
634.102614	0.313168
634.309672	0.313184
634.516713	0.313238
634.723735	0.313426
634.930739	0.313557
635.137724	0.314137
635.344692	0.314654
635.551641	0.314741
635.758572	0.314902
635.965485	0.315166
636.172379	0.315466
636.379256	0.315856
636.586114	0.316176
636.792954	0.316542
636.999775	0.316280
637.206579	0.316079
637.413364	0.316245
637.620131	0.316451
637.826880	0.316774
638.033610	0.316906
638.240323	0.317126
638.447017	0.317266
638.653692	0.317427
638.860350	0.317704
639.066990	0.317999
639.273611	0.318070
639.480214	0.318211
639.686798	0.318300
639.893365	0.318528
640.099913	0.318725
640.306443	0.319113
640.512955	0.318773
640.719449	0.319074
640.925924	0.319153
641.132381	0.319671
641.338820	0.319964
641.545241	0.320064
641.751644	0.320197
641.958028	0.320401
642.164394	0.320324
642.370742	0.321082
642.577071	0.321372
642.783383	0.321739
642.989676	0.321582
643.195951	0.321837
643.402207	0.322114
643.608446	0.322472
643.814666	0.322810
644.020868	0.323257
644.227052	0.323282
644.433218	0.323362
644.639365	0.323570
644.845494	0.324041
645.051605	0.324247
645.257698	0.324216
645.463772	0.324433
645.669828	0.324425
645.875866	0.324497
646.081886	0.324577
646.287888	0.324589
646.493871	0.324526
646.699836	0.324670
646.905783	0.324606
647.111712	0.324975
647.317622	0.324974
647.523514	0.325331
647.729388	0.325314
647.935244	0.325698
648.141082	0.326367
648.346901	0.326808
648.552702	0.326974
648.758485	0.327538
648.964250	0.327689
649.169996	0.328066
649.375724	0.328175
649.581434	0.328473
649.787126	0.328654
649.992800	0.328514
650.198455	0.328668
650.404092	0.328708
650.609711	0.328875
650.815311	0.328924
651.020894	0.328971
651.226458	0.329181
651.432004	0.329707
651.637532	0.329690
651.843041	0.329924
652.048532	0.329944
652.254006	0.330217
652.459460	0.330557
652.664897	0.330758
652.870315	0.330974
653.075716	0.331225
653.281097	0.331179
653.486461	0.331780
653.691807	0.331719
653.897134	0.332082
654.102443	0.332589
654.307734	0.332155
654.513006	0.332467
654.718261	0.332609
654.923497	0.332704
655.128715	0.333242
655.333915	0.333244
655.539096	0.333667
655.744259	0.333915
655.949404	0.333925
656.154531	0.334757
656.359640	0.334810
656.564730	0.335183
656.769802	0.335577
656.974856	0.335496
657.179892	0.335848
657.384909	0.336125
657.589908	0.336306
657.794889	0.336563
657.999852	0.336196
658.204797	0.336617
658.409723	0.336797
658.614631	0.336923
658.819521	0.337222
659.024393	0.337214
659.229246	0.337442
659.434081	0.337728
659.638898	0.337880
659.843697	0.338241
660.048478	0.338681
660.253240	0.338742
660.457984	0.339044
660.662710	0.339138
660.867417	0.339620
661.072107	0.340059
661.276778	0.340236
661.481431	0.340383
661.686066	0.340860
661.890682	0.340910
662.095281	0.341215
662.299861	0.341141
662.504422	0.341270
662.708966	0.341148
662.913491	0.341197
663.117999	0.341501
663.322488	0.341914
663.526958	0.341791
663.731411	0.341908
663.935845	0.342055
664.140261	0.342484
664.344659	0.342573
664.549038	0.342658
664.753400	0.343102
664.957743	0.343533
665.162068	0.343614
665.366375	0.343776
665.570663	0.344281
665.774933	0.344816
665.979185	0.344869
666.183419	0.345482
666.387635	0.345995
666.591832	0.345894
666.796011	0.345813
667.000172	0.346144
667.204315	0.346510
667.408439	0.346537
667.612545	0.346481
667.816634	0.346601
668.020703	0.346705
668.224755	0.346891
668.428788	0.347022
668.632803	0.347207
668.836800	0.347548
669.040779	0.347774
669.244739	0.347938
669.448681	0.348358
669.652605	0.348738
669.856511	0.348990
670.060399	0.349106
670.264268	0.349465
670.468119	0.349771
670.671952	0.349603
670.875767	0.349924
671.079563	0.350144
671.283341	0.350326
671.487101	0.350590
671.690843	0.350812
671.894567	0.350966
672.098272	0.351340
672.301959	0.351525
672.505628	0.351863
672.709278	0.352226
672.912911	0.352487
673.116525	0.352640
673.320121	0.352778
673.523699	0.352876
673.727258	0.353329
673.930799	0.353515
674.134322	0.353697
674.337827	0.354178
674.541314	0.354093
674.744782	0.354342
674.948232	0.354541
675.151664	0.355043
675.355078	0.355303
675.558474	0.355633
675.761851	0.355583
675.965210	0.356037
676.168551	0.355924
676.371873	0.356568
676.575178	0.356773
676.778464	0.357029
676.981732	0.356968
677.184981	0.357192
677.388213	0.357075
677.591426	0.357470
677.794621	0.357871
677.997798	0.358102
678.200956	0.358144
678.404097	0.358250
678.607219	0.358435
678.810323	0.358612
679.013408	0.358760
679.216476	0.359217
679.419525	0.359654
679.622556	0.359641
679.825569	0.359962
680.028563	0.360112
680.231540	0.360425
680.434498	0.360794
680.637438	0.361236
680.840359	0.361540
681.043263	0.361982
681.246148	0.361819
681.449015	0.361688
681.651864	0.361920
681.854694	0.362013
682.057506	0.362306
682.260301	0.362446
682.463076	0.362629
682.665834	0.362719
682.868573	0.362704
683.071295	0.362776
683.273998	0.363223
683.476682	0.363522
683.679349	0.363827
683.881997	0.364017
684.084627	0.364277
684.287239	0.364200
684.489833	0.364583
684.692408	0.364879
684.894965	0.365339
685.097504	0.365345
685.300025	0.365446
685.502527	0.365762
685.705012	0.365909
685.907478	0.366214
686.109925	0.366730
686.312355	0.366836
686.514766	0.367296
686.717159	0.367634
686.919534	0.368127
687.121891	0.368508
687.324230	0.368916
687.526550	0.369387
687.728852	0.369582
687.931136	0.369658
688.133401	0.370007
688.335649	0.369911
688.537878	0.370040
688.740089	0.370304
688.942281	0.370548
689.144456	0.370430
689.346612	0.370254
689.548750	0.370196
689.750870	0.370590
689.952971	0.370787
690.155055	0.371155
690.357120	0.371190
690.559167	0.371307
690.761195	0.371444
690.963206	0.371757
691.165198	0.372065
691.367172	0.372276
691.569128	0.372033
691.771065	0.372108
691.972984	0.372151
692.174885	0.372313
692.376768	0.372446
692.578633	0.372436
692.780479	0.372711
692.982308	0.372963
693.184118	0.373265
693.385909	0.373633
693.587683	0.373702
693.789438	0.373798
693.991175	0.374046
694.192894	0.374111
694.394595	0.374318
694.596277	0.374246
694.797941	0.374148
694.999587	0.374540
695.201215	0.374793
695.402824	0.375084
695.604416	0.375343
695.805989	0.375579
696.007543	0.375667
696.209080	0.375881
696.410598	0.376230
696.612099	0.376562
696.813580	0.376472
697.015044	0.376627
697.216490	0.376694
697.417917	0.376946
697.619326	0.376930
697.820717	0.377186
698.022089	0.377139
698.223444	0.377402
698.424780	0.377646
698.626098	0.377975
698.827397	0.378330
699.028679	0.378757
699.229942	0.378710
699.431187	0.379077
699.632414	0.379461
699.833622	0.379761
700.034813	0.379822
700.235985	0.379838
700.437139	0.379832
700.638274	0.379836
700.839392	0.380087
701.040491	0.380358
701.241572	0.380645
701.442635	0.381061
701.643679	0.381190
701.844706	0.381334
702.045714	0.381604
702.246704	0.381732
702.447675	0.381849
702.648629	0.381945
702.849564	0.381884
703.050481	0.381996
703.251380	0.381721
703.452260	0.382027
703.653122	0.382017
703.853966	0.382076
704.054792	0.381897
704.255600	0.381969
704.456389	0.381789
704.657160	0.381795
704.857913	0.381743
705.058648	0.381611
705.259365	0.381566
705.460063	0.381467
705.660743	0.381623
705.861405	0.381828
706.062048	0.381934
706.262674	0.381961
706.463281	0.382351
706.663870	0.382187
706.864441	0.382147
707.064993	0.382259
707.265527	0.382422
707.466043	0.382593
707.666541	0.382794
707.867021	0.383087
708.067482	0.383263
708.267925	0.383294
708.468350	0.383630
708.668757	0.383857
708.869145	0.384048
709.069516	0.384331
709.269868	0.384214
709.470201	0.384419
709.670517	0.384441
709.870814	0.384765
710.071093	0.384600
710.271354	0.384548
710.471597	0.384967
710.671821	0.385147
710.872028	0.385061
711.072216	0.385231
711.272385	0.385259
711.472537	0.384961
711.672670	0.384687
711.872785	0.384781
712.072882	0.384998
712.272961	0.384738
712.473021	0.384720
712.673063	0.384808
712.873087	0.384768
713.073093	0.384599
713.273081	0.385017
713.473050	0.384975
713.673001	0.384884
713.872934	0.384724
714.072849	0.384857
714.272745	0.384872
714.472623	0.384930
714.672483	0.385030
714.872325	0.385251
715.072148	0.385058
715.271954	0.385387
715.471741	0.385491
715.671509	0.385546
715.871260	0.385655
716.070992	0.385518
716.270707	0.385285
716.470403	0.385113
716.670080	0.385102
716.869740	0.384793
717.069381	0.384820
717.269004	0.384931
717.468609	0.384784
717.668195	0.384699
717.867764	0.384481
718.067314	0.384298
718.266846	0.384352
718.466360	0.384287
718.665855	0.384404
718.865332	0.384148
719.064791	0.383817
719.264232	0.383696
719.463655	0.383362
719.663059	0.383326
719.862445	0.383437
720.061813	0.383294
720.261163	0.382991
720.460494	0.383003
720.659807	0.382803
720.859102	0.382907
721.058379	0.382963
721.257638	0.383198
721.456878	0.383321
721.656100	0.383550
721.855304	0.383454
722.054490	0.383718
722.253657	0.383783
722.452806	0.383644
722.651937	0.383586
722.851050	0.383875
723.050145	0.383838
723.249221	0.383920
723.448279	0.383939
723.647319	0.383942
723.846340	0.383781
724.045344	0.383752
724.244329	0.383871
724.443296	0.383808
724.642245	0.383589
724.841175	0.383565
725.040088	0.383323
725.238982	0.383109
725.437857	0.383264
725.636715	0.383076
725.835554	0.383161
726.034376	0.383157
726.233179	0.383284
726.431963	0.383144
726.630730	0.382891
726.829478	0.382793
727.028208	0.382628
727.226920	0.382389
727.425614	0.382205
727.624289	0.382073
727.822946	0.382233
728.021585	0.382105
728.220206	0.382019
728.418808	0.382039
728.617392	0.382003
728.815958	0.382073
729.014506	0.381822
729.213036	0.381977
729.411547	0.381793
729.610040	0.381531
729.808515	0.381443
730.006972	0.381461
730.205410	0.381072
730.403831	0.380988
730.602233	0.380841
730.800616	0.380779
730.998982	0.380481
731.197329	0.380216
731.395658	0.379811
731.593969	0.379198
731.792262	0.379000
731.990536	0.379200
732.188793	0.379139
732.387031	0.378858
732.585250	0.378829
732.783452	0.378597
732.981635	0.378530
733.179800	0.378215
733.377947	0.378280
733.576076	0.378197
733.774186	0.377957
733.972278	0.377578
734.170352	0.377352
734.368408	0.377327
734.566446	0.377440
734.764465	0.377170
734.962466	0.377238
735.160449	0.377200
735.358413	0.376787
735.556360	0.376692
735.754288	0.376393
735.952198	0.376627
736.150090	0.376136
736.347963	0.375776
736.545818	0.375765
736.743655	0.375411
736.941474	0.375230
737.139275	0.375312
737.337057	0.375232
737.534821	0.375096
737.732567	0.374489
737.930295	0.374211
738.128005	0.374030
738.325696	0.373644
738.523369	0.373791
738.721024	0.373506
738.918660	0.373170
739.116279	0.372818
739.313879	0.373086
739.511461	0.373250
739.709024	0.373310
739.906570	0.373292
740.104097	0.373282
740.301606	0.373126
740.499097	0.373282
740.696569	0.373032
740.894024	0.372666
741.091460	0.372221
741.288878	0.371602
741.486277	0.371531
741.683659	0.371574
741.881022	0.371297
742.078367	0.371178
742.275694	0.370959
742.473002	0.370911
742.670293	0.370838
742.867565	0.370820
743.064819	0.371022
743.262054	0.370935
743.459272	0.370348
743.656471	0.370245
743.853652	0.370062
744.050815	0.369653
744.247959	0.369506
744.445085	0.369168
744.642194	0.368875
744.839283	0.368788
745.036355	0.368315
745.233408	0.368187
745.430444	0.367938
745.627461	0.367686
745.824459	0.367512
746.021440	0.367507
746.218402	0.367517
746.415346	0.367251
746.612272	0.367063
746.809180	0.366984
747.006069	0.367064
747.202940	0.367045
747.399793	0.366923
747.596628	0.367085
747.793444	0.366594
747.990243	0.366376
748.187023	0.366024
748.383784	0.365727
748.580528	0.365554
748.777253	0.365322
748.973960	0.365123
749.170649	0.364842
749.367320	0.364349
749.563973	0.364306
749.760607	0.364229
749.957223	0.364027
750.153821	0.363725
750.350400	0.363331
750.546962	0.363158
750.743505	0.363017
750.940030	0.362721
751.136536	0.362403
751.333025	0.362177
751.529495	0.361851
751.725947	0.361677
751.922381	0.361657
752.118796	0.361652
752.315194	0.361446
752.511573	0.360933
752.707934	0.360718
752.904276	0.360861
753.100601	0.360837
753.296907	0.360515
753.493195	0.360569
753.689465	0.360136
753.885716	0.360082
754.081949	0.360105
754.278164	0.359958
754.474361	0.359877
754.670540	0.359624
754.866700	0.359117
755.062843	0.359109
755.258967	0.358912
755.455072	0.358650
755.651160	0.358587
755.847229	0.358035
756.043280	0.358106
756.239313	0.357854
756.435328	0.357739
756.631324	0.357770
756.827302	0.357607
757.023262	0.357494
757.219204	0.357766
757.415127	0.357626
757.611033	0.357456
757.806920	0.357237
758.002788	0.357131
758.198639	0.356779
758.394471	0.356229
758.590286	0.356005
758.786081	0.356011
758.981859	0.355479
759.177619	0.354947
759.373360	0.354948
759.569083	0.354470
759.764788	0.354181
759.960474	0.354262
760.156143	0.354562
760.351793	0.354757
760.547425	0.354501
760.743038	0.354325
760.938634	0.354444
761.134211	0.354297
761.329770	0.354217
761.525311	0.354430
761.720833	0.354187
761.916338	0.353982
762.111824	0.353621
762.307292	0.353199
762.502741	0.353251
762.698173	0.353195
762.893586	0.352886
763.088981	0.353329
763.284358	0.353078
763.479716	0.352810
763.675057	0.352393
763.870379	0.351796
764.065683	0.351761
764.260968	0.351793
764.456236	0.351373
764.651485	0.351316
764.846716	0.350823
765.041929	0.350787
765.237123	0.350748
765.432299	0.350859
765.627457	0.351111
765.822597	0.350941
766.017719	0.350503
766.212822	0.350482
766.407907	0.350488
766.602974	0.350424
766.798023	0.350116
766.993054	0.350033
767.188066	0.350095
767.383060	0.350133
767.578036	0.349975
767.772993	0.349813
767.967933	0.349641
768.162854	0.349472
768.357757	0.349063
768.552642	0.348883
768.747508	0.348806
768.942356	0.348439
769.137186	0.348042
769.331998	0.348093
769.526792	0.348450
769.721567	0.348433
769.916324	0.348535
770.111063	0.348777
770.305784	0.349083
770.500486	0.348944
770.695171	0.348986
770.889837	0.349163
771.084484	0.349431
771.279114	0.349039
771.473725	0.349023
771.668318	0.348744
771.862893	0.348518
772.057450	0.347974
772.251988	0.348003
772.446509	0.347595
772.641011	0.347425
772.835494	0.347014
773.029960	0.346773
773.224407	0.346582
773.418836	0.346650
773.613247	0.346330
773.807640	0.346474
774.002014	0.346295
774.196370	0.346485
774.390708	0.346696
774.585028	0.346533
774.779330	0.346569
774.973613	0.346560
775.167878	0.346040
775.362125	0.346249
775.556354	0.345813
775.750564	0.345352
775.944756	0.345267
776.138930	0.344679
776.333086	0.344686
776.527223	0.344802
776.721343	0.344692
776.915444	0.344859
777.109526	0.344742
777.303591	0.345096
777.497637	0.345165
777.691666	0.345072
777.885676	0.345077
778.079667	0.344720
778.273641	0.344426
778.467596	0.344209
778.661533	0.344246
778.855452	0.343825
779.049352	0.343222
779.243235	0.343199
779.437099	0.343157
779.630945	0.343259
779.824773	0.343179
780.018582	0.343197
780.212373	0.343165
780.406146	0.343043
780.599901	0.343277
780.793638	0.343742
780.987356	0.343835
781.181056	0.343843
781.374738	0.343616
781.568402	0.343872
781.762047	0.343735
781.955674	0.343964
782.149283	0.343657
782.342874	0.343585
782.536447	0.343201
782.730001	0.343102
782.923537	0.343249
783.117055	0.343522
783.310555	0.343398
783.504036	0.343427
783.697499	0.343215
783.890944	0.343564
784.084371	0.343596
784.277780	0.343683
784.471170	0.343887
784.664542	0.343468
784.857896	0.343242
785.051231	0.343485
785.244549	0.343473
785.437848	0.343652
785.631129	0.343539
785.824392	0.343607
786.017636	0.343897
786.210863	0.343832
786.404071	0.344033
786.597260	0.343994
786.790432	0.343835
786.983585	0.343719
787.176721	0.343527
787.369838	0.343253
787.562936	0.343359
787.756017	0.343384
787.949079	0.343425
788.142123	0.343596
788.335149	0.343740
788.528156	0.343861
788.721146	0.344037
788.914117	0.343903
789.107070	0.344264
789.300005	0.344096
789.492921	0.343806
789.685819	0.343782
789.878699	0.343590
790.071561	0.343681
790.264405	0.343678
790.457230	0.343677
790.650037	0.343972
790.842826	0.343955
791.035597	0.344264
791.228349	0.344711
791.421084	0.344707
791.613800	0.344779
791.806497	0.345009
791.999177	0.344827
792.191838	0.344827
792.384481	0.344959
792.577106	0.344903
792.769713	0.344749
792.962301	0.344579
793.154871	0.344470
793.347423	0.344559
793.539957	0.344648
793.732473	0.345144
793.924970	0.345338
794.117449	0.345312
794.309910	0.345448
794.502353	0.345773
794.694777	0.345947
794.887183	0.346281
795.079571	0.345987
795.271941	0.345909
795.464293	0.345560
795.656626	0.345562
795.848941	0.345534
796.041238	0.345745
796.233516	0.345543
796.425777	0.345496
796.618019	0.345522
796.810243	0.346184
797.002449	0.346214
797.194636	0.346277
797.386805	0.346545
797.578956	0.346841
797.771089	0.346697
797.963204	0.346636
798.155300	0.346574
798.347378	0.346789
798.539438	0.346599
798.731480	0.346862
798.923503	0.347050
799.115509	0.346745
799.307496	0.346893
799.499465	0.346861
799.691415	0.347217
799.883348	0.347468
800.075262	0.347332
800.267158	0.347720
800.459035	0.347538
800.650895	0.347703
800.842736	0.348052
801.034559	0.347890
801.226364	0.348401
801.418150	0.348563
801.609919	0.348662
801.801669	0.348934
801.993401	0.348841
802.185114	0.349050
802.376810	0.349199
802.568487	0.349652
802.760146	0.349824
802.951787	0.349975
803.143409	0.350001
803.335014	0.350014
803.526600	0.350032
803.718168	0.350273
803.909717	0.350550
804.101249	0.350620
804.292762	0.350533
804.484257	0.350781
804.675734	0.350934
804.867192	0.351179
805.058632	0.351671
805.250054	0.351996
805.441458	0.352038
805.632844	0.351988
805.824211	0.352578
806.015561	0.352971
806.206891	0.353347
806.398204	0.353389
806.589499	0.353859
806.780775	0.354065
806.972033	0.354098
807.163273	0.354466
807.354495	0.354789
807.545698	0.355133
807.736883	0.355174
807.928050	0.355207
808.119199	0.355674
808.310329	0.355721
808.501441	0.356081
808.692535	0.356464
808.883611	0.356405
809.074669	0.356546
809.265708	0.356644
809.456729	0.356647
809.647732	0.357006
809.838717	0.357042
810.029683	0.357326
810.220632	0.357537
810.411562	0.357919
810.602474	0.358224
810.793367	0.358616
810.984242	0.358885
811.175100	0.359578
811.365938	0.359814
811.556759	0.360341
811.747562	0.360315
811.938346	0.360561
812.129112	0.360504
812.319860	0.360915
812.510589	0.361393
812.701300	0.361230
812.891994	0.361165
813.082668	0.361142
813.273325	0.361119
813.463964	0.361565
813.654584	0.361644
813.845186	0.361977
814.035769	0.362223
814.226335	0.362000
814.416882	0.362115
814.607411	0.362039
814.797922	0.362327
814.988415	0.362795
815.178889	0.362876
815.369345	0.363056
815.559783	0.363204
815.750203	0.363258
815.940605	0.363801
816.130988	0.364012
816.321353	0.364466
816.511700	0.364738
816.702028	0.364939
816.892339	0.365317
817.082631	0.365753
817.272905	0.365999
817.463161	0.366550
817.653398	0.366817
817.843617	0.367514
818.033819	0.367958
818.224001	0.368614
818.414166	0.368389
818.604312	0.368532
818.794440	0.368530
818.984550	0.368835
819.174642	0.368964
819.364716	0.369132
819.554771	0.369305
819.744808	0.369813
819.934827	0.369665
820.124827	0.370341
820.314810	0.370597
820.504774	0.370970
820.694720	0.371152
820.884647	0.371748
821.074557	0.372128
821.264448	0.372478
821.454321	0.372504
821.644176	0.372654
821.834012	0.372830
822.023831	0.373103
822.213631	0.373206
822.403413	0.373728
822.593176	0.373623
822.782922	0.373833
822.972649	0.374245
823.162358	0.374343
823.352049	0.375164
823.541721	0.375348
823.731376	0.375807
823.921012	0.376296
824.110629	0.376614
824.300229	0.377232
824.489811	0.377677
824.679374	0.377580
824.868919	0.378017
825.058445	0.378232
825.247954	0.378782
825.437444	0.378823
825.626916	0.379071
825.816370	0.379463
826.005806	0.379637
826.195223	0.379625
826.384622	0.379879
826.574003	0.380183
826.763366	0.380170
826.952711	0.380390
827.142037	0.380738
827.331345	0.380829
827.520635	0.381207
827.709906	0.381263
827.899160	0.381737
828.088395	0.382505
828.277612	0.383171
828.466810	0.383694
828.655991	0.384429
828.845153	0.385002
829.034297	0.385606
829.223423	0.385894
829.412531	0.386549
829.601620	0.386626
829.790691	0.386629
829.979744	0.386577
830.168779	0.386814
830.357795	0.386873
830.546793	0.387121
830.735773	0.387414
830.924735	0.387453
831.113679	0.387821
831.302604	0.388657
831.491511	0.388988
831.680400	0.389608
831.869271	0.390171
832.058123	0.390125
832.246957	0.390565
832.435773	0.391013
832.624571	0.391893
832.813351	0.392127
833.002112	0.392245
833.190855	0.392885
833.379580	0.393345
833.568287	0.393752
833.756975	0.394591
833.945645	0.394925
834.134297	0.395467
834.322931	0.395688
834.511547	0.396091
834.700144	0.396880
834.888723	0.397129
835.077284	0.397252
835.265826	0.397940
835.454351	0.398296
835.642857	0.398814
835.831345	0.399232
836.019815	0.399593
836.208266	0.400152
836.396699	0.400439
836.585114	0.400897
836.773511	0.401389
836.961890	0.401424
837.150250	0.401775
837.338592	0.402146
837.526916	0.402597
837.715222	0.403097
837.903510	0.403299
838.091779	0.403400
838.280030	0.403964
838.468263	0.404346
838.656477	0.405005
838.844674	0.405480
839.032852	0.405732
839.221012	0.405875
839.409153	0.405763
839.597277	0.406118
839.785382	0.406544
839.973469	0.407106
840.161538	0.407970
840.349589	0.408504
840.537621	0.408920
840.725635	0.409532
840.913631	0.410136
841.101609	0.410700
841.289568	0.411291
841.477509	0.411488
841.665432	0.411397
841.853337	0.411289
842.041224	0.411436
842.229092	0.411978
842.416942	0.412096
842.604774	0.412484
842.792588	0.413141
842.980383	0.413262
843.168160	0.414127
843.355919	0.414717
843.543660	0.415325
843.731382	0.415336
843.919087	0.415459
844.106773	0.415888
844.294441	0.416366
844.482090	0.416293
844.669722	0.416781
844.857335	0.416973
845.044930	0.417442
845.232507	0.417731
845.420065	0.418373
845.607605	0.418641
845.795127	0.419217
845.982631	0.419215
846.170117	0.419898
846.357584	0.420756
846.545033	0.421219
846.732464	0.421788
846.919877	0.422564
847.107272	0.423123
847.294648	0.423659
847.482006	0.424134
847.669346	0.424474
847.856667	0.424799
848.043971	0.424802
848.231256	0.425267
848.418523	0.425600
848.605771	0.425613
848.793002	0.425761
848.980214	0.426193
849.167408	0.426121
849.354584	0.426836
849.541742	0.427428
849.728881	0.427661
849.916002	0.427830
850.103105	0.428211
850.290190	0.428761
850.477256	0.429269
850.664304	0.429584
850.851334	0.430150
851.038346	0.430641
851.225340	0.431203
851.412315	0.431496
851.599272	0.431857
851.786211	0.432093
851.973132	0.432371
852.160034	0.432966
852.346918	0.433174
852.533784	0.433819
852.720632	0.434334
852.907462	0.434565
853.094273	0.435336
853.281066	0.435497
853.467841	0.435888
853.654598	0.436380
853.841336	0.436501
854.028056	0.436968
854.214758	0.437486
854.401442	0.437528
854.588107	0.437706
854.774755	0.438235
854.961384	0.439020
855.147995	0.439455
855.334587	0.439651
855.521162	0.439723
855.707718	0.440103
855.894256	0.440634
856.080775	0.441270
856.267277	0.441857
856.453760	0.442103
856.640225	0.442471
856.826672	0.442555
857.013101	0.442994
857.199511	0.443301
857.385903	0.443979
857.572277	0.443855
857.758633	0.443985
857.944970	0.444276
858.131290	0.444939
858.317591	0.445448
858.503873	0.446149
858.690138	0.446575
858.876384	0.447267
859.062612	0.447678
859.248822	0.448337
859.435014	0.448975
859.621188	0.449763
859.807343	0.449866
859.993480	0.450382
860.179599	0.450634
860.365699	0.451335
860.551781	0.451501
860.737846	0.451586
860.923891	0.452140
861.109919	0.452285
861.295929	0.452800
861.481920	0.453065
861.667893	0.453258
861.853848	0.453526
862.039784	0.453717
862.225702	0.454503
862.411603	0.454853
862.597484	0.454527
862.783348	0.454581
862.969193	0.454297
863.155021	0.454598
863.340830	0.454814
863.526620	0.454851
863.712393	0.455074
863.898147	0.455128
864.083883	0.455613
864.269601	0.456491
864.455301	0.457172
864.640982	0.457780
864.826645	0.457999
865.012290	0.458412
865.197917	0.459181
865.383526	0.459319
865.569116	0.459744
865.754688	0.460141
865.940242	0.460569
866.125777	0.461011
866.311295	0.461366
866.496794	0.461927
866.682275	0.462142
866.867737	0.462447
867.053182	0.462817
867.238608	0.463546
867.424016	0.463745
867.609406	0.463722
867.794778	0.464276
867.980131	0.464124
868.165466	0.464563
868.350783	0.464987
868.536082	0.465462
868.721362	0.466083
868.906625	0.466025
869.091869	0.466351
869.277094	0.466475
869.462302	0.466435
869.647491	0.467459
869.832662	0.467752
870.017815	0.467830
870.202950	0.468127
870.388066	0.468142
870.573165	0.468416
870.758245	0.468454
870.943306	0.468684
871.128350	0.469079
871.313375	0.469248
871.498382	0.469547
871.683371	0.470247
871.868342	0.470369
872.053294	0.470737
872.238229	0.470922
872.423144	0.471424
872.608042	0.471794
872.792922	0.471738
872.977783	0.471681
873.162626	0.471566
873.347451	0.471426
873.532258	0.471831
873.717046	0.471988
873.901816	0.472238
874.086568	0.472610
874.271302	0.473448
874.456017	0.473592
874.640715	0.473970
874.825394	0.474122
875.010055	0.474461
875.194697	0.474427
875.379322	0.474234
875.563928	0.474397
875.748516	0.474153
875.933085	0.473889
876.117637	0.474065
876.302170	0.474069
876.486685	0.474352
876.671182	0.474297
876.855661	0.474569
877.040121	0.475193
877.224563	0.475363
877.408987	0.475683
877.593393	0.475702
877.777780	0.475586
877.962150	0.475558
878.146501	0.475701
878.330833	0.476318
878.515148	0.476390
878.699444	0.476256
878.883722	0.476031
879.067982	0.476192
879.252224	0.476428
879.436447	0.476773
879.620653	0.476799
879.804840	0.477299
879.989008	0.477048
880.173159	0.476993
880.357291	0.477316
880.541405	0.478086
880.725501	0.478220
880.909579	0.478519
881.093638	0.478669
881.277680	0.479030
881.461703	0.479174
881.645707	0.479237
881.829694	0.479354
882.013662	0.479444
882.197612	0.479369
882.381544	0.479559
882.565458	0.479610
882.749353	0.480196
882.933230	0.480652
883.117089	0.479885
883.300930	0.480637
883.484753	0.480679
883.668557	0.481015
883.852343	0.480782
884.036111	0.481178
884.219861	0.481144
884.403592	0.481176
884.587305	0.480789
884.771000	0.481121
884.954677	0.480427
885.138335	0.480766
885.321976	0.480494
885.505598	0.481085
885.689201	0.481013
885.872787	0.481258
886.056354	0.481350
886.239904	0.481254
886.423434	0.481613
886.606947	0.481811
886.790442	0.481836
886.973918	0.481800
887.157376	0.481549
887.340816	0.481750
887.524237	0.481295
887.707641	0.481037
887.891026	0.481393
888.074393	0.481456
888.257741	0.481814
888.441072	0.481501
888.624384	0.481856
888.807678	0.481789
888.990954	0.481469
889.174211	0.481694
889.357451	0.481338
889.540672	0.481179
889.723875	0.480790
889.907059	0.480663
890.090226	0.480935
890.273374	0.480555
890.456504	0.480423
890.639616	0.480395
890.822709	0.480030
891.005785	0.479874
891.188842	0.479743
891.371881	0.479991
891.554901	0.479830
891.737904	0.479499
891.920888	0.479313
892.103854	0.479712
892.286802	0.479605
892.469731	0.480350
892.652643	0.480449
892.835536	0.480072
893.018410	0.479777
893.201267	0.479589
893.384106	0.479756
893.566926	0.479924
893.749728	0.479503
893.932511	0.479197
894.115277	0.478384
894.298024	0.478521
894.480753	0.478418
894.663464	0.478616
894.846157	0.478632
895.028831	0.478593
895.211487	0.478692
895.394125	0.478443
895.576745	0.478145
895.759346	0.478131
895.941930	0.478017
896.124495	0.478081
896.307041	0.477448
896.489570	0.476893
896.672080	0.476322
896.854573	0.475691
897.037046	0.475190
897.219502	0.474747
897.401940	0.474476
897.584359	0.474613
897.766760	0.474506
897.949143	0.473947
898.131507	0.473683
898.313854	0.473176
898.496182	0.473036
898.678492	0.473206
898.860783	0.473201
899.043057	0.472483
899.225312	0.471273
899.407549	0.470721
899.589768	0.470949
899.771968	0.470631
899.954151	0.470726
900.136315	0.469947
900.318461	0.469493
900.500588	0.469257
900.682698	0.469205
900.864789	0.469201
901.046862	0.469176
901.228917	0.468677
901.410953	0.468888
901.592971	0.468268
901.774972	0.468321
901.956953	0.468191
902.138917	0.467683
902.320862	0.467584
902.502790	0.467486
902.684699	0.466872
902.866589	0.466921
903.048462	0.466509
903.230316	0.466377
903.412152	0.466048
903.593970	0.465583
903.775770	0.465324
903.957551	0.465165
904.139314	0.465165
904.321059	0.465079
904.502786	0.464292
904.684494	0.463399
904.866185	0.463414
905.047857	0.462983
905.229510	0.463022
905.411146	0.462539
905.592763	0.462040
905.774363	0.461249
905.955943	0.461019
906.137506	0.460765
906.319051	0.460129
906.500577	0.459123
906.682085	0.458792
906.863575	0.457870
907.045046	0.457540
907.226500	0.456750
907.407935	0.456301
907.589352	0.455644
907.770750	0.455902
907.952131	0.456302
908.133493	0.456265
908.314837	0.455599
908.496163	0.455360
908.677470	0.455138
908.858760	0.455027
909.040031	0.454361
909.221284	0.453355
909.402518	0.451881
909.583735	0.450815
909.764933	0.450340
909.946113	0.449828
910.127275	0.448809
910.308418	0.448566
910.489544	0.448353
910.670651	0.447925
910.851740	0.448061
911.032810	0.447605
911.213863	0.447310
911.394897	0.446659
911.575913	0.446797
911.756911	0.445981
911.937890	0.444530
912.118851	0.443882
912.299794	0.443135
912.480719	0.442031
912.661626	0.441499
912.842514	0.440572
913.023384	0.440431
913.204236	0.439357
913.385070	0.439290
913.565886	0.439342
913.746683	0.438939
913.927462	0.438874
914.108223	0.438334
914.288965	0.438204
914.469690	0.438279
914.650396	0.437083
914.831084	0.436986
915.011754	0.436001
915.192405	0.435692
915.373038	0.434197
915.553653	0.432951
915.734250	0.432595
915.914829	0.431083
916.095389	0.430197
916.275931	0.429727
916.456455	0.428447
916.636961	0.428571
916.817448	0.427434
916.997917	0.426576
917.178368	0.426387
917.358801	0.425593
917.539216	0.425372
917.719612	0.424085
917.899990	0.423353
918.080350	0.423092
918.260692	0.422437
918.441015	0.421384
918.621320	0.420907
918.801607	0.419627
918.981876	0.418907
919.162127	0.418999
919.342359	0.418454
919.522573	0.417629
919.702769	0.415807
919.882947	0.414671
920.063106	0.413697
920.243247	0.413140
920.423370	0.412768
920.603475	0.412220
920.783562	0.410265
920.963630	0.409728
921.143680	0.409279
921.323712	0.409465
921.503725	0.409173
921.683721	0.409288
921.863698	0.408606
922.043657	0.407952
922.223598	0.407067
922.403520	0.406737
922.583424	0.405923
922.763311	0.404701
922.943178	0.403860
923.123028	0.402536
923.302859	0.401966
923.482673	0.400580
923.662467	0.399605
923.842244	0.398927
924.022003	0.398715
924.201743	0.397892
924.381465	0.397437
924.561169	0.396299
924.740854	0.395139
924.920522	0.393273
925.100171	0.392480
925.279802	0.391176
925.459414	0.389829
925.639009	0.389037
925.818585	0.388171
925.998143	0.386952
926.177683	0.386179
926.357205	0.386258
926.536708	0.385702
926.716193	0.384899
926.895660	0.383704
927.075109	0.382887
927.254539	0.381537
927.433951	0.380815
927.613345	0.379914
927.792721	0.379388
927.972079	0.377477
928.151418	0.376572
928.330739	0.375760
928.510042	0.375631
928.689327	0.375279
928.868593	0.374060
929.047841	0.373183
929.227071	0.372067
929.406283	0.371262
929.585476	0.370189
929.764652	0.369162
929.943809	0.368929
930.122948	0.368027
930.302068	0.366629
930.481171	0.366011
930.660255	0.364397
930.839321	0.363629
931.018369	0.361978
931.197398	0.360486
931.376409	0.359264
931.555402	0.357676
931.734377	0.356751
931.913334	0.355227
932.092272	0.353748
932.271192	0.352247
932.450094	0.351595
932.628978	0.351251
932.807844	0.350087
932.986691	0.350215
933.165520	0.349483
933.344331	0.348639
933.523123	0.348433
933.701898	0.347086
933.880654	0.346545
934.059392	0.345959
934.238111	0.344971
934.416813	0.345804
934.595496	0.344033
934.774161	0.341994
934.952808	0.339594
935.131437	0.338977
935.310047	0.338502
935.488639	0.338289
935.667213	0.336869
935.845769	0.335464
936.024306	0.333415
936.202825	0.331527
936.381326	0.331670
936.559809	0.331018
936.738274	0.329387
936.916720	0.327556
937.095148	0.325664
937.273558	0.324334
937.451950	0.322678
937.630323	0.321366
937.808678	0.321010
937.987015	0.319182
938.165334	0.319311
938.343635	0.318593
938.521917	0.318343
938.700181	0.318409
938.878427	0.316203
939.056655	0.315484
939.234864	0.314624
939.413055	0.312966
939.591228	0.312625
939.769383	0.311562
939.947519	0.309255
940.125638	0.307681
940.303738	0.306326
940.481820	0.306589
940.659883	0.305323
940.837929	0.303449
941.015956	0.302604
941.193965	0.302385
941.371955	0.300337
941.549928	0.300247
941.727882	0.299234
941.905818	0.296727
942.083736	0.293895
942.261636	0.292926
942.439517	0.292421
942.617380	0.292024
942.795225	0.290468
942.973052	0.289028
943.150860	0.286504
943.328651	0.285218
943.506423	0.284266
943.684176	0.284716
943.861912	0.284525
944.039629	0.283460
944.217328	0.281295
944.395009	0.278313
944.572672	0.277076
944.750317	0.276473
944.927943	0.275882
945.105551	0.275818
945.283141	0.274080
945.460712	0.271200
945.638265	0.270474
945.815801	0.269581
945.993317	0.270158
946.170816	0.269208
946.348297	0.268019
946.525759	0.265894
946.703203	0.264135
946.880629	0.262761
947.058036	0.261256
947.235425	0.258862
947.412797	0.256610
947.590149	0.253663
947.767484	0.253058
947.944800	0.252028
948.122099	0.251095
948.299379	0.249044
948.476640	0.247311
948.653884	0.245123
948.831109	0.243996
949.008316	0.244817
949.185505	0.244115
949.362676	0.241653
949.539828	0.240993
949.716962	0.238283
949.894078	0.239030
950.071176	0.238713
950.248256	0.238247
950.425317	0.239009
950.602360	0.237277
950.779385	0.235970
950.956391	0.234615
951.133380	0.232586
951.310350	0.232446
951.487302	0.230400
951.664235	0.229599
951.841151	0.228678
952.018048	0.226390
952.194927	0.224770
952.371788	0.222336
952.548631	0.221421
952.725455	0.219921
952.902261	0.219866
953.079049	0.219686
953.255819	0.216862
953.432570	0.215611
953.609303	0.214069
953.786018	0.212887
953.962715	0.212315
954.139394	0.212187
954.316054	0.212627
954.492696	0.212607
954.669320	0.209672
954.845926	0.209427
955.022513	0.207308
955.199083	0.206239
955.375634	0.204818
955.552166	0.205435
955.728681	0.203248
955.905177	0.201692
956.081655	0.201709
956.258115	0.202561
956.434557	0.201138
956.610980	0.203023
956.787385	0.203708
956.963772	0.202914
957.140141	0.201462
957.316492	0.202001
957.492824	0.199606
957.669138	0.196756
957.845434	0.194686
958.021712	0.192441
958.197971	0.189947
958.374212	0.188301
958.550435	0.186092
958.726640	0.185638
958.902826	0.183913
959.078995	0.185579
959.255145	0.183679
959.431277	0.182517
959.607390	0.183074
959.783486	0.183916
959.959563	0.182993
960.135622	0.184912
960.311662	0.185277
960.487685	0.185902
960.663689	0.185867
960.839675	0.187201
961.015643	0.186476
961.191593	0.186497
961.367524	0.184453
961.543437	0.185047
961.719332	0.184330
961.895209	0.182270
962.071067	0.182077
962.246907	0.181034
962.422730	0.179524
962.598533	0.181080
962.774319	0.180961
962.950086	0.180740
963.125835	0.177470
963.301566	0.177005
963.477279	0.176311
963.652973	0.173928
963.828650	0.171360
964.004308	0.169330
964.179947	0.167621
964.355569	0.167943
964.531172	0.168336
964.706757	0.169293
964.882324	0.167963
965.057873	0.169709
965.233403	0.171153
965.408916	0.173593
965.584410	0.174496
965.759885	0.175224
965.935343	0.174224
966.110782	0.174935
966.286203	0.174794
966.461606	0.175892
966.636991	0.175016
966.812357	0.173194
966.987705	0.172989
967.163035	0.171094
967.338347	0.169612
967.513641	0.169686
967.688916	0.169263
967.864173	0.169826
968.039412	0.168623
968.214632	0.167401
968.389835	0.167472
968.565019	0.166936
968.740185	0.167069
968.915333	0.167636
969.090462	0.168651
969.265573	0.168416
969.440667	0.166877
969.615741	0.168755
969.790798	0.168590
969.965836	0.167352
970.140856	0.167066
970.315858	0.168793
970.490842	0.168804
970.665808	0.168391
970.840755	0.167402
971.015684	0.170464
971.190595	0.169237
971.365487	0.168102
971.540362	0.169391
971.715218	0.167832
971.890056	0.167674
972.064875	0.167883
972.239677	0.169065
972.414460	0.168950
972.589225	0.167691
972.763972	0.168324
972.938700	0.169688
973.113411	0.171640
973.288103	0.171234
973.462777	0.172026
973.637432	0.170983
973.812070	0.168359
973.986689	0.168765
974.161290	0.169488
974.335873	0.169632
974.510437	0.169937
974.684984	0.170255
974.859512	0.170305
975.034022	0.171527
975.208513	0.173301
975.382987	0.174281
975.557442	0.173952
975.731879	0.172965
975.906298	0.172739
976.080698	0.173344
976.255080	0.174070
976.429445	0.175117
976.603790	0.175315
976.778118	0.174122
976.952427	0.173221
977.126719	0.171638
977.300992	0.171209
977.475246	0.169148
977.649483	0.167468
977.823701	0.167053
977.997901	0.168392
978.172083	0.166223
978.346247	0.165589
978.520392	0.166182
978.694519	0.166555
978.868628	0.165196
979.042719	0.166264
979.216791	0.168972
979.390845	0.168092
979.564882	0.166381
979.738899	0.168334
979.912899	0.167846
980.086880	0.168583
980.260843	0.171196
980.434788	0.172236
980.608715	0.171461
980.782623	0.170436
980.956514	0.169506
981.130386	0.171193
981.304240	0.168850
981.478075	0.166977
981.651892	0.167383
981.825692	0.166211
981.999472	0.165273
982.173235	0.167344
982.346980	0.167502
982.520706	0.167840
982.694414	0.166363
982.868104	0.167673
983.041775	0.169429
983.215428	0.165704
983.389064	0.165382
983.562680	0.165504
983.736279	0.164305
983.909860	0.163388
984.083422	0.164422
984.256966	0.166766
984.430491	0.169331
984.603999	0.170625
984.777488	0.174236
984.950959	0.173775
985.124412	0.175363
985.297847	0.175099
985.471263	0.174923
985.644661	0.174814
985.818041	0.174260
985.991403	0.170186
986.164747	0.171356
986.338072	0.170740
986.511379	0.170466
986.684668	0.170661
986.857938	0.171468
987.031191	0.172092
987.204425	0.170342
987.377641	0.168501
987.550839	0.170166
987.724018	0.167254
987.897179	0.167767
988.070322	0.168624
988.243447	0.167448
988.416554	0.168053
988.589642	0.166556
988.762712	0.167082
988.935764	0.165099
989.108798	0.164344
989.281813	0.163164
989.454811	0.163140
989.627790	0.163530
989.800751	0.162863
989.973693	0.162077
990.146617	0.162660
990.319524	0.162042
990.492412	0.164996
990.665281	0.163709
990.838133	0.165487
991.010966	0.166631
991.183781	0.165944
991.356578	0.167471
991.529356	0.167766
991.702117	0.168927
991.874859	0.169058
992.047583	0.170185
992.220288	0.170766
992.392976	0.171384
992.565645	0.170573
992.738296	0.171476
992.910929	0.170975
993.083543	0.169103
993.256139	0.168964
993.428718	0.170143
993.601277	0.169690
993.773819	0.172142
993.946342	0.172589
994.118848	0.172267
994.291335	0.171100
994.463803	0.172142
994.636254	0.172928
994.808686	0.170896
994.981100	0.172164
995.153496	0.169825
995.325874	0.167691
995.498233	0.166498
995.670574	0.165968
995.842897	0.166607
996.015202	0.167103
996.187488	0.168826
996.359757	0.169652
996.532007	0.164083
996.704239	0.165181
996.876452	0.166664
997.048648	0.168282
997.220825	0.168107
997.392984	0.166606
997.565124	0.164774
997.737247	0.162049
997.909351	0.162494
998.081437	0.167293
998.253505	0.167863
998.425554	0.166716
998.597586	0.165733
998.769599	0.164736
998.941594	0.165821
999.113571	0.165703
999.285529	0.166265
999.457469	0.166313
999.629391	0.164947
999.801295	0.163471
999.973181	0.164270
1000.145048	0.163666
1000.316897	0.163685
1000.488728	0.163725
1000.660541	0.163881
1000.832335	0.164510
1001.004111	0.164901
1001.175869	0.165193
1001.347609	0.165403
1001.519331	0.166276
1001.691034	0.168134
1001.862719	0.169976
1002.034386	0.172139
1002.206035	0.172790
1002.377665	0.173030
1002.549277	0.172199
1002.720871	0.171938
1002.892447	0.172447
1003.064004	0.171974
1003.235544	0.171701
1003.407065	0.171867
1003.578568	0.168733
1003.750052	0.167340
1003.921519	0.168624
1004.092967	0.168936
1004.264397	0.168839
1004.435809	0.169962
1004.607202	0.168527
1004.778577	0.167233
1004.949934	0.165822
1005.121273	0.167742
1005.292594	0.168840
1005.463896	0.168278
1005.635180	0.170234
1005.806446	0.169850
1005.977694	0.169778
1006.148923	0.170544
1006.320135	0.170364
1006.491328	0.170207
1006.662503	0.169509
1006.833659	0.169213
1007.004798	0.167120
1007.175918	0.165577
1007.347020	0.165448
1007.518103	0.162416
1007.689169	0.162132
1007.860216	0.163304
1008.031245	0.163506
1008.202256	0.164251
1008.373248	0.163624
1008.544223	0.165269
1008.715179	0.165648
1008.886117	0.165969
1009.057036	0.170514
1009.227938	0.169362
1009.398821	0.166064
1009.569686	0.165491
1009.740533	0.165751
1009.911361	0.166441
1010.082172	0.166301
1010.252964	0.165419
1010.423738	0.165185
1010.594493	0.163325
1010.765231	0.163280
1010.935950	0.165230
1011.106651	0.165611
1011.277334	0.165358
1011.447998	0.167416
1011.618645	0.168143
1011.789273	0.169942
1011.959882	0.171681
1012.130474	0.170194
1012.301048	0.172217
1012.471603	0.174248
1012.642140	0.174904
1012.812658	0.173272
1012.983159	0.172125
1013.153641	0.170489
1013.324105	0.168842
1013.494551	0.168317
1013.664979	0.169251
1013.835388	0.167885
1014.005779	0.167081
1014.176152	0.168039
1014.346507	0.169795
1014.516843	0.169634
1014.687162	0.172703
1014.857462	0.172062
1015.027744	0.171974
1015.198007	0.171135
1015.368252	0.171685
1015.538480	0.172425
1015.708689	0.170909
1015.878879	0.170511
1016.049052	0.170774
1016.219206	0.169823
1016.389342	0.169132
1016.559460	0.166905
1016.729559	0.168293
1016.899641	0.169094
1017.069704	0.167842
1017.239749	0.167659
1017.409775	0.167266
1017.579784	0.167444
1017.749774	0.164299
1017.919746	0.165001
1018.089700	0.166636
1018.259635	0.166546
1018.429553	0.165485
1018.599452	0.166214
1018.769333	0.164803
1018.939195	0.164243
1019.109040	0.163771
1019.278866	0.166871
1019.448674	0.168792
1019.618464	0.168171
1019.788235	0.168135
1019.957989	0.166224
1020.127724	0.164485
1020.297441	0.164954
1020.467139	0.164501
1020.636820	0.163713
1020.806482	0.160974
1020.976126	0.160129
1021.145752	0.160849
1021.315359	0.161164
1021.484948	0.164506
1021.654519	0.166416
1021.824072	0.167968
1021.993607	0.168107
1022.163123	0.169174
1022.332621	0.169603
1022.502101	0.170188
1022.671563	0.171181
1022.841007	0.169538
1023.010432	0.169352
1023.179839	0.168571
1023.349228	0.168305
1023.518598	0.168452
1023.687951	0.165703
1023.857285	0.166275
1024.026601	0.165323
1024.195899	0.164152
1024.365178	0.164432
1024.534439	0.162101
1024.703682	0.163430
1024.872907	0.164358
1025.042114	0.165220
1025.211302	0.168365
1025.380472	0.168231
1025.549624	0.167803
1025.718758	0.168919
1025.887873	0.170875
1026.056970	0.170327
1026.226049	0.166878
1026.395110	0.164107
1026.564153	0.163960
1026.733177	0.163039
1026.902183	0.163043
1027.071171	0.164439
1027.240141	0.163637
1027.409092	0.163439
1027.578026	0.165448
1027.746940	0.167691
1027.915837	0.167878
1028.084716	0.166970
1028.253576	0.165456
1028.422418	0.164870
1028.591242	0.161941
1028.760048	0.162244
1028.928835	0.160835
1029.097604	0.160429
1029.266355	0.159359
1029.435088	0.160674
1029.603803	0.160818
1029.772499	0.162260
1029.941177	0.163255
1030.109837	0.164776
1030.278478	0.163779
1030.447102	0.163893
1030.615707	0.162792
1030.784294	0.162676
1030.952863	0.164638
1031.121413	0.165283
1031.289945	0.165841
1031.458460	0.167221
1031.626955	0.166619
1031.795433	0.166032
1031.963892	0.165973
1032.132334	0.166674
1032.300756	0.166952
1032.469161	0.165226
1032.637548	0.164501
1032.805916	0.161828
1032.974266	0.160480
1033.142598	0.161133
1033.310911	0.162654
1033.479207	0.164058
1033.647484	0.164751
1033.815743	0.163137
1033.983983	0.162617
1034.152206	0.162572
1034.320410	0.163753
1034.488596	0.162745
1034.656764	0.161063
1034.824914	0.161227
1034.993045	0.159403
1035.161158	0.158575
1035.329253	0.160196
1035.497330	0.159650
1035.665388	0.159374
1035.833428	0.160864
1036.001450	0.160269
1036.169454	0.161006
1036.337440	0.158090
1036.505407	0.158901
1036.673356	0.160109
1036.841287	0.159759
1037.009200	0.162197
1037.177094	0.161721
1037.344970	0.162010
1037.512828	0.163033
1037.680668	0.164167
1037.848489	0.165478
1038.016293	0.166172
1038.184078	0.165945
1038.351845	0.167213
1038.519593	0.166156
1038.687324	0.166036
1038.855036	0.164661
1039.022730	0.163729
1039.190406	0.163488
1039.358063	0.163561
1039.525702	0.162091
1039.693323	0.162136
1039.860926	0.160171
1040.028511	0.159010
1040.196077	0.160045
1040.363625	0.162008
1040.531155	0.163938
1040.698667	0.163814
1040.866161	0.167037
1041.033636	0.166870
1041.201093	0.165691
1041.368532	0.167126
1041.535952	0.167344
1041.703355	0.167217
1041.870739	0.165064
1042.038105	0.163905
1042.205452	0.163109
1042.372782	0.159690
1042.540093	0.160716
1042.707386	0.160447
1042.874661	0.159916
1043.041918	0.161895
1043.209156	0.164290
1043.376376	0.164814
1043.543578	0.166028
1043.710762	0.166958
1043.877927	0.166306
1044.045074	0.164259
1044.212203	0.165693
1044.379314	0.166014
1044.546407	0.165195
1044.713481	0.162806
1044.880537	0.160879
1045.047575	0.158891
1045.214595	0.159867
1045.381596	0.161671
1045.548579	0.162618
1045.715544	0.161269
1045.882491	0.160721
1046.049420	0.159448
1046.216330	0.156741
1046.383222	0.159939
1046.550096	0.160326
1046.716951	0.158517
1046.883789	0.157486
1047.050608	0.156004
1047.217409	0.157683
1047.384192	0.159282
1047.550956	0.159474
1047.717703	0.161812
1047.884431	0.158099
1048.051140	0.159480
1048.217832	0.158641
1048.384505	0.158636
1048.551161	0.159613
1048.717798	0.156960
1048.884416	0.156698
1049.051017	0.156819
1049.217599	0.158635
1049.384163	0.159245
1049.550709	0.157814
1049.717237	0.159714
1049.883746	0.160868
1050.050237	0.161886
1050.216710	0.163725
1050.383165	0.162577
1050.549601	0.162141
1050.716019	0.161071
1050.882420	0.162353
1051.048801	0.163716
1051.215165	0.164471
1051.381510	0.165241
1051.547837	0.165055
1051.714146	0.162943
1051.880437	0.163622
1052.046709	0.162651
1052.212964	0.162336
1052.379200	0.163232
1052.545417	0.161255
1052.711617	0.158577
1052.877798	0.156444
1053.043961	0.156471
1053.210106	0.156996
1053.376233	0.155528
1053.542341	0.157117
1053.708432	0.157990
1053.874504	0.158405
1054.040557	0.160507
1054.206593	0.161245
1054.372610	0.161680
1054.538609	0.161679
1054.704590	0.162575
1054.870553	0.163141
1055.036497	0.162356
1055.202424	0.160792
1055.368331	0.159542
1055.534221	0.157198
1055.700093	0.159735
1055.865946	0.161679
1056.031781	0.161948
1056.197598	0.161920
1056.363397	0.162192
1056.529177	0.162736
1056.694939	0.162224
1056.860683	0.161577
1057.026409	0.162479
1057.192116	0.160537
1057.357806	0.158559
1057.523477	0.157168
1057.689130	0.159380
1057.854764	0.160512
1058.020381	0.160956
1058.185979	0.163068
1058.351559	0.162849
1058.517120	0.164592
1058.682664	0.163198
1058.848189	0.161621
1059.013696	0.161867
1059.179185	0.158706
1059.344656	0.157318
1059.510108	0.154686
1059.675542	0.155947
1059.840958	0.157464
1060.006356	0.157983
1060.171735	0.160727
1060.337096	0.162560
1060.502439	0.165856
1060.667764	0.166248
1060.833071	0.167160
1060.998359	0.170938
1061.163629	0.170258
1061.328881	0.168217
1061.494115	0.166326
1061.659330	0.164984
1061.824527	0.164604
1061.989706	0.161639
1062.154867	0.161691
1062.320010	0.161639
1062.485134	0.160903
1062.650240	0.156476
1062.815328	0.158554
1062.980398	0.159820
1063.145449	0.160659
1063.310482	0.161638
1063.475497	0.163250
1063.640494	0.164498
1063.805473	0.165575
1063.970433	0.165154
1064.135375	0.169467
1064.300299	0.168137
1064.465204	0.168274
1064.630092	0.166126
1064.794961	0.166243
1064.959812	0.166608
1065.124645	0.165490
1065.289459	0.164297
1065.454256	0.164427
1065.619034	0.164127
1065.783793	0.167473
1065.948535	0.167964
1066.113258	0.170915
1066.277964	0.169937
1066.442651	0.170343
1066.607319	0.170994
1066.771970	0.170440
1066.936602	0.171460
1067.101216	0.172303
1067.265812	0.168574
1067.430389	0.168572
1067.594949	0.167097
1067.759490	0.166299
1067.924013	0.163313
1068.088518	0.164598
1068.253004	0.164562
1068.417472	0.163100
1068.581922	0.161909
1068.746354	0.164073
1068.910768	0.162729
1069.075163	0.163428
1069.239540	0.162520
1069.403899	0.163269
1069.568240	0.161620
1069.732562	0.162575
1069.896866	0.162683
1070.061152	0.162835
1070.225420	0.161244
1070.389670	0.160433
1070.553901	0.159552
1070.718114	0.162242
1070.882309	0.162263
1071.046486	0.161353
1071.210644	0.160256
1071.374784	0.160190
1071.538906	0.161050
1071.703010	0.163240
1071.867096	0.165809
1072.031163	0.167301
1072.195212	0.167456
1072.359243	0.168908
1072.523256	0.172352
1072.687250	0.173395
1072.851226	0.174153
1073.015184	0.174769
1073.179124	0.173394
1073.343045	0.171748
1073.506949	0.170380
1073.670834	0.170094
1073.834701	0.168461
1073.998549	0.167668
1074.162380	0.169715
1074.326192	0.171393
1074.489986	0.169550
1074.653761	0.169871
1074.817519	0.168606
1074.981258	0.170842
1075.144979	0.171822
1075.308682	0.173534
1075.472367	0.172975
1075.636033	0.173219
1075.799681	0.171602
1075.963311	0.171323
1076.126923	0.171712
1076.290516	0.171365
1076.454092	0.169593
1076.617649	0.168258
1076.781187	0.169402
1076.944708	0.170801
1077.108210	0.168818
1077.271695	0.168785
1077.435160	0.168668
1077.598608	0.168717
1077.762038	0.169824
1077.925449	0.170572
1078.088842	0.169884
1078.252217	0.170149
1078.415573	0.168092
1078.578912	0.167952
1078.742232	0.169623
1078.905534	0.170441
1079.068817	0.169057
1079.232083	0.168837
1079.395330	0.167242
1079.558559	0.168994
1079.721770	0.166750
1079.884962	0.166071
1080.048136	0.166178
1080.211293	0.166532
1080.374430	0.165774
1080.537550	0.166711
1080.700651	0.167667
1080.863735	0.168015
1081.026800	0.168337
1081.189846	0.170449
1081.352875	0.171667
1081.515885	0.172095
1081.678877	0.170532
1081.841851	0.170209
1082.004807	0.168793
1082.167744	0.166705
1082.330663	0.166711
1082.493564	0.166504
1082.656447	0.165177
1082.819312	0.165069
1082.982158	0.166665
1083.144986	0.167479
1083.307796	0.168034
1083.470587	0.170038
1083.633361	0.170705
1083.796116	0.171661
1083.958853	0.174523
1084.121571	0.173762
1084.284272	0.171779
1084.446954	0.170512
1084.609618	0.171678
1084.772264	0.173577
1084.934892	0.171837
1085.097501	0.172064
1085.260092	0.171803
1085.422665	0.168061
1085.585220	0.168613
1085.747756	0.171938
1085.910274	0.172555
1086.072774	0.171368
1086.235256	0.168226
1086.397720	0.170503
1086.560165	0.171916
1086.722592	0.173616
1086.885001	0.176293
1087.047392	0.175206
1087.209764	0.174690
1087.372119	0.173497
1087.534455	0.173095
1087.696772	0.175250
1087.859072	0.171175
1088.021353	0.169502
1088.183616	0.168439
1088.345861	0.166707
1088.508088	0.168571
1088.670296	0.170105
1088.832486	0.170889
1088.994658	0.173877
1089.156812	0.175648
1089.318948	0.179149
1089.481065	0.182338
1089.643164	0.184033
1089.805245	0.181798
1089.967308	0.180180
1090.129352	0.178618
1090.291378	0.178071
1090.453386	0.176085
1090.615376	0.174932
1090.777347	0.175887
1090.939301	0.172153
1091.101236	0.172279
1091.263153	0.172698
1091.425051	0.172074
1091.586932	0.172549
1091.748794	0.170181
1091.910638	0.169561
1092.072463	0.172052
1092.234271	0.168980
1092.396060	0.172496
1092.557831	0.173227
1092.719584	0.177179
1092.881319	0.180870
1093.043035	0.180027
1093.204733	0.184344
1093.366413	0.182737
1093.528075	0.182643
1093.689718	0.186297
1093.851343	0.185980
1094.012950	0.185868
1094.174539	0.185100
1094.336110	0.184719
1094.497662	0.189756
1094.659196	0.188905
1094.820712	0.194980
1094.982210	0.191022
1095.143689	0.190811
1095.305151	0.193032
1095.466594	0.191606
1095.628018	0.188045
1095.789425	0.188802
1095.950813	0.187879
1096.112183	0.189467
1096.273535	0.185929
1096.434869	0.187483
1096.596184	0.189484
1096.757482	0.183987
1096.918761	0.184622
1097.080021	0.189722
1097.241264	0.190530
1097.402488	0.187680
1097.563694	0.183454
1097.724882	0.184272
1097.886052	0.184250
1098.047203	0.180173
1098.208336	0.185707
1098.369451	0.187392
1098.530548	0.185838
1098.691627	0.182882
1098.852687	0.183410
1099.013729	0.191069
1099.174753	0.190046
1099.335758	0.189218
1099.496746	0.191787
1099.657715	0.189738
1099.818666	0.189478
1099.979599	0.186528
1100.140513	0.187885
1100.301409	0.183021
1100.462287	0.175152
1100.623147	0.174804
1100.783989	0.174768
1100.944812	0.173816
1101.105617	0.173088
1101.266404	0.172036
1101.427173	0.176572
1101.587923	0.176790
1101.748656	0.181222
1101.909370	0.185267
1102.070066	0.185685
1102.230743	0.185926
1102.391403	0.182574
1102.552044	0.183029
1102.712667	0.182756
1102.873271	0.180420
1103.033858	0.183319
1103.194426	0.183453
1103.354976	0.182184
1103.515508	0.183575
1103.676021	0.183613
1103.836517	0.193179
1103.996994	0.194156
1104.157453	0.195209
1104.317893	0.195417
1104.478316	0.195223
1104.638720	0.193128
1104.799106	0.191977
1104.959474	0.192497
1105.119823	0.194593
1105.280155	0.189061
1105.440468	0.189401
1105.600763	0.187792
1105.761039	0.185949
1105.921298	0.181610
1106.081538	0.186559
1106.241760	0.190276
1106.401964	0.189942
1106.562149	0.185104
1106.722316	0.186883
1106.882465	0.183812
1107.042596	0.185311
1107.202709	0.188883
1107.362803	0.189037
1107.522879	0.185131
1107.682937	0.185456
1107.842977	0.182080
1108.002999	0.189568
1108.163002	0.184567
1108.322987	0.186865
1108.482954	0.190219
1108.642902	0.189744
1108.802833	0.192332
1108.962745	0.190828
1109.122639	0.191375
1109.282515	0.194698
1109.442372	0.194916
1109.602211	0.199723
1109.762032	0.201161
1109.921835	0.196643
1110.081620	0.197096
1110.241386	0.192703
1110.401134	0.194770
1110.560864	0.190705
1110.720576	0.192288
1110.880269	0.185592
1111.039945	0.183403
1111.199602	0.182758
1111.359240	0.182233
1111.518861	0.181271
1111.678463	0.186239
1111.838047	0.185778
1111.997613	0.187845
1112.157161	0.181330
1112.316690	0.182953
1112.476202	0.185427
1112.635695	0.184060
1112.795169	0.180679
1112.954626	0.177995
1113.114064	0.173291
1113.273484	0.176654
1113.432886	0.175277
1113.592270	0.182364
1113.751635	0.179476
1113.910983	0.176661
1114.070312	0.182733
1114.229622	0.187553
1114.388915	0.194391
1114.548189	0.197685
1114.707445	0.194127
1114.866683	0.192915
1115.025903	0.189972
1115.185104	0.193758
1115.344287	0.192729
1115.503452	0.185708
1115.662599	0.184792
1115.821727	0.183369
1115.980838	0.180087
1116.139930	0.181118
1116.299004	0.182882
1116.458059	0.184543
1116.617097	0.186408
1116.776116	0.193397
1116.935117	0.197001
1117.094099	0.196590
1117.253064	0.194594
1117.412010	0.194497
1117.570938	0.194054
1117.729848	0.195516
1117.888740	0.191761
1118.047613	0.189212
1118.206468	0.183926
1118.365305	0.185491
1118.524124	0.182736
1118.682924	0.179950
1118.841707	0.183756
1119.000471	0.181774
1119.159216	0.182148
1119.317944	0.187675
1119.476653	0.187898
1119.635344	0.189167
1119.794017	0.185371
1119.952672	0.186620
1120.111308	0.185448
1120.269927	0.186644
1120.428527	0.188918
1120.587108	0.189122
1120.745672	0.187825
1120.904217	0.191609
1121.062744	0.193013
1121.221253	0.190870
1121.379744	0.195106
1121.538216	0.200342
1121.696671	0.198122
1121.855107	0.195863
1122.013524	0.193187
1122.171924	0.189757
1122.330305	0.190092
1122.488668	0.188408
1122.647013	0.190851
1122.805340	0.187456
1122.963648	0.188463
1123.121938	0.185980
1123.280210	0.193092
1123.438464	0.199686
1123.596700	0.200139
1123.754917	0.196684
1123.913116	0.194647
1124.071297	0.201307
1124.229459	0.205170
1124.387604	0.203511
1124.545730	0.205442
1124.703838	0.202555
1124.861928	0.201284
1125.019999	0.204236
1125.178052	0.204035
1125.336088	0.204178
1125.494104	0.201225
1125.652103	0.204723
1125.810083	0.202230
1125.968045	0.205363
1126.125989	0.203204
1126.283915	0.202542
1126.441823	0.194900
1126.599712	0.195344
1126.757583	0.195664
1126.915436	0.190668
1127.073270	0.182936
1127.231087	0.184694
1127.388885	0.179452
1127.546665	0.175595
1127.704426	0.172789
1127.862170	0.177550
1128.019895	0.182624
1128.177602	0.189540
1128.335291	0.197008
1128.492961	0.200479
1128.650614	0.203133
1128.808248	0.206453
1128.965864	0.207680
1129.123461	0.206256
1129.281041	0.203419
1129.438602	0.200971
1129.596145	0.190065
1129.753670	0.185924
1129.911176	0.186495
1130.068665	0.185459
1130.226135	0.185117
1130.383587	0.188140
1130.541020	0.186725
1130.698436	0.193648
1130.855833	0.191527
1131.013212	0.195599
1131.170573	0.197256
1131.327915	0.194559
1131.485239	0.196078
1131.642545	0.188206
1131.799833	0.187283
1131.957103	0.185617
1132.114354	0.181838
1132.271588	0.185110
1132.428803	0.189652
1132.585999	0.187742
1132.743178	0.187614
1132.900338	0.184145
1133.057480	0.193722
1133.214604	0.194079
1133.371710	0.202063
1133.528797	0.200295
1133.685866	0.196354
1133.842917	0.193537
1133.999950	0.191591
1134.156964	0.192511
1134.313960	0.192616
1134.470938	0.194726
1134.627898	0.195425
1134.784840	0.195607
1134.941763	0.201717
1135.098668	0.205104
1135.255555	0.210860
1135.412424	0.215157
1135.569274	0.221340
1135.726107	0.220229
1135.882921	0.219086
1136.039716	0.225707
1136.196494	0.219060
1136.353253	0.211944
1136.509995	0.205258
1136.666717	0.205476
1136.823422	0.203407
1136.980109	0.196414
1137.136777	0.195232
1137.293427	0.195193
1137.450059	0.194087
1137.606672	0.194349
1137.763267	0.197734
1137.919844	0.201503
1138.076403	0.195581
1138.232944	0.186885
1138.389466	0.190115
1138.545971	0.191648
1138.702457	0.197144
1138.858924	0.191901
1139.015374	0.195049
1139.171805	0.189556
1139.328218	0.188487
1139.484613	0.185966
1139.640990	0.193934
1139.797348	0.195784
1139.953688	0.201811
1140.110010	0.195413
1140.266314	0.198685
1140.422600	0.203850
1140.578867	0.211589
1140.735116	0.204602
1140.891347	0.211733
1141.047559	0.221139
1141.203754	0.217048
1141.359930	0.212163
1141.516088	0.199736
1141.672228	0.198234
1141.828349	0.194244
1141.984452	0.189078
1142.140537	0.203410
1142.296604	0.197842
1142.452653	0.187980
1142.608683	0.189273
1142.764695	0.188121
1142.920689	0.206931
1143.076665	0.202802
1143.232622	0.192989
1143.388562	0.192818
1143.544483	0.190397
1143.700385	0.188781
1143.856270	0.187922
1144.012136	0.186171
1144.167985	0.188615
1144.323814	0.180759
1144.479626	0.179165
1144.635420	0.188021
1144.791195	0.187822
1144.946952	0.187468
1145.102691	0.191474
1145.258411	0.193885
1145.414113	0.192723
1145.569798	0.195845
1145.725463	0.199643
1145.881111	0.204741
1146.036741	0.216021
1146.192352	0.213109
1146.347945	0.210886
1146.503519	0.212549
1146.659076	0.215607
1146.814614	0.227003
1146.970134	0.220511
1147.125636	0.226375
1147.281120	0.221236
1147.436585	0.207796
1147.592032	0.210075
1147.747461	0.209200
1147.902872	0.199573
1148.058265	0.195375
1148.213639	0.185620
1148.368995	0.182523
1148.524333	0.169572
1148.679653	0.170216
1148.834954	0.181933
1148.990237	0.181761
1149.145502	0.186348
1149.300749	0.196566
1149.455977	0.209406
1149.611188	0.209433
1149.766380	0.215250
1149.921553	0.224831
1150.076709	0.225504
1150.231846	0.214719
1150.386966	0.218037
1150.542066	0.215234
1150.697149	0.213395
1150.852214	0.199780
1151.007260	0.199051
1151.162288	0.202547
1151.317298	0.199840
1151.472289	0.210252
1151.627263	0.210675
1151.782218	0.208251
1151.937155	0.207336
1152.092073	0.205728
1152.246974	0.207555
1152.401856	0.210429
1152.556720	0.202925
1152.711566	0.200081
1152.866393	0.193856
1153.021203	0.197556
1153.175994	0.193937
1153.330767	0.183338
1153.485521	0.176436
1153.640258	0.174182
1153.794976	0.168299
1153.949676	0.172021
1154.104358	0.167355
1154.259021	0.170206
1154.413667	0.164166
1154.568294	0.164167
1154.722903	0.174564
1154.877493	0.180786
1155.032066	0.184997
1155.186620	0.180674
1155.341156	0.180312
1155.495674	0.189670
1155.650173	0.189345
1155.804654	0.189577
1155.959118	0.196239
1156.113562	0.198619
1156.267989	0.197257
1156.422397	0.199074
1156.576788	0.214829
1156.731160	0.216268
1156.885513	0.215221
1157.039849	0.210040
1157.194166	0.208366
1157.348465	0.199265
1157.502746	0.194978
1157.657009	0.187561
1157.811253	0.184473
1157.965479	0.187639
1158.119687	0.182877
1158.273877	0.188852
1158.428048	0.185384
1158.582201	0.188662
1158.736337	0.199300
1158.890453	0.183885
1159.044552	0.198456
1159.198632	0.209677
1159.352694	0.194924
1159.506738	0.200563
1159.660764	0.182908
1159.814771	0.191199
1159.968761	0.186028
1160.122732	0.181985
1160.276685	0.198478
1160.430619	0.187065
1160.584535	0.168583
1160.738434	0.170758
1160.892313	0.166316
1161.046175	0.167592
1161.200019	0.157849
1161.353844	0.156881
1161.507651	0.154544
1161.661440	0.157798
1161.815210	0.156358
1161.968962	0.167429
1162.122697	0.160686
1162.276412	0.167222
1162.430110	0.166124
1162.583789	0.175660
1162.737451	0.184219
1162.891094	0.184971
1163.044718	0.187311
1163.198325	0.203735
1163.351913	0.199189
1163.505483	0.205422
1163.659035	0.195003
1163.812569	0.187326
1163.966084	0.191804
1164.119581	0.183965
1164.273060	0.191772
1164.426521	0.188226
1164.579964	0.177840
1164.733388	0.184233
1164.886794	0.197167
1165.040182	0.205409
1165.193551	0.212317
1165.346903	0.211955
1165.500236	0.214270
1165.653551	0.210322
1165.806848	0.208892
1165.960126	0.211976
1166.113386	0.209563
1166.266628	0.210957
1166.419852	0.214887
1166.573058	0.230582
1166.726245	0.229615
1166.879414	0.223975
1167.032565	0.220672
1167.185698	0.213131
1167.338812	0.215418
1167.491909	0.203452
1167.644987	0.187461
1167.798046	0.187179
1167.951088	0.182467
1168.104111	0.181157
1168.257117	0.200235
1168.410103	0.202636
1168.563072	0.203736
1168.716023	0.190605
1168.868955	0.198379
1169.021869	0.195985
1169.174765	0.187977
1169.327642	0.192226
1169.480501	0.201925
1169.633343	0.178428
1169.786165	0.166502
1169.938970	0.165088
1170.091757	0.166203
1170.244525	0.158861
1170.397275	0.166819
1170.550007	0.165416
1170.702720	0.157257
1170.855415	0.139614
1171.008092	0.145891
1171.160751	0.154376
1171.313392	0.157155
1171.466014	0.146828
1171.618619	0.172869
1171.771205	0.172869
1171.923772	0.172869
