sample name	sample
index	328
start time	 02-25-2021  03:42:44 PM


Wavelength (nm)	Absorbance
494.344910	-0.659836
494.563924	-0.659836
494.782919	-0.659836
495.001897	NaN
495.220856	-0.373873
495.439797	-0.245246
495.658719	-0.133481
495.877624	0.182314
496.096510	0.117541
496.315378	0.243290
496.534227	0.727332
496.753059	0.526791
496.971872	0.766757
497.190667	0.159876
497.409444	0.149062
497.628203	0.145886
497.846943	0.144030
498.065665	0.145194
498.284369	0.144706
498.503055	0.146430
498.721723	0.146652
498.940372	0.146878
499.159003	0.147339
499.377616	0.149034
499.596210	0.150868
499.814787	0.151667
500.033345	0.150336
500.251885	0.150772
500.470406	0.149895
500.688910	0.150289
500.907395	0.149935
501.125862	0.150164
501.344311	0.149485
501.562742	0.149656
501.781154	0.149248
501.999548	0.150671
502.217924	0.150566
502.436282	0.151132
502.654621	0.150886
502.872942	0.151443
503.091245	0.150503
503.309530	0.150694
503.527797	0.150025
503.746045	0.150652
503.964275	0.150258
504.182487	0.149761
504.400681	0.149498
504.618856	0.149734
504.837013	0.148685
505.055152	0.149835
505.273273	0.150097
505.491376	0.149471
505.709460	0.149855
505.927526	0.150599
506.145574	0.151453
506.363604	0.150774
506.581615	0.152079
506.799608	0.152498
507.017583	0.151503
507.235540	0.151688
507.453478	0.152588
507.671399	0.151680
507.889301	0.151511
508.107185	0.151647
508.325050	0.152393
508.542898	0.151389
508.760727	0.152931
508.978538	0.154130
509.196330	0.153717
509.414105	0.152982
509.631861	0.154265
509.849599	0.154540
510.067319	0.154530
510.285021	0.154879
510.502704	0.156522
510.720369	0.155775
510.938016	0.157222
511.155645	0.157739
511.373255	0.158579
511.590848	0.158616
511.808422	0.159192
512.025977	0.159380
512.243515	0.159521
512.461034	0.159475
512.678536	0.160876
512.896018	0.159880
513.113483	0.159787
513.330930	0.160575
513.548358	0.160706
513.765768	0.161019
513.983160	0.162557
514.200533	0.162843
514.417889	0.162592
514.635226	0.162224
514.852545	0.162487
515.069845	0.162231
515.287128	0.162188
515.504392	0.161949
515.721638	0.162247
515.938866	0.161596
516.156075	0.161977
516.373267	0.160611
516.590440	0.160188
516.807594	0.159662
517.024731	0.160465
517.241850	0.161162
517.458950	0.161727
517.676032	0.161313
517.893095	0.161873
518.110141	0.161340
518.327168	0.163005
518.544177	0.164322
518.761168	0.165139
518.978141	0.165552
519.195095	0.165502
519.412031	0.166192
519.628949	0.166166
519.845849	0.166488
520.062731	0.167012
520.279594	0.166439
520.496439	0.166242
520.713266	0.166983
520.930074	0.167148
521.146865	0.167275
521.363637	0.167430
521.580391	0.167982
521.797127	0.167855
522.013844	0.167774
522.230543	0.168920
522.447224	0.168901
522.663887	0.167871
522.880532	0.168322
523.097158	0.169099
523.313766	0.169517
523.530356	0.170102
523.746928	0.170102
523.963481	0.171215
524.180017	0.171074
524.396534	0.171759
524.613032	0.173405
524.829513	0.173636
525.045975	0.173507
525.262420	0.173902
525.478845	0.173886
525.695253	0.174728
525.911643	0.174376
526.128014	0.174890
526.344367	0.174830
526.560702	0.174256
526.777018	0.174521
526.993316	0.175112
527.209597	0.175162
527.425858	0.175574
527.642102	0.175324
527.858328	0.176250
528.074535	0.176901
528.290724	0.177291
528.506894	0.177969
528.723047	0.178119
528.939181	0.177580
529.155297	0.177466
529.371395	0.177637
529.587475	0.178281
529.803536	0.178756
530.019579	0.179255
530.235604	0.180025
530.451611	0.180665
530.667600	0.181144
530.883570	0.181608
531.099522	0.181795
531.315456	0.182130
531.531372	0.182244
531.747269	0.182576
531.963148	0.182843
532.179009	0.182581
532.394852	0.182471
532.610676	0.182255
532.826482	0.182513
533.042271	0.182966
533.258040	0.183215
533.473792	0.184154
533.689525	0.184183
533.905240	0.184199
534.120937	0.184677
534.336616	0.185237
534.552277	0.186307
534.767919	0.186605
534.983543	0.186217
535.199149	0.187477
535.414736	0.187130
535.630306	0.187260
535.845857	0.187515
536.061390	0.187583
536.276904	0.187512
536.492401	0.187432
536.707879	0.187874
536.923339	0.189145
537.138781	0.188408
537.354204	0.189171
537.569610	0.189345
537.784997	0.189301
538.000366	0.190177
538.215716	0.190577
538.431049	0.190653
538.646363	0.190619
538.861659	0.190459
539.076937	0.190943
539.292196	0.190357
539.507438	0.190800
539.722661	0.191205
539.937866	0.190776
540.153052	0.191287
540.368221	0.192097
540.583371	0.192911
540.798503	0.193741
541.013617	0.194199
541.228712	0.194507
541.443789	0.194645
541.658848	0.194911
541.873889	0.195655
542.088912	0.195857
542.303916	0.195965
542.518902	0.195988
542.733870	0.195596
542.948820	0.196150
543.163752	0.197171
543.378665	0.197254
543.593560	0.197855
543.808437	0.198291
544.023295	0.198631
544.238136	0.198919
544.452958	0.199384
544.667762	0.200327
544.882548	0.200922
545.097315	0.201068
545.312064	0.202276
545.526795	0.202279
545.741508	0.202424
545.956203	0.202515
546.170879	0.202754
546.385537	0.202942
546.600177	0.202866
546.814799	0.202794
547.029402	0.202985
547.243988	0.202392
547.458555	0.202486
547.673103	0.202388
547.887634	0.202725
548.102146	0.203003
548.316640	0.203257
548.531116	0.203680
548.745574	0.203551
548.960013	0.203428
549.174435	0.204073
549.388838	0.204726
549.603222	0.205014
549.817589	0.205161
550.031937	0.205353
550.246267	0.206096
550.460579	0.205959
550.674873	0.206391
550.889148	0.206938
551.103405	0.206884
551.317644	0.206450
551.531865	0.206809
551.746068	0.207248
551.960252	0.207527
552.174418	0.207095
552.388566	0.207404
552.602696	0.207628
552.816807	0.207910
553.030900	0.208557
553.244975	0.209118
553.459032	0.209222
553.673070	0.209596
553.887091	0.209603
554.101093	0.210174
554.315077	0.210278
554.529042	0.210434
554.742990	0.210676
554.956919	0.210914
555.170830	0.211485
555.384722	0.212106
555.598597	0.211915
555.812453	0.212494
556.026291	0.212311
556.240111	0.212571
556.453913	0.213081
556.667696	0.213113
556.881461	0.212959
557.095208	0.212930
557.308937	0.212927
557.522647	0.213195
557.736339	0.212895
557.950013	0.213240
558.163669	0.213471
558.377307	0.213236
558.590926	0.213883
558.804527	0.214372
559.018110	0.214534
559.231675	0.214750
559.445221	0.214946
559.658749	0.215466
559.872259	0.216038
560.085751	0.216812
560.299225	0.217240
560.512680	0.216871
560.726117	0.217021
560.939536	0.217237
561.152937	0.217509
561.366319	0.218124
561.579683	0.218300
561.793029	0.218229
562.006357	0.217819
562.219667	0.218255
562.432958	0.218999
562.646231	0.218684
562.859486	0.218997
563.072723	0.219264
563.285941	0.219120
563.499141	0.219353
563.712323	0.219559
563.925487	0.220003
564.138632	0.219633
564.351760	0.219149
564.564869	0.219771
564.777960	0.219929
564.991032	0.219699
565.204087	0.220147
565.417123	0.220394
565.630141	0.220963
565.843140	0.221100
566.056122	0.221413
566.269085	0.221930
566.482030	0.222199
566.694957	0.222178
566.907866	0.222696
567.120756	0.222824
567.333628	0.222974
567.546482	0.222849
567.759318	0.223328
567.972135	0.223734
568.184935	0.224096
568.397716	0.224155
568.610478	0.224618
568.823223	0.224876
569.035949	0.224919
569.248657	0.225088
569.461347	0.225103
569.674019	0.224908
569.886672	0.224941
570.099308	0.225213
570.311925	0.225434
570.524523	0.225812
570.737104	0.225864
570.949666	0.226258
571.162210	0.226210
571.374736	0.226652
571.587244	0.227028
571.799733	0.227466
572.012205	0.227740
572.224658	0.227770
572.437092	0.227683
572.649509	0.228136
572.861907	0.228569
573.074287	0.228721
573.286649	0.228989
573.498993	0.229435
573.711318	0.229527
573.923625	0.229583
574.135914	0.230150
574.348185	0.230332
574.560438	0.230527
574.772672	0.230159
574.984888	0.230490
575.197086	0.230429
575.409266	0.230410
575.621427	0.230414
575.833570	0.230591
576.045695	0.230834
576.257802	0.231281
576.469890	0.231262
576.681961	0.231719
576.894013	0.232148
577.106046	0.232321
577.318062	0.232445
577.530059	0.232844
577.742039	0.233185
577.954000	0.233121
578.165942	0.232906
578.377867	0.233234
578.589773	0.233595
578.801661	0.233738
579.013531	0.234160
579.225382	0.234424
579.437216	0.234701
579.649031	0.234835
579.860828	0.235349
580.072606	0.235790
580.284367	0.235875
580.496109	0.236010
580.707833	0.235989
580.919539	0.235919
581.131227	0.236141
581.342896	0.236110
581.554547	0.236097
581.766180	0.236424
581.977795	0.236466
582.189391	0.236503
582.400969	0.236979
582.612529	0.237852
582.824071	0.238346
583.035595	0.238729
583.247100	0.239369
583.458587	0.239837
583.670056	0.239845
583.881506	0.240398
584.092939	0.240891
584.304353	0.240648
584.515749	0.240391
584.727127	0.240627
584.938486	0.240811
585.149828	0.240452
585.361151	0.240774
585.572456	0.240865
585.783742	0.240639
585.995011	0.240779
586.206261	0.241023
586.417493	0.241133
586.628706	0.241481
586.839902	0.241681
587.051079	0.242333
587.262238	0.242209
587.473379	0.242260
587.684502	0.242789
587.895606	0.243075
588.106692	0.243380
588.317760	0.243680
588.528810	0.243699
588.739841	0.243990
588.950855	0.244093
589.161850	0.244917
589.372827	0.245457
589.583785	0.245831
589.794726	0.246040
590.005648	0.246364
590.216552	0.246616
590.427437	0.246920
590.638305	0.246985
590.849154	0.247033
591.059985	0.246981
591.270798	0.246886
591.481592	0.246721
591.692369	0.246826
591.903127	0.247299
592.113867	0.247599
592.324588	0.247870
592.535292	0.247696
592.745977	0.248192
592.956644	0.247778
593.167293	0.248405
593.377923	0.248719
593.588536	0.248823
593.799130	0.248790
594.009706	0.248862
594.220263	0.248932
594.430803	0.249405
594.641324	0.249604
594.851827	0.250548
595.062312	0.250187
595.272778	0.250684
595.483227	0.251005
595.693657	0.250976
595.904069	0.250849
596.114462	0.250792
596.324838	0.251197
596.535195	0.251170
596.745534	0.251135
596.955855	0.251565
597.166157	0.251415
597.376441	0.251579
597.586707	0.251721
597.796955	0.252487
598.007185	0.253145
598.217396	0.253144
598.427589	0.253211
598.637764	0.253337
598.847921	0.253479
599.058060	0.254301
599.268180	0.254403
599.478282	0.254935
599.688366	0.255009
599.898431	0.254953
600.108479	0.255142
600.318508	0.255455
600.528519	0.255565
600.738511	0.255811
600.948486	0.255406
601.158442	0.255502
601.368380	0.255228
601.578300	0.255373
601.788202	0.255520
601.998085	0.255930
602.207950	0.256410
602.417797	0.256560
602.627626	0.256765
602.837436	0.256912
603.047228	0.257179
603.257002	0.257395
603.466758	0.257367
603.676496	0.257318
603.886215	0.257115
604.095916	0.257437
604.305599	0.257673
604.515264	0.257819
604.724910	0.258163
604.934538	0.258302
605.144148	0.258465
605.353740	0.258710
605.563314	0.259335
605.772869	0.259616
605.982406	0.259385
606.191925	0.259672
606.401425	0.259752
606.610908	0.259960
606.820372	0.260141
607.029818	0.260483
607.239246	0.260836
607.448655	0.261083
607.658047	0.261363
607.867420	0.261786
608.076775	0.261932
608.286111	0.262325
608.495430	0.262245
608.704730	0.262351
608.914012	0.262576
609.123275	0.262531
609.332521	0.262376
609.541748	0.262656
609.750957	0.262504
609.960148	0.262452
610.169321	0.262821
610.378475	0.263126
610.587611	0.263396
610.796729	0.263541
611.005829	0.264014
611.214910	0.264163
611.423974	0.264282
611.633019	0.264550
611.842045	0.264716
612.051054	0.264591
612.260044	0.264631
612.469017	0.264880
612.677970	0.264956
612.886906	0.265159
613.095824	0.265389
613.304723	0.265439
613.513604	0.265564
613.722467	0.265902
613.931311	0.265696
614.140138	0.265955
614.348946	0.266129
614.557736	0.266577
614.766507	0.266510
614.975261	0.266705
615.183996	0.267039
615.392713	0.267164
615.601412	0.267541
615.810092	0.267846
616.018754	0.267874
616.227399	0.267999
616.436024	0.268054
616.644632	0.268100
616.853222	0.268249
617.061793	0.268281
617.270346	0.268428
617.478880	0.268519
617.687397	0.268786
617.895895	0.269156
618.104375	0.269373
618.312837	0.269265
618.521281	0.269542
618.729706	0.269803
618.938113	0.269785
619.146502	0.270112
619.354873	0.269983
619.563226	0.270054
619.771560	0.269770
619.979876	0.269538
620.188174	0.269724
620.396453	0.269985
620.604715	0.269929
620.812958	0.270080
621.021183	0.270215
621.229390	0.270258
621.437578	0.270424
621.645748	0.271032
621.853900	0.271486
622.062034	0.271795
622.270150	0.271784
622.478247	0.271952
622.686326	0.272259
622.894387	0.272440
623.102430	0.272562
623.310454	0.272847
623.518461	0.272968
623.726449	0.273158
623.934418	0.273175
624.142370	0.273037
624.350303	0.273298
624.558218	0.273558
624.766115	0.273529
624.973994	0.273813
625.181855	0.273864
625.389697	0.274093
625.597521	0.274185
625.805327	0.274530
626.013114	0.274934
626.220883	0.275208
626.428634	0.275443
626.636367	0.275799
626.844082	0.275832
627.051778	0.276181
627.259457	0.276417
627.467117	0.276368
627.674758	0.276285
627.882382	0.276594
628.089987	0.276585
628.297574	0.276403
628.505143	0.276483
628.712694	0.276656
628.920226	0.277008
629.127740	0.276982
629.335236	0.277241
629.542714	0.277483
629.750174	0.277653
629.957615	0.277810
630.165038	0.278273
630.372443	0.278079
630.579829	0.278345
630.787198	0.278276
630.994548	0.278375
631.201880	0.278711
631.409194	0.278784
631.616489	0.278815
631.823766	0.278893
632.031025	0.279229
632.238266	0.279540
632.445489	0.279900
632.652693	0.280234
632.859879	0.280662
633.067047	0.281027
633.274197	0.281480
633.481329	0.281885
633.688442	0.282427
633.895537	0.282131
634.102614	0.282637
634.309672	0.282706
634.516713	0.282702
634.723735	0.282830
634.930739	0.283168
635.137724	0.283520
635.344692	0.283616
635.551641	0.283455
635.758572	0.283765
635.965485	0.283591
636.172379	0.283797
636.379256	0.283682
636.586114	0.283734
636.792954	0.283477
636.999775	0.283204
637.206579	0.283039
637.413364	0.283362
637.620131	0.283593
637.826880	0.283822
638.033610	0.284169
638.240323	0.284624
638.447017	0.284696
638.653692	0.284800
638.860350	0.285146
639.066990	0.285491
639.273611	0.285774
639.480214	0.285890
639.686798	0.286158
639.893365	0.286345
640.099913	0.286638
640.306443	0.287024
640.512955	0.287365
640.719449	0.287667
640.925924	0.287844
641.132381	0.287969
641.338820	0.288240
641.545241	0.288486
641.751644	0.288252
641.958028	0.288396
642.164394	0.288528
642.370742	0.288712
642.577071	0.288733
642.783383	0.289171
642.989676	0.289062
643.195951	0.289325
643.402207	0.289480
643.608446	0.289884
643.814666	0.290215
644.020868	0.290565
644.227052	0.290687
644.433218	0.290834
644.639365	0.290927
644.845494	0.291331
645.051605	0.291365
645.257698	0.291392
645.463772	0.291592
645.669828	0.291641
645.875866	0.291608
646.081886	0.291873
646.287888	0.292170
646.493871	0.292136
646.699836	0.292282
646.905783	0.292516
647.111712	0.293019
647.317622	0.293195
647.523514	0.293246
647.729388	0.293407
647.935244	0.293795
648.141082	0.293910
648.346901	0.294615
648.552702	0.294840
648.758485	0.295313
648.964250	0.295413
649.169996	0.295722
649.375724	0.295934
649.581434	0.296328
649.787126	0.296223
649.992800	0.296591
650.198455	0.296137
650.404092	0.296163
650.609711	0.295990
650.815311	0.296135
651.020894	0.296084
651.226458	0.296249
651.432004	0.296302
651.637532	0.296531
651.843041	0.296639
652.048532	0.297122
652.254006	0.297351
652.459460	0.297576
652.664897	0.297812
652.870315	0.298336
653.075716	0.298633
653.281097	0.298871
653.486461	0.299377
653.691807	0.299591
653.897134	0.300008
654.102443	0.300587
654.307734	0.300923
654.513006	0.301126
654.718261	0.301338
654.923497	0.301756
655.128715	0.301894
655.333915	0.301960
655.539096	0.302113
655.744259	0.302152
655.949404	0.302128
656.154531	0.302244
656.359640	0.302485
656.564730	0.302696
656.769802	0.302647
656.974856	0.303021
657.179892	0.303140
657.384909	0.303334
657.589908	0.303695
657.794889	0.304122
657.999852	0.304451
658.204797	0.304622
658.409723	0.304708
658.614631	0.304963
658.819521	0.304941
659.024393	0.305364
659.229246	0.305642
659.434081	0.305587
659.638898	0.305535
659.843697	0.305597
660.048478	0.306085
660.253240	0.306081
660.457984	0.306283
660.662710	0.306609
660.867417	0.306615
661.072107	0.306654
661.276778	0.307233
661.481431	0.307423
661.686066	0.307914
661.890682	0.307769
662.095281	0.308398
662.299861	0.308719
662.504422	0.309017
662.708966	0.309306
662.913491	0.309785
663.117999	0.309767
663.322488	0.310030
663.526958	0.310043
663.731411	0.310339
663.935845	0.310423
664.140261	0.310557
664.344659	0.310863
664.549038	0.311196
664.753400	0.311187
664.957743	0.311513
665.162068	0.311988
665.366375	0.312072
665.570663	0.312229
665.774933	0.312415
665.979185	0.312525
666.183419	0.312457
666.387635	0.312615
666.591832	0.312865
666.796011	0.312987
667.000172	0.313064
667.204315	0.313560
667.408439	0.313928
667.612545	0.314089
667.816634	0.314456
668.020703	0.314745
668.224755	0.314852
668.428788	0.315100
668.632803	0.315370
668.836800	0.315456
669.040779	0.315618
669.244739	0.315793
669.448681	0.315961
669.652605	0.315991
669.856511	0.316132
670.060399	0.316491
670.264268	0.316873
670.468119	0.317123
670.671952	0.317388
670.875767	0.317330
671.079563	0.317556
671.283341	0.317820
671.487101	0.318229
671.690843	0.318775
671.894567	0.319033
672.098272	0.319191
672.301959	0.319614
672.505628	0.319953
672.709278	0.320333
672.912911	0.320562
673.116525	0.320786
673.320121	0.320995
673.523699	0.321141
673.727258	0.321058
673.930799	0.321333
674.134322	0.321296
674.337827	0.321284
674.541314	0.321653
674.744782	0.321865
674.948232	0.321989
675.151664	0.322330
675.355078	0.322452
675.558474	0.322802
675.761851	0.323054
675.965210	0.323257
676.168551	0.323813
676.371873	0.323913
676.575178	0.324117
676.778464	0.324434
676.981732	0.324711
677.184981	0.324934
677.388213	0.325264
677.591426	0.325416
677.794621	0.325371
677.997798	0.325302
678.200956	0.325631
678.404097	0.325933
678.607219	0.326305
678.810323	0.326400
679.013408	0.326884
679.216476	0.327294
679.419525	0.327381
679.622556	0.327741
679.825569	0.328217
680.028563	0.328148
680.231540	0.328257
680.434498	0.328439
680.637438	0.328988
680.840359	0.329263
681.043263	0.329127
681.246148	0.329512
681.449015	0.329866
681.651864	0.330200
681.854694	0.330844
682.057506	0.331071
682.260301	0.331262
682.463076	0.331149
682.665834	0.331113
682.868573	0.331468
683.071295	0.331628
683.273998	0.331679
683.476682	0.331478
683.679349	0.331417
683.881997	0.331670
684.084627	0.331960
684.287239	0.332080
684.489833	0.332159
684.692408	0.332206
684.894965	0.332268
685.097504	0.332750
685.300025	0.332993
685.502527	0.333239
685.705012	0.333639
685.907478	0.333790
686.109925	0.333890
686.312355	0.334288
686.514766	0.334706
686.717159	0.335171
686.919534	0.335131
687.121891	0.335286
687.324230	0.335499
687.526550	0.335459
687.728852	0.335576
687.931136	0.336091
688.133401	0.336214
688.335649	0.336197
688.537878	0.336197
688.740089	0.336610
688.942281	0.336989
689.144456	0.337074
689.346612	0.337313
689.548750	0.337370
689.750870	0.337365
689.952971	0.337428
690.155055	0.337782
690.357120	0.337915
690.559167	0.337912
690.761195	0.338197
690.963206	0.338295
691.165198	0.338489
691.367172	0.338764
691.569128	0.338948
691.771065	0.339326
691.972984	0.339595
692.174885	0.339926
692.376768	0.340253
692.578633	0.340317
692.780479	0.340738
692.982308	0.340903
693.184118	0.340960
693.385909	0.341501
693.587683	0.341649
693.789438	0.341857
693.991175	0.341978
694.192894	0.342153
694.394595	0.342314
694.596277	0.342465
694.797941	0.342879
694.999587	0.343180
695.201215	0.342966
695.402824	0.343211
695.604416	0.343572
695.805989	0.343559
696.007543	0.343698
696.209080	0.343883
696.410598	0.343764
696.612099	0.343628
696.813580	0.343929
697.015044	0.344205
697.216490	0.344441
697.417917	0.344314
697.619326	0.344422
697.820717	0.344380
698.022089	0.344525
698.223444	0.344878
698.424780	0.345240
698.626098	0.345305
698.827397	0.345431
699.028679	0.345131
699.229942	0.345225
699.431187	0.345401
699.632414	0.345476
699.833622	0.345735
700.034813	0.345855
700.235985	0.345856
700.437139	0.345942
700.638274	0.346178
700.839392	0.346627
701.040491	0.346857
701.241572	0.347311
701.442635	0.347625
701.643679	0.347509
701.844706	0.347665
702.045714	0.347951
702.246704	0.348137
702.447675	0.348059
702.648629	0.347835
702.849564	0.347771
703.050481	0.347611
703.251380	0.347859
703.452260	0.348227
703.653122	0.348144
703.853966	0.347894
704.054792	0.347933
704.255600	0.348066
704.456389	0.348220
704.657160	0.348197
704.857913	0.348570
705.058648	0.348599
705.259365	0.348563
705.460063	0.348274
705.660743	0.348511
705.861405	0.348636
706.062048	0.348436
706.262674	0.348664
706.463281	0.348650
706.663870	0.348439
706.864441	0.348272
707.064993	0.348433
707.265527	0.348976
707.466043	0.348897
707.666541	0.348780
707.867021	0.349183
708.067482	0.349017
708.267925	0.349210
708.468350	0.349460
708.668757	0.349733
708.869145	0.349754
709.069516	0.350015
709.269868	0.350243
709.470201	0.350601
709.670517	0.350553
709.870814	0.350848
710.071093	0.350829
710.271354	0.350637
710.471597	0.350606
710.671821	0.350720
710.872028	0.350641
711.072216	0.350659
711.272385	0.350305
711.472537	0.350234
711.672670	0.350315
711.872785	0.350262
712.072882	0.350627
712.272961	0.350524
712.473021	0.350291
712.673063	0.350308
712.873087	0.350356
713.073093	0.350534
713.273081	0.350427
713.473050	0.350233
713.673001	0.350459
713.872934	0.350440
714.072849	0.350870
714.272745	0.351001
714.472623	0.350892
714.672483	0.350794
714.872325	0.350686
715.072148	0.350919
715.271954	0.351004
715.471741	0.350914
715.671509	0.350683
715.871260	0.350242
716.070992	0.350119
716.270707	0.350176
716.470403	0.350155
716.670080	0.350330
716.869740	0.350182
717.069381	0.349955
717.269004	0.350140
717.468609	0.350163
717.668195	0.350191
717.867764	0.350512
718.067314	0.350360
718.266846	0.350314
718.466360	0.350071
718.665855	0.350249
718.865332	0.350565
719.064791	0.350264
719.264232	0.350194
719.463655	0.350094
719.663059	0.349750
719.862445	0.349946
720.061813	0.349965
720.261163	0.349982
720.460494	0.349931
720.659807	0.349795
720.859102	0.349849
721.058379	0.349749
721.257638	0.349733
721.456878	0.349608
721.656100	0.349397
721.855304	0.349112
722.054490	0.349052
722.253657	0.348809
722.452806	0.348412
722.651937	0.348244
722.851050	0.348100
723.050145	0.348026
723.249221	0.348105
723.448279	0.347887
723.647319	0.347934
723.846340	0.347843
724.045344	0.347437
724.244329	0.347436
724.443296	0.347353
724.642245	0.347281
724.841175	0.347233
725.040088	0.346988
725.238982	0.347011
725.437857	0.346754
725.636715	0.346622
725.835554	0.346898
726.034376	0.346929
726.233179	0.347005
726.431963	0.347090
726.630730	0.346985
726.829478	0.347006
727.028208	0.346948
727.226920	0.346852
727.425614	0.346629
727.624289	0.346513
727.822946	0.346359
728.021585	0.346106
728.220206	0.346002
728.418808	0.345771
728.617392	0.345605
728.815958	0.345450
729.014506	0.345649
729.213036	0.345765
729.411547	0.345502
729.610040	0.345192
729.808515	0.344948
730.006972	0.344855
730.205410	0.344620
730.403831	0.344274
730.602233	0.344112
730.800616	0.343831
730.998982	0.343776
731.197329	0.343818
731.395658	0.344085
731.593969	0.344058
731.792262	0.343866
731.990536	0.343847
732.188793	0.343872
732.387031	0.343688
732.585250	0.343598
732.783452	0.343267
732.981635	0.342874
733.179800	0.342502
733.377947	0.342345
733.576076	0.341972
733.774186	0.341972
733.972278	0.341727
734.170352	0.341633
734.368408	0.341552
734.566446	0.341373
734.764465	0.341190
734.962466	0.341213
735.160449	0.341153
735.358413	0.340959
735.556360	0.340425
735.754288	0.340274
735.952198	0.340056
736.150090	0.339648
736.347963	0.339681
736.545818	0.339807
736.743655	0.339485
736.941474	0.339189
737.139275	0.339052
737.337057	0.338948
737.534821	0.338862
737.732567	0.338739
737.930295	0.338677
738.128005	0.338506
738.325696	0.338069
738.523369	0.337791
738.721024	0.337386
738.918660	0.337263
739.116279	0.337131
739.313879	0.337039
739.511461	0.336771
739.709024	0.336800
739.906570	0.336477
740.104097	0.336239
740.301606	0.336087
740.499097	0.336150
740.696569	0.335971
740.894024	0.335931
741.091460	0.335760
741.288878	0.335385
741.486277	0.335157
741.683659	0.335065
741.881022	0.334955
742.078367	0.334962
742.275694	0.334815
742.473002	0.334730
742.670293	0.334372
742.867565	0.334056
743.064819	0.334145
743.262054	0.333883
743.459272	0.333570
743.656471	0.333245
743.853652	0.332961
744.050815	0.332483
744.247959	0.332231
744.445085	0.332029
744.642194	0.331847
744.839283	0.331430
745.036355	0.330740
745.233408	0.330572
745.430444	0.330567
745.627461	0.330050
745.824459	0.329831
746.021440	0.329541
746.218402	0.329749
746.415346	0.329429
746.612272	0.329296
746.809180	0.329240
747.006069	0.329044
747.202940	0.328874
747.399793	0.328942
747.596628	0.328788
747.793444	0.328701
747.990243	0.328193
748.187023	0.328034
748.383784	0.328070
748.580528	0.328074
748.777253	0.327814
748.973960	0.327518
749.170649	0.327441
749.367320	0.327334
749.563973	0.327151
749.760607	0.326940
749.957223	0.326729
750.153821	0.326206
750.350400	0.325761
750.546962	0.325463
750.743505	0.325244
750.940030	0.324782
751.136536	0.324516
751.333025	0.324070
751.529495	0.323734
751.725947	0.323759
751.922381	0.323744
752.118796	0.323780
752.315194	0.323589
752.511573	0.323694
752.707934	0.323644
752.904276	0.323822
753.100601	0.323684
753.296907	0.323912
753.493195	0.323530
753.689465	0.323174
753.885716	0.323167
754.081949	0.323083
754.278164	0.322704
754.474361	0.322438
754.670540	0.321948
754.866700	0.321982
755.062843	0.321939
755.258967	0.322021
755.455072	0.322059
755.651160	0.322029
755.847229	0.321817
756.043280	0.321814
756.239313	0.321744
756.435328	0.321621
756.631324	0.321409
756.827302	0.320982
757.023262	0.320516
757.219204	0.320152
757.415127	0.319830
757.611033	0.319846
757.806920	0.319534
758.002788	0.319451
758.198639	0.319190
758.394471	0.319119
758.590286	0.319007
758.786081	0.318801
758.981859	0.318633
759.177619	0.318401
759.373360	0.318153
759.569083	0.318152
759.764788	0.318026
759.960474	0.317850
760.156143	0.317676
760.351793	0.317359
760.547425	0.317243
760.743038	0.317382
760.938634	0.317308
761.134211	0.317029
761.329770	0.316674
761.525311	0.316418
761.720833	0.316520
761.916338	0.316121
762.111824	0.316171
762.307292	0.316194
762.502741	0.316046
762.698173	0.315390
762.893586	0.315252
763.088981	0.315050
763.284358	0.314614
763.479716	0.314208
763.675057	0.314036
763.870379	0.313540
764.065683	0.313326
764.260968	0.312953
764.456236	0.313130
764.651485	0.313047
764.846716	0.312853
765.041929	0.313222
765.237123	0.313178
765.432299	0.313323
765.627457	0.313216
765.822597	0.312788
766.017719	0.312988
766.212822	0.312817
766.407907	0.312908
766.602974	0.312851
766.798023	0.312201
766.993054	0.312323
767.188066	0.311730
767.383060	0.312141
767.578036	0.312259
767.772993	0.311984
767.967933	0.311673
768.162854	0.311341
768.357757	0.311182
768.552642	0.311435
768.747508	0.311209
768.942356	0.311622
769.137186	0.311187
769.331998	0.310819
769.526792	0.310716
769.721567	0.311004
769.916324	0.311045
770.111063	0.310800
770.305784	0.310673
770.500486	0.310582
770.695171	0.310297
770.889837	0.310360
771.084484	0.310807
771.279114	0.310780
771.473725	0.310489
771.668318	0.310185
771.862893	0.310399
772.057450	0.310216
772.251988	0.310309
772.446509	0.310234
772.641011	0.309565
772.835494	0.309181
773.029960	0.309001
773.224407	0.308936
773.418836	0.308865
773.613247	0.308749
773.807640	0.308871
774.002014	0.308670
774.196370	0.308709
774.390708	0.309139
774.585028	0.309221
774.779330	0.309037
774.973613	0.308880
775.167878	0.308935
775.362125	0.308840
775.556354	0.308638
775.750564	0.308530
775.944756	0.308160
776.138930	0.308183
776.333086	0.307994
776.527223	0.307945
776.721343	0.308076
776.915444	0.307914
777.109526	0.308027
777.303591	0.308041
777.497637	0.307904
777.691666	0.308227
777.885676	0.308080
778.079667	0.307984
778.273641	0.307983
778.467596	0.308031
778.661533	0.308118
778.855452	0.308169
779.049352	0.307766
779.243235	0.307700
779.437099	0.307580
779.630945	0.307740
779.824773	0.307653
780.018582	0.307604
780.212373	0.307473
780.406146	0.307340
780.599901	0.307010
780.793638	0.307329
780.987356	0.307322
781.181056	0.307319
781.374738	0.306926
781.568402	0.307139
781.762047	0.307095
781.955674	0.306937
782.149283	0.307069
782.342874	0.307220
782.536447	0.307239
782.730001	0.307106
782.923537	0.306785
783.117055	0.306652
783.310555	0.306717
783.504036	0.307034
783.697499	0.307124
783.890944	0.307288
784.084371	0.307287
784.277780	0.307280
784.471170	0.307426
784.664542	0.307709
784.857896	0.308047
785.051231	0.308088
785.244549	0.307872
785.437848	0.307916
785.631129	0.307725
785.824392	0.307697
786.017636	0.307394
786.210863	0.307559
786.404071	0.307708
786.597260	0.307546
786.790432	0.307477
786.983585	0.307504
787.176721	0.307626
787.369838	0.307775
787.562936	0.307954
787.756017	0.308217
787.949079	0.308185
788.142123	0.307951
788.335149	0.308204
788.528156	0.307811
788.721146	0.308013
788.914117	0.308106
789.107070	0.307868
789.300005	0.307860
789.492921	0.308088
789.685819	0.308068
789.878699	0.308419
790.071561	0.308385
790.264405	0.308792
790.457230	0.308806
790.650037	0.308621
790.842826	0.308802
791.035597	0.308787
791.228349	0.308808
791.421084	0.309088
791.613800	0.309149
791.806497	0.309362
791.999177	0.309711
792.191838	0.309796
792.384481	0.310001
792.577106	0.310137
792.769713	0.310408
792.962301	0.310771
793.154871	0.310590
793.347423	0.310572
793.539957	0.310608
793.732473	0.310367
793.924970	0.310480
794.117449	0.310765
794.309910	0.310910
794.502353	0.310970
794.694777	0.310656
794.887183	0.311053
795.079571	0.311360
795.271941	0.311709
795.464293	0.311816
795.656626	0.311886
795.848941	0.312180
796.041238	0.312409
796.233516	0.312576
796.425777	0.312643
796.618019	0.312669
796.810243	0.312468
797.002449	0.312420
797.194636	0.312639
797.386805	0.312708
797.578956	0.312602
797.771089	0.312713
797.963204	0.312543
798.155300	0.312889
798.347378	0.312980
798.539438	0.313290
798.731480	0.313026
798.923503	0.313244
799.115509	0.313337
799.307496	0.313527
799.499465	0.313587
799.691415	0.313814
799.883348	0.314079
800.075262	0.314138
800.267158	0.314249
800.459035	0.314685
800.650895	0.314823
800.842736	0.315095
801.034559	0.314893
801.226364	0.315202
801.418150	0.315602
801.609919	0.315615
801.801669	0.316226
801.993401	0.316403
802.185114	0.316669
802.376810	0.317050
802.568487	0.317203
802.760146	0.317898
802.951787	0.318185
803.143409	0.318337
803.335014	0.318564
803.526600	0.318419
803.718168	0.318670
803.909717	0.318849
804.101249	0.318849
804.292762	0.318994
804.484257	0.318892
804.675734	0.318790
804.867192	0.318914
805.058632	0.319159
805.250054	0.319536
805.441458	0.320052
805.632844	0.320363
805.824211	0.320549
806.015561	0.320859
806.206891	0.321164
806.398204	0.321510
806.589499	0.321769
806.780775	0.321861
806.972033	0.322018
807.163273	0.321822
807.354495	0.321992
807.545698	0.322187
807.736883	0.322420
807.928050	0.322466
808.119199	0.322509
808.310329	0.322958
808.501441	0.323190
808.692535	0.323300
808.883611	0.323677
809.074669	0.324010
809.265708	0.324372
809.456729	0.324618
809.647732	0.325128
809.838717	0.325513
810.029683	0.325497
810.220632	0.325976
810.411562	0.326335
810.602474	0.326519
810.793367	0.326644
810.984242	0.326619
811.175100	0.327224
811.365938	0.327343
811.556759	0.327975
811.747562	0.328205
811.938346	0.328351
812.129112	0.328680
812.319860	0.328950
812.510589	0.329103
812.701300	0.329648
812.891994	0.329573
813.082668	0.329857
813.273325	0.329652
813.463964	0.329795
813.654584	0.329983
813.845186	0.330301
814.035769	0.330771
814.226335	0.331485
814.416882	0.331884
814.607411	0.332131
814.797922	0.332521
814.988415	0.333164
815.178889	0.333762
815.369345	0.334474
815.559783	0.334693
815.750203	0.334659
815.940605	0.334854
816.130988	0.335013
816.321353	0.335281
816.511700	0.335703
816.702028	0.335750
816.892339	0.336052
817.082631	0.336036
817.272905	0.336454
817.463161	0.336979
817.653398	0.337129
817.843617	0.337387
818.033819	0.337848
818.224001	0.338237
818.414166	0.338374
818.604312	0.338807
818.794440	0.339233
818.984550	0.339343
819.174642	0.339744
819.364716	0.340069
819.554771	0.340417
819.744808	0.340900
819.934827	0.341210
820.124827	0.341690
820.314810	0.341950
820.504774	0.342344
820.694720	0.342849
820.884647	0.343272
821.074557	0.343802
821.264448	0.344331
821.454321	0.344676
821.644176	0.345095
821.834012	0.345334
822.023831	0.345639
822.213631	0.346175
822.403413	0.346445
822.593176	0.346770
822.782922	0.346951
822.972649	0.347117
823.162358	0.347380
823.352049	0.347595
823.541721	0.348309
823.731376	0.348587
823.921012	0.348740
824.110629	0.349231
824.300229	0.349357
824.489811	0.349691
824.679374	0.349945
824.868919	0.350369
825.058445	0.350492
825.247954	0.350704
825.437444	0.351132
825.626916	0.351614
825.816370	0.351785
826.005806	0.352369
826.195223	0.353014
826.384622	0.353727
826.574003	0.353794
826.763366	0.353962
826.952711	0.354558
827.142037	0.355150
827.331345	0.355333
827.520635	0.355730
827.709906	0.355904
827.899160	0.356244
828.088395	0.356411
828.277612	0.356887
828.466810	0.357607
828.655991	0.357831
828.845153	0.357975
829.034297	0.358286
829.223423	0.358903
829.412531	0.359461
829.601620	0.359567
829.790691	0.360127
829.979744	0.360464
830.168779	0.360797
830.357795	0.361149
830.546793	0.361622
830.735773	0.362045
830.924735	0.362230
831.113679	0.362538
831.302604	0.362765
831.491511	0.363361
831.680400	0.363915
831.869271	0.364433
832.058123	0.364774
832.246957	0.365253
832.435773	0.365755
832.624571	0.366151
832.813351	0.366501
833.002112	0.366949
833.190855	0.367161
833.379580	0.367764
833.568287	0.368345
833.756975	0.368868
833.945645	0.369113
834.134297	0.369670
834.322931	0.370167
834.511547	0.370402
834.700144	0.370969
834.888723	0.371053
835.077284	0.371134
835.265826	0.370990
835.454351	0.371215
835.642857	0.371822
835.831345	0.371926
836.019815	0.372176
836.208266	0.372736
836.396699	0.373237
836.585114	0.373860
836.773511	0.374329
836.961890	0.375138
837.150250	0.375695
837.338592	0.376090
837.526916	0.376715
837.715222	0.377585
837.903510	0.377987
838.091779	0.378591
838.280030	0.379175
838.468263	0.379708
838.656477	0.380104
838.844674	0.380664
839.032852	0.380686
839.221012	0.381096
839.409153	0.381125
839.597277	0.381553
839.785382	0.381896
839.973469	0.382241
840.161538	0.382648
840.349589	0.382889
840.537621	0.383173
840.725635	0.383676
840.913631	0.384037
841.101609	0.384499
841.289568	0.385173
841.477509	0.385730
841.665432	0.386482
841.853337	0.386986
842.041224	0.387518
842.229092	0.387909
842.416942	0.388568
842.604774	0.388897
842.792588	0.389454
842.980383	0.389712
843.168160	0.389984
843.355919	0.390117
843.543660	0.390714
843.731382	0.391569
843.919087	0.392205
844.106773	0.392754
844.294441	0.393225
844.482090	0.393670
844.669722	0.394236
844.857335	0.394746
845.044930	0.394988
845.232507	0.394979
845.420065	0.395290
845.607605	0.395727
845.795127	0.396346
845.982631	0.396849
846.170117	0.397433
846.357584	0.397570
846.545033	0.397900
846.732464	0.398686
846.919877	0.399522
847.107272	0.399548
847.294648	0.400346
847.482006	0.400788
847.669346	0.401554
847.856667	0.401783
848.043971	0.402545
848.231256	0.403052
848.418523	0.403047
848.605771	0.403207
848.793002	0.403940
848.980214	0.403951
849.167408	0.404202
849.354584	0.404628
849.541742	0.405255
849.728881	0.405464
849.916002	0.405784
850.103105	0.407164
850.290190	0.407655
850.477256	0.408299
850.664304	0.408800
850.851334	0.408821
851.038346	0.409224
851.225340	0.409755
851.412315	0.410686
851.599272	0.411170
851.786211	0.410977
851.973132	0.411732
852.160034	0.412210
852.346918	0.412566
852.533784	0.413306
852.720632	0.413911
852.907462	0.414384
853.094273	0.414657
853.281066	0.415229
853.467841	0.415772
853.654598	0.416142
853.841336	0.416077
854.028056	0.416414
854.214758	0.417246
854.401442	0.417368
854.588107	0.417714
854.774755	0.418191
854.961384	0.418467
855.147995	0.418991
855.334587	0.419038
855.521162	0.419870
855.707718	0.420393
855.894256	0.420238
856.080775	0.420791
856.267277	0.421089
856.453760	0.421325
856.640225	0.422015
856.826672	0.422317
857.013101	0.422921
857.199511	0.423280
857.385903	0.423909
857.572277	0.424168
857.758633	0.424369
857.944970	0.424888
858.131290	0.425173
858.317591	0.425819
858.503873	0.426214
858.690138	0.426715
858.876384	0.427345
859.062612	0.427750
859.248822	0.428274
859.435014	0.428922
859.621188	0.429166
859.807343	0.430013
859.993480	0.429858
860.179599	0.430185
860.365699	0.430562
860.551781	0.430712
860.737846	0.430854
860.923891	0.431739
861.109919	0.431858
861.295929	0.432403
861.481920	0.432831
861.667893	0.433248
861.853848	0.433257
862.039784	0.433765
862.225702	0.434066
862.411603	0.434664
862.597484	0.435076
862.783348	0.435483
862.969193	0.435838
863.155021	0.436140
863.340830	0.436721
863.526620	0.437497
863.712393	0.438026
863.898147	0.438630
864.083883	0.438979
864.269601	0.439096
864.455301	0.438944
864.640982	0.438951
864.826645	0.438977
865.012290	0.439158
865.197917	0.439875
865.383526	0.440159
865.569116	0.440275
865.754688	0.440427
865.940242	0.440962
866.125777	0.442033
866.311295	0.442542
866.496794	0.443289
866.682275	0.443597
866.867737	0.443766
867.053182	0.443796
867.238608	0.443889
867.424016	0.444377
867.609406	0.444471
867.794778	0.444888
867.980131	0.445632
868.165466	0.445946
868.350783	0.446228
868.536082	0.446285
868.721362	0.446568
868.906625	0.447026
869.091869	0.447436
869.277094	0.447917
869.462302	0.448106
869.647491	0.448003
869.832662	0.448156
870.017815	0.448813
870.202950	0.448988
870.388066	0.449546
870.573165	0.449609
870.758245	0.449998
870.943306	0.450279
871.128350	0.450139
871.313375	0.450652
871.498382	0.451196
871.683371	0.451301
871.868342	0.451889
872.053294	0.452291
872.238229	0.452846
872.423144	0.453187
872.608042	0.453474
872.792922	0.454022
872.977783	0.454267
873.162626	0.454777
873.347451	0.455031
873.532258	0.454949
873.717046	0.455108
873.901816	0.455750
874.086568	0.455828
874.271302	0.455610
874.456017	0.456411
874.640715	0.456496
874.825394	0.456028
875.010055	0.456610
875.194697	0.457588
875.379322	0.458186
875.563928	0.458966
875.748516	0.458961
875.933085	0.459915
876.117637	0.459899
876.302170	0.460423
876.486685	0.460955
876.671182	0.460914
876.855661	0.460776
877.040121	0.461074
877.224563	0.460866
877.408987	0.461447
877.593393	0.461519
877.777780	0.461480
877.962150	0.461658
878.146501	0.461582
878.330833	0.462000
878.515148	0.462274
878.699444	0.462525
878.883722	0.462519
879.067982	0.462694
879.252224	0.463003
879.436447	0.463249
879.620653	0.463190
879.804840	0.463885
879.989008	0.464441
880.173159	0.464476
880.357291	0.463993
880.541405	0.464160
880.725501	0.464611
880.909579	0.464242
881.093638	0.464953
881.277680	0.465218
881.461703	0.464723
881.645707	0.464422
881.829694	0.464761
882.013662	0.464714
882.197612	0.464713
882.381544	0.464723
882.565458	0.464681
882.749353	0.464214
882.933230	0.464041
883.117089	0.463894
883.300930	0.463778
883.484753	0.463692
883.668557	0.464065
883.852343	0.464185
884.036111	0.463770
884.219861	0.464288
884.403592	0.464810
884.587305	0.465262
884.771000	0.465857
884.954677	0.465589
885.138335	0.465476
885.321976	0.465783
885.505598	0.465615
885.689201	0.465648
885.872787	0.465393
886.056354	0.464918
886.239904	0.465036
886.423434	0.465250
886.606947	0.465852
886.790442	0.466135
886.973918	0.466157
887.157376	0.465966
887.340816	0.466574
887.524237	0.466952
887.707641	0.467390
887.891026	0.467682
888.074393	0.467020
888.257741	0.466740
888.441072	0.466495
888.624384	0.466287
888.807678	0.466904
888.990954	0.466395
889.174211	0.466483
889.357451	0.465889
889.540672	0.465680
889.723875	0.466111
889.907059	0.466083
890.090226	0.466087
890.273374	0.465793
890.456504	0.465459
890.639616	0.465253
890.822709	0.464969
891.005785	0.465251
891.188842	0.464794
891.371881	0.464666
891.554901	0.464856
891.737904	0.464512
891.920888	0.464750
892.103854	0.465257
892.286802	0.465483
892.469731	0.465345
892.652643	0.465296
892.835536	0.465585
893.018410	0.465669
893.201267	0.465523
893.384106	0.466036
893.566926	0.465854
893.749728	0.465239
893.932511	0.465281
894.115277	0.465371
894.298024	0.465413
894.480753	0.465743
894.663464	0.465526
894.846157	0.465554
895.028831	0.464865
895.211487	0.464959
895.394125	0.464609
895.576745	0.464507
895.759346	0.464510
895.941930	0.463891
896.124495	0.463142
896.307041	0.463310
896.489570	0.462772
896.672080	0.462941
896.854573	0.462525
897.037046	0.462376
897.219502	0.461587
897.401940	0.461404
897.584359	0.461435
897.766760	0.461111
897.949143	0.460928
898.131507	0.460595
898.313854	0.460394
898.496182	0.459932
898.678492	0.460059
898.860783	0.460750
899.043057	0.460263
899.225312	0.459673
899.407549	0.459459
899.589768	0.459351
899.771968	0.459681
899.954151	0.459431
900.136315	0.459645
900.318461	0.459947
900.500588	0.458869
900.682698	0.458737
900.864789	0.458172
901.046862	0.457529
901.228917	0.456591
901.410953	0.455727
901.592971	0.455173
901.774972	0.454232
901.956953	0.453173
902.138917	0.452999
902.320862	0.452047
902.502790	0.452316
902.684699	0.452043
902.866589	0.452034
903.048462	0.451662
903.230316	0.451705
903.412152	0.452522
903.593970	0.451709
903.775770	0.451134
903.957551	0.451519
904.139314	0.451556
904.321059	0.451592
904.502786	0.450767
904.684494	0.450993
904.866185	0.450453
905.047857	0.449240
905.229510	0.448978
905.411146	0.448601
905.592763	0.447823
905.774363	0.446382
905.955943	0.445854
906.137506	0.445782
906.319051	0.445340
906.500577	0.444870
906.682085	0.445051
906.863575	0.445335
907.045046	0.445447
907.226500	0.444777
907.407935	0.444683
907.589352	0.444744
907.770750	0.444631
907.952131	0.445038
908.133493	0.444848
908.314837	0.443659
908.496163	0.442916
908.677470	0.442674
908.858760	0.442727
909.040031	0.442878
909.221284	0.442258
909.402518	0.441959
909.583735	0.439996
909.764933	0.439395
909.946113	0.439111
910.127275	0.438563
910.308418	0.437979
910.489544	0.437363
910.670651	0.436271
910.851740	0.435385
911.032810	0.434040
911.213863	0.433790
911.394897	0.432771
911.575913	0.433043
911.756911	0.432517
911.937890	0.431625
912.118851	0.431258
912.299794	0.430782
912.480719	0.430355
912.661626	0.430109
912.842514	0.430206
913.023384	0.430386
913.204236	0.429022
913.385070	0.428658
913.565886	0.427850
913.746683	0.426818
913.927462	0.426738
914.108223	0.425837
914.288965	0.425244
914.469690	0.424135
914.650396	0.423525
914.831084	0.423162
915.011754	0.422542
915.192405	0.422736
915.373038	0.422242
915.553653	0.421514
915.734250	0.420948
915.914829	0.420939
916.095389	0.420054
916.275931	0.419804
916.456455	0.418854
916.636961	0.418533
916.817448	0.417649
916.997917	0.416961
917.178368	0.416445
917.358801	0.415746
917.539216	0.414854
917.719612	0.414535
917.899990	0.413048
918.080350	0.412370
918.260692	0.411024
918.441015	0.410294
918.621320	0.409701
918.801607	0.408189
918.981876	0.408024
919.162127	0.407073
919.342359	0.405400
919.522573	0.404708
919.702769	0.404048
919.882947	0.403294
920.063106	0.402319
920.243247	0.402165
920.423370	0.401965
920.603475	0.401300
920.783562	0.399701
920.963630	0.399276
921.143680	0.398790
921.323712	0.398046
921.503725	0.397706
921.683721	0.397178
921.863698	0.395892
922.043657	0.395288
922.223598	0.394878
922.403520	0.394907
922.583424	0.394916
922.763311	0.394289
922.943178	0.393015
923.123028	0.392642
923.302859	0.392329
923.482673	0.391490
923.662467	0.390884
923.842244	0.388987
924.022003	0.388464
924.201743	0.386758
924.381465	0.385660
924.561169	0.384763
924.740854	0.383434
924.920522	0.381847
925.100171	0.380742
925.279802	0.379332
925.459414	0.379405
925.639009	0.378132
925.818585	0.377697
925.998143	0.376745
926.177683	0.376624
926.357205	0.375588
926.536708	0.374672
926.716193	0.374302
926.895660	0.373672
927.075109	0.372242
927.254539	0.371419
927.433951	0.370515
927.613345	0.370202
927.792721	0.369271
927.972079	0.368699
928.151418	0.368098
928.330739	0.366745
928.510042	0.365639
928.689327	0.365530
928.868593	0.364836
929.047841	0.363805
929.227071	0.362075
929.406283	0.360724
929.585476	0.359433
929.764652	0.358782
929.943809	0.357898
930.122948	0.356586
930.302068	0.354823
930.481171	0.353915
930.660255	0.353331
930.839321	0.353185
931.018369	0.353273
931.197398	0.353251
931.376409	0.351785
931.555402	0.351201
931.734377	0.351050
931.913334	0.349726
932.092272	0.348280
932.271192	0.347587
932.450094	0.346346
932.628978	0.345399
932.807844	0.343846
932.986691	0.342976
933.165520	0.341959
933.344331	0.340480
933.523123	0.339956
933.701898	0.338518
933.880654	0.336707
934.059392	0.334666
934.238111	0.332766
934.416813	0.330811
934.595496	0.330063
934.774161	0.329886
934.952808	0.328614
935.131437	0.327891
935.310047	0.327129
935.488639	0.327376
935.667213	0.327147
935.845769	0.326431
936.024306	0.326118
936.202825	0.323924
936.381326	0.321774
936.559809	0.321101
936.738274	0.319535
936.916720	0.318556
937.095148	0.316098
937.273558	0.314911
937.451950	0.313064
937.630323	0.312041
937.808678	0.310946
937.987015	0.310298
938.165334	0.309961
938.343635	0.308933
938.521917	0.307898
938.700181	0.307080
938.878427	0.305657
939.056655	0.305093
939.234864	0.303700
939.413055	0.303269
939.591228	0.302822
939.769383	0.301447
939.947519	0.300269
940.125638	0.299348
940.303738	0.298986
940.481820	0.297335
940.659883	0.296463
940.837929	0.294827
941.015956	0.294696
941.193965	0.292629
941.371955	0.291186
941.549928	0.290489
941.727882	0.288969
941.905818	0.286675
942.083736	0.286647
942.261636	0.285099
942.439517	0.284221
942.617380	0.282273
942.795225	0.281342
942.973052	0.279678
943.150860	0.278060
943.328651	0.277298
943.506423	0.276756
943.684176	0.275792
943.861912	0.274551
944.039629	0.273638
944.217328	0.273037
944.395009	0.271790
944.572672	0.270726
944.750317	0.268961
944.927943	0.267497
945.105551	0.266034
945.283141	0.265111
945.460712	0.263707
945.638265	0.263047
945.815801	0.260845
945.993317	0.260651
946.170816	0.260098
946.348297	0.258562
946.525759	0.258067
946.703203	0.255761
946.880629	0.254256
947.058036	0.253760
947.235425	0.252067
947.412797	0.251646
947.590149	0.248114
947.767484	0.245386
947.944800	0.244403
948.122099	0.243890
948.299379	0.243619
948.476640	0.241832
948.653884	0.240761
948.831109	0.238954
949.008316	0.237049
949.185505	0.235796
949.362676	0.234708
949.539828	0.235127
949.716962	0.233400
949.894078	0.233782
950.071176	0.230502
950.248256	0.229377
950.425317	0.229521
950.602360	0.227742
950.779385	0.227055
950.956391	0.226648
951.133380	0.224254
951.310350	0.220878
951.487302	0.219477
951.664235	0.220672
951.841151	0.220831
952.018048	0.218508
952.194927	0.218347
952.371788	0.218530
952.548631	0.216605
952.725455	0.215605
952.902261	0.215852
953.079049	0.213951
953.255819	0.213034
953.432570	0.210629
953.609303	0.209886
953.786018	0.207537
953.962715	0.205229
954.139394	0.203767
954.316054	0.201668
954.492696	0.200495
954.669320	0.199206
954.845926	0.196944
955.022513	0.194574
955.199083	0.195366
955.375634	0.196287
955.552166	0.195018
955.728681	0.195434
955.905177	0.194165
956.081655	0.193220
956.258115	0.193510
956.434557	0.193781
956.610980	0.193418
956.787385	0.191380
956.963772	0.189103
957.140141	0.186964
957.316492	0.186149
957.492824	0.185948
957.669138	0.183343
957.845434	0.181651
958.021712	0.179630
958.197971	0.180730
958.374212	0.177435
958.550435	0.176452
958.726640	0.177046
958.902826	0.174902
959.078995	0.173123
959.255145	0.174400
959.431277	0.172273
959.607390	0.172042
959.783486	0.168675
959.959563	0.171854
960.135622	0.171100
960.311662	0.171173
960.487685	0.170558
960.663689	0.171705
960.839675	0.168783
961.015643	0.169161
961.191593	0.166237
961.367524	0.164318
961.543437	0.161043
961.719332	0.159891
961.895209	0.160212
962.071067	0.160627
962.246907	0.159831
962.422730	0.162542
962.598533	0.161070
962.774319	0.161710
962.950086	0.161955
963.125835	0.161418
963.301566	0.160660
963.477279	0.157298
963.652973	0.158701
963.828650	0.159633
964.004308	0.157113
964.179947	0.156626
964.355569	0.157887
964.531172	0.158665
964.706757	0.156338
964.882324	0.157737
965.057873	0.157307
965.233403	0.155041
965.408916	0.152803
965.584410	0.152039
965.759885	0.154058
965.935343	0.152113
966.110782	0.150748
966.286203	0.152820
966.461606	0.150290
966.636991	0.149803
966.812357	0.148906
966.987705	0.148958
967.163035	0.149548
967.338347	0.146039
967.513641	0.146607
967.688916	0.145675
967.864173	0.146056
968.039412	0.145236
968.214632	0.145151
968.389835	0.145574
968.565019	0.144537
968.740185	0.144534
968.915333	0.143326
969.090462	0.143712
969.265573	0.144366
969.440667	0.141319
969.615741	0.144545
969.790798	0.144891
969.965836	0.145789
970.140856	0.145760
970.315858	0.145566
970.490842	0.146971
970.665808	0.146430
970.840755	0.147735
971.015684	0.148056
971.190595	0.145494
971.365487	0.148118
971.540362	0.147918
971.715218	0.147004
971.890056	0.147105
972.064875	0.146959
972.239677	0.147608
972.414460	0.147400
972.589225	0.149011
972.763972	0.148832
972.938700	0.147565
973.113411	0.146135
973.288103	0.148307
973.462777	0.148394
973.637432	0.149660
973.812070	0.150707
973.986689	0.150867
974.161290	0.151907
974.335873	0.151745
974.510437	0.150123
974.684984	0.150354
974.859512	0.149947
975.034022	0.149307
975.208513	0.150595
975.382987	0.148815
975.557442	0.147896
975.731879	0.151007
975.906298	0.152769
976.080698	0.153600
976.255080	0.151867
976.429445	0.151264
976.603790	0.150383
976.778118	0.150175
976.952427	0.149537
977.126719	0.151356
977.300992	0.147162
977.475246	0.144641
977.649483	0.143438
977.823701	0.144001
977.997901	0.145484
978.172083	0.144123
978.346247	0.142671
978.520392	0.141685
978.694519	0.141237
978.868628	0.140455
979.042719	0.143709
979.216791	0.143017
979.390845	0.141889
979.564882	0.139894
979.738899	0.143037
979.912899	0.143506
980.086880	0.145550
980.260843	0.142774
980.434788	0.142962
980.608715	0.141423
980.782623	0.143772
980.956514	0.147681
981.130386	0.148824
981.304240	0.147503
981.478075	0.146814
981.651892	0.146068
981.825692	0.148265
981.999472	0.148900
982.173235	0.147318
982.346980	0.146721
982.520706	0.145242
982.694414	0.144418
982.868104	0.145236
983.041775	0.145707
983.215428	0.146862
983.389064	0.145945
983.562680	0.146272
983.736279	0.148988
983.909860	0.149753
984.083422	0.148577
984.256966	0.148551
984.430491	0.147937
984.603999	0.147136
984.777488	0.146788
984.950959	0.147049
985.124412	0.146704
985.297847	0.144989
985.471263	0.144275
985.644661	0.145855
985.818041	0.147673
985.991403	0.149010
986.164747	0.148018
986.338072	0.146527
986.511379	0.145870
986.684668	0.144087
986.857938	0.144799
987.031191	0.144580
987.204425	0.143543
987.377641	0.143123
987.550839	0.141028
987.724018	0.142935
987.897179	0.141829
988.070322	0.144531
988.243447	0.146225
988.416554	0.146820
988.589642	0.146763
988.762712	0.147249
988.935764	0.147092
989.108798	0.147772
989.281813	0.146168
989.454811	0.147184
989.627790	0.145557
989.800751	0.144242
989.973693	0.143261
990.146617	0.142460
990.319524	0.141311
990.492412	0.140354
990.665281	0.141564
990.838133	0.142329
991.010966	0.145620
991.183781	0.146307
991.356578	0.149478
991.529356	0.150172
991.702117	0.152850
991.874859	0.153890
992.047583	0.153862
992.220288	0.152342
992.392976	0.152547
992.565645	0.151213
992.738296	0.152264
992.910929	0.151094
993.083543	0.151227
993.256139	0.150093
993.428718	0.149008
993.601277	0.149646
993.773819	0.148534
993.946342	0.147883
994.118848	0.149291
994.291335	0.145770
994.463803	0.144325
994.636254	0.144535
994.808686	0.143857
994.981100	0.146430
995.153496	0.144753
995.325874	0.147342
995.498233	0.147082
995.670574	0.145219
995.842897	0.147649
996.015202	0.148162
996.187488	0.148148
996.359757	0.148125
996.532007	0.146948
996.704239	0.149223
996.876452	0.147977
997.048648	0.148207
997.220825	0.147053
997.392984	0.146399
997.565124	0.148127
997.737247	0.148004
997.909351	0.148968
998.081437	0.148564
998.253505	0.148773
998.425554	0.148256
998.597586	0.147947
998.769599	0.149201
998.941594	0.148516
999.113571	0.146052
999.285529	0.145696
999.457469	0.144516
999.629391	0.144880
999.801295	0.144343
999.973181	0.144879
1000.145048	0.148507
1000.316897	0.148318
1000.488728	0.149979
1000.660541	0.150713
1000.832335	0.150674
1001.004111	0.149845
1001.175869	0.147941
1001.347609	0.147930
1001.519331	0.146871
1001.691034	0.146540
1001.862719	0.144909
1002.034386	0.140955
1002.206035	0.140588
1002.377665	0.140855
1002.549277	0.142566
1002.720871	0.142163
1002.892447	0.143586
1003.064004	0.145284
1003.235544	0.142135
1003.407065	0.142356
1003.578568	0.145870
1003.750052	0.146716
1003.921519	0.146400
1004.092967	0.146302
1004.264397	0.148718
1004.435809	0.145976
1004.607202	0.145932
1004.778577	0.147411
1004.949934	0.149210
1005.121273	0.148933
1005.292594	0.149033
1005.463896	0.151205
1005.635180	0.152009
1005.806446	0.150745
1005.977694	0.150436
1006.148923	0.150051
1006.320135	0.150231
1006.491328	0.149445
1006.662503	0.150173
1006.833659	0.151129
1007.004798	0.151769
1007.175918	0.151485
1007.347020	0.151972
1007.518103	0.153121
1007.689169	0.152782
1007.860216	0.152891
1008.031245	0.151252
1008.202256	0.150641
1008.373248	0.147672
1008.544223	0.144272
1008.715179	0.142587
1008.886117	0.142777
1009.057036	0.143549
1009.227938	0.146443
1009.398821	0.145458
1009.569686	0.147874
1009.740533	0.148452
1009.911361	0.151410
1010.082172	0.152988
1010.252964	0.154621
1010.423738	0.155512
1010.594493	0.156205
1010.765231	0.154302
1010.935950	0.156553
1011.106651	0.155851
1011.277334	0.154648
1011.447998	0.151252
1011.618645	0.150453
1011.789273	0.150080
1011.959882	0.149194
1012.130474	0.149262
1012.301048	0.150150
1012.471603	0.148954
1012.642140	0.147770
1012.812658	0.148758
1012.983159	0.151325
1013.153641	0.150712
1013.324105	0.150370
1013.494551	0.150216
1013.664979	0.149741
1013.835388	0.150103
1014.005779	0.148161
1014.176152	0.148511
1014.346507	0.147364
1014.516843	0.147390
1014.687162	0.148124
1014.857462	0.149630
1015.027744	0.150182
1015.198007	0.149025
1015.368252	0.146158
1015.538480	0.146859
1015.708689	0.148350
1015.878879	0.148550
1016.049052	0.146957
1016.219206	0.144732
1016.389342	0.140825
1016.559460	0.139609
1016.729559	0.140909
1016.899641	0.142644
1017.069704	0.144864
1017.239749	0.144102
1017.409775	0.143729
1017.579784	0.144285
1017.749774	0.145554
1017.919746	0.148399
1018.089700	0.150216
1018.259635	0.149380
1018.429553	0.148235
1018.599452	0.147948
1018.769333	0.148978
1018.939195	0.149347
1019.109040	0.151609
1019.278866	0.153855
1019.448674	0.153110
1019.618464	0.149912
1019.788235	0.148513
1019.957989	0.148103
1020.127724	0.145892
1020.297441	0.145110
1020.467139	0.144252
1020.636820	0.143506
1020.806482	0.141572
1020.976126	0.142998
1021.145752	0.142268
1021.315359	0.142362
1021.484948	0.143154
1021.654519	0.145110
1021.824072	0.145354
1021.993607	0.147223
1022.163123	0.145977
1022.332621	0.148052
1022.502101	0.146502
1022.671563	0.149093
1022.841007	0.149487
1023.010432	0.151051
1023.179839	0.150981
1023.349228	0.151862
1023.518598	0.152340
1023.687951	0.153747
1023.857285	0.154030
1024.026601	0.154177
1024.195899	0.153828
1024.365178	0.157373
1024.534439	0.154890
1024.703682	0.154336
1024.872907	0.155161
1025.042114	0.152337
1025.211302	0.153107
1025.380472	0.152928
1025.549624	0.152325
1025.718758	0.153330
1025.887873	0.150557
1026.056970	0.152890
1026.226049	0.153219
1026.395110	0.152997
1026.564153	0.153715
1026.733177	0.152540
1026.902183	0.150971
1027.071171	0.150550
1027.240141	0.150616
1027.409092	0.150648
1027.578026	0.152123
1027.746940	0.152903
1027.915837	0.152007
1028.084716	0.154099
1028.253576	0.153025
1028.422418	0.151422
1028.591242	0.153094
1028.760048	0.151879
1028.928835	0.149576
1029.097604	0.146707
1029.266355	0.145668
1029.435088	0.145242
1029.603803	0.143216
1029.772499	0.141466
1029.941177	0.143135
1030.109837	0.142996
1030.278478	0.144071
1030.447102	0.147479
1030.615707	0.147573
1030.784294	0.148464
1030.952863	0.146804
1031.121413	0.147559
1031.289945	0.148664
1031.458460	0.148824
1031.626955	0.146666
1031.795433	0.148469
1031.963892	0.147208
1032.132334	0.146854
1032.300756	0.146628
1032.469161	0.148886
1032.637548	0.149303
1032.805916	0.150614
1032.974266	0.150887
1033.142598	0.151602
1033.310911	0.150391
1033.479207	0.151024
1033.647484	0.151444
1033.815743	0.149864
1033.983983	0.149825
1034.152206	0.149176
1034.320410	0.150185
1034.488596	0.149711
1034.656764	0.151335
1034.824914	0.151529
1034.993045	0.150734
1035.161158	0.149772
1035.329253	0.151836
1035.497330	0.151042
1035.665388	0.150192
1035.833428	0.148626
1036.001450	0.148560
1036.169454	0.147258
1036.337440	0.146113
1036.505407	0.144581
1036.673356	0.146413
1036.841287	0.145071
1037.009200	0.145270
1037.177094	0.147349
1037.344970	0.146476
1037.512828	0.144253
1037.680668	0.146379
1037.848489	0.146524
1038.016293	0.148995
1038.184078	0.148009
1038.351845	0.148680
1038.519593	0.147865
1038.687324	0.143705
1038.855036	0.143523
1039.022730	0.143766
1039.190406	0.142065
1039.358063	0.142149
1039.525702	0.143151
1039.693323	0.142208
1039.860926	0.140247
1040.028511	0.141033
1040.196077	0.145720
1040.363625	0.146328
1040.531155	0.147022
1040.698667	0.147379
1040.866161	0.147059
1041.033636	0.144542
1041.201093	0.145676
1041.368532	0.145408
1041.535952	0.146513
1041.703355	0.144560
1041.870739	0.144474
1042.038105	0.145589
1042.205452	0.145001
1042.372782	0.145504
1042.540093	0.145779
1042.707386	0.145021
1042.874661	0.146157
1043.041918	0.143900
1043.209156	0.143858
1043.376376	0.146135
1043.543578	0.144978
1043.710762	0.146142
1043.877927	0.143752
1044.045074	0.143456
1044.212203	0.144076
1044.379314	0.144598
1044.546407	0.145323
1044.713481	0.144924
1044.880537	0.144509
1045.047575	0.145331
1045.214595	0.143706
1045.381596	0.145006
1045.548579	0.144658
1045.715544	0.143516
1045.882491	0.142620
1046.049420	0.142887
1046.216330	0.143679
1046.383222	0.142901
1046.550096	0.142316
1046.716951	0.142224
1046.883789	0.142349
1047.050608	0.141367
1047.217409	0.142770
1047.384192	0.144034
1047.550956	0.142938
1047.717703	0.142513
1047.884431	0.141990
1048.051140	0.142829
1048.217832	0.144365
1048.384505	0.145686
1048.551161	0.148835
1048.717798	0.147436
1048.884416	0.147027
1049.051017	0.146910
1049.217599	0.147254
1049.384163	0.147890
1049.550709	0.147464
1049.717237	0.146923
1049.883746	0.146286
1050.050237	0.144702
1050.216710	0.144951
1050.383165	0.143352
1050.549601	0.142594
1050.716019	0.142190
1050.882420	0.140983
1051.048801	0.140507
1051.215165	0.140913
1051.381510	0.140537
1051.547837	0.140748
1051.714146	0.142066
1051.880437	0.142947
1052.046709	0.144012
1052.212964	0.144317
1052.379200	0.145899
1052.545417	0.148271
1052.711617	0.146910
1052.877798	0.146396
1053.043961	0.145799
1053.210106	0.145457
1053.376233	0.147155
1053.542341	0.146317
1053.708432	0.147574
1053.874504	0.149951
1054.040557	0.149116
1054.206593	0.150566
1054.372610	0.150636
1054.538609	0.152533
1054.704590	0.153853
1054.870553	0.151936
1055.036497	0.153983
1055.202424	0.152364
1055.368331	0.149922
1055.534221	0.150475
1055.700093	0.150087
1055.865946	0.152227
1056.031781	0.151606
1056.197598	0.149966
1056.363397	0.150799
1056.529177	0.149962
1056.694939	0.150350
1056.860683	0.149412
1057.026409	0.148405
1057.192116	0.149268
1057.357806	0.150115
1057.523477	0.150839
1057.689130	0.152986
1057.854764	0.152937
1058.020381	0.154592
1058.185979	0.155441
1058.351559	0.154011
1058.517120	0.155147
1058.682664	0.153824
1058.848189	0.150168
1059.013696	0.149743
1059.179185	0.149328
1059.344656	0.149328
1059.510108	0.148539
1059.675542	0.149180
1059.840958	0.149921
1060.006356	0.149020
1060.171735	0.151249
1060.337096	0.153770
1060.502439	0.155945
1060.667764	0.155073
1060.833071	0.154021
1060.998359	0.151175
1061.163629	0.151137
1061.328881	0.153900
1061.494115	0.154715
1061.659330	0.154887
1061.824527	0.153082
1061.989706	0.150327
1062.154867	0.149586
1062.320010	0.151124
1062.485134	0.155633
1062.650240	0.153440
1062.815328	0.150564
1062.980398	0.151169
1063.145449	0.150051
1063.310482	0.153641
1063.475497	0.155351
1063.640494	0.156974
1063.805473	0.156421
1063.970433	0.154684
1064.135375	0.156993
1064.300299	0.159715
1064.465204	0.157655
1064.630092	0.159073
1064.794961	0.155300
1064.959812	0.155388
1065.124645	0.155194
1065.289459	0.157406
1065.454256	0.157451
1065.619034	0.155797
1065.783793	0.153597
1065.948535	0.154263
1066.113258	0.152758
1066.277964	0.153970
1066.442651	0.152622
1066.607319	0.153260
1066.771970	0.152271
1066.936602	0.152619
1067.101216	0.152499
1067.265812	0.152246
1067.430389	0.154276
1067.594949	0.154655
1067.759490	0.154552
1067.924013	0.154244
1068.088518	0.152485
1068.253004	0.153042
1068.417472	0.153415
1068.581922	0.156234
1068.746354	0.159094
1068.910768	0.157020
1069.075163	0.158753
1069.239540	0.159438
1069.403899	0.160806
1069.568240	0.161467
1069.732562	0.158971
1069.896866	0.159447
1070.061152	0.160009
1070.225420	0.158000
1070.389670	0.157314
1070.553901	0.157075
1070.718114	0.159119
1070.882309	0.160012
1071.046486	0.160784
1071.210644	0.160372
1071.374784	0.158567
1071.538906	0.158537
1071.703010	0.160758
1071.867096	0.163986
1072.031163	0.162028
1072.195212	0.160544
1072.359243	0.158685
1072.523256	0.158422
1072.687250	0.160609
1072.851226	0.162545
1073.015184	0.158379
1073.179124	0.159345
1073.343045	0.156939
1073.506949	0.156609
1073.670834	0.152659
1073.834701	0.152167
1073.998549	0.153075
1074.162380	0.152389
1074.326192	0.151188
1074.489986	0.152483
1074.653761	0.149658
1074.817519	0.151823
1074.981258	0.151725
1075.144979	0.154275
1075.308682	0.156742
1075.472367	0.156414
1075.636033	0.153921
1075.799681	0.156425
1075.963311	0.159747
1076.126923	0.159711
1076.290516	0.157815
1076.454092	0.159242
1076.617649	0.160994
1076.781187	0.158838
1076.944708	0.158324
1077.108210	0.161750
1077.271695	0.162322
1077.435160	0.162741
1077.598608	0.160779
1077.762038	0.161222
1077.925449	0.161796
1078.088842	0.160581
1078.252217	0.161287
1078.415573	0.162684
1078.578912	0.160556
1078.742232	0.157579
1078.905534	0.155784
1079.068817	0.159042
1079.232083	0.159198
1079.395330	0.160483
1079.558559	0.160957
1079.721770	0.161357
1079.884962	0.161031
1080.048136	0.162867
1080.211293	0.164087
1080.374430	0.165690
1080.537550	0.166486
1080.700651	0.165976
1080.863735	0.164218
1081.026800	0.166060
1081.189846	0.166853
1081.352875	0.166944
1081.515885	0.166736
1081.678877	0.164767
1081.841851	0.163331
1082.004807	0.163893
1082.167744	0.167020
1082.330663	0.166314
1082.493564	0.166096
1082.656447	0.165734
1082.819312	0.166089
1082.982158	0.169223
1083.144986	0.170287
1083.307796	0.167684
1083.470587	0.165280
1083.633361	0.162680
1083.796116	0.165461
1083.958853	0.163524
1084.121571	0.162555
1084.284272	0.162141
1084.446954	0.160530
1084.609618	0.162481
1084.772264	0.167551
1084.934892	0.168580
1085.097501	0.170508
1085.260092	0.168691
1085.422665	0.172546
1085.585220	0.174694
1085.747756	0.176063
1085.910274	0.177131
1086.072774	0.175647
1086.235256	0.170119
1086.397720	0.172053
1086.560165	0.171924
1086.722592	0.174115
1086.885001	0.169814
1087.047392	0.171591
1087.209764	0.169967
1087.372119	0.167173
1087.534455	0.169035
1087.696772	0.172009
1087.859072	0.170384
1088.021353	0.169589
1088.183616	0.167529
1088.345861	0.167962
1088.508088	0.166216
1088.670296	0.166735
1088.832486	0.168055
1088.994658	0.167564
1089.156812	0.168784
1089.318948	0.168859
1089.481065	0.167390
1089.643164	0.168257
1089.805245	0.169830
1089.967308	0.165874
1090.129352	0.169736
1090.291378	0.170495
1090.453386	0.168719
1090.615376	0.164297
1090.777347	0.165298
1090.939301	0.165060
1091.101236	0.163556
1091.263153	0.162396
1091.425051	0.162642
1091.586932	0.158967
1091.748794	0.159864
1091.910638	0.159279
1092.072463	0.162473
1092.234271	0.163711
1092.396060	0.168551
1092.557831	0.171159
1092.719584	0.172847
1092.881319	0.177733
1093.043035	0.180277
1093.204733	0.177996
1093.366413	0.180160
1093.528075	0.180660
1093.689718	0.179934
1093.851343	0.176184
1094.012950	0.178021
1094.174539	0.177146
1094.336110	0.174256
1094.497662	0.173403
1094.659196	0.175588
1094.820712	0.174907
1094.982210	0.173438
1095.143689	0.172421
1095.305151	0.170560
1095.466594	0.168909
1095.628018	0.171505
1095.789425	0.177307
1095.950813	0.175257
1096.112183	0.175206
1096.273535	0.175001
1096.434869	0.178907
1096.596184	0.181632
1096.757482	0.184018
1096.918761	0.177651
1097.080021	0.179908
1097.241264	0.176299
1097.402488	0.176261
1097.563694	0.173508
1097.724882	0.174825
1097.886052	0.169654
1098.047203	0.169174
1098.208336	0.170429
1098.369451	0.176187
1098.530548	0.172052
1098.691627	0.170872
1098.852687	0.172299
1099.013729	0.173292
1099.174753	0.176876
1099.335758	0.179376
1099.496746	0.176661
1099.657715	0.171021
1099.818666	0.173053
1099.979599	0.176934
1100.140513	0.179115
1100.301409	0.175385
1100.462287	0.178862
1100.623147	0.176477
1100.783989	0.175800
1100.944812	0.178495
1101.105617	0.183807
1101.266404	0.179047
1101.427173	0.177210
1101.587923	0.173551
1101.748656	0.176708
1101.909370	0.176465
1102.070066	0.175972
1102.230743	0.179371
1102.391403	0.177795
1102.552044	0.177208
1102.712667	0.180124
1102.873271	0.179291
1103.033858	0.182261
1103.194426	0.186581
1103.354976	0.187171
1103.515508	0.188688
1103.676021	0.189799
1103.836517	0.193416
1103.996994	0.195260
1104.157453	0.197128
1104.317893	0.194961
1104.478316	0.199285
1104.638720	0.192454
1104.799106	0.191359
1104.959474	0.189412
1105.119823	0.189730
1105.280155	0.188372
1105.440468	0.191736
1105.600763	0.186476
1105.761039	0.183641
1105.921298	0.183752
1106.081538	0.186279
1106.241760	0.182490
1106.401964	0.181775
1106.562149	0.178518
1106.722316	0.179033
1106.882465	0.177933
1107.042596	0.180084
1107.202709	0.185825
1107.362803	0.180970
1107.522879	0.180494
1107.682937	0.188047
1107.842977	0.190329
1108.002999	0.193810
1108.163002	0.194933
1108.322987	0.193767
1108.482954	0.196020
1108.642902	0.195722
1108.802833	0.197457
1108.962745	0.201087
1109.122639	0.198306
1109.282515	0.201486
1109.442372	0.195209
1109.602211	0.188179
1109.762032	0.190216
1109.921835	0.187019
1110.081620	0.189436
1110.241386	0.190457
1110.401134	0.188738
1110.560864	0.188644
1110.720576	0.186259
1110.880269	0.189535
1111.039945	0.193712
1111.199602	0.191709
1111.359240	0.196754
1111.518861	0.192702
1111.678463	0.189231
1111.838047	0.189315
1111.997613	0.191895
1112.157161	0.189714
1112.316690	0.194941
1112.476202	0.196497
1112.635695	0.193905
1112.795169	0.187300
1112.954626	0.191989
1113.114064	0.199464
1113.273484	0.198057
1113.432886	0.193316
1113.592270	0.195830
1113.751635	0.195632
1113.910983	0.197366
1114.070312	0.201473
1114.229622	0.198883
1114.388915	0.196115
1114.548189	0.182761
1114.707445	0.185703
1114.866683	0.188970
1115.025903	0.187396
1115.185104	0.179573
1115.344287	0.177524
1115.503452	0.181428
1115.662599	0.187803
1115.821727	0.190292
1115.980838	0.192150
1116.139930	0.197044
1116.299004	0.195211
1116.458059	0.201249
1116.617097	0.204984
1116.776116	0.204003
1116.935117	0.202635
1117.094099	0.204684
1117.253064	0.204059
1117.412010	0.210932
1117.570938	0.202979
1117.729848	0.198852
1117.888740	0.191936
1118.047613	0.189329
1118.206468	0.185347
1118.365305	0.179388
1118.524124	0.181465
1118.682924	0.185299
1118.841707	0.191326
1119.000471	0.192220
1119.159216	0.192101
1119.317944	0.191475
1119.476653	0.191687
1119.635344	0.194362
1119.794017	0.193940
1119.952672	0.192528
1120.111308	0.182973
1120.269927	0.178106
1120.428527	0.175879
1120.587108	0.173333
1120.745672	0.176825
1120.904217	0.176323
1121.062744	0.183937
1121.221253	0.184091
1121.379744	0.183963
1121.538216	0.186927
1121.696671	0.187600
1121.855107	0.186637
1122.013524	0.193797
1122.171924	0.196312
1122.330305	0.200321
1122.488668	0.196369
1122.647013	0.196333
1122.805340	0.190373
1122.963648	0.191537
1123.121938	0.186953
1123.280210	0.193006
1123.438464	0.191921
1123.596700	0.188928
1123.754917	0.186289
1123.913116	0.189379
1124.071297	0.194178
1124.229459	0.200218
1124.387604	0.195046
1124.545730	0.198995
1124.703838	0.199260
1124.861928	0.202315
1125.019999	0.204088
1125.178052	0.207667
1125.336088	0.205177
1125.494104	0.208212
1125.652103	0.206509
1125.810083	0.212728
1125.968045	0.207093
1126.125989	0.202883
1126.283915	0.201528
1126.441823	0.202017
1126.599712	0.205782
1126.757583	0.198692
1126.915436	0.194777
1127.073270	0.194504
1127.231087	0.193064
1127.388885	0.193077
1127.546665	0.194265
1127.704426	0.196290
1127.862170	0.186948
1128.019895	0.184174
1128.177602	0.188829
1128.335291	0.187252
1128.492961	0.191193
1128.650614	0.197120
1128.808248	0.201581
1128.965864	0.205148
1129.123461	0.204328
1129.281041	0.216636
1129.438602	0.216703
1129.596145	0.216872
1129.753670	0.215195
1129.911176	0.212813
1130.068665	0.211374
1130.226135	0.212583
1130.383587	0.211709
1130.541020	0.207212
1130.698436	0.206503
1130.855833	0.204397
1131.013212	0.201943
1131.170573	0.204037
1131.327915	0.204127
1131.485239	0.207986
1131.642545	0.205316
1131.799833	0.205713
1131.957103	0.208182
1132.114354	0.198750
1132.271588	0.204060
1132.428803	0.209996
1132.585999	0.210127
1132.743178	0.212600
1132.900338	0.209500
1133.057480	0.210439
1133.214604	0.197212
1133.371710	0.198897
1133.528797	0.208589
1133.685866	0.205445
1133.842917	0.200875
1133.999950	0.204447
1134.156964	0.205696
1134.313960	0.205597
1134.470938	0.212005
1134.627898	0.218205
1134.784840	0.214658
1134.941763	0.211020
1135.098668	0.212962
1135.255555	0.215479
1135.412424	0.228330
1135.569274	0.224647
1135.726107	0.212878
1135.882921	0.210100
1136.039716	0.220220
1136.196494	0.222543
1136.353253	0.229198
1136.509995	0.224765
1136.666717	0.214924
1136.823422	0.192741
1136.980109	0.197767
1137.136777	0.205957
1137.293427	0.210986
1137.450059	0.210410
1137.606672	0.209522
1137.763267	0.201599
1137.919844	0.204817
1138.076403	0.213405
1138.232944	0.219441
1138.389466	0.212101
1138.545971	0.216032
1138.702457	0.209896
1138.858924	0.211168
1139.015374	0.216157
1139.171805	0.213365
1139.328218	0.209556
1139.484613	0.212363
1139.640990	0.212126
1139.797348	0.216741
1139.953688	0.216683
1140.110010	0.223353
1140.266314	0.209493
1140.422600	0.207307
1140.578867	0.209600
1140.735116	0.214141
1140.891347	0.217300
1141.047559	0.214166
1141.203754	0.208268
1141.359930	0.204084
1141.516088	0.199753
1141.672228	0.209785
1141.828349	0.211578
1141.984452	0.218708
1142.140537	0.211225
1142.296604	0.209129
1142.452653	0.212345
1142.608683	0.219692
1142.764695	0.226030
1142.920689	0.227360
1143.076665	0.227054
1143.232622	0.224119
1143.388562	0.222847
1143.544483	0.229523
1143.700385	0.234331
1143.856270	0.231252
1144.012136	0.223164
1144.167985	0.220575
1144.323814	0.215523
1144.479626	0.217057
1144.635420	0.217539
1144.791195	0.221941
1144.946952	0.218994
1145.102691	0.203372
1145.258411	0.206857
1145.414113	0.214036
1145.569798	0.219496
1145.725463	0.214202
1145.881111	0.215110
1146.036741	0.216737
1146.192352	0.209759
1146.347945	0.216788
1146.503519	0.224002
1146.659076	0.227875
1146.814614	0.223460
1146.970134	0.217531
1147.125636	0.235354
1147.281120	0.240614
1147.436585	0.241036
1147.592032	0.240204
1147.747461	0.232322
1147.902872	0.231728
1148.058265	0.224857
1148.213639	0.230800
1148.368995	0.230684
1148.524333	0.228084
1148.679653	0.216835
1148.834954	0.216320
1148.990237	0.214284
1149.145502	0.224332
1149.300749	0.227062
1149.455977	0.243103
1149.611188	0.237181
1149.766380	0.242621
1149.921553	0.240170
1150.076709	0.247771
1150.231846	0.251222
1150.386966	0.249488
1150.542066	0.246939
1150.697149	0.232881
1150.852214	0.227528
1151.007260	0.236730
1151.162288	0.236983
1151.317298	0.238835
1151.472289	0.238117
1151.627263	0.238139
1151.782218	0.236330
1151.937155	0.233656
1152.092073	0.240912
1152.246974	0.224836
1152.401856	0.219354
1152.556720	0.213479
1152.711566	0.201798
1152.866393	0.190501
1153.021203	0.190872
1153.175994	0.207649
1153.330767	0.195073
1153.485521	0.197443
1153.640258	0.205367
1153.794976	0.204786
1153.949676	0.206292
1154.104358	0.205504
1154.259021	0.216945
1154.413667	0.220395
1154.568294	0.208689
1154.722903	0.224086
1154.877493	0.230724
1155.032066	0.234602
1155.186620	0.228689
1155.341156	0.225901
1155.495674	0.237352
1155.650173	0.238127
1155.804654	0.225010
1155.959118	0.221213
1156.113562	0.210727
1156.267989	0.205017
1156.422397	0.202309
1156.576788	0.210666
1156.731160	0.211885
1156.885513	0.194815
1157.039849	0.191902
1157.194166	0.206273
1157.348465	0.213080
1157.502746	0.210337
1157.657009	0.209473
1157.811253	0.208381
1157.965479	0.203282
1158.119687	0.201055
1158.273877	0.221681
1158.428048	0.222154
1158.582201	0.219898
1158.736337	0.216952
1158.890453	0.223288
1159.044552	0.221300
1159.198632	0.232317
1159.352694	0.240063
1159.506738	0.254633
1159.660764	0.238929
1159.814771	0.227524
1159.968761	0.221867
1160.122732	0.219280
1160.276685	0.223902
1160.430619	0.247380
1160.584535	0.233952
1160.738434	0.214055
1160.892313	0.200746
1161.046175	0.207258
1161.200019	0.231307
1161.353844	0.229258
1161.507651	0.234132
1161.661440	0.231974
1161.815210	0.222350
1161.968962	0.223830
1162.122697	0.231415
1162.276412	0.227161
1162.430110	0.222326
1162.583789	0.194696
1162.737451	0.201264
1162.891094	0.196409
1163.044718	0.195669
1163.198325	0.186250
1163.351913	0.184253
1163.505483	0.204008
1163.659035	0.206265
1163.812569	0.228915
1163.966084	0.237488
1164.119581	0.221230
1164.273060	0.221773
1164.426521	0.212129
1164.579964	0.212045
1164.733388	0.223256
1164.886794	0.213092
1165.040182	0.200142
1165.193551	0.188255
1165.346903	0.196159
1165.500236	0.230292
1165.653551	0.246561
1165.806848	0.251320
1165.960126	0.253817
1166.113386	0.241385
1166.266628	0.242219
1166.419852	0.266059
1166.573058	0.264607
1166.726245	0.260574
1166.879414	0.239833
1167.032565	0.224314
1167.185698	0.222028
1167.338812	0.219927
1167.491909	0.225067
1167.644987	0.222817
1167.798046	0.220364
1167.951088	0.217000
1168.104111	0.216504
1168.257117	0.217482
1168.410103	0.204731
1168.563072	0.214639
1168.716023	0.222969
1168.868955	0.230296
1169.021869	0.224389
1169.174765	0.219684
1169.327642	0.205836
1169.480501	0.197836
1169.633343	0.195514
1169.786165	0.208380
1169.938970	0.207410
1170.091757	0.194992
1170.244525	0.196621
1170.397275	0.190663
1170.550007	0.196809
1170.702720	0.224914
1170.855415	0.226373
1171.008092	0.225626
1171.160751	0.232991
1171.313392	0.242280
1171.466014	0.139850
1171.618619	0.288903
1171.771205	0.288903
1171.923772	0.288903
