sample name	sample
index	355
start time	 03-01-2021  12:15:54 PM


Wavelength (nm)	Absorbance
494.344910	0.112738
494.563924	0.112738
494.782919	0.112738
495.001897	-0.214805
495.220856	-0.151976
495.439797	-0.122682
495.658719	-0.160259
495.877624	-0.184567
496.096510	-0.104592
496.315378	0.045110
496.534227	0.029283
496.753059	-0.010667
496.971872	-0.001536
497.190667	0.075886
497.409444	0.066636
497.628203	0.068338
497.846943	0.070394
498.065665	0.068770
498.284369	0.069305
498.503055	0.071208
498.721723	0.072315
498.940372	0.071992
499.159003	0.071526
499.377616	0.071935
499.596210	0.071858
499.814787	0.072154
500.033345	0.073283
500.251885	0.074143
500.470406	0.073166
500.688910	0.072646
500.907395	0.073070
501.125862	0.072793
501.344311	0.073671
501.562742	0.074174
501.781154	0.073791
501.999548	0.074049
502.217924	0.074419
502.436282	0.074785
502.654621	0.074646
502.872942	0.075021
503.091245	0.074684
503.309530	0.075786
503.527797	0.075477
503.746045	0.075037
503.964275	0.074110
504.182487	0.073415
504.400681	0.073866
504.618856	0.074520
504.837013	0.074890
505.055152	0.075669
505.273273	0.074562
505.491376	0.075117
505.709460	0.075865
505.927526	0.076818
506.145574	0.076942
506.363604	0.076540
506.581615	0.076282
506.799608	0.075551
507.017583	0.075608
507.235540	0.075398
507.453478	0.075225
507.671399	0.075066
507.889301	0.074372
508.107185	0.074342
508.325050	0.074348
508.542898	0.074467
508.760727	0.074509
508.978538	0.074526
509.196330	0.075425
509.414105	0.076090
509.631861	0.076922
509.849599	0.077617
510.067319	0.078390
510.285021	0.078933
510.502704	0.078890
510.720369	0.078862
510.938016	0.079275
511.155645	0.079565
511.373255	0.079056
511.590848	0.079185
511.808422	0.079151
512.025977	0.078595
512.243515	0.078206
512.461034	0.078459
512.678536	0.078924
512.896018	0.078621
513.113483	0.078503
513.330930	0.079397
513.548358	0.079753
513.765768	0.079810
513.983160	0.079884
514.200533	0.080185
514.417889	0.080588
514.635226	0.081244
514.852545	0.081421
515.069845	0.082671
515.287128	0.082143
515.504392	0.082014
515.721638	0.082275
515.938866	0.082404
516.156075	0.082606
516.373267	0.082401
516.590440	0.082614
516.807594	0.082550
517.024731	0.081392
517.241850	0.081417
517.458950	0.081253
517.676032	0.081480
517.893095	0.081998
518.110141	0.082095
518.327168	0.082693
518.544177	0.083227
518.761168	0.083718
518.978141	0.083935
519.195095	0.084492
519.412031	0.084774
519.628949	0.085151
519.845849	0.085252
520.062731	0.085556
520.279594	0.086035
520.496439	0.084824
520.713266	0.084969
520.930074	0.085021
521.146865	0.085021
521.363637	0.084537
521.580391	0.084161
521.797127	0.084341
522.013844	0.084587
522.230543	0.083938
522.447224	0.085417
522.663887	0.085611
522.880532	0.086135
523.097158	0.086622
523.313766	0.087449
523.530356	0.087303
523.746928	0.086939
523.963481	0.087078
524.180017	0.087154
524.396534	0.086683
524.613032	0.087250
524.829513	0.087508
525.045975	0.087609
525.262420	0.087263
525.478845	0.087834
525.695253	0.088050
525.911643	0.088387
526.128014	0.088986
526.344367	0.089028
526.560702	0.088644
526.777018	0.088454
526.993316	0.088674
527.209597	0.089108
527.425858	0.089536
527.642102	0.089882
527.858328	0.090275
528.074535	0.090304
528.290724	0.090649
528.506894	0.091098
528.723047	0.091665
528.939181	0.092027
529.155297	0.091651
529.371395	0.092158
529.587475	0.093105
529.803536	0.093215
530.019579	0.093724
530.235604	0.094062
530.451611	0.094335
530.667600	0.094249
530.883570	0.094205
531.099522	0.094855
531.315456	0.095030
531.531372	0.094880
531.747269	0.095150
531.963148	0.095251
532.179009	0.095494
532.394852	0.095671
532.610676	0.095560
532.826482	0.095916
533.042271	0.096550
533.258040	0.095940
533.473792	0.096366
533.689525	0.096012
533.905240	0.096227
534.120937	0.096339
534.336616	0.096627
534.552277	0.097442
534.767919	0.097519
534.983543	0.097916
535.199149	0.098431
535.414736	0.098088
535.630306	0.098823
535.845857	0.098672
536.061390	0.099017
536.276904	0.099043
536.492401	0.098762
536.707879	0.098808
536.923339	0.098233
537.138781	0.098521
537.354204	0.098801
537.569610	0.098640
537.784997	0.098979
538.000366	0.099198
538.215716	0.099374
538.431049	0.100037
538.646363	0.100240
538.861659	0.101449
539.076937	0.101765
539.292196	0.102381
539.507438	0.103047
539.722661	0.103053
539.937866	0.103020
540.153052	0.103191
540.368221	0.102875
540.583371	0.103079
540.798503	0.102349
541.013617	0.102769
541.228712	0.102788
541.443789	0.102931
541.658848	0.103557
541.873889	0.103882
542.088912	0.104497
542.303916	0.104871
542.518902	0.105005
542.733870	0.105517
542.948820	0.105465
543.163752	0.105696
543.378665	0.105687
543.593560	0.105931
543.808437	0.105848
544.023295	0.105676
544.238136	0.105911
544.452958	0.106245
544.667762	0.106379
544.882548	0.106469
545.097315	0.106328
545.312064	0.106672
545.526795	0.106561
545.741508	0.106768
545.956203	0.106825
546.170879	0.107226
546.385537	0.107236
546.600177	0.107518
546.814799	0.107596
547.029402	0.107918
547.243988	0.108024
547.458555	0.108092
547.673103	0.108472
547.887634	0.108850
548.102146	0.108950
548.316640	0.109467
548.531116	0.109526
548.745574	0.109923
548.960013	0.110729
549.174435	0.111128
549.388838	0.111408
549.603222	0.111657
549.817589	0.112010
550.031937	0.112068
550.246267	0.112026
550.460579	0.111954
550.674873	0.112395
550.889148	0.111993
551.103405	0.111965
551.317644	0.112237
551.531865	0.112100
551.746068	0.112442
551.960252	0.112556
552.174418	0.112220
552.388566	0.112757
552.602696	0.112342
552.816807	0.112840
553.030900	0.112628
553.244975	0.112792
553.459032	0.113074
553.673070	0.112855
553.887091	0.113333
554.101093	0.113778
554.315077	0.113804
554.529042	0.113840
554.742990	0.113393
554.956919	0.113485
555.170830	0.113628
555.384722	0.113859
555.598597	0.113975
555.812453	0.113503
556.026291	0.113911
556.240111	0.113602
556.453913	0.114176
556.667696	0.114480
556.881461	0.114901
557.095208	0.114823
557.308937	0.114811
557.522647	0.114939
557.736339	0.115441
557.950013	0.114958
558.163669	0.115382
558.377307	0.115344
558.590926	0.115584
558.804527	0.115691
559.018110	0.115652
559.231675	0.115833
559.445221	0.115854
559.658749	0.115838
559.872259	0.116726
560.085751	0.116902
560.299225	0.117109
560.512680	0.117158
560.726117	0.117357
560.939536	0.117758
561.152937	0.117631
561.366319	0.117399
561.579683	0.117662
561.793029	0.117603
562.006357	0.117874
562.219667	0.117910
562.432958	0.118053
562.646231	0.118085
562.859486	0.118301
563.072723	0.118641
563.285941	0.119627
563.499141	0.119677
563.712323	0.119688
563.925487	0.119769
564.138632	0.119985
564.351760	0.120127
564.564869	0.120274
564.777960	0.120166
564.991032	0.120139
565.204087	0.119775
565.417123	0.119942
565.630141	0.119955
565.843140	0.119849
566.056122	0.119883
566.269085	0.119978
566.482030	0.119892
566.694957	0.120244
566.907866	0.120683
567.120756	0.120877
567.333628	0.120670
567.546482	0.120739
567.759318	0.120907
567.972135	0.121007
568.184935	0.121017
568.397716	0.120942
568.610478	0.120885
568.823223	0.120721
569.035949	0.120961
569.248657	0.121118
569.461347	0.121442
569.674019	0.121598
569.886672	0.121547
570.099308	0.121429
570.311925	0.121537
570.524523	0.121567
570.737104	0.121961
570.949666	0.121938
571.162210	0.122301
571.374736	0.122126
571.587244	0.122358
571.799733	0.122557
572.012205	0.122657
572.224658	0.122750
572.437092	0.122745
572.649509	0.122528
572.861907	0.122592
573.074287	0.122449
573.286649	0.123008
573.498993	0.123043
573.711318	0.123274
573.923625	0.123443
574.135914	0.123536
574.348185	0.123853
574.560438	0.123964
574.772672	0.124196
574.984888	0.124553
575.197086	0.124095
575.409266	0.124115
575.621427	0.124133
575.833570	0.124400
576.045695	0.124779
576.257802	0.124953
576.469890	0.124802
576.681961	0.124891
576.894013	0.124917
577.106046	0.124800
577.318062	0.124681
577.530059	0.124531
577.742039	0.124833
577.954000	0.124958
578.165942	0.124863
578.377867	0.125090
578.589773	0.124857
578.801661	0.125004
579.013531	0.125675
579.225382	0.125887
579.437216	0.126038
579.649031	0.125879
579.860828	0.125781
580.072606	0.125852
580.284367	0.126058
580.496109	0.126264
580.707833	0.126215
580.919539	0.126215
581.131227	0.126419
581.342896	0.126716
581.554547	0.126949
581.766180	0.127219
581.977795	0.127533
582.189391	0.127320
582.400969	0.127448
582.612529	0.127514
582.824071	0.127710
583.035595	0.127929
583.247100	0.128015
583.458587	0.127937
583.670056	0.128005
583.881506	0.128286
584.092939	0.128642
584.304353	0.128777
584.515749	0.128844
584.727127	0.128524
584.938486	0.128465
585.149828	0.128585
585.361151	0.128878
585.572456	0.129003
585.783742	0.128907
585.995011	0.129304
586.206261	0.129516
586.417493	0.129388
586.628706	0.129866
586.839902	0.130034
587.051079	0.130010
587.262238	0.130092
587.473379	0.130138
587.684502	0.130195
587.895606	0.130115
588.106692	0.129874
588.317760	0.130364
588.528810	0.130591
588.739841	0.130672
588.950855	0.130804
589.161850	0.130913
589.372827	0.131164
589.583785	0.131420
589.794726	0.131392
590.005648	0.131789
590.216552	0.131749
590.427437	0.131518
590.638305	0.131806
590.849154	0.132012
591.059985	0.132091
591.270798	0.131995
591.481592	0.131957
591.692369	0.132168
591.903127	0.132266
592.113867	0.132447
592.324588	0.132494
592.535292	0.132346
592.745977	0.132205
592.956644	0.132295
593.167293	0.132484
593.377923	0.132791
593.588536	0.132869
593.799130	0.132927
594.009706	0.133170
594.220263	0.133554
594.430803	0.134059
594.641324	0.134945
594.851827	0.135112
595.062312	0.135428
595.272778	0.135549
595.483227	0.135855
595.693657	0.136074
595.904069	0.135873
596.114462	0.135873
596.324838	0.135555
596.535195	0.135125
596.745534	0.135154
596.955855	0.135219
597.166157	0.135081
597.376441	0.135064
597.586707	0.135198
597.796955	0.135388
598.007185	0.135569
598.217396	0.135654
598.427589	0.135548
598.637764	0.135595
598.847921	0.135530
599.058060	0.135819
599.268180	0.135730
599.478282	0.135734
599.688366	0.136102
599.898431	0.136135
600.108479	0.136390
600.318508	0.136564
600.528519	0.136323
600.738511	0.136491
600.948486	0.136327
601.158442	0.136287
601.368380	0.136425
601.578300	0.136351
601.788202	0.136726
601.998085	0.136696
602.207950	0.136788
602.417797	0.137401
602.627626	0.137476
602.837436	0.137467
603.047228	0.138169
603.257002	0.138303
603.466758	0.138357
603.676496	0.138597
603.886215	0.138787
604.095916	0.139022
604.305599	0.139087
604.515264	0.139173
604.724910	0.139501
604.934538	0.139133
605.144148	0.139132
605.353740	0.139178
605.563314	0.139018
605.772869	0.139044
605.982406	0.138877
606.191925	0.138951
606.401425	0.138989
606.610908	0.139141
606.820372	0.139444
607.029818	0.139592
607.239246	0.139594
607.448655	0.139639
607.658047	0.139677
607.867420	0.140087
608.076775	0.140074
608.286111	0.140015
608.495430	0.140066
608.704730	0.140009
608.914012	0.139868
609.123275	0.140308
609.332521	0.140145
609.541748	0.140217
609.750957	0.140328
609.960148	0.140494
610.169321	0.140810
610.378475	0.140519
610.587611	0.140670
610.796729	0.140753
611.005829	0.140437
611.214910	0.140595
611.423974	0.140935
611.633019	0.141084
611.842045	0.141215
612.051054	0.141087
612.260044	0.141333
612.469017	0.141452
612.677970	0.141777
612.886906	0.141982
613.095824	0.141955
613.304723	0.141967
613.513604	0.141823
613.722467	0.141609
613.931311	0.141715
614.140138	0.141868
614.348946	0.142096
614.557736	0.142261
614.766507	0.142395
614.975261	0.142749
615.183996	0.142801
615.392713	0.142929
615.601412	0.143293
615.810092	0.143459
616.018754	0.143600
616.227399	0.143417
616.436024	0.143244
616.644632	0.143265
616.853222	0.143556
617.061793	0.143438
617.270346	0.143690
617.478880	0.143737
617.687397	0.143819
617.895895	0.144097
618.104375	0.144230
618.312837	0.144183
618.521281	0.144120
618.729706	0.143870
618.938113	0.144094
619.146502	0.143860
619.354873	0.143833
619.563226	0.143931
619.771560	0.143856
619.979876	0.144026
620.188174	0.144432
620.396453	0.144671
620.604715	0.144744
620.812958	0.144983
621.021183	0.145025
621.229390	0.145034
621.437578	0.145082
621.645748	0.144970
621.853900	0.144939
622.062034	0.144676
622.270150	0.144851
622.478247	0.144937
622.686326	0.144815
622.894387	0.145285
623.102430	0.145543
623.310454	0.145435
623.518461	0.145956
623.726449	0.146257
623.934418	0.146437
624.142370	0.146574
624.350303	0.146564
624.558218	0.146547
624.766115	0.146323
624.973994	0.146386
625.181855	0.146708
625.389697	0.146552
625.597521	0.146398
625.805327	0.146959
626.013114	0.146965
626.220883	0.147111
626.428634	0.147462
626.636367	0.147703
626.844082	0.147796
627.051778	0.148163
627.259457	0.148041
627.467117	0.148482
627.674758	0.148445
627.882382	0.148804
628.089987	0.149002
628.297574	0.148945
628.505143	0.149032
628.712694	0.149005
628.920226	0.148839
629.127740	0.149099
629.335236	0.149052
629.542714	0.148991
629.750174	0.148951
629.957615	0.149106
630.165038	0.149183
630.372443	0.148974
630.579829	0.149258
630.787198	0.149411
630.994548	0.149475
631.201880	0.149375
631.409194	0.149313
631.616489	0.149480
631.823766	0.149713
632.031025	0.149612
632.238266	0.149862
632.445489	0.149860
632.652693	0.149795
632.859879	0.149979
633.067047	0.150237
633.274197	0.150399
633.481329	0.150312
633.688442	0.150200
633.895537	0.150769
634.102614	0.151063
634.309672	0.150952
634.516713	0.151478
634.723735	0.151682
634.930739	0.151852
635.137724	0.152022
635.344692	0.152000
635.551641	0.152055
635.758572	0.152183
635.965485	0.152453
636.172379	0.152639
636.379256	0.152408
636.586114	0.152244
636.792954	0.152194
636.999775	0.152011
637.206579	0.152429
637.413364	0.152806
637.620131	0.152607
637.826880	0.152478
638.033610	0.152822
638.240323	0.152806
638.447017	0.153086
638.653692	0.153337
638.860350	0.153781
639.066990	0.153790
639.273611	0.153645
639.480214	0.153903
639.686798	0.153974
639.893365	0.153984
640.099913	0.154060
640.306443	0.154209
640.512955	0.154144
640.719449	0.154098
640.925924	0.154039
641.132381	0.154164
641.338820	0.154416
641.545241	0.154377
641.751644	0.154463
641.958028	0.154742
642.164394	0.154942
642.370742	0.155057
642.577071	0.155288
642.783383	0.155522
642.989676	0.155439
643.195951	0.155620
643.402207	0.156011
643.608446	0.155905
643.814666	0.155940
644.020868	0.155956
644.227052	0.156008
644.433218	0.155957
644.639365	0.156176
644.845494	0.156514
645.051605	0.156109
645.257698	0.156079
645.463772	0.156357
645.669828	0.156311
645.875866	0.156573
646.081886	0.156744
646.287888	0.157255
646.493871	0.157263
646.699836	0.157338
646.905783	0.157608
647.111712	0.157821
647.317622	0.158163
647.523514	0.158472
647.729388	0.158397
647.935244	0.158821
648.141082	0.158719
648.346901	0.158722
648.552702	0.158941
648.758485	0.159202
648.964250	0.159098
649.169996	0.158884
649.375724	0.159026
649.581434	0.159126
649.787126	0.158891
649.992800	0.159091
650.198455	0.159158
650.404092	0.159067
650.609711	0.159087
650.815311	0.159176
651.020894	0.159269
651.226458	0.159443
651.432004	0.159642
651.637532	0.159862
651.843041	0.159972
652.048532	0.160301
652.254006	0.160444
652.459460	0.160730
652.664897	0.161008
652.870315	0.161083
653.075716	0.161218
653.281097	0.161342
653.486461	0.161437
653.691807	0.161595
653.897134	0.161624
654.102443	0.161949
654.307734	0.161939
654.513006	0.162191
654.718261	0.162612
654.923497	0.163000
655.128715	0.163094
655.333915	0.163340
655.539096	0.163395
655.744259	0.163556
655.949404	0.163681
656.154531	0.163764
656.359640	0.163822
656.564730	0.163853
656.769802	0.163855
656.974856	0.163983
657.179892	0.164183
657.384909	0.164256
657.589908	0.164328
657.794889	0.164444
657.999852	0.164819
658.204797	0.165098
658.409723	0.165257
658.614631	0.165329
658.819521	0.165602
659.024393	0.165568
659.229246	0.165829
659.434081	0.166023
659.638898	0.166228
659.843697	0.166222
660.048478	0.166247
660.253240	0.166567
660.457984	0.166641
660.662710	0.166650
660.867417	0.166904
661.072107	0.167190
661.276778	0.167480
661.481431	0.167733
661.686066	0.167949
661.890682	0.168267
662.095281	0.168154
662.299861	0.168361
662.504422	0.168630
662.708966	0.168727
662.913491	0.168864
663.117999	0.168846
663.322488	0.168742
663.526958	0.168724
663.731411	0.168508
663.935845	0.168727
664.140261	0.168889
664.344659	0.168862
664.549038	0.169021
664.753400	0.168919
664.957743	0.169093
665.162068	0.169447
665.366375	0.169712
665.570663	0.170005
665.774933	0.170221
665.979185	0.170485
666.183419	0.170703
666.387635	0.170837
666.591832	0.171019
666.796011	0.171075
667.000172	0.171118
667.204315	0.171254
667.408439	0.171303
667.612545	0.171505
667.816634	0.171407
668.020703	0.171460
668.224755	0.171385
668.428788	0.171345
668.632803	0.171658
668.836800	0.171480
669.040779	0.171479
669.244739	0.171571
669.448681	0.171438
669.652605	0.171492
669.856511	0.171569
670.060399	0.171766
670.264268	0.172037
670.468119	0.171962
670.671952	0.172239
670.875767	0.172454
671.079563	0.172549
671.283341	0.172744
671.487101	0.172866
671.690843	0.172934
671.894567	0.172906
672.098272	0.172905
672.301959	0.173035
672.505628	0.173250
672.709278	0.173203
672.912911	0.173517
673.116525	0.173748
673.320121	0.173839
673.523699	0.174017
673.727258	0.174366
673.930799	0.174680
674.134322	0.174857
674.337827	0.174643
674.541314	0.175013
674.744782	0.175179
674.948232	0.175157
675.151664	0.175190
675.355078	0.175419
675.558474	0.175548
675.761851	0.175696
675.965210	0.175991
676.168551	0.176339
676.371873	0.176386
676.575178	0.176437
676.778464	0.176565
676.981732	0.177011
677.184981	0.177178
677.388213	0.177469
677.591426	0.177691
677.794621	0.177806
677.997798	0.178121
678.200956	0.178269
678.404097	0.178498
678.607219	0.178630
678.810323	0.178568
679.013408	0.178764
679.216476	0.178871
679.419525	0.178703
679.622556	0.178827
679.825569	0.179011
680.028563	0.179246
680.231540	0.179332
680.434498	0.179439
680.637438	0.179738
680.840359	0.179803
681.043263	0.179829
681.246148	0.180197
681.449015	0.180118
681.651864	0.179998
681.854694	0.179926
682.057506	0.180187
682.260301	0.180433
682.463076	0.180492
682.665834	0.180509
682.868573	0.180710
683.071295	0.180910
683.273998	0.181106
683.476682	0.181396
683.679349	0.181802
683.881997	0.181850
684.084627	0.182184
684.287239	0.182265
684.489833	0.182481
684.692408	0.182647
684.894965	0.182539
685.097504	0.182652
685.300025	0.182692
685.502527	0.182522
685.705012	0.182468
685.907478	0.182290
686.109925	0.182450
686.312355	0.182521
686.514766	0.182464
686.717159	0.182633
686.919534	0.182883
687.121891	0.182900
687.324230	0.183136
687.526550	0.183324
687.728852	0.183384
687.931136	0.183506
688.133401	0.183497
688.335649	0.183664
688.537878	0.183709
688.740089	0.183595
688.942281	0.183729
689.144456	0.183816
689.346612	0.183942
689.548750	0.184191
689.750870	0.184339
689.952971	0.184480
690.155055	0.184688
690.357120	0.184654
690.559167	0.184826
690.761195	0.184879
690.963206	0.184980
691.165198	0.185116
691.367172	0.185283
691.569128	0.185070
691.771065	0.185267
691.972984	0.185163
692.174885	0.185516
692.376768	0.185698
692.578633	0.185873
692.780479	0.186045
692.982308	0.185831
693.184118	0.185823
693.385909	0.186019
693.587683	0.186121
693.789438	0.186222
693.991175	0.186164
694.192894	0.186124
694.394595	0.186295
694.596277	0.186191
694.797941	0.186394
694.999587	0.186747
695.201215	0.186851
695.402824	0.186879
695.604416	0.186987
695.805989	0.187035
696.007543	0.187357
696.209080	0.187358
696.410598	0.187675
696.612099	0.187751
696.813580	0.187569
697.015044	0.187623
697.216490	0.187710
697.417917	0.187780
697.619326	0.187827
697.820717	0.187736
698.022089	0.187712
698.223444	0.187514
698.424780	0.187792
698.626098	0.187956
698.827397	0.188265
699.028679	0.188366
699.229942	0.188487
699.431187	0.188712
699.632414	0.188869
699.833622	0.189070
700.034813	0.189313
700.235985	0.189172
700.437139	0.189227
700.638274	0.189089
700.839392	0.189250
701.040491	0.189349
701.241572	0.189366
701.442635	0.189155
701.643679	0.189522
701.844706	0.189638
702.045714	0.189929
702.246704	0.189718
702.447675	0.189938
702.648629	0.189740
702.849564	0.189788
703.050481	0.190026
703.251380	0.190508
703.452260	0.190375
703.653122	0.190370
703.853966	0.190375
704.054792	0.190733
704.255600	0.190776
704.456389	0.191056
704.657160	0.190956
704.857913	0.190814
705.058648	0.190538
705.259365	0.190480
705.460063	0.190341
705.660743	0.190323
705.861405	0.190102
706.062048	0.190135
706.262674	0.189886
706.463281	0.189961
706.663870	0.189995
706.864441	0.190251
707.064993	0.190339
707.265527	0.190448
707.466043	0.190388
707.666541	0.190589
707.867021	0.190767
708.067482	0.191047
708.267925	0.191136
708.468350	0.191384
708.668757	0.191402
708.869145	0.191612
709.069516	0.191970
709.269868	0.192110
709.470201	0.192058
709.670517	0.191909
709.870814	0.191948
710.071093	0.192013
710.271354	0.191724
710.471597	0.191655
710.671821	0.191403
710.872028	0.191228
711.072216	0.191331
711.272385	0.191574
711.472537	0.191450
711.672670	0.191460
711.872785	0.191610
712.072882	0.191774
712.272961	0.191672
712.473021	0.191632
712.673063	0.191523
712.873087	0.191400
713.073093	0.191309
713.273081	0.191436
713.473050	0.191195
713.673001	0.191025
713.872934	0.190958
714.072849	0.191054
714.272745	0.191022
714.472623	0.191178
714.672483	0.191305
714.872325	0.191149
715.072148	0.190969
715.271954	0.191209
715.471741	0.191143
715.671509	0.190976
715.871260	0.190824
716.070992	0.190942
716.270707	0.190761
716.470403	0.190554
716.670080	0.190559
716.869740	0.190729
717.069381	0.190570
717.269004	0.190598
717.468609	0.190661
717.668195	0.190626
717.867764	0.190558
718.067314	0.190630
718.266846	0.190700
718.466360	0.190877
718.665855	0.190840
718.865332	0.190883
719.064791	0.190703
719.264232	0.190567
719.463655	0.190628
719.663059	0.190560
719.862445	0.190278
720.061813	0.190084
720.261163	0.189761
720.460494	0.189629
720.659807	0.189446
720.859102	0.189725
721.058379	0.189745
721.257638	0.189702
721.456878	0.189733
721.656100	0.189928
721.855304	0.189871
722.054490	0.189957
722.253657	0.189951
722.452806	0.189966
722.651937	0.189786
722.851050	0.189843
723.050145	0.189679
723.249221	0.189512
723.448279	0.189343
723.647319	0.189374
723.846340	0.189248
724.045344	0.189071
724.244329	0.188739
724.443296	0.188483
724.642245	0.188400
724.841175	0.188362
725.040088	0.188192
725.238982	0.188175
725.437857	0.187951
725.636715	0.187908
725.835554	0.188004
726.034376	0.188149
726.233179	0.188090
726.431963	0.187911
726.630730	0.187786
726.829478	0.187835
727.028208	0.187603
727.226920	0.187436
727.425614	0.187257
727.624289	0.186941
727.822946	0.186865
728.021585	0.186861
728.220206	0.186735
728.418808	0.186503
728.617392	0.186451
728.815958	0.186415
729.014506	0.186462
729.213036	0.186428
729.411547	0.186338
729.610040	0.186229
729.808515	0.186133
730.006972	0.186125
730.205410	0.186300
730.403831	0.186001
730.602233	0.185843
730.800616	0.185484
730.998982	0.185255
731.197329	0.185153
731.395658	0.185012
731.593969	0.184792
731.792262	0.184601
731.990536	0.184443
732.188793	0.184496
732.387031	0.184463
732.585250	0.184603
732.783452	0.184608
732.981635	0.184527
733.179800	0.184590
733.377947	0.184745
733.576076	0.184816
733.774186	0.184818
733.972278	0.184634
734.170352	0.184432
734.368408	0.184333
734.566446	0.184162
734.764465	0.184219
734.962466	0.183999
735.160449	0.183689
735.358413	0.183463
735.556360	0.183172
735.754288	0.182936
735.952198	0.182935
736.150090	0.182890
736.347963	0.182716
736.545818	0.182586
736.743655	0.182387
736.941474	0.182268
737.139275	0.181949
737.337057	0.181784
737.534821	0.181996
737.732567	0.181818
737.930295	0.181648
738.128005	0.181622
738.325696	0.181438
738.523369	0.181340
738.721024	0.181313
738.918660	0.181417
739.116279	0.181405
739.313879	0.181331
739.511461	0.181320
739.709024	0.181258
739.906570	0.181198
740.104097	0.181030
740.301606	0.181004
740.499097	0.180713
740.696569	0.180590
740.894024	0.180600
741.091460	0.180319
741.288878	0.180188
741.486277	0.180060
741.683659	0.179972
741.881022	0.179852
742.078367	0.179615
742.275694	0.179634
742.473002	0.179722
742.670293	0.179384
742.867565	0.179376
743.064819	0.179187
743.262054	0.179122
743.459272	0.179075
743.656471	0.178935
743.853652	0.179005
744.050815	0.178885
744.247959	0.178553
744.445085	0.178666
744.642194	0.178274
744.839283	0.178159
745.036355	0.178023
745.233408	0.177771
745.430444	0.177686
745.627461	0.177652
745.824459	0.177535
746.021440	0.177434
746.218402	0.177076
746.415346	0.177064
746.612272	0.176994
746.809180	0.176732
747.006069	0.176609
747.202940	0.176502
747.399793	0.176152
747.596628	0.176019
747.793444	0.175794
747.990243	0.176003
748.187023	0.175873
748.383784	0.175627
748.580528	0.175638
748.777253	0.175508
748.973960	0.175275
749.170649	0.175383
749.367320	0.175005
749.563973	0.175175
749.760607	0.174616
749.957223	0.174410
750.153821	0.174039
750.350400	0.173660
750.546962	0.173482
750.743505	0.173425
750.940030	0.172775
751.136536	0.172585
751.333025	0.172011
751.529495	0.171820
751.725947	0.171518
751.922381	0.171422
752.118796	0.171332
752.315194	0.171346
752.511573	0.171214
752.707934	0.171394
752.904276	0.171660
753.100601	0.171708
753.296907	0.171618
753.493195	0.171606
753.689465	0.171485
753.885716	0.171549
754.081949	0.171308
754.278164	0.171115
754.474361	0.171208
754.670540	0.170911
754.866700	0.170736
755.062843	0.170739
755.258967	0.170680
755.455072	0.170920
755.651160	0.170698
755.847229	0.170648
756.043280	0.170720
756.239313	0.170353
756.435328	0.170218
756.631324	0.170106
756.827302	0.170141
757.023262	0.170250
757.219204	0.170120
757.415127	0.170098
757.611033	0.169999
757.806920	0.169674
758.002788	0.169650
758.198639	0.169639
758.394471	0.169653
758.590286	0.169462
758.786081	0.169294
758.981859	0.169165
759.177619	0.169101
759.373360	0.168958
759.569083	0.168956
759.764788	0.168999
759.960474	0.169048
760.156143	0.168969
760.351793	0.168814
760.547425	0.168730
760.743038	0.168684
760.938634	0.168542
761.134211	0.168671
761.329770	0.168769
761.525311	0.168448
761.720833	0.168192
761.916338	0.168015
762.111824	0.167995
762.307292	0.167688
762.502741	0.167371
762.698173	0.167363
762.893586	0.167164
763.088981	0.167025
763.284358	0.166890
763.479716	0.166679
763.675057	0.166747
763.870379	0.166749
764.065683	0.166919
764.260968	0.167019
764.456236	0.166756
764.651485	0.166697
764.846716	0.166411
765.041929	0.166447
765.237123	0.166308
765.432299	0.166277
765.627457	0.166149
765.822597	0.166199
766.017719	0.166059
766.212822	0.166240
766.407907	0.166147
766.602974	0.166241
766.798023	0.166477
766.993054	0.166679
767.188066	0.166523
767.383060	0.166582
767.578036	0.166358
767.772993	0.166315
767.967933	0.166012
768.162854	0.165718
768.357757	0.165690
768.552642	0.165513
768.747508	0.165581
768.942356	0.165631
769.137186	0.165336
769.331998	0.165251
769.526792	0.165330
769.721567	0.165537
769.916324	0.165741
770.111063	0.165775
770.305784	0.165784
770.500486	0.165540
770.695171	0.165378
770.889837	0.165473
771.084484	0.165509
771.279114	0.165367
771.473725	0.165334
771.668318	0.165292
771.862893	0.165360
772.057450	0.165357
772.251988	0.165310
772.446509	0.165126
772.641011	0.165227
772.835494	0.165154
773.029960	0.165040
773.224407	0.164912
773.418836	0.164871
773.613247	0.164637
773.807640	0.164517
774.002014	0.164575
774.196370	0.164557
774.390708	0.164584
774.585028	0.164507
774.779330	0.164831
774.973613	0.164955
775.167878	0.164826
775.362125	0.164883
775.556354	0.164734
775.750564	0.164655
775.944756	0.164926
776.138930	0.164677
776.333086	0.164699
776.527223	0.164511
776.721343	0.164285
776.915444	0.164377
777.109526	0.164069
777.303591	0.164059
777.497637	0.164007
777.691666	0.163711
777.885676	0.163567
778.079667	0.163629
778.273641	0.163439
778.467596	0.163434
778.661533	0.163127
778.855452	0.163299
779.049352	0.163144
779.243235	0.163531
779.437099	0.163852
779.630945	0.164028
779.824773	0.163864
780.018582	0.163849
780.212373	0.163875
780.406146	0.164125
780.599901	0.164016
780.793638	0.164407
780.987356	0.164238
781.181056	0.164188
781.374738	0.164372
781.568402	0.164433
781.762047	0.164596
781.955674	0.164649
782.149283	0.164543
782.342874	0.164689
782.536447	0.164586
782.730001	0.164284
782.923537	0.164266
783.117055	0.164444
783.310555	0.164755
783.504036	0.164886
783.697499	0.164915
783.890944	0.165179
784.084371	0.165353
784.277780	0.165461
784.471170	0.165698
784.664542	0.165895
784.857896	0.165708
785.051231	0.165485
785.244549	0.165490
785.437848	0.165616
785.631129	0.165721
785.824392	0.165753
786.017636	0.165776
786.210863	0.165969
786.404071	0.165848
786.597260	0.166008
786.790432	0.166255
786.983585	0.166464
787.176721	0.166506
787.369838	0.166709
787.562936	0.166881
787.756017	0.167008
787.949079	0.166965
788.142123	0.167197
788.335149	0.167204
788.528156	0.167170
788.721146	0.167183
788.914117	0.167371
789.107070	0.167396
789.300005	0.167445
789.492921	0.167228
789.685819	0.167350
789.878699	0.167294
790.071561	0.167234
790.264405	0.167142
790.457230	0.167091
790.650037	0.166959
790.842826	0.166719
791.035597	0.166781
791.228349	0.166965
791.421084	0.167054
791.613800	0.167087
791.806497	0.167352
791.999177	0.167591
792.191838	0.167712
792.384481	0.167683
792.577106	0.168014
792.769713	0.168109
792.962301	0.168214
793.154871	0.168241
793.347423	0.168475
793.539957	0.168785
793.732473	0.168924
793.924970	0.168939
794.117449	0.169424
794.309910	0.169630
794.502353	0.169629
794.694777	0.169874
794.887183	0.170264
795.079571	0.170383
795.271941	0.170398
795.464293	0.170731
795.656626	0.171075
795.848941	0.171193
796.041238	0.171245
796.233516	0.171512
796.425777	0.171805
796.618019	0.171859
796.810243	0.172106
797.002449	0.172046
797.194636	0.171942
797.386805	0.171974
797.578956	0.171944
797.771089	0.172009
797.963204	0.172126
798.155300	0.172197
798.347378	0.172367
798.539438	0.172162
798.731480	0.172272
798.923503	0.172604
799.115509	0.172634
799.307496	0.172550
799.499465	0.172827
799.691415	0.172960
799.883348	0.172885
800.075262	0.173043
800.267158	0.173292
800.459035	0.173648
800.650895	0.173513
800.842736	0.173750
801.034559	0.174115
801.226364	0.174213
801.418150	0.174180
801.609919	0.174325
801.801669	0.174453
801.993401	0.174576
802.185114	0.174742
802.376810	0.175111
802.568487	0.175295
802.760146	0.175406
802.951787	0.175449
803.143409	0.175765
803.335014	0.176179
803.526600	0.176295
803.718168	0.176484
803.909717	0.176624
804.101249	0.176722
804.292762	0.176834
804.484257	0.177044
804.675734	0.177184
804.867192	0.177404
805.058632	0.177393
805.250054	0.177632
805.441458	0.177843
805.632844	0.178045
805.824211	0.178119
806.015561	0.178330
806.206891	0.178706
806.398204	0.179167
806.589499	0.179483
806.780775	0.179824
806.972033	0.179939
807.163273	0.180062
807.354495	0.180174
807.545698	0.180548
807.736883	0.180767
807.928050	0.180994
808.119199	0.180972
808.310329	0.181103
808.501441	0.181336
808.692535	0.181398
808.883611	0.181744
809.074669	0.182075
809.265708	0.182219
809.456729	0.182330
809.647732	0.182542
809.838717	0.182985
810.029683	0.183027
810.220632	0.183008
810.411562	0.183475
810.602474	0.183967
810.793367	0.183911
810.984242	0.184123
811.175100	0.184527
811.365938	0.184417
811.556759	0.184332
811.747562	0.184494
811.938346	0.184770
812.129112	0.184797
812.319860	0.184790
812.510589	0.184967
812.701300	0.185134
812.891994	0.185355
813.082668	0.186023
813.273325	0.186478
813.463964	0.186880
813.654584	0.187147
813.845186	0.187430
814.035769	0.187588
814.226335	0.188019
814.416882	0.188371
814.607411	0.188684
814.797922	0.188650
814.988415	0.188791
815.178889	0.189080
815.369345	0.189454
815.559783	0.189764
815.750203	0.190105
815.940605	0.190433
816.130988	0.190470
816.321353	0.190708
816.511700	0.190802
816.702028	0.190942
816.892339	0.191110
817.082631	0.191108
817.272905	0.191157
817.463161	0.191307
817.653398	0.191319
817.843617	0.191728
818.033819	0.191826
818.224001	0.192210
818.414166	0.192344
818.604312	0.192579
818.794440	0.192806
818.984550	0.193152
819.174642	0.193383
819.364716	0.193733
819.554771	0.194098
819.744808	0.194479
819.934827	0.194729
820.124827	0.195118
820.314810	0.195596
820.504774	0.195974
820.694720	0.196204
820.884647	0.196372
821.074557	0.196696
821.264448	0.196920
821.454321	0.197046
821.644176	0.197315
821.834012	0.197631
822.023831	0.197789
822.213631	0.197955
822.403413	0.198151
822.593176	0.198557
822.782922	0.198814
822.972649	0.198976
823.162358	0.199296
823.352049	0.199860
823.541721	0.200045
823.731376	0.200318
823.921012	0.200733
824.110629	0.201064
824.300229	0.201499
824.489811	0.201768
824.679374	0.202115
824.868919	0.202288
825.058445	0.202242
825.247954	0.202614
825.437444	0.202692
825.626916	0.202900
825.816370	0.203264
826.005806	0.203360
826.195223	0.203373
826.384622	0.203539
826.574003	0.203743
826.763366	0.203995
826.952711	0.204260
827.142037	0.204433
827.331345	0.204568
827.520635	0.204448
827.709906	0.204608
827.899160	0.205184
828.088395	0.205570
828.277612	0.206036
828.466810	0.206176
828.655991	0.206434
828.845153	0.206837
829.034297	0.207068
829.223423	0.207896
829.412531	0.208365
829.601620	0.208487
829.790691	0.208854
829.979744	0.209205
830.168779	0.209762
830.357795	0.210047
830.546793	0.210229
830.735773	0.210699
830.924735	0.210849
831.113679	0.210895
831.302604	0.211097
831.491511	0.211285
831.680400	0.211536
831.869271	0.211829
832.058123	0.211997
832.246957	0.212614
832.435773	0.212980
832.624571	0.213353
832.813351	0.213824
833.002112	0.214291
833.190855	0.214424
833.379580	0.214421
833.568287	0.214739
833.756975	0.215241
833.945645	0.215436
834.134297	0.215673
834.322931	0.215991
834.511547	0.216273
834.700144	0.216300
834.888723	0.216583
835.077284	0.217145
835.265826	0.217492
835.454351	0.217833
835.642857	0.218007
835.831345	0.218018
836.019815	0.218210
836.208266	0.218534
836.396699	0.219214
836.585114	0.219729
836.773511	0.220009
836.961890	0.220191
837.150250	0.220764
837.338592	0.220996
837.526916	0.221565
837.715222	0.221597
837.903510	0.221826
838.091779	0.222051
838.280030	0.222282
838.468263	0.222637
838.656477	0.222898
838.844674	0.222767
839.032852	0.223287
839.221012	0.223786
839.409153	0.224377
839.597277	0.224637
839.785382	0.225153
839.973469	0.225404
840.161538	0.225837
840.349589	0.226312
840.537621	0.226595
840.725635	0.226859
840.913631	0.226973
841.101609	0.227477
841.289568	0.227839
841.477509	0.227929
841.665432	0.228479
841.853337	0.228657
842.041224	0.228991
842.229092	0.229446
842.416942	0.230098
842.604774	0.230470
842.792588	0.230461
842.980383	0.230798
843.168160	0.231131
843.355919	0.231333
843.543660	0.231721
843.731382	0.232245
843.919087	0.232695
844.106773	0.233103
844.294441	0.233368
844.482090	0.233876
844.669722	0.234173
844.857335	0.234706
845.044930	0.235310
845.232507	0.235528
845.420065	0.235677
845.607605	0.236149
845.795127	0.236262
845.982631	0.237104
846.170117	0.237569
846.357584	0.238209
846.545033	0.238232
846.732464	0.238656
846.919877	0.239135
847.107272	0.239456
847.294648	0.239603
847.482006	0.239908
847.669346	0.240023
847.856667	0.240276
848.043971	0.240739
848.231256	0.241320
848.418523	0.241271
848.605771	0.241544
848.793002	0.242067
848.980214	0.242519
849.167408	0.243017
849.354584	0.243294
849.541742	0.243617
849.728881	0.243786
849.916002	0.244056
850.103105	0.244494
850.290190	0.244920
850.477256	0.245301
850.664304	0.245742
850.851334	0.245617
851.038346	0.245794
851.225340	0.245824
851.412315	0.246139
851.599272	0.246440
851.786211	0.246990
851.973132	0.247328
852.160034	0.247607
852.346918	0.247709
852.533784	0.248123
852.720632	0.248462
852.907462	0.249268
853.094273	0.249483
853.281066	0.249848
853.467841	0.250101
853.654598	0.250543
853.841336	0.250767
854.028056	0.250962
854.214758	0.251486
854.401442	0.251906
854.588107	0.251928
854.774755	0.252404
854.961384	0.252694
855.147995	0.252970
855.334587	0.253065
855.521162	0.253124
855.707718	0.253119
855.894256	0.253144
856.080775	0.253551
856.267277	0.253810
856.453760	0.253837
856.640225	0.253998
856.826672	0.254114
857.013101	0.254302
857.199511	0.254676
857.385903	0.255414
857.572277	0.255692
857.758633	0.255725
857.944970	0.255789
858.131290	0.256066
858.317591	0.256496
858.503873	0.256819
858.690138	0.257514
858.876384	0.257671
859.062612	0.257880
859.248822	0.258030
859.435014	0.258400
859.621188	0.259116
859.807343	0.259487
859.993480	0.259882
860.179599	0.260083
860.365699	0.260062
860.551781	0.260559
860.737846	0.260710
860.923891	0.261317
861.109919	0.261806
861.295929	0.261904
861.481920	0.262645
861.667893	0.262928
861.853848	0.263271
862.039784	0.263795
862.225702	0.264057
862.411603	0.264465
862.597484	0.264743
862.783348	0.264952
862.969193	0.265672
863.155021	0.265579
863.340830	0.265844
863.526620	0.266182
863.712393	0.266479
863.898147	0.266695
864.083883	0.266770
864.269601	0.267125
864.455301	0.267467
864.640982	0.267482
864.826645	0.267716
865.012290	0.267792
865.197917	0.268157
865.383526	0.268341
865.569116	0.268729
865.754688	0.269140
865.940242	0.269346
866.125777	0.269474
866.311295	0.269773
866.496794	0.269845
866.682275	0.270088
866.867737	0.269927
867.053182	0.269982
867.238608	0.270119
867.424016	0.270749
867.609406	0.271198
867.794778	0.271635
867.980131	0.271915
868.165466	0.272288
868.350783	0.272502
868.536082	0.273017
868.721362	0.273081
868.906625	0.273183
869.091869	0.273349
869.277094	0.273356
869.462302	0.273302
869.647491	0.273499
869.832662	0.273736
870.017815	0.274061
870.202950	0.274310
870.388066	0.274674
870.573165	0.274897
870.758245	0.274760
870.943306	0.274639
871.128350	0.275162
871.313375	0.275419
871.498382	0.275844
871.683371	0.275762
871.868342	0.276037
872.053294	0.276383
872.238229	0.276678
872.423144	0.276790
872.608042	0.277078
872.792922	0.276927
872.977783	0.277120
873.162626	0.277199
873.347451	0.277849
873.532258	0.278229
873.717046	0.278310
873.901816	0.278922
874.086568	0.279428
874.271302	0.279726
874.456017	0.279933
874.640715	0.279978
874.825394	0.280064
875.010055	0.280196
875.194697	0.280002
875.379322	0.280411
875.563928	0.280314
875.748516	0.280559
875.933085	0.280695
876.117637	0.281052
876.302170	0.281259
876.486685	0.281832
876.671182	0.282128
876.855661	0.282582
877.040121	0.282626
877.224563	0.282552
877.408987	0.282931
877.593393	0.282939
877.777780	0.283069
877.962150	0.283039
878.146501	0.282445
878.330833	0.282540
878.515148	0.282572
878.699444	0.282681
878.883722	0.282954
879.067982	0.282814
879.252224	0.283343
879.436447	0.283423
879.620653	0.283902
879.804840	0.284395
879.989008	0.284351
880.173159	0.284331
880.357291	0.284531
880.541405	0.284570
880.725501	0.284591
880.909579	0.284513
881.093638	0.284465
881.277680	0.284478
881.461703	0.284731
881.645707	0.284793
881.829694	0.284738
882.013662	0.284773
882.197612	0.284995
882.381544	0.285170
882.565458	0.285536
882.749353	0.285486
882.933230	0.285464
883.117089	0.285225
883.300930	0.285349
883.484753	0.285466
883.668557	0.285300
883.852343	0.285377
884.036111	0.285520
884.219861	0.285331
884.403592	0.285774
884.587305	0.285705
884.771000	0.286161
884.954677	0.286072
885.138335	0.286385
885.321976	0.286885
885.505598	0.286998
885.689201	0.287137
885.872787	0.287064
886.056354	0.287230
886.239904	0.287101
886.423434	0.286961
886.606947	0.287174
886.790442	0.287252
886.973918	0.287084
887.157376	0.287205
887.340816	0.286979
887.524237	0.286988
887.707641	0.286860
887.891026	0.287400
888.074393	0.287973
888.257741	0.288036
888.441072	0.287951
888.624384	0.288408
888.807678	0.287974
888.990954	0.288150
889.174211	0.288473
889.357451	0.288570
889.540672	0.288442
889.723875	0.288172
889.907059	0.288548
890.090226	0.288677
890.273374	0.288108
890.456504	0.287941
890.639616	0.287874
890.822709	0.287869
891.005785	0.287816
891.188842	0.287790
891.371881	0.287354
891.554901	0.287139
891.737904	0.287079
891.920888	0.287520
892.103854	0.287994
892.286802	0.287872
892.469731	0.287816
892.652643	0.287913
892.835536	0.287925
893.018410	0.287986
893.201267	0.287882
893.384106	0.287275
893.566926	0.286605
893.749728	0.286254
893.932511	0.286095
894.115277	0.286032
894.298024	0.285897
894.480753	0.285690
894.663464	0.285891
894.846157	0.286130
895.028831	0.286484
895.211487	0.286924
895.394125	0.287453
895.576745	0.287767
895.759346	0.287616
895.941930	0.287136
896.124495	0.286886
896.307041	0.286766
896.489570	0.286204
896.672080	0.286339
896.854573	0.286187
897.037046	0.285784
897.219502	0.285619
897.401940	0.285435
897.584359	0.285549
897.766760	0.285485
897.949143	0.285363
898.131507	0.285252
898.313854	0.285087
898.496182	0.285061
898.678492	0.284928
898.860783	0.284646
899.043057	0.284542
899.225312	0.284538
899.407549	0.284452
899.589768	0.283722
899.771968	0.283630
899.954151	0.283292
900.136315	0.282890
900.318461	0.282707
900.500588	0.282647
900.682698	0.282330
900.864789	0.281991
901.046862	0.281758
901.228917	0.281854
901.410953	0.281582
901.592971	0.280929
901.774972	0.280833
901.956953	0.280404
902.138917	0.280195
902.320862	0.279971
902.502790	0.279737
902.684699	0.279312
902.866589	0.279101
903.048462	0.279202
903.230316	0.279289
903.412152	0.278765
903.593970	0.278797
903.775770	0.278934
903.957551	0.279175
904.139314	0.278926
904.321059	0.278991
904.502786	0.278779
904.684494	0.277826
904.866185	0.277456
905.047857	0.277286
905.229510	0.276986
905.411146	0.276524
905.592763	0.276694
905.774363	0.276506
905.955943	0.276220
906.137506	0.276089
906.319051	0.276693
906.500577	0.276365
906.682085	0.275702
906.863575	0.275131
907.045046	0.274477
907.226500	0.273555
907.407935	0.272881
907.589352	0.272548
907.770750	0.271908
907.952131	0.271082
908.133493	0.270682
908.314837	0.270986
908.496163	0.270756
908.677470	0.270540
908.858760	0.270104
909.040031	0.269700
909.221284	0.268818
909.402518	0.269057
909.583735	0.268725
909.764933	0.268618
909.946113	0.267830
910.127275	0.267254
910.308418	0.266583
910.489544	0.265672
910.670651	0.265424
910.851740	0.265377
911.032810	0.264865
911.213863	0.264213
911.394897	0.263834
911.575913	0.263722
911.756911	0.263550
911.937890	0.263303
912.118851	0.263036
912.299794	0.263137
912.480719	0.262514
912.661626	0.261793
912.842514	0.261192
913.023384	0.260260
913.204236	0.259665
913.385070	0.259114
913.565886	0.258083
913.746683	0.257567
913.927462	0.256440
914.108223	0.256064
914.288965	0.255602
914.469690	0.255347
914.650396	0.255595
914.831084	0.255234
915.011754	0.254526
915.192405	0.254300
915.373038	0.253585
915.553653	0.253109
915.734250	0.252628
915.914829	0.251843
916.095389	0.251627
916.275931	0.250902
916.456455	0.250434
916.636961	0.250317
916.817448	0.249861
916.997917	0.250110
917.178368	0.250157
917.358801	0.249909
917.539216	0.249700
917.719612	0.249168
917.899990	0.249288
918.080350	0.248334
918.260692	0.248095
918.441015	0.248222
918.621320	0.247571
918.801607	0.246801
918.981876	0.246504
919.162127	0.246122
919.342359	0.245424
919.522573	0.243997
919.702769	0.243712
919.882947	0.242953
920.063106	0.242297
920.243247	0.242251
920.423370	0.242190
920.603475	0.242141
920.783562	0.241184
920.963630	0.240613
921.143680	0.240563
921.323712	0.240411
921.503725	0.239879
921.683721	0.239283
921.863698	0.238174
922.043657	0.237457
922.223598	0.236429
922.403520	0.236084
922.583424	0.235465
922.763311	0.234920
922.943178	0.234451
923.123028	0.234515
923.302859	0.233546
923.482673	0.233567
923.662467	0.232868
923.842244	0.232094
924.022003	0.231968
924.201743	0.231332
924.381465	0.230307
924.561169	0.229076
924.740854	0.227670
924.920522	0.227082
925.100171	0.225544
925.279802	0.224667
925.459414	0.224376
925.639009	0.223223
925.818585	0.222929
925.998143	0.222421
926.177683	0.221823
926.357205	0.221433
926.536708	0.220832
926.716193	0.220413
926.895660	0.219144
927.075109	0.217937
927.254539	0.217988
927.433951	0.216698
927.613345	0.215836
927.792721	0.215601
927.972079	0.215141
928.151418	0.214156
928.330739	0.214011
928.510042	0.213830
928.689327	0.213283
928.868593	0.211620
929.047841	0.211120
929.227071	0.209812
929.406283	0.208855
929.585476	0.207673
929.764652	0.207442
929.943809	0.206168
930.122948	0.205919
930.302068	0.205839
930.481171	0.205525
930.660255	0.205132
930.839321	0.205449
931.018369	0.204346
931.197398	0.203282
931.376409	0.202325
931.555402	0.201418
931.734377	0.200479
931.913334	0.199120
932.092272	0.198348
932.271192	0.197356
932.450094	0.196562
932.628978	0.196120
932.807844	0.195287
932.986691	0.194624
933.165520	0.194119
933.344331	0.193112
933.523123	0.192443
933.701898	0.191613
933.880654	0.191114
934.059392	0.190295
934.238111	0.189747
934.416813	0.189928
934.595496	0.188938
934.774161	0.187806
934.952808	0.187330
935.131437	0.186007
935.310047	0.185689
935.488639	0.185911
935.667213	0.185671
935.845769	0.184101
936.024306	0.182627
936.202825	0.182150
936.381326	0.181612
936.559809	0.180272
936.738274	0.179815
936.916720	0.178188
937.095148	0.176000
937.273558	0.174870
937.451950	0.173815
937.630323	0.173478
937.808678	0.172392
937.987015	0.172114
938.165334	0.171941
938.343635	0.170665
938.521917	0.170515
938.700181	0.170848
938.878427	0.169998
939.056655	0.169736
939.234864	0.168827
939.413055	0.168502
939.591228	0.167503
939.769383	0.166028
939.947519	0.165248
940.125638	0.163684
940.303738	0.161779
940.481820	0.160109
940.659883	0.159478
940.837929	0.159240
941.015956	0.157462
941.193965	0.156613
941.371955	0.155310
941.549928	0.155008
941.727882	0.154353
941.905818	0.153272
942.083736	0.153013
942.261636	0.152379
942.439517	0.151182
942.617380	0.151514
942.795225	0.150967
942.973052	0.150837
943.150860	0.149834
943.328651	0.148860
943.506423	0.149009
943.684176	0.148322
943.861912	0.147378
944.039629	0.146071
944.217328	0.146013
944.395009	0.144465
944.572672	0.143939
944.750317	0.142840
944.927943	0.142583
945.105551	0.140703
945.283141	0.140225
945.460712	0.139220
945.638265	0.138506
945.815801	0.136794
945.993317	0.136945
946.170816	0.135493
946.348297	0.135541
946.525759	0.134894
946.703203	0.134784
946.880629	0.133979
947.058036	0.133706
947.235425	0.132579
947.412797	0.131823
947.590149	0.130767
947.767484	0.130814
947.944800	0.129223
948.122099	0.128382
948.299379	0.127245
948.476640	0.124613
948.653884	0.123257
948.831109	0.122408
949.008316	0.119864
949.185505	0.118056
949.362676	0.118953
949.539828	0.118081
949.716962	0.116691
949.894078	0.115962
950.071176	0.116178
950.248256	0.115577
950.425317	0.115145
950.602360	0.115540
950.779385	0.115629
950.956391	0.113047
951.133380	0.111644
951.310350	0.111238
951.487302	0.109831
951.664235	0.108438
951.841151	0.107592
952.018048	0.106449
952.194927	0.106038
952.371788	0.104363
952.548631	0.102499
952.725455	0.102850
952.902261	0.102285
953.079049	0.101915
953.255819	0.102919
953.432570	0.102363
953.609303	0.100555
953.786018	0.099133
953.962715	0.098979
954.139394	0.100078
954.316054	0.099510
954.492696	0.098162
954.669320	0.096974
954.845926	0.095622
955.022513	0.094428
955.199083	0.094573
955.375634	0.094455
955.552166	0.093263
955.728681	0.091018
955.905177	0.090196
956.081655	0.087657
956.258115	0.087775
956.434557	0.086847
956.610980	0.087501
956.787385	0.086226
956.963772	0.085414
957.140141	0.084291
957.316492	0.083993
957.492824	0.082353
957.669138	0.083648
957.845434	0.082555
958.021712	0.082769
958.197971	0.082443
958.374212	0.084004
958.550435	0.082461
958.726640	0.082924
958.902826	0.082248
959.078995	0.084159
959.255145	0.082809
959.431277	0.082661
959.607390	0.081333
959.783486	0.079040
959.959563	0.077043
960.135622	0.076735
960.311662	0.075285
960.487685	0.076164
960.663689	0.074810
960.839675	0.074182
961.015643	0.073437
961.191593	0.074570
961.367524	0.076440
961.543437	0.076149
961.719332	0.077558
961.895209	0.077971
962.071067	0.077485
962.246907	0.076089
962.422730	0.077280
962.598533	0.078165
962.774319	0.078421
962.950086	0.076217
963.125835	0.077279
963.301566	0.076321
963.477279	0.075997
963.652973	0.074831
963.828650	0.074971
964.004308	0.074410
964.179947	0.072875
964.355569	0.072727
964.531172	0.073581
964.706757	0.072689
964.882324	0.071646
965.057873	0.071202
965.233403	0.071204
965.408916	0.071176
965.584410	0.072450
965.759885	0.073807
965.935343	0.073130
966.110782	0.070188
966.286203	0.069475
966.461606	0.071031
966.636991	0.071375
966.812357	0.070350
966.987705	0.069938
967.163035	0.068987
967.338347	0.067833
967.513641	0.065804
967.688916	0.066234
967.864173	0.066882
968.039412	0.064920
968.214632	0.064543
968.389835	0.066652
968.565019	0.066708
968.740185	0.064680
968.915333	0.064624
969.090462	0.064783
969.265573	0.064097
969.440667	0.062944
969.615741	0.064394
969.790798	0.066014
969.965836	0.065296
970.140856	0.065801
970.315858	0.068459
970.490842	0.066905
970.665808	0.066760
970.840755	0.067895
971.015684	0.069653
971.190595	0.071184
971.365487	0.069947
971.540362	0.069463
971.715218	0.069523
971.890056	0.067484
972.064875	0.069904
972.239677	0.070074
972.414460	0.071163
972.589225	0.069732
972.763972	0.068289
972.938700	0.068471
973.113411	0.068885
973.288103	0.069013
973.462777	0.071524
973.637432	0.071585
973.812070	0.071555
973.986689	0.069708
974.161290	0.072166
974.335873	0.071771
974.510437	0.072756
974.684984	0.072345
974.859512	0.071832
975.034022	0.071173
975.208513	0.071040
975.382987	0.071708
975.557442	0.073244
975.731879	0.071692
975.906298	0.069994
976.080698	0.069447
976.255080	0.069512
976.429445	0.070594
976.603790	0.069047
976.778118	0.070020
976.952427	0.070870
977.126719	0.069326
977.300992	0.068351
977.475246	0.070098
977.649483	0.069264
977.823701	0.067797
977.997901	0.067125
978.172083	0.069531
978.346247	0.068789
978.520392	0.066960
978.694519	0.068582
978.868628	0.068111
979.042719	0.066233
979.216791	0.067788
979.390845	0.068313
979.564882	0.069199
979.738899	0.068538
979.912899	0.065430
980.086880	0.066899
980.260843	0.064824
980.434788	0.066686
980.608715	0.065506
980.782623	0.064973
980.956514	0.065726
981.130386	0.066140
981.304240	0.065722
981.478075	0.068784
981.651892	0.066597
981.825692	0.067774
981.999472	0.068537
982.173235	0.070807
982.346980	0.069586
982.520706	0.069985
982.694414	0.067227
982.868104	0.065681
983.041775	0.064536
983.215428	0.065410
983.389064	0.064993
983.562680	0.064466
983.736279	0.065824
983.909860	0.067136
984.083422	0.068761
984.256966	0.069704
984.430491	0.072124
984.603999	0.071895
984.777488	0.072061
984.950959	0.073573
985.124412	0.072974
985.297847	0.072661
985.471263	0.072556
985.644661	0.070093
985.818041	0.071676
985.991403	0.070309
986.164747	0.070211
986.338072	0.070618
986.511379	0.069888
986.684668	0.070159
986.857938	0.069802
987.031191	0.070404
987.204425	0.071141
987.377641	0.070237
987.550839	0.069580
987.724018	0.070077
987.897179	0.070064
988.070322	0.071964
988.243447	0.071447
988.416554	0.070612
988.589642	0.069929
988.762712	0.069482
988.935764	0.068239
989.108798	0.067410
989.281813	0.068717
989.454811	0.067967
989.627790	0.068219
989.800751	0.067578
989.973693	0.067563
990.146617	0.068269
990.319524	0.070923
990.492412	0.071953
990.665281	0.072785
990.838133	0.072041
991.010966	0.073055
991.183781	0.071985
991.356578	0.072602
991.529356	0.071967
991.702117	0.072582
991.874859	0.069587
992.047583	0.068814
992.220288	0.069223
992.392976	0.069700
992.565645	0.069575
992.738296	0.069109
992.910929	0.069156
993.083543	0.069728
993.256139	0.067390
993.428718	0.069018
993.601277	0.068145
993.773819	0.067983
993.946342	0.067401
994.118848	0.068381
994.291335	0.067761
994.463803	0.066415
994.636254	0.065798
994.808686	0.067432
994.981100	0.064718
995.153496	0.065755
995.325874	0.066470
995.498233	0.066205
995.670574	0.065337
995.842897	0.064584
996.015202	0.066061
996.187488	0.065352
996.359757	0.065028
996.532007	0.066546
996.704239	0.066989
996.876452	0.067014
997.048648	0.066460
997.220825	0.066262
997.392984	0.065707
997.565124	0.065594
997.737247	0.066673
997.909351	0.067616
998.081437	0.068171
998.253505	0.068860
998.425554	0.068874
998.597586	0.070831
998.769599	0.069055
998.941594	0.069839
999.113571	0.069864
999.285529	0.070455
999.457469	0.068506
999.629391	0.068723
999.801295	0.067852
999.973181	0.065962
1000.145048	0.063173
1000.316897	0.063577
1000.488728	0.063574
1000.660541	0.062261
1000.832335	0.061383
1001.004111	0.062273
1001.175869	0.062581
1001.347609	0.063858
1001.519331	0.064494
1001.691034	0.064111
1001.862719	0.064237
1002.034386	0.065309
1002.206035	0.065943
1002.377665	0.066039
1002.549277	0.066053
1002.720871	0.065611
1002.892447	0.064831
1003.064004	0.067199
1003.235544	0.069694
1003.407065	0.069884
1003.578568	0.069835
1003.750052	0.069731
1003.921519	0.071126
1004.092967	0.070058
1004.264397	0.069896
1004.435809	0.069126
1004.607202	0.067757
1004.778577	0.067011
1004.949934	0.069269
1005.121273	0.069044
1005.292594	0.070013
1005.463896	0.069261
1005.635180	0.068907
1005.806446	0.070173
1005.977694	0.069906
1006.148923	0.069473
1006.320135	0.070117
1006.491328	0.069056
1006.662503	0.069340
1006.833659	0.069110
1007.004798	0.068960
1007.175918	0.069047
1007.347020	0.067344
1007.518103	0.066121
1007.689169	0.065280
1007.860216	0.064962
1008.031245	0.065598
1008.202256	0.064765
1008.373248	0.064861
1008.544223	0.064632
1008.715179	0.065488
1008.886117	0.065431
1009.057036	0.068436
1009.227938	0.069511
1009.398821	0.068998
1009.569686	0.068980
1009.740533	0.069779
1009.911361	0.069409
1010.082172	0.069369
1010.252964	0.068744
1010.423738	0.067645
1010.594493	0.065926
1010.765231	0.066869
1010.935950	0.067337
1011.106651	0.066773
1011.277334	0.067665
1011.447998	0.067675
1011.618645	0.067239
1011.789273	0.067914
1011.959882	0.067892
1012.130474	0.067375
1012.301048	0.066420
1012.471603	0.066828
1012.642140	0.066965
1012.812658	0.065844
1012.983159	0.065423
1013.153641	0.066627
1013.324105	0.066017
1013.494551	0.066405
1013.664979	0.067668
1013.835388	0.067912
1014.005779	0.067954
1014.176152	0.067548
1014.346507	0.066341
1014.516843	0.066604
1014.687162	0.067378
1014.857462	0.067809
1015.027744	0.067540
1015.198007	0.067918
1015.368252	0.067693
1015.538480	0.067392
1015.708689	0.066645
1015.878879	0.066846
1016.049052	0.066747
1016.219206	0.067294
1016.389342	0.066258
1016.559460	0.068858
1016.729559	0.068523
1016.899641	0.066773
1017.069704	0.066060
1017.239749	0.066710
1017.409775	0.067909
1017.579784	0.068252
1017.749774	0.067346
1017.919746	0.067195
1018.089700	0.065337
1018.259635	0.064611
1018.429553	0.065482
1018.599452	0.066358
1018.769333	0.066695
1018.939195	0.066313
1019.109040	0.065733
1019.278866	0.065079
1019.448674	0.065843
1019.618464	0.067041
1019.788235	0.067294
1019.957989	0.067972
1020.127724	0.068416
1020.297441	0.069038
1020.467139	0.068334
1020.636820	0.067973
1020.806482	0.068135
1020.976126	0.068863
1021.145752	0.069808
1021.315359	0.068329
1021.484948	0.068667
1021.654519	0.066485
1021.824072	0.065009
1021.993607	0.067635
1022.163123	0.069210
1022.332621	0.068120
1022.502101	0.066989
1022.671563	0.063005
1022.841007	0.064014
1023.010432	0.063683
1023.179839	0.064923
1023.349228	0.065591
1023.518598	0.063605
1023.687951	0.062296
1023.857285	0.062855
1024.026601	0.064451
1024.195899	0.064104
1024.365178	0.065598
1024.534439	0.067797
1024.703682	0.067967
1024.872907	0.068177
1025.042114	0.068281
1025.211302	0.068987
1025.380472	0.069278
1025.549624	0.067843
1025.718758	0.070251
1025.887873	0.068953
1026.056970	0.068473
1026.226049	0.068448
1026.395110	0.067675
1026.564153	0.068510
1026.733177	0.069303
1026.902183	0.068355
1027.071171	0.069114
1027.240141	0.069188
1027.409092	0.070475
1027.578026	0.069517
1027.746940	0.069103
1027.915837	0.070013
1028.084716	0.071000
1028.253576	0.069690
1028.422418	0.072532
1028.591242	0.072205
1028.760048	0.071589
1028.928835	0.071392
1029.097604	0.070727
1029.266355	0.070927
1029.435088	0.070633
1029.603803	0.069778
1029.772499	0.069655
1029.941177	0.067515
1030.109837	0.067760
1030.278478	0.069143
1030.447102	0.069460
1030.615707	0.068801
1030.784294	0.068072
1030.952863	0.068438
1031.121413	0.068531
1031.289945	0.070344
1031.458460	0.071012
1031.626955	0.070473
1031.795433	0.069816
1031.963892	0.068225
1032.132334	0.069820
1032.300756	0.068556
1032.469161	0.066200
1032.637548	0.066009
1032.805916	0.064603
1032.974266	0.064974
1033.142598	0.064763
1033.310911	0.066073
1033.479207	0.066207
1033.647484	0.065885
1033.815743	0.068085
1033.983983	0.069277
1034.152206	0.068409
1034.320410	0.069269
1034.488596	0.068276
1034.656764	0.068735
1034.824914	0.067365
1034.993045	0.067501
1035.161158	0.066961
1035.329253	0.066434
1035.497330	0.067386
1035.665388	0.068600
1035.833428	0.068397
1036.001450	0.068800
1036.169454	0.069971
1036.337440	0.070077
1036.505407	0.070162
1036.673356	0.070298
1036.841287	0.070366
1037.009200	0.070184
1037.177094	0.068606
1037.344970	0.067513
1037.512828	0.068386
1037.680668	0.066347
1037.848489	0.065121
1038.016293	0.063826
1038.184078	0.063537
1038.351845	0.065428
1038.519593	0.064904
1038.687324	0.064728
1038.855036	0.065174
1039.022730	0.063739
1039.190406	0.065436
1039.358063	0.066177
1039.525702	0.067312
1039.693323	0.067907
1039.860926	0.066174
1040.028511	0.066806
1040.196077	0.065562
1040.363625	0.064505
1040.531155	0.065104
1040.698667	0.064449
1040.866161	0.065732
1041.033636	0.066195
1041.201093	0.066283
1041.368532	0.065154
1041.535952	0.064873
1041.703355	0.066555
1041.870739	0.067474
1042.038105	0.068003
1042.205452	0.067111
1042.372782	0.066776
1042.540093	0.066463
1042.707386	0.066064
1042.874661	0.067654
1043.041918	0.067056
1043.209156	0.067702
1043.376376	0.067078
1043.543578	0.066672
1043.710762	0.067001
1043.877927	0.066589
1044.045074	0.067631
1044.212203	0.067096
1044.379314	0.065024
1044.546407	0.065221
1044.713481	0.065145
1044.880537	0.064892
1045.047575	0.064926
1045.214595	0.064892
1045.381596	0.064906
1045.548579	0.064310
1045.715544	0.063004
1045.882491	0.065139
1046.049420	0.066551
1046.216330	0.066990
1046.383222	0.068835
1046.550096	0.067128
1046.716951	0.066765
1046.883789	0.066139
1047.050608	0.066043
1047.217409	0.068251
1047.384192	0.066260
1047.550956	0.066770
1047.717703	0.067151
1047.884431	0.066579
1048.051140	0.068965
1048.217832	0.069134
1048.384505	0.070864
1048.551161	0.071628
1048.717798	0.070304
1048.884416	0.072571
1049.051017	0.071483
1049.217599	0.070326
1049.384163	0.071096
1049.550709	0.069113
1049.717237	0.069176
1049.883746	0.068367
1050.050237	0.068398
1050.216710	0.070541
1050.383165	0.069026
1050.549601	0.068805
1050.716019	0.067893
1050.882420	0.066682
1051.048801	0.067833
1051.215165	0.068820
1051.381510	0.068686
1051.547837	0.067821
1051.714146	0.066334
1051.880437	0.066621
1052.046709	0.066548
1052.212964	0.066810
1052.379200	0.066071
1052.545417	0.066507
1052.711617	0.066538
1052.877798	0.066004
1053.043961	0.065998
1053.210106	0.064518
1053.376233	0.066504
1053.542341	0.066337
1053.708432	0.066703
1053.874504	0.067652
1054.040557	0.067263
1054.206593	0.066432
1054.372610	0.065929
1054.538609	0.064941
1054.704590	0.066320
1054.870553	0.063813
1055.036497	0.062915
1055.202424	0.063159
1055.368331	0.062925
1055.534221	0.061615
1055.700093	0.062058
1055.865946	0.062506
1056.031781	0.064780
1056.197598	0.065791
1056.363397	0.066612
1056.529177	0.068922
1056.694939	0.069834
1056.860683	0.070185
1057.026409	0.072499
1057.192116	0.071898
1057.357806	0.071779
1057.523477	0.070291
1057.689130	0.069786
1057.854764	0.070983
1058.020381	0.070810
1058.185979	0.070505
1058.351559	0.070607
1058.517120	0.069959
1058.682664	0.070455
1058.848189	0.069914
1059.013696	0.071195
1059.179185	0.072395
1059.344656	0.072761
1059.510108	0.070395
1059.675542	0.070508
1059.840958	0.070648
1060.006356	0.070372
1060.171735	0.072115
1060.337096	0.072742
1060.502439	0.072644
1060.667764	0.070865
1060.833071	0.070156
1060.998359	0.071436
1061.163629	0.068710
1061.328881	0.068807
1061.494115	0.067386
1061.659330	0.065598
1061.824527	0.067508
1061.989706	0.066804
1062.154867	0.067362
1062.320010	0.067436
1062.485134	0.067101
1062.650240	0.070674
1062.815328	0.070771
1062.980398	0.073102
1063.145449	0.073164
1063.310482	0.071664
1063.475497	0.070368
1063.640494	0.071061
1063.805473	0.071095
1063.970433	0.071414
1064.135375	0.070759
1064.300299	0.069614
1064.465204	0.068839
1064.630092	0.069253
1064.794961	0.071365
1064.959812	0.072169
1065.124645	0.071186
1065.289459	0.070449
1065.454256	0.070570
1065.619034	0.070099
1065.783793	0.070629
1065.948535	0.069969
1066.113258	0.069219
1066.277964	0.067042
1066.442651	0.067520
1066.607319	0.066903
1066.771970	0.067126
1066.936602	0.065898
1067.101216	0.067105
1067.265812	0.067089
1067.430389	0.067858
1067.594949	0.068614
1067.759490	0.069657
1067.924013	0.069087
1068.088518	0.070399
1068.253004	0.070948
1068.417472	0.072011
1068.581922	0.069986
1068.746354	0.070181
1068.910768	0.069453
1069.075163	0.068471
1069.239540	0.067883
1069.403899	0.069339
1069.568240	0.068064
1069.732562	0.066943
1069.896866	0.067160
1070.061152	0.068821
1070.225420	0.068115
1070.389670	0.068586
1070.553901	0.070317
1070.718114	0.070516
1070.882309	0.070118
1071.046486	0.070837
1071.210644	0.070235
1071.374784	0.070296
1071.538906	0.070039
1071.703010	0.072128
1071.867096	0.074227
1072.031163	0.073925
1072.195212	0.072447
1072.359243	0.071566
1072.523256	0.071242
1072.687250	0.072238
1072.851226	0.073808
1073.015184	0.074357
1073.179124	0.073752
1073.343045	0.073326
1073.506949	0.072303
1073.670834	0.074171
1073.834701	0.075522
1073.998549	0.078141
1074.162380	0.078798
1074.326192	0.077634
1074.489986	0.076832
1074.653761	0.078141
1074.817519	0.077333
1074.981258	0.077874
1075.144979	0.077322
1075.308682	0.076482
1075.472367	0.075619
1075.636033	0.076153
1075.799681	0.076756
1075.963311	0.075935
1076.126923	0.074084
1076.290516	0.073538
1076.454092	0.075753
1076.617649	0.078387
1076.781187	0.078490
1076.944708	0.077387
1077.108210	0.076138
1077.271695	0.075380
1077.435160	0.076351
1077.598608	0.077363
1077.762038	0.076968
1077.925449	0.075233
1078.088842	0.072098
1078.252217	0.072443
1078.415573	0.072973
1078.578912	0.072760
1078.742232	0.072851
1078.905534	0.070098
1079.068817	0.069844
1079.232083	0.071238
1079.395330	0.070724
1079.558559	0.073171
1079.721770	0.072859
1079.884962	0.070982
1080.048136	0.072461
1080.211293	0.073511
1080.374430	0.075139
1080.537550	0.076571
1080.700651	0.076407
1080.863735	0.076683
1081.026800	0.076073
1081.189846	0.076324
1081.352875	0.080425
1081.515885	0.079752
1081.678877	0.078623
1081.841851	0.079134
1082.004807	0.077753
1082.167744	0.078880
1082.330663	0.079214
1082.493564	0.079907
1082.656447	0.078820
1082.819312	0.077607
1082.982158	0.078703
1083.144986	0.078826
1083.307796	0.079216
1083.470587	0.079650
1083.633361	0.076916
1083.796116	0.077618
1083.958853	0.075657
1084.121571	0.077692
1084.284272	0.077492
1084.446954	0.077043
1084.609618	0.077966
1084.772264	0.077717
1084.934892	0.076519
1085.097501	0.075280
1085.260092	0.075385
1085.422665	0.072436
1085.585220	0.072045
1085.747756	0.071513
1085.910274	0.071503
1086.072774	0.071751
1086.235256	0.073832
1086.397720	0.075843
1086.560165	0.077866
1086.722592	0.078680
1086.885001	0.083982
1087.047392	0.083827
1087.209764	0.085063
1087.372119	0.084310
1087.534455	0.084563
1087.696772	0.084158
1087.859072	0.082829
1088.021353	0.083200
1088.183616	0.079858
1088.345861	0.077612
1088.508088	0.079072
1088.670296	0.075496
1088.832486	0.077318
1088.994658	0.074322
1089.156812	0.075613
1089.318948	0.074348
1089.481065	0.074279
1089.643164	0.076080
1089.805245	0.078934
1089.967308	0.075276
1090.129352	0.078838
1090.291378	0.078839
1090.453386	0.080392
1090.615376	0.079446
1090.777347	0.079475
1090.939301	0.082320
1091.101236	0.082074
1091.263153	0.078735
1091.425051	0.079104
1091.586932	0.079506
1091.748794	0.078588
1091.910638	0.080189
1092.072463	0.079562
1092.234271	0.082044
1092.396060	0.078864
1092.557831	0.079385
1092.719584	0.080095
1092.881319	0.083050
1093.043035	0.083118
1093.204733	0.082537
1093.366413	0.082602
1093.528075	0.082479
1093.689718	0.081512
1093.851343	0.081428
1094.012950	0.080703
1094.174539	0.081115
1094.336110	0.079374
1094.497662	0.078888
1094.659196	0.076984
1094.820712	0.076588
1094.982210	0.074841
1095.143689	0.074513
1095.305151	0.074631
1095.466594	0.074472
1095.628018	0.074539
1095.789425	0.076516
1095.950813	0.077320
1096.112183	0.081077
1096.273535	0.082455
1096.434869	0.085498
1096.596184	0.085940
1096.757482	0.088560
1096.918761	0.091492
1097.080021	0.091980
1097.241264	0.089672
1097.402488	0.091257
1097.563694	0.088299
1097.724882	0.086906
1097.886052	0.090412
1098.047203	0.091433
1098.208336	0.088703
1098.369451	0.085579
1098.530548	0.083544
1098.691627	0.084437
1098.852687	0.082457
1099.013729	0.085825
1099.174753	0.082821
1099.335758	0.075879
1099.496746	0.074922
1099.657715	0.075635
1099.818666	0.079377
1099.979599	0.083364
1100.140513	0.081755
1100.301409	0.080689
1100.462287	0.079142
1100.623147	0.080916
1100.783989	0.083231
1100.944812	0.082851
1101.105617	0.082859
1101.266404	0.079370
1101.427173	0.074242
1101.587923	0.078234
1101.748656	0.074919
1101.909370	0.073969
1102.070066	0.075785
1102.230743	0.076528
1102.391403	0.077424
1102.552044	0.078069
1102.712667	0.082483
1102.873271	0.083688
1103.033858	0.080298
1103.194426	0.081007
1103.354976	0.078970
1103.515508	0.078517
1103.676021	0.078102
1103.836517	0.079722
1103.996994	0.081596
1104.157453	0.077523
1104.317893	0.080693
1104.478316	0.082894
1104.638720	0.084416
1104.799106	0.089262
1104.959474	0.085426
1105.119823	0.083106
1105.280155	0.082834
1105.440468	0.079544
1105.600763	0.082714
1105.761039	0.081744
1105.921298	0.080583
1106.081538	0.083604
1106.241760	0.082475
1106.401964	0.087485
1106.562149	0.089275
1106.722316	0.090184
1106.882465	0.095087
1107.042596	0.091100
1107.202709	0.092173
1107.362803	0.089119
1107.522879	0.091368
1107.682937	0.089858
1107.842977	0.087428
1108.002999	0.089798
1108.163002	0.088727
1108.322987	0.079878
1108.482954	0.079991
1108.642902	0.082274
1108.802833	0.086406
1108.962745	0.085249
1109.122639	0.088513
1109.282515	0.089184
1109.442372	0.085287
1109.602211	0.087980
1109.762032	0.093686
1109.921835	0.096365
1110.081620	0.095420
1110.241386	0.092674
1110.401134	0.089016
1110.560864	0.085589
1110.720576	0.084225
1110.880269	0.082699
1111.039945	0.078546
1111.199602	0.080357
1111.359240	0.080827
1111.518861	0.080538
1111.678463	0.084444
1111.838047	0.087895
1111.997613	0.091331
1112.157161	0.090056
1112.316690	0.095769
1112.476202	0.092702
1112.635695	0.088910
1112.795169	0.088381
1112.954626	0.086629
1113.114064	0.085342
1113.273484	0.081779
1113.432886	0.082462
1113.592270	0.086508
1113.751635	0.084245
1113.910983	0.089818
1114.070312	0.091121
1114.229622	0.090940
1114.388915	0.091519
1114.548189	0.091352
1114.707445	0.091982
1114.866683	0.086253
1115.025903	0.083667
1115.185104	0.082735
1115.344287	0.079486
1115.503452	0.078222
1115.662599	0.076683
1115.821727	0.078643
1115.980838	0.076522
1116.139930	0.078095
1116.299004	0.082851
1116.458059	0.084280
1116.617097	0.087102
1116.776116	0.086702
1116.935117	0.088903
1117.094099	0.089242
1117.253064	0.088023
1117.412010	0.091843
1117.570938	0.092668
1117.729848	0.090449
1117.888740	0.092619
1118.047613	0.090459
1118.206468	0.093681
1118.365305	0.093083
1118.524124	0.096339
1118.682924	0.095359
1118.841707	0.090652
1119.000471	0.089297
1119.159216	0.091322
1119.317944	0.090954
1119.476653	0.087046
1119.635344	0.086628
1119.794017	0.088826
1119.952672	0.089172
1120.111308	0.090713
1120.269927	0.096121
1120.428527	0.098769
1120.587108	0.095777
1120.745672	0.090255
1120.904217	0.097443
1121.062744	0.098029
1121.221253	0.098974
1121.379744	0.095595
1121.538216	0.092051
1121.696671	0.091570
1121.855107	0.090032
1122.013524	0.096154
1122.171924	0.096593
1122.330305	0.096577
1122.488668	0.098745
1122.647013	0.096128
1122.805340	0.101704
1122.963648	0.102418
1123.121938	0.101790
1123.280210	0.098814
1123.438464	0.090839
1123.596700	0.094752
1123.754917	0.093740
1123.913116	0.091765
1124.071297	0.091090
1124.229459	0.085191
1124.387604	0.087214
1124.545730	0.083570
1124.703838	0.083677
1124.861928	0.088295
1125.019999	0.090049
1125.178052	0.088374
1125.336088	0.080544
1125.494104	0.088095
1125.652103	0.093663
1125.810083	0.091855
1125.968045	0.096937
1126.125989	0.099797
1126.283915	0.100198
1126.441823	0.102067
1126.599712	0.102945
1126.757583	0.117782
1126.915436	0.115264
1127.073270	0.112186
1127.231087	0.112667
1127.388885	0.108097
1127.546665	0.109763
1127.704426	0.109863
1127.862170	0.108250
1128.019895	0.106836
1128.177602	0.100549
1128.335291	0.097800
1128.492961	0.097601
1128.650614	0.095180
1128.808248	0.100952
1128.965864	0.097144
1129.123461	0.095600
1129.281041	0.092456
1129.438602	0.100809
1129.596145	0.103251
1129.753670	0.107432
1129.911176	0.109774
1130.068665	0.109803
1130.226135	0.101505
1130.383587	0.105185
1130.541020	0.113289
1130.698436	0.111755
1130.855833	0.107856
1131.013212	0.102814
1131.170573	0.097832
1131.327915	0.091175
1131.485239	0.090079
1131.642545	0.096430
1131.799833	0.101235
1131.957103	0.096408
1132.114354	0.100527
1132.271588	0.098380
1132.428803	0.100674
1132.585999	0.101756
1132.743178	0.106080
1132.900338	0.113926
1133.057480	0.117139
1133.214604	0.106134
1133.371710	0.106839
1133.528797	0.108888
1133.685866	0.110053
1133.842917	0.103132
1133.999950	0.103897
1134.156964	0.107454
1134.313960	0.100231
1134.470938	0.098606
1134.627898	0.104747
1134.784840	0.098318
1134.941763	0.096425
1135.098668	0.090499
1135.255555	0.095926
1135.412424	0.095773
1135.569274	0.092094
1135.726107	0.096028
1135.882921	0.091995
1136.039716	0.091841
1136.196494	0.095608
1136.353253	0.098368
1136.509995	0.110863
1136.666717	0.108750
1136.823422	0.104712
1136.980109	0.103287
1137.136777	0.100731
1137.293427	0.102444
1137.450059	0.102295
1137.606672	0.101776
1137.763267	0.101544
1137.919844	0.088914
1138.076403	0.092796
1138.232944	0.097430
1138.389466	0.099257
1138.545971	0.102971
1138.702457	0.103559
1138.858924	0.100038
1139.015374	0.096422
1139.171805	0.092908
1139.328218	0.104615
1139.484613	0.102142
1139.640990	0.099952
1139.797348	0.098656
1139.953688	0.093481
1140.110010	0.093749
1140.266314	0.092539
1140.422600	0.097001
1140.578867	0.096224
1140.735116	0.089578
1140.891347	0.088121
1141.047559	0.088017
1141.203754	0.084666
1141.359930	0.085416
1141.516088	0.081427
1141.672228	0.082298
1141.828349	0.076785
1141.984452	0.070757
1142.140537	0.074282
1142.296604	0.080031
1142.452653	0.079405
1142.608683	0.079697
1142.764695	0.084645
1142.920689	0.090882
1143.076665	0.087856
1143.232622	0.092115
1143.388562	0.094995
1143.544483	0.088332
1143.700385	0.086274
1143.856270	0.087868
1144.012136	0.095660
1144.167985	0.097564
1144.323814	0.094353
1144.479626	0.091730
1144.635420	0.093536
1144.791195	0.094784
1144.946952	0.100456
1145.102691	0.102056
1145.258411	0.099125
1145.414113	0.096845
1145.569798	0.092672
1145.725463	0.089068
1145.881111	0.096959
1146.036741	0.103982
1146.192352	0.104065
1146.347945	0.099961
1146.503519	0.095363
1146.659076	0.096207
1146.814614	0.088870
1146.970134	0.091968
1147.125636	0.101096
1147.281120	0.101804
1147.436585	0.102052
1147.592032	0.108098
1147.747461	0.108338
1147.902872	0.104069
1148.058265	0.103426
1148.213639	0.107029
1148.368995	0.106657
1148.524333	0.098579
1148.679653	0.097443
1148.834954	0.083498
1148.990237	0.076468
1149.145502	0.078165
1149.300749	0.084316
1149.455977	0.092858
1149.611188	0.096982
1149.766380	0.089254
1149.921553	0.089861
1150.076709	0.093392
1150.231846	0.100064
1150.386966	0.098888
1150.542066	0.097206
1150.697149	0.099206
1150.852214	0.089193
1151.007260	0.085882
1151.162288	0.086795
1151.317298	0.092751
1151.472289	0.092183
1151.627263	0.089815
1151.782218	0.091828
1151.937155	0.095657
1152.092073	0.092566
1152.246974	0.089234
1152.401856	0.088813
1152.556720	0.094830
1152.711566	0.092571
1152.866393	0.093884
1153.021203	0.104697
1153.175994	0.107041
1153.330767	0.105518
1153.485521	0.103091
1153.640258	0.110653
1153.794976	0.108832
1153.949676	0.103931
1154.104358	0.097542
1154.259021	0.097382
1154.413667	0.087402
1154.568294	0.085348
1154.722903	0.085795
1154.877493	0.088593
1155.032066	0.089710
1155.186620	0.097799
1155.341156	0.098848
1155.495674	0.106689
1155.650173	0.094157
1155.804654	0.093581
1155.959118	0.098690
1156.113562	0.098228
1156.267989	0.099797
1156.422397	0.095226
1156.576788	0.097198
1156.731160	0.099872
1156.885513	0.097113
1157.039849	0.103158
1157.194166	0.101578
1157.348465	0.105294
1157.502746	0.096190
1157.657009	0.093053
1157.811253	0.094099
1157.965479	0.083904
1158.119687	0.087963
1158.273877	0.092798
1158.428048	0.091918
1158.582201	0.099979
1158.736337	0.094385
1158.890453	0.099934
1159.044552	0.107018
1159.198632	0.111287
1159.352694	0.103019
1159.506738	0.101152
1159.660764	0.096327
1159.814771	0.098766
1159.968761	0.090648
1160.122732	0.092454
1160.276685	0.084992
1160.430619	0.072959
1160.584535	0.065794
1160.738434	0.072844
1160.892313	0.067564
1161.046175	0.072861
1161.200019	0.075749
1161.353844	0.075491
1161.507651	0.077668
1161.661440	0.079559
1161.815210	0.077784
1161.968962	0.091959
1162.122697	0.094689
1162.276412	0.101037
1162.430110	0.097577
1162.583789	0.090885
1162.737451	0.094021
1162.891094	0.097698
1163.044718	0.105507
1163.198325	0.116181
1163.351913	0.103727
1163.505483	0.113013
1163.659035	0.109455
1163.812569	0.097213
1163.966084	0.094107
1164.119581	0.092408
1164.273060	0.086051
1164.426521	0.087718
1164.579964	0.089754
1164.733388	0.097405
1164.886794	0.094837
1165.040182	0.084878
1165.193551	0.096021
1165.346903	0.102211
1165.500236	0.108873
1165.653551	0.112050
1165.806848	0.105513
1165.960126	0.096352
1166.113386	0.077316
1166.266628	0.083864
1166.419852	0.094492
1166.573058	0.090470
1166.726245	0.089995
1166.879414	0.080400
1167.032565	0.082852
1167.185698	0.094168
1167.338812	0.095935
1167.491909	0.108795
1167.644987	0.087467
1167.798046	0.091874
1167.951088	0.087932
1168.104111	0.091515
1168.257117	0.099956
1168.410103	0.097706
1168.563072	0.091610
1168.716023	0.097463
1168.868955	0.100869
1169.021869	0.111459
1169.174765	0.107066
1169.327642	0.116608
1169.480501	0.119778
1169.633343	0.115237
1169.786165	0.106396
1169.938970	0.103322
1170.091757	0.098501
1170.244525	0.096299
1170.397275	0.095316
1170.550007	0.088561
1170.702720	0.098085
1170.855415	0.099050
1171.008092	0.103284
1171.160751	0.109661
1171.313392	0.113851
1171.466014	0.146695
1171.618619	0.124138
1171.771205	0.124138
1171.923772	0.124138
