sample name	sample
index	759
start time	 03-31-2021  12:16:41 PM
880	0.230212
Peak Time (s)	90.538
Peak Height 	0.2302
calc peak height	90,93
Baseline Time (s)	9.035
Baseline Value 	-0.002824
subtract baseline	10,4
Abs	0.164360
Peak Time (s)	91.535
Peak Height 	0.1644
calc peak height	90,93
Baseline Time (s)	8.537
Baseline Value 	-6.807E-5
subtract baseline	10,3
PK_550	0.076028
Peak Time (s)	91.535
Peak Height 	0.07603
calc peak height	90,93
Baseline Time (s)	10.536
Baseline Value 	-2.8574E-5
subtract baseline	10,2
PK_880	0.155611
Peak Time (s)	91.035
Peak Height 	0.1556
calc peak height	90,93
Baseline Time (s)	9.035
Baseline Value 	9.9582E-4
subtract baseline	10,1


Time (s)	A880-A510	A880-A775	A880-A975	A880	I510	I775	I975	I880	
0.035000	-0.001270	0.000564	-0.001923	0.001301	6770.832929	41267.937764	3997.249805	22484.698514
0.534500	-0.000761	-0.000177	-0.001380	0.003185	6758.875787	41037.362413	3994.049163	22400.228260
1.035500	-0.002054	0.000853	0.001293	0.003624	6743.861892	41089.204339	3999.387927	22380.607663
1.536500	-0.000039	-0.000232	0.000171	0.000456	6788.960840	41272.267708	4004.300995	22522.705662
2.036000	-0.000233	-0.000124	-0.000703	-0.000096	6792.092743	41330.425774	4003.524276	22547.537009
2.539000	-0.001625	-0.000118	-0.003329	-0.000028	6779.331083	41325.057412	3997.066254	22544.507679
3.036500	0.003423	0.000058	-0.000423	-0.001454	6836.264937	41466.561292	4007.471290	22608.854684
3.537000	0.001239	0.000383	0.002634	0.000525	6799.550307	41320.407928	4010.076060	22519.583772
4.037500	-0.000131	0.000607	0.000821	0.002206	6772.869841	41192.078949	4001.656031	22444.063890
4.534500	0.001216	-0.000346	-0.001012	0.000352	6800.879098	41271.423568	4001.706898	22527.393396
5.035000	0.002724	0.000871	0.000961	0.000812	6810.077568	41338.087511	4005.342859	22506.650787
5.535500	0.000674	0.000441	-0.000620	0.000194	6797.509342	41354.780624	4003.028020	22534.512005
6.036000	-0.000151	-0.000098	-0.001056	0.001127	6782.107196	41224.957310	3999.742479	22492.505251
6.536000	0.001442	0.000149	0.002096	0.000794	6798.968127	41276.067156	4008.125017	22507.460467
7.036000	0.000275	-0.000766	0.003517	-0.000652	6801.422986	41322.885180	4015.073132	22572.628287
7.539500	0.000967	0.000133	0.003091	0.000272	6799.383454	41320.622438	4011.795096	22530.955786
8.037000	-0.001228	0.000385	0.002381	0.001849	6766.426831	41203.996216	4006.268271	22460.084442
8.537500	0.000565	0.000055	0.000000	-0.000381	6801.589048	41371.445063	4005.902823	22560.395306
9.035000	0.000000	-0.000021	0.000114	0.000000	6793.292825	41331.097025	4005.259010	22543.230034
9.535000	0.001487	0.000570	0.001048	0.000887	6798.545537	41304.908671	4005.372312	22503.278177
10.035000	-0.001462	-0.000578	-0.005944	0.000700	6774.388361	41220.324250	3989.106332	22511.694136
10.535500	-0.002057	0.000000	-0.000217	-0.000276	6777.713895	41357.279409	4005.127687	22555.657637
11.036000	-0.000881	0.000305	0.000117	0.000658	6779.824625	41301.747571	4003.681902	22513.589094
11.536500	0.001438	-0.000009	-0.000712	-0.000163	6807.350963	41346.527891	4003.664619	22550.571753
12.036000	-0.002275	-0.001081	0.003003	0.000740	6766.969583	41172.597815	4010.449392	22509.913484
12.536500	0.000363	-0.000343	0.004219	-0.000643	6802.122560	41359.473816	4016.760683	22572.233024
13.037000	0.000591	0.000045	0.000838	-0.001907	6815.243963	41505.573547	4011.617863	22629.354874
13.537500	-0.001748	-0.000033	0.004272	0.000269	6775.660974	41306.286111	4014.669744	22531.123035
14.034500	-0.002644	-0.000201	-0.001972	0.001504	6757.120008	41182.844434	3996.649871	22475.583817
14.535000	-0.000848	0.000117	-0.001855	0.003191	6758.068255	41062.655649	3992.904808	22399.967946
15.035500	0.000793	0.000754	-0.000653	0.001299	6788.865334	41284.909346	4000.295523	22484.777510
15.540000	0.002204	0.000539	-0.001167	0.000481	6808.416851	41338.068632	4001.025370	22521.563829
16.036000	-0.000378	-0.000681	0.003003	0.001535	6776.570436	41137.964760	4008.527131	22474.201551
16.536000	-0.001682	0.000421	-0.000542	0.002511	6756.727606	41148.936866	3997.658976	22430.385388
17.039500	0.000041	0.000195	0.001588	0.000716	6787.386292	41287.060558	4007.087819	22511.011065
17.536500	0.003962	0.001005	0.003293	-0.001966	6845.598391	41596.063766	4017.726737	22632.035026
18.034500	0.000126	0.000085	0.004100	0.000059	6793.881131	41335.188125	4014.762681	22540.566547
18.534500	0.001216	0.000074	-0.006173	0.002358	6783.302782	41131.903651	3984.641579	22437.260342
19.034500	-0.000035	-0.000437	0.000684	0.001177	6782.684732	41190.776638	4003.799713	22490.267073
19.535500	-0.001669	0.000445	-0.000123	0.001701	6763.881653	41222.257199	4000.603495	22466.737163
20.035500	0.001938	0.000055	0.002157	0.001640	6795.902481	41193.319625	4006.231227	22469.454946
20.536000	-0.000388	-0.000299	0.002022	0.001329	6778.283526	41189.554144	4006.657905	22483.452098
21.036000	0.000521	0.000639	0.000235	0.001971	6780.604092	41215.542069	4000.814243	22454.608596
21.539500	-0.001693	-0.001042	-0.001918	0.000613	6773.139661	41187.211769	3998.909488	22515.632504
22.036500	-0.000532	0.000092	-0.000679	0.001683	6773.929752	41192.781731	3999.312342	22467.514720
22.537000	-0.000991	-0.000209	-0.002259	0.001696	6769.814373	41165.170088	3995.503416	22466.938010
23.037500	0.001894	0.000138	-0.001127	0.001569	6796.138455	41206.825270	3998.513382	22472.638715
23.535000	0.000596	0.000117	0.006822	0.001397	6786.278159	41220.190637	4018.130727	22480.374094
24.035000	-0.002574	-0.000133	-0.001340	0.001094	6761.281731	41224.827487	3999.140066	22493.983805
24.535500	0.000087	-0.000120	-0.002108	0.001143	6784.044749	41221.583714	3997.184289	22491.775558
25.035500	-0.002899	-0.000321	0.000281	0.001177	6757.748533	41201.061362	4002.830509	22490.282654
25.536000	0.001294	0.000843	0.000591	0.002476	6782.948029	41189.119339	4000.456988	22431.970334
26.036500	-0.000219	0.000682	0.001059	0.002074	6773.251522	41210.344271	4002.544847	22449.999400
26.539500	0.000115	0.000076	-0.001136	0.002136	6775.624116	41151.631411	3997.137175	22447.221784
27.036500	-0.000734	0.000378	0.001010	0.001853	6770.696215	41203.034429	4002.959130	22459.919057
27.537000	-0.000884	0.000765	0.002275	0.002106	6767.176703	41214.765238	4005.392073	22448.542384
28.034500	0.002195	0.000249	0.002001	-0.001531	6826.085956	41490.405439	4013.525407	22612.355407
28.537500	-0.002873	0.000593	-0.003494	0.005176	6723.410301	40930.615608	3984.313554	22311.345301
29.070500	0.000565	0.000132	0.003468	0.000644	6792.598933	41287.812156	4011.807869	22514.240431
29.535500	0.001312	0.000663	-0.000881	0.000570	6799.801351	41341.212430	4001.497199	22517.571860
30.036000	0.000828	0.000513	0.002134	0.000617	6795.141245	41323.807837	4008.645234	22515.456892
30.535500	-0.002829	-0.000543	-0.001314	0.004545	6729.221081	40886.547885	3990.971048	22339.470117
31.039000	-0.000326	0.000804	0.000314	0.000990	6781.775023	41316.499972	4003.357784	22498.659479
31.536500	-0.000940	0.000439	0.000671	0.002731	6761.264587	41131.233590	4000.037076	22420.551761
32.036500	-0.000678	0.000462	0.002698	0.003167	6759.744733	41094.918406	4003.856519	22401.017340
32.537000	0.001663	0.000332	0.000187	0.000525	6803.277038	41315.919450	4004.171995	22519.572346
33.037500	-0.000216	0.000169	-0.004555	0.000312	6788.669281	41320.283178	3993.329386	22529.163280
33.535000	-0.001085	0.000337	0.001332	0.000400	6780.302207	41327.414033	4007.232896	22525.218596
34.035000	0.002137	0.000313	-0.002298	0.000197	6810.331231	41343.199303	3998.994834	22534.356098
34.536000	-0.001735	-0.000717	0.000319	0.005362	6731.604890	40800.175004	3992.912021	22303.075747
35.036000	0.000766	-0.000169	0.001119	0.001100	6790.363892	41221.111665	4005.031737	22493.728059
35.536500	-0.000768	0.000593	0.000813	0.002126	6768.011706	41197.826011	4001.826361	22447.637981
36.036500	-0.000810	-0.000285	-0.002123	0.002018	6768.590872	41130.200849	3995.061126	22452.484906
36.536500	-0.002944	0.000308	-0.002784	0.001809	6751.868186	41200.647009	3993.983113	22461.866989
37.037000	0.000045	0.000200	0.001153	0.001784	6778.086732	41193.486490	4003.468675	22463.024068
37.534500	-0.000531	0.000224	-0.001642	0.001864	6772.363257	41188.489873	3996.576987	22459.421946
38.034500	-0.000338	-0.000135	-0.000933	0.002001	6772.851116	41144.915786	3997.943503	22453.275363
38.535000	0.002068	0.001376	-0.002230	0.002966	6785.434016	41192.862865	3992.546280	22410.019237
39.038000	-0.001236	-0.000391	0.001068	0.001388	6770.363400	41176.287856	4004.214892	22480.773206
39.535500	-0.000735	-0.000346	-0.000962	0.001905	6770.230393	41134.824827	3998.105037	22457.590610
40.041500	-0.001306	-0.000828	0.004601	0.001497	6768.810097	41128.384448	4012.489241	22475.904055
40.535500	0.000511	0.000285	-0.005314	0.002415	6776.639212	41145.437146	3986.536953	22434.685321
41.039000	-0.000785	0.000275	0.004526	0.002227	6766.987321	41161.073825	4010.536924	22443.132985
41.536500	-0.001272	0.000146	0.003759	0.001977	6764.929557	41171.776050	4009.285586	22454.358715
42.038500	-0.000975	-0.000495	-0.000008	0.001835	6768.747101	41127.898208	4000.557741	22460.719656
42.534500	0.000654	0.000607	0.000648	0.002295	6778.935865	41184.226304	4001.026799	22440.066598
43.034500	-0.000626	-0.000633	-0.000657	0.001448	6775.157749	41149.669898	3999.928956	22478.071333
43.535000	-0.000008	0.000049	0.001173	0.001716	6778.214304	41186.085845	4003.677168	22466.041100
44.038000	-0.000170	0.000569	0.000298	0.002666	6768.521453	41148.289382	3999.298898	22423.455924
44.535000	-0.000855	0.000080	-0.002815	0.002107	6767.418261	41154.460118	3993.199629	22448.491365
45.036000	0.003299	0.000631	0.003469	-0.002553	6844.918383	41614.946159	4019.586720	22658.609280
45.536500	0.001459	0.000445	0.003067	0.000178	6804.538238	41356.472970	4011.965719	22535.209817
46.036500	-0.000380	0.000460	0.003098	0.001827	6774.000406	41212.509802	4008.050636	22461.074096
46.537000	-0.001930	-0.000517	-0.002848	0.005793	6726.217294	40780.133747	3984.382374	22283.920734
47.037500	0.000571	0.000383	-0.000490	0.000903	6790.384644	41287.131603	4001.637698	22502.591347
47.537500	0.000042	0.000263	0.003649	0.000795	6786.696649	41286.049753	4011.880373	22507.429634
48.035500	-0.000165	0.000377	0.003527	0.003024	6765.451953	41100.080094	4006.197643	22407.440063
48.538000	-0.003606	0.000269	-0.001266	0.006233	6708.048028	40810.251700	3987.082337	22264.362370
49.035500	0.001175	-0.000187	-0.002115	0.002562	6781.159987	41091.065619	3993.782212	22428.108976
49.536000	0.000118	-0.001003	0.000756	0.000476	6790.156475	41202.627456	4005.660590	22521.783899
50.039000	-0.000994	0.000237	0.002380	0.001723	6769.561205	41202.034776	4006.568496	22465.753857
50.536500	-0.001376	0.000306	0.003449	0.005760	6731.274546	40854.674047	3999.435936	22285.378773
51.036500	0.000345	0.000393	0.005770	0.000662	6790.513748	41309.251598	4017.359413	22513.419111
51.537000	0.001899	0.000493	0.002078	-0.001832	6826.126273	41538.618792	4014.443142	22625.941502
52.037500	-0.001734	-0.000673	-0.001581	0.005095	6733.925259	40827.314689	3989.033311	22314.980035
52.535000	-0.000259	0.003486	0.003673	0.070956	6217.734113	35818.366168	3854.887471	19593.254931
53.035000	-0.055800	-0.000594	-0.000177	0.147016	5373.352512	30289.725895	3704.347410	16923.015975
53.536000	-0.024032	-0.000746	-0.000446	-0.060899	7130.453631	47026.420246	4161.183075	25489.290445
54.036000	-0.021864	-0.011351	0.004412	-0.138936	7970.743966	54420.279790	4413.976027	29921.564589
54.536000	-0.001489	-0.003203	0.029179	-0.072687	7471.222144	47982.317201	4281.445992	26108.796466
55.036500	0.017280	0.007578	0.036512	-0.046307	7393.341775	46395.625944	4224.707445	24745.276526
55.536500	0.032556	0.016247	0.047703	-0.018648	7269.491930	44539.372533	4177.617732	23401.866937
56.037000	0.055165	0.026606	0.063109	-0.013720	7447.418189	45062.086664	4207.373162	23171.382579
56.537000	0.065046	0.035250	0.072067	0.027994	7132.221960	41978.637797	4116.689938	21321.527684
57.037500	0.081117	0.042918	0.088950	0.052865	7049.089077	40465.120882	4095.594137	20300.248048
57.535000	0.089235	0.049410	0.099154	0.083600	6842.989477	38431.545323	4043.121179	19116.345737
58.035500	0.091953	0.053327	0.100897	0.120182	6553.804821	35864.924162	3959.562253	17812.201321
58.535500	0.101908	0.057724	0.115211	0.124472	6600.616414	35873.024001	3982.919996	17666.315393
59.036000	0.107820	0.061822	0.122751	0.138829	6531.042051	35105.788301	3966.976705	17188.509045
59.539000	0.112536	0.065021	0.127386	0.153927	6447.349666	34238.311635	3942.985599	16702.802018
60.036500	0.117331	0.067097	0.131667	0.160195	6435.635170	33938.282892	3938.496059	16506.061987
60.536500	0.121192	0.069416	0.136812	0.167583	6407.747112	33579.415733	3933.449481	16277.779260
61.037000	0.126227	0.071564	0.139183	0.181186	6340.931223	32783.585639	3908.575257	15867.482835
61.537500	0.125180	0.071476	0.139424	0.170447	6416.599378	33522.768646	3932.883871	16190.302902
62.034500	0.129891	0.073403	0.144119	0.151336	6609.947843	35037.402293	3987.751539	16784.962622
62.538000	0.129909	0.074653	0.146584	0.182151	6361.974085	32929.543077	3922.748110	15838.852095
63.035000	0.127600	0.074226	0.147371	0.179898	6361.546257	33055.619825	3929.519508	15905.785613
63.538000	0.133075	0.077739	0.144832	0.206746	6199.529372	31483.771039	3866.030753	15130.466125
64.061000	0.138559	0.080573	0.144049	0.207131	6237.453669	31644.790860	3863.595108	15119.688594
64.538500	0.137885	0.079904	0.139255	0.207823	6227.250231	31555.147400	3852.240699	15100.343503
65.036500	0.140724	0.081377	0.143614	0.204953	6270.120512	31842.071007	3867.232206	15180.766110
65.539500	0.143268	0.081429	0.148744	0.205123	6288.110574	31834.224002	3877.663147	15175.985725
66.037000	0.144491	0.081902	0.147524	0.206488	6287.027886	31775.066101	3872.211616	15137.674675
66.537500	0.144926	0.083290	0.146245	0.209369	6268.504163	31676.396336	3863.508781	15057.259170
67.035000	0.146428	0.083778	0.148761	0.212133	6258.980536	31526.494375	3862.989838	14980.580370
67.535000	0.148085	0.083269	0.151128	0.214247	6255.539633	31354.772914	3863.518249	14922.276474
68.036000	0.149150	0.084183	0.151029	0.219050	6227.533440	31102.025987	3853.365206	14790.830055
68.539000	0.149700	0.083542	0.152574	0.218979	6232.168644	31065.262631	3856.700942	14792.779132
69.035500	0.150473	0.083892	0.152722	0.221025	6222.677083	30955.902123	3852.787512	14737.221745
69.536500	0.151294	0.083622	0.157831	0.221541	6224.945721	30905.364046	3862.287275	14723.254318
70.036500	0.148288	0.082984	0.149834	0.222121	6198.326622	30827.232564	3844.626240	14707.567990
70.536500	0.150974	0.084617	0.149364	0.224697	6199.141515	30766.906111	3838.438923	14638.177216
71.037000	0.150602	0.083614	0.154819	0.225581	6189.866462	30646.502469	3847.741536	14614.444595
71.534500	0.152081	0.084144	0.157926	0.228504	6179.233812	30494.684002	3848.117571	14536.351496
72.038000	0.151379	0.083817	0.156664	0.228920	6171.031861	30447.692209	3844.689053	14525.279236
72.535000	0.150088	0.083860	0.149407	0.234719	6119.484023	30086.362428	3818.463428	14372.036787
73.035500	0.154369	0.084063	0.157812	0.232342	6167.869572	30247.774391	3840.066295	14434.615381
73.539000	0.153466	0.083586	0.155581	0.232305	6161.528195	30220.135869	3835.625435	14435.586536
74.036000	0.153428	0.083134	0.157589	0.235210	6140.093523	30010.588245	3833.816836	14359.158670
74.536500	0.151101	0.083033	0.154657	0.239193	6094.628360	29757.901322	3820.001460	14255.221497
75.037000	0.152020	0.082221	0.155399	0.235903	6124.878043	29910.935820	3828.030427	14341.005432
75.537000	0.151115	0.082618	0.156421	0.237232	6108.782943	29853.256451	3827.415018	14306.265105
76.034000	0.154490	0.081846	0.156295	0.237826	6128.839415	29768.993474	3825.978030	14290.791659
76.535000	0.152986	0.081251	0.157011	0.238567	6112.644263	29686.770562	3825.927921	14271.487866
77.037500	0.149977	0.081001	0.157581	0.239546	6084.071651	29611.371052	3825.111075	14246.033670
77.535000	0.154095	0.082352	0.158260	0.240644	6105.682909	29626.892428	3824.278531	14217.588195
78.035500	0.152128	0.080512	0.160265	0.240336	6093.797162	29533.190754	3828.899189	14225.569459
78.535500	0.148763	0.079195	0.153562	0.242405	6055.168102	29327.118937	3811.505019	14172.065587
79.036500	0.151859	0.080168	0.159458	0.241127	6086.220721	29463.897819	3825.701542	14205.074263
79.536500	0.150515	0.079013	0.158630	0.240369	6082.044571	29439.697858	3825.561422	14224.690353
80.037000	0.151924	0.079221	0.160870	0.241037	6087.331967	29411.781600	3828.706395	14207.419620
80.534500	0.152694	0.077762	0.158957	0.239492	6103.893927	29417.021676	3827.969198	14247.450320
81.034500	0.154265	0.079172	0.157800	0.239976	6111.707429	29473.365501	3824.693194	14234.897040
81.535000	0.154186	0.078754	0.161592	0.239835	6112.147461	29456.487854	3832.566101	14238.537968
82.035000	0.153690	0.078472	0.159242	0.239373	6111.908077	29467.481841	3828.778297	14250.541370
82.536000	0.151897	0.077631	0.154271	0.238949	6102.077327	29442.095605	3819.719860	14261.564901
83.038500	0.152447	0.078284	0.165086	0.238981	6105.790619	29479.911239	3841.353765	14260.725739
83.536000	0.153468	0.078589	0.155918	0.238497	6116.615319	29528.047614	3823.889724	14273.314726
84.036500	0.153184	0.077882	0.158198	0.238440	6114.981184	29488.397049	3828.555757	14274.797908
84.536500	0.152691	0.076935	0.163640	0.237168	6120.594330	29508.214879	3842.101187	14307.953740
85.040000	0.152300	0.076250	0.160823	0.236123	6125.311157	29530.117014	3838.504215	14335.240539
85.535000	0.154780	0.076074	0.159690	0.235458	6148.122446	29560.028917	3837.557388	14352.669348
86.034500	0.153694	0.075877	0.159171	0.235100	6142.827540	29569.883797	3837.233718	14362.059435
86.535500	0.153425	0.076252	0.156492	0.234458	6145.540410	29632.163047	3833.121933	14378.895984
87.035500	0.153787	0.077931	0.160915	0.235346	6141.718963	29680.711559	3840.266526	14355.601061
87.536000	0.153128	0.076291	0.165311	0.233372	6151.280635	29701.227539	3853.286315	14407.465600
88.036000	0.153107	0.076542	0.156798	0.232640	6156.465360	29761.688337	3837.407353	14426.750865
88.536500	0.153289	0.074059	0.163047	0.230369	6174.408039	29748.600468	3854.806326	14486.790382
89.037000	0.153167	0.075466	0.163304	0.230665	6171.343925	29817.112307	3854.727366	14478.949986
89.536500	0.153611	0.075774	0.164186	0.230855	6173.211910	29824.468622	3856.156384	14473.935033
90.034000	0.152700	0.075455	0.158573	0.229838	6173.986832	29867.530943	3846.712222	14500.882585
90.537500	0.154024	0.074919	0.160509	0.230212	6180.958612	29811.318387	3849.909938	14490.951915
91.035500	0.155611	0.075725	0.161488	0.228751	6203.452996	29951.604496	3854.927889	14529.768651
91.535000	0.155412	0.076028	0.164360	0.228848	6201.268401	29964.421788	3860.672899	14527.207074
92.035000	0.152855	0.074455	0.158442	0.229085	6180.652230	29852.307317	3847.984819	14520.891768
92.538500	0.152118	0.073758	0.163916	0.226703	6192.774347	29956.619992	3864.208797	14584.404215
93.038500	0.153472	0.074386	0.162224	0.226583	6203.673011	30003.119173	3860.939850	14587.629701
93.536500	0.157517	0.074551	0.163436	0.227275	6228.596117	29970.347728	3862.019876	14569.124850
94.039000	0.155334	0.073986	0.157947	0.227723	6209.019006	29907.553765	3849.760195	14557.162386
94.537000	0.155438	0.073938	0.165065	0.225909	6223.278829	30017.167437	3868.267683	14605.660990
95.037000	0.157314	0.073696	0.165084	0.226321	6234.200172	29976.517841	3867.444899	14594.621641
95.549500	0.156722	0.072524	0.165345	0.225380	6236.809877	29962.163422	3869.962224	14619.833540
96.038500	0.154559	0.073204	0.163991	0.226553	6211.951200	29931.595246	3864.677992	14588.422053
96.545500	0.156456	0.073964	0.166984	0.225960	6230.491227	30015.595080	3872.186381	14604.301797
97.041000	0.158532	0.073597	0.161345	0.226483	6242.105277	29960.276946	3859.323529	14590.290484
97.535500	0.157003	0.073142	0.164207	0.226133	6233.285473	29953.807308	3866.004382	14599.656207
98.038500	0.157142	0.072175	0.164509	0.225828	6236.608686	29912.764618	3867.275102	14607.836722
98.536500	0.158073	0.071868	0.168550	0.226025	6242.099941	29881.560017	3875.348774	14602.558714
99.036500	0.158563	0.071928	0.164261	0.225956	6246.288740	29889.528458	3866.486970	14604.397305
