sample name	sample
index	929
start time	 04-12-2021  12:18:05 PM


Wavelength (nm)	Absorbance
494.344910	-0.163619
494.563924	-0.163619
494.782919	-0.163619
495.001897	-0.745046
495.220856	-0.053270
495.439797	-0.085839
495.658719	-0.149367
495.877624	-0.102851
496.096510	0.456786
496.315378	NaN
496.534227	NaN
496.753059	0.118843
496.971872	0.137419
497.190667	0.103071
497.409444	0.093544
497.628203	0.090974
497.846943	0.089792
498.065665	0.086562
498.284369	0.088612
498.503055	0.087650
498.721723	0.088295
498.940372	0.088824
499.159003	0.088518
499.377616	0.089049
499.596210	0.089688
499.814787	0.089635
500.033345	0.090308
500.251885	0.090049
500.470406	0.090811
500.688910	0.091533
500.907395	0.090905
501.125862	0.090077
501.344311	0.089985
501.562742	0.091715
501.781154	0.091717
501.999548	0.092593
502.217924	0.091838
502.436282	0.092346
502.654621	0.092361
502.872942	0.093015
503.091245	0.094012
503.309530	0.094827
503.527797	0.093068
503.746045	0.092904
503.964275	0.092723
504.182487	0.092449
504.400681	0.092637
504.618856	0.092239
504.837013	0.091631
505.055152	0.091484
505.273273	0.090812
505.491376	0.091934
505.709460	0.092620
505.927526	0.092993
506.145574	0.093316
506.363604	0.092993
506.581615	0.093056
506.799608	0.093915
507.017583	0.093857
507.235540	0.094280
507.453478	0.094399
507.671399	0.094379
507.889301	0.094343
508.107185	0.094957
508.325050	0.095437
508.542898	0.095373
508.760727	0.095510
508.978538	0.095230
509.196330	0.095723
509.414105	0.095706
509.631861	0.095281
509.849599	0.094871
510.067319	0.094958
510.285021	0.094691
510.502704	0.095245
510.720369	0.095445
510.938016	0.096253
511.155645	0.096490
511.373255	0.096537
511.590848	0.097965
511.808422	0.097625
512.025977	0.098063
512.243515	0.098278
512.461034	0.098509
512.678536	0.098871
512.896018	0.098822
513.113483	0.099615
513.330930	0.099699
513.548358	0.099423
513.765768	0.100530
513.983160	0.100031
514.200533	0.100023
514.417889	0.099874
514.635226	0.099637
514.852545	0.099805
515.069845	0.098886
515.287128	0.099098
515.504392	0.099059
515.721638	0.099009
515.938866	0.099260
516.156075	0.099911
516.373267	0.099861
516.590440	0.100036
516.807594	0.100046
517.024731	0.099649
517.241850	0.099770
517.458950	0.099904
517.676032	0.100589
517.893095	0.101167
518.110141	0.100880
518.327168	0.101627
518.544177	0.102656
518.761168	0.103491
518.978141	0.104049
519.195095	0.104374
519.412031	0.105161
519.628949	0.105240
519.845849	0.105829
520.062731	0.106142
520.279594	0.106184
520.496439	0.105822
520.713266	0.106145
520.930074	0.106955
521.146865	0.107404
521.363637	0.107709
521.580391	0.108524
521.797127	0.108851
522.013844	0.109882
522.230543	0.110300
522.447224	0.110819
522.663887	0.110759
522.880532	0.111080
523.097158	0.112077
523.313766	0.112272
523.530356	0.111664
523.746928	0.111911
523.963481	0.111286
524.180017	0.111522
524.396534	0.111685
524.613032	0.112044
524.829513	0.112369
525.045975	0.111545
525.262420	0.111919
525.478845	0.112030
525.695253	0.111665
525.911643	0.112002
526.128014	0.112750
526.344367	0.112966
526.560702	0.113086
526.777018	0.113502
526.993316	0.113700
527.209597	0.113845
527.425858	0.115301
527.642102	0.115853
527.858328	0.116120
528.074535	0.116005
528.290724	0.116491
528.506894	0.116890
528.723047	0.116377
528.939181	0.117333
529.155297	0.117518
529.371395	0.117201
529.587475	0.117792
529.803536	0.118352
530.019579	0.118559
530.235604	0.118445
530.451611	0.118657
530.667600	0.119448
530.883570	0.119504
531.099522	0.119842
531.315456	0.120428
531.531372	0.120596
531.747269	0.121038
531.963148	0.121783
532.179009	0.122325
532.394852	0.122928
532.610676	0.123439
532.826482	0.123597
533.042271	0.124279
533.258040	0.124335
533.473792	0.124701
533.689525	0.125214
533.905240	0.125616
534.120937	0.126462
534.336616	0.126882
534.552277	0.127223
534.767919	0.127305
534.983543	0.127289
535.199149	0.128019
535.414736	0.128405
535.630306	0.128850
535.845857	0.129230
536.061390	0.128837
536.276904	0.129320
536.492401	0.129662
536.707879	0.130405
536.923339	0.130788
537.138781	0.130369
537.354204	0.130858
537.569610	0.131212
537.784997	0.131307
538.000366	0.132066
538.215716	0.132277
538.431049	0.132285
538.646363	0.132373
538.861659	0.132822
539.076937	0.133186
539.292196	0.133377
539.507438	0.133337
539.722661	0.133876
539.937866	0.134151
540.153052	0.134186
540.368221	0.134212
540.583371	0.134742
540.798503	0.134666
541.013617	0.135547
541.228712	0.135937
541.443789	0.135819
541.658848	0.135505
541.873889	0.135739
542.088912	0.135849
542.303916	0.136396
542.518902	0.136959
542.733870	0.137405
542.948820	0.137701
543.163752	0.137471
543.378665	0.138382
543.593560	0.138906
543.808437	0.139080
544.023295	0.139807
544.238136	0.140000
544.452958	0.140101
544.667762	0.140552
544.882548	0.140314
545.097315	0.140504
545.312064	0.140978
545.526795	0.141450
545.741508	0.142033
545.956203	0.142195
546.170879	0.142763
546.385537	0.142919
546.600177	0.142925
546.814799	0.143334
547.029402	0.143976
547.243988	0.144078
547.458555	0.144271
547.673103	0.144547
547.887634	0.144791
548.102146	0.145125
548.316640	0.145163
548.531116	0.145733
548.745574	0.145929
548.960013	0.146211
549.174435	0.146337
549.388838	0.146618
549.603222	0.146751
549.817589	0.146902
550.031937	0.147036
550.246267	0.147338
550.460579	0.147315
550.674873	0.148003
550.889148	0.148194
551.103405	0.148363
551.317644	0.148572
551.531865	0.148918
551.746068	0.149457
551.960252	0.149526
552.174418	0.149914
552.388566	0.150573
552.602696	0.150412
552.816807	0.150499
553.030900	0.150835
553.244975	0.150953
553.459032	0.151318
553.673070	0.151367
553.887091	0.151869
554.101093	0.151886
554.315077	0.152045
554.529042	0.152344
554.742990	0.153063
554.956919	0.153460
555.170830	0.153982
555.384722	0.153958
555.598597	0.154171
555.812453	0.154095
556.026291	0.154400
556.240111	0.154415
556.453913	0.154605
556.667696	0.154649
556.881461	0.154596
557.095208	0.154488
557.308937	0.154506
557.522647	0.154291
557.736339	0.154322
557.950013	0.154999
558.163669	0.154809
558.377307	0.154956
558.590926	0.155257
558.804527	0.155267
559.018110	0.155591
559.231675	0.155906
559.445221	0.156762
559.658749	0.157234
559.872259	0.157221
560.085751	0.157881
560.299225	0.157990
560.512680	0.158168
560.726117	0.158809
560.939536	0.158817
561.152937	0.159059
561.366319	0.159131
561.579683	0.159452
561.793029	0.159794
562.006357	0.159834
562.219667	0.160378
562.432958	0.160237
562.646231	0.160004
562.859486	0.160430
563.072723	0.160585
563.285941	0.160758
563.499141	0.160887
563.712323	0.160770
563.925487	0.161044
564.138632	0.160960
564.351760	0.161335
564.564869	0.161437
564.777960	0.161517
564.991032	0.161822
565.204087	0.162069
565.417123	0.162155
565.630141	0.162763
565.843140	0.163038
566.056122	0.163583
566.269085	0.163711
566.482030	0.164327
566.694957	0.164544
566.907866	0.164548
567.120756	0.164795
567.333628	0.164985
567.546482	0.164711
567.759318	0.164481
567.972135	0.164079
568.184935	0.164594
568.397716	0.164506
568.610478	0.164653
568.823223	0.164811
569.035949	0.164626
569.248657	0.165064
569.461347	0.165629
569.674019	0.166042
569.886672	0.166754
570.099308	0.166410
570.311925	0.166862
570.524523	0.166959
570.737104	0.167227
570.949666	0.167522
571.162210	0.167543
571.374736	0.167410
571.587244	0.167607
571.799733	0.167499
572.012205	0.167576
572.224658	0.167264
572.437092	0.167355
572.649509	0.167416
572.861907	0.167652
573.074287	0.167679
573.286649	0.167673
573.498993	0.167770
573.711318	0.167774
573.923625	0.168015
574.135914	0.168518
574.348185	0.168721
574.560438	0.169211
574.772672	0.169471
574.984888	0.169661
575.197086	0.169931
575.409266	0.170506
575.621427	0.170846
575.833570	0.171102
576.045695	0.171118
576.257802	0.171618
576.469890	0.171728
576.681961	0.171815
576.894013	0.171828
577.106046	0.172129
577.318062	0.171772
577.530059	0.171758
577.742039	0.172143
577.954000	0.172334
578.165942	0.172201
578.377867	0.172056
578.589773	0.172345
578.801661	0.172884
579.013531	0.173043
579.225382	0.173427
579.437216	0.173477
579.649031	0.173228
579.860828	0.173202
580.072606	0.173785
580.284367	0.173877
580.496109	0.173749
580.707833	0.173639
580.919539	0.174106
581.131227	0.174295
581.342896	0.174676
581.554547	0.175084
581.766180	0.175762
581.977795	0.175397
582.189391	0.175441
582.400969	0.175817
582.612529	0.176147
582.824071	0.176039
583.035595	0.176033
583.247100	0.176477
583.458587	0.176553
583.670056	0.176693
583.881506	0.176713
584.092939	0.176819
584.304353	0.176690
584.515749	0.177115
584.727127	0.177127
584.938486	0.177238
585.149828	0.177007
585.361151	0.177406
585.572456	0.177282
585.783742	0.177750
585.995011	0.178407
586.206261	0.178798
586.417493	0.178863
586.628706	0.179164
586.839902	0.179534
587.051079	0.179833
587.262238	0.180238
587.473379	0.180459
587.684502	0.180602
587.895606	0.180470
588.106692	0.180805
588.317760	0.181121
588.528810	0.181262
588.739841	0.181282
588.950855	0.181593
589.161850	0.181493
589.372827	0.181790
589.583785	0.182027
589.794726	0.182442
590.005648	0.182515
590.216552	0.182350
590.427437	0.182631
590.638305	0.182723
590.849154	0.182780
591.059985	0.182939
591.270798	0.182864
591.481592	0.183211
591.692369	0.183201
591.903127	0.183552
592.113867	0.183918
592.324588	0.183884
592.535292	0.184141
592.745977	0.184094
592.956644	0.184266
593.167293	0.184445
593.377923	0.184339
593.588536	0.184441
593.799130	0.184219
594.009706	0.184177
594.220263	0.184882
594.430803	0.185272
594.641324	0.185462
594.851827	0.185647
595.062312	0.186296
595.272778	0.186640
595.483227	0.186995
595.693657	0.187373
595.904069	0.187555
596.114462	0.187026
596.324838	0.186998
596.535195	0.187581
596.745534	0.187727
596.955855	0.187520
597.166157	0.187658
597.376441	0.187921
597.586707	0.188256
597.796955	0.188595
598.007185	0.188884
598.217396	0.189129
598.427589	0.189094
598.637764	0.189271
598.847921	0.189415
599.058060	0.189540
599.268180	0.189595
599.478282	0.189402
599.688366	0.189308
599.898431	0.189581
600.108479	0.190083
600.318508	0.190203
600.528519	0.190116
600.738511	0.190330
600.948486	0.190987
601.158442	0.191118
601.368380	0.191333
601.578300	0.191721
601.788202	0.191846
601.998085	0.191830
602.207950	0.191870
602.417797	0.192361
602.627626	0.192769
602.837436	0.192599
603.047228	0.192632
603.257002	0.192687
603.466758	0.193038
603.676496	0.193072
603.886215	0.193101
604.095916	0.193352
604.305599	0.193499
604.515264	0.193359
604.724910	0.193430
604.934538	0.193706
605.144148	0.194066
605.353740	0.194015
605.563314	0.194341
605.772869	0.194376
605.982406	0.194784
606.191925	0.195083
606.401425	0.195274
606.610908	0.195843
606.820372	0.196041
607.029818	0.196225
607.239246	0.196593
607.448655	0.196678
607.658047	0.197054
607.867420	0.197208
608.076775	0.196919
608.286111	0.196773
608.495430	0.196410
608.704730	0.196570
608.914012	0.196660
609.123275	0.196043
609.332521	0.196336
609.541748	0.196349
609.750957	0.196300
609.960148	0.196411
610.169321	0.196793
610.378475	0.196849
610.587611	0.196640
610.796729	0.196665
611.005829	0.197302
611.214910	0.197312
611.423974	0.197323
611.633019	0.197318
611.842045	0.197505
612.051054	0.197471
612.260044	0.197786
612.469017	0.198133
612.677970	0.198532
612.886906	0.198349
613.095824	0.198118
613.304723	0.198426
613.513604	0.198822
613.722467	0.199310
613.931311	0.199381
614.140138	0.199655
614.348946	0.199880
614.557736	0.199803
614.766507	0.200210
614.975261	0.200948
615.183996	0.201280
615.392713	0.201086
615.601412	0.200767
615.810092	0.201168
616.018754	0.201303
616.227399	0.201543
616.436024	0.201614
616.644632	0.201970
616.853222	0.201864
617.061793	0.201627
617.270346	0.201995
617.478880	0.202283
617.687397	0.202273
617.895895	0.202468
618.104375	0.202797
618.312837	0.202852
618.521281	0.202873
618.729706	0.203020
618.938113	0.203452
619.146502	0.203472
619.354873	0.203876
619.563226	0.204075
619.771560	0.204183
619.979876	0.204169
620.188174	0.204493
620.396453	0.204752
620.604715	0.205203
620.812958	0.205422
621.021183	0.205756
621.229390	0.205656
621.437578	0.205565
621.645748	0.205477
621.853900	0.205538
622.062034	0.205470
622.270150	0.205252
622.478247	0.205198
622.686326	0.205236
622.894387	0.205322
623.102430	0.205515
623.310454	0.206007
623.518461	0.206175
623.726449	0.206103
623.934418	0.206404
624.142370	0.206702
624.350303	0.206897
624.558218	0.207069
624.766115	0.207148
624.973994	0.207293
625.181855	0.207618
625.389697	0.208060
625.597521	0.208644
625.805327	0.209031
626.013114	0.209050
626.220883	0.209320
626.428634	0.209460
626.636367	0.209920
626.844082	0.210346
627.051778	0.210343
627.259457	0.210343
627.467117	0.210401
627.674758	0.210563
627.882382	0.211100
628.089987	0.211290
628.297574	0.211362
628.505143	0.211566
628.712694	0.211513
628.920226	0.211785
629.127740	0.211918
629.335236	0.212132
629.542714	0.212281
629.750174	0.212388
629.957615	0.212217
630.165038	0.212403
630.372443	0.212115
630.579829	0.212408
630.787198	0.212646
630.994548	0.212768
631.201880	0.213101
631.409194	0.213263
631.616489	0.213391
631.823766	0.213728
632.031025	0.213903
632.238266	0.214105
632.445489	0.214089
632.652693	0.214014
632.859879	0.214177
633.067047	0.213958
633.274197	0.213843
633.481329	0.213897
633.688442	0.214026
633.895537	0.214305
634.102614	0.214583
634.309672	0.214729
634.516713	0.214920
634.723735	0.215123
634.930739	0.215561
635.137724	0.215940
635.344692	0.216277
635.551641	0.216156
635.758572	0.216348
635.965485	0.216600
636.172379	0.216963
636.379256	0.217165
636.586114	0.217419
636.792954	0.217396
636.999775	0.217474
637.206579	0.217482
637.413364	0.218019
637.620131	0.218214
637.826880	0.218441
638.033610	0.218249
638.240323	0.218348
638.447017	0.218189
638.653692	0.218027
638.860350	0.218367
639.066990	0.218691
639.273611	0.218771
639.480214	0.218719
639.686798	0.218969
639.893365	0.219574
640.099913	0.219752
640.306443	0.220106
640.512955	0.220838
640.719449	0.220789
640.925924	0.221142
641.132381	0.221149
641.338820	0.221287
641.545241	0.221334
641.751644	0.221402
641.958028	0.221629
642.164394	0.221916
642.370742	0.221698
642.577071	0.221897
642.783383	0.221539
642.989676	0.221850
643.195951	0.222109
643.402207	0.222061
643.608446	0.222201
643.814666	0.222349
644.020868	0.222339
644.227052	0.222654
644.433218	0.222991
644.639365	0.223531
644.845494	0.223749
645.051605	0.224072
645.257698	0.224485
645.463772	0.224542
645.669828	0.224797
645.875866	0.224877
646.081886	0.225049
646.287888	0.225007
646.493871	0.225198
646.699836	0.225348
646.905783	0.225380
647.111712	0.225627
647.317622	0.226083
647.523514	0.226281
647.729388	0.226777
647.935244	0.226821
648.141082	0.227042
648.346901	0.227285
648.552702	0.227319
648.758485	0.227690
648.964250	0.227814
649.169996	0.227888
649.375724	0.227859
649.581434	0.227765
649.787126	0.228218
649.992800	0.228550
650.198455	0.228731
650.404092	0.229175
650.609711	0.229176
650.815311	0.229459
651.020894	0.229672
651.226458	0.230069
651.432004	0.230367
651.637532	0.230435
651.843041	0.230730
652.048532	0.230946
652.254006	0.231038
652.459460	0.231426
652.664897	0.231482
652.870315	0.231589
653.075716	0.231744
653.281097	0.232157
653.486461	0.232487
653.691807	0.232596
653.897134	0.232583
654.102443	0.232713
654.307734	0.232787
654.513006	0.233039
654.718261	0.233427
654.923497	0.233558
655.128715	0.233786
655.333915	0.233942
655.539096	0.234112
655.744259	0.234214
655.949404	0.234530
656.154531	0.234541
656.359640	0.234668
656.564730	0.234691
656.769802	0.234983
656.974856	0.234959
657.179892	0.235303
657.384909	0.235335
657.589908	0.235742
657.794889	0.235912
657.999852	0.236329
658.204797	0.236518
658.409723	0.236699
658.614631	0.236921
658.819521	0.237203
659.024393	0.237271
659.229246	0.237718
659.434081	0.237869
659.638898	0.238254
659.843697	0.238477
660.048478	0.238870
660.253240	0.239019
660.457984	0.239279
660.662710	0.239490
660.867417	0.239504
661.072107	0.239690
661.276778	0.239920
661.481431	0.239643
661.686066	0.239728
661.890682	0.239870
662.095281	0.240244
662.299861	0.240530
662.504422	0.240773
662.708966	0.241365
662.913491	0.241549
663.117999	0.241669
663.322488	0.242336
663.526958	0.242667
663.731411	0.242794
663.935845	0.243186
664.140261	0.243470
664.344659	0.243522
664.549038	0.243555
664.753400	0.243850
664.957743	0.244351
665.162068	0.244556
665.366375	0.244900
665.570663	0.245484
665.774933	0.245657
665.979185	0.245634
666.183419	0.246116
666.387635	0.246373
666.591832	0.246697
666.796011	0.246736
667.000172	0.246884
667.204315	0.247086
667.408439	0.246956
667.612545	0.247087
667.816634	0.247379
668.020703	0.247545
668.224755	0.247785
668.428788	0.247719
668.632803	0.247719
668.836800	0.247857
669.040779	0.248051
669.244739	0.248560
669.448681	0.248659
669.652605	0.248993
669.856511	0.249349
670.060399	0.249467
670.264268	0.249935
670.468119	0.250423
670.671952	0.250874
670.875767	0.251139
671.079563	0.251156
671.283341	0.251313
671.487101	0.251314
671.690843	0.251765
671.894567	0.251937
672.098272	0.252103
672.301959	0.252210
672.505628	0.252411
672.709278	0.252736
672.912911	0.252944
673.116525	0.253456
673.320121	0.254099
673.523699	0.253840
673.727258	0.254206
673.930799	0.254459
674.134322	0.254933
674.337827	0.255133
674.541314	0.255022
674.744782	0.255448
674.948232	0.255480
675.151664	0.255580
675.355078	0.256291
675.558474	0.256680
675.761851	0.256860
675.965210	0.257130
676.168551	0.257365
676.371873	0.257808
676.575178	0.258026
676.778464	0.258470
676.981732	0.258617
677.184981	0.258363
677.388213	0.258401
677.591426	0.258612
677.794621	0.258704
677.997798	0.258901
678.200956	0.259145
678.404097	0.259131
678.607219	0.259289
678.810323	0.259546
679.013408	0.260199
679.216476	0.260536
679.419525	0.260742
679.622556	0.260795
679.825569	0.261183
680.028563	0.261098
680.231540	0.261514
680.434498	0.261717
680.637438	0.262021
680.840359	0.261910
681.043263	0.261997
681.246148	0.262382
681.449015	0.262698
681.651864	0.262804
681.854694	0.263101
682.057506	0.263376
682.260301	0.263636
682.463076	0.263659
682.665834	0.263928
682.868573	0.264301
683.071295	0.264284
683.273998	0.264466
683.476682	0.264532
683.679349	0.264836
683.881997	0.264665
684.084627	0.264782
684.287239	0.264892
684.489833	0.264987
684.692408	0.265055
684.894965	0.265231
685.097504	0.265305
685.300025	0.265479
685.502527	0.265686
685.705012	0.266182
685.907478	0.266085
686.109925	0.266199
686.312355	0.266455
686.514766	0.266540
686.717159	0.266739
686.919534	0.267175
687.121891	0.267455
687.324230	0.267685
687.526550	0.267719
687.728852	0.268080
687.931136	0.268641
688.133401	0.268835
688.335649	0.269400
688.537878	0.269723
688.740089	0.269932
688.942281	0.270379
689.144456	0.270676
689.346612	0.271109
689.548750	0.271479
689.750870	0.271766
689.952971	0.272031
690.155055	0.272128
690.357120	0.272317
690.559167	0.272629
690.761195	0.272752
690.963206	0.273028
691.165198	0.273251
691.367172	0.273389
691.569128	0.273410
691.771065	0.273887
691.972984	0.273951
692.174885	0.274157
692.376768	0.274298
692.578633	0.274303
692.780479	0.274186
692.982308	0.274296
693.184118	0.274653
693.385909	0.274765
693.587683	0.274770
693.789438	0.274866
693.991175	0.275025
694.192894	0.275085
694.394595	0.275281
694.596277	0.275304
694.797941	0.275492
694.999587	0.275585
695.201215	0.275736
695.402824	0.275785
695.604416	0.276049
695.805989	0.276052
696.007543	0.276208
696.209080	0.276342
696.410598	0.276704
696.612099	0.276862
696.813580	0.276739
697.015044	0.276932
697.216490	0.277094
697.417917	0.277144
697.619326	0.277392
697.820717	0.277666
698.022089	0.277717
698.223444	0.277930
698.424780	0.278054
698.626098	0.278337
698.827397	0.278428
699.028679	0.278683
699.229942	0.279000
699.431187	0.279271
699.632414	0.279273
699.833622	0.279521
700.034813	0.279860
700.235985	0.279841
700.437139	0.279900
700.638274	0.280054
700.839392	0.280210
701.040491	0.280325
701.241572	0.280486
701.442635	0.280754
701.643679	0.280797
701.844706	0.280921
702.045714	0.280972
702.246704	0.281234
702.447675	0.281137
702.648629	0.280961
702.849564	0.280785
703.050481	0.280449
703.251380	0.280413
703.452260	0.280678
703.653122	0.280404
703.853966	0.280597
704.054792	0.280715
704.255600	0.280995
704.456389	0.281250
704.657160	0.281418
704.857913	0.281671
705.058648	0.281551
705.259365	0.281596
705.460063	0.281710
705.660743	0.281803
705.861405	0.281709
706.062048	0.281592
706.262674	0.281465
706.463281	0.281651
706.663870	0.281697
706.864441	0.281850
707.064993	0.281837
707.265527	0.281967
707.466043	0.282064
707.666541	0.282340
707.867021	0.282645
708.067482	0.282906
708.267925	0.282995
708.468350	0.283226
708.668757	0.283405
708.869145	0.283524
709.069516	0.283816
709.269868	0.283842
709.470201	0.283652
709.670517	0.283851
709.870814	0.283790
710.071093	0.284056
710.271354	0.284207
710.471597	0.284092
710.671821	0.284036
710.872028	0.283708
711.072216	0.283589
711.272385	0.283525
711.472537	0.283339
711.672670	0.283240
711.872785	0.282960
712.072882	0.282705
712.272961	0.282649
712.473021	0.282508
712.673063	0.282288
712.873087	0.282187
713.073093	0.282030
713.273081	0.281595
713.473050	0.281615
713.673001	0.281377
713.872934	0.281429
714.072849	0.281635
714.272745	0.281766
714.472623	0.281745
714.672483	0.281604
714.872325	0.281708
715.072148	0.281883
715.271954	0.282080
715.471741	0.282233
715.671509	0.282080
715.871260	0.281716
716.070992	0.281551
716.270707	0.281833
716.470403	0.281851
716.670080	0.281657
716.869740	0.281446
717.069381	0.280834
717.269004	0.280839
717.468609	0.280849
717.668195	0.280779
717.867764	0.280778
718.067314	0.280279
718.266846	0.280362
718.466360	0.280453
718.665855	0.280435
718.865332	0.280645
719.064791	0.280139
719.264232	0.279925
719.463655	0.279938
719.663059	0.279717
719.862445	0.279807
720.061813	0.279844
720.261163	0.279778
720.460494	0.279883
720.659807	0.279612
720.859102	0.279665
721.058379	0.279438
721.257638	0.279045
721.456878	0.279003
721.656100	0.279076
721.855304	0.278867
722.054490	0.278369
722.253657	0.277879
722.452806	0.277737
722.651937	0.277744
722.851050	0.277636
723.050145	0.277727
723.249221	0.277585
723.448279	0.277356
723.647319	0.277017
723.846340	0.277204
724.045344	0.277382
724.244329	0.277319
724.443296	0.277072
724.642245	0.277098
724.841175	0.276994
725.040088	0.276716
725.238982	0.276770
725.437857	0.276908
725.636715	0.276874
725.835554	0.276748
726.034376	0.276687
726.233179	0.276494
726.431963	0.276298
726.630730	0.275998
726.829478	0.275929
727.028208	0.275671
727.226920	0.275273
727.425614	0.275026
727.624289	0.274807
727.822946	0.274548
728.021585	0.274465
728.220206	0.274182
728.418808	0.274020
728.617392	0.273713
728.815958	0.273149
729.014506	0.272840
729.213036	0.272493
729.411547	0.272218
729.610040	0.272113
729.808515	0.271681
730.006972	0.271350
730.205410	0.271153
730.403831	0.271059
730.602233	0.271052
730.800616	0.270884
730.998982	0.270741
731.197329	0.270548
731.395658	0.270160
731.593969	0.270154
731.792262	0.270038
731.990536	0.269709
732.188793	0.269529
732.387031	0.269159
732.585250	0.268974
732.783452	0.268943
732.981635	0.268834
733.179800	0.268871
733.377947	0.268747
733.576076	0.268527
733.774186	0.268971
733.972278	0.268962
734.170352	0.269207
734.368408	0.269220
734.566446	0.268809
734.764465	0.268675
734.962466	0.268563
735.160449	0.268372
735.358413	0.268475
735.556360	0.267954
735.754288	0.267378
735.952198	0.267015
736.150090	0.266845
736.347963	0.266744
736.545818	0.266399
736.743655	0.265909
736.941474	0.265647
737.139275	0.265262
737.337057	0.265035
737.534821	0.265163
737.732567	0.264935
737.930295	0.264902
738.128005	0.264524
738.325696	0.264332
738.523369	0.264220
738.721024	0.263921
738.918660	0.263890
739.116279	0.263539
739.313879	0.263068
739.511461	0.262782
739.709024	0.262272
739.906570	0.262275
740.104097	0.262156
740.301606	0.262177
740.499097	0.262001
740.696569	0.261606
740.894024	0.261451
741.091460	0.261265
741.288878	0.261012
741.486277	0.260715
741.683659	0.260158
741.881022	0.259831
742.078367	0.259372
742.275694	0.259255
742.473002	0.259022
742.670293	0.258900
742.867565	0.258624
743.064819	0.258526
743.262054	0.258223
743.459272	0.258464
743.656471	0.258221
743.853652	0.258124
744.050815	0.257565
744.247959	0.257502
744.445085	0.256851
744.642194	0.256704
744.839283	0.256324
745.036355	0.256288
745.233408	0.256099
745.430444	0.256160
745.627461	0.255778
745.824459	0.255842
746.021440	0.255635
746.218402	0.255770
746.415346	0.255763
746.612272	0.255765
746.809180	0.255596
747.006069	0.255140
747.202940	0.254688
747.399793	0.254549
747.596628	0.254428
747.793444	0.254127
747.990243	0.253881
748.187023	0.253878
748.383784	0.253371
748.580528	0.253054
748.777253	0.253072
748.973960	0.252812
749.170649	0.252724
749.367320	0.252510
749.563973	0.252452
749.760607	0.252396
749.957223	0.251687
750.153821	0.251593
750.350400	0.251364
750.546962	0.250864
750.743505	0.250546
750.940030	0.250017
751.136536	0.249821
751.333025	0.249666
751.529495	0.249467
751.725947	0.249212
751.922381	0.249091
752.118796	0.248868
752.315194	0.248761
752.511573	0.248816
752.707934	0.248648
752.904276	0.248289
753.100601	0.247723
753.296907	0.247332
753.493195	0.247203
753.689465	0.246872
753.885716	0.246720
754.081949	0.246440
754.278164	0.245742
754.474361	0.245531
754.670540	0.245282
754.866700	0.245085
755.062843	0.244856
755.258967	0.244721
755.455072	0.244477
755.651160	0.244162
755.847229	0.243913
756.043280	0.244157
756.239313	0.244003
756.435328	0.243757
756.631324	0.243377
756.827302	0.243245
757.023262	0.243041
757.219204	0.242904
757.415127	0.242514
757.611033	0.242504
757.806920	0.242141
758.002788	0.242081
758.198639	0.242085
758.394471	0.242172
758.590286	0.241861
758.786081	0.241772
758.981859	0.241697
759.177619	0.241699
759.373360	0.241392
759.569083	0.241418
759.764788	0.240999
759.960474	0.240609
760.156143	0.240208
760.351793	0.239885
760.547425	0.239460
760.743038	0.239447
760.938634	0.239230
761.134211	0.239115
761.329770	0.238928
761.525311	0.238993
761.720833	0.238972
761.916338	0.238866
762.111824	0.238899
762.307292	0.238845
762.502741	0.238316
762.698173	0.238003
762.893586	0.237704
763.088981	0.237286
763.284358	0.236885
763.479716	0.236488
763.675057	0.236393
763.870379	0.236071
764.065683	0.235818
764.260968	0.235729
764.456236	0.235913
764.651485	0.235773
764.846716	0.235721
765.041929	0.235943
765.237123	0.235823
765.432299	0.235754
765.627457	0.235984
765.822597	0.235889
766.017719	0.235745
766.212822	0.235316
766.407907	0.235180
766.602974	0.235061
766.798023	0.234662
766.993054	0.234695
767.188066	0.234632
767.383060	0.234368
767.578036	0.234233
767.772993	0.234356
767.967933	0.234745
768.162854	0.234868
768.357757	0.234715
768.552642	0.234701
768.747508	0.234802
768.942356	0.234656
769.137186	0.234281
769.331998	0.234101
769.526792	0.233873
769.721567	0.233677
769.916324	0.233537
770.111063	0.233651
770.305784	0.233428
770.500486	0.233203
770.695171	0.233221
770.889837	0.233397
771.084484	0.233458
771.279114	0.233383
771.473725	0.233226
771.668318	0.233149
771.862893	0.232999
772.057450	0.232881
772.251988	0.232954
772.446509	0.232956
772.641011	0.232971
772.835494	0.233002
773.029960	0.233086
773.224407	0.232792
773.418836	0.232596
773.613247	0.232235
773.807640	0.232396
774.002014	0.232071
774.196370	0.231960
774.390708	0.231808
774.585028	0.232011
774.779330	0.231796
774.973613	0.232010
775.167878	0.232094
775.362125	0.232611
775.556354	0.232483
775.750564	0.232567
775.944756	0.232493
776.138930	0.232661
776.333086	0.232361
776.527223	0.232569
776.721343	0.232501
776.915444	0.232420
777.109526	0.232064
777.303591	0.232006
777.497637	0.231910
777.691666	0.231882
777.885676	0.231695
778.079667	0.231772
778.273641	0.231735
778.467596	0.231828
778.661533	0.231829
778.855452	0.231661
779.049352	0.231799
779.243235	0.231742
779.437099	0.231783
779.630945	0.231743
779.824773	0.231659
780.018582	0.231122
780.212373	0.230856
780.406146	0.230895
780.599901	0.231399
780.793638	0.231416
780.987356	0.231430
781.181056	0.231484
781.374738	0.231616
781.568402	0.231635
781.762047	0.231913
781.955674	0.232152
782.149283	0.232085
782.342874	0.231854
782.536447	0.231679
782.730001	0.231628
782.923537	0.231432
783.117055	0.231590
783.310555	0.231602
783.504036	0.231914
783.697499	0.231856
783.890944	0.231792
784.084371	0.231643
784.277780	0.231846
784.471170	0.231982
784.664542	0.232180
784.857896	0.232005
785.051231	0.231933
785.244549	0.231877
785.437848	0.231869
785.631129	0.232226
785.824392	0.232694
786.017636	0.232781
786.210863	0.232932
786.404071	0.232815
786.597260	0.232928
786.790432	0.233206
786.983585	0.233280
787.176721	0.233349
787.369838	0.233582
787.562936	0.233465
787.756017	0.233478
787.949079	0.233573
788.142123	0.233962
788.335149	0.234073
788.528156	0.234124
788.721146	0.234344
788.914117	0.234519
789.107070	0.234339
789.300005	0.234468
789.492921	0.234959
789.685819	0.235028
789.878699	0.235047
790.071561	0.234983
790.264405	0.235162
790.457230	0.235214
790.650037	0.235286
790.842826	0.235279
791.035597	0.235253
791.228349	0.235136
791.421084	0.235327
791.613800	0.235103
791.806497	0.235434
791.999177	0.235473
792.191838	0.235486
792.384481	0.235445
792.577106	0.235599
792.769713	0.235761
792.962301	0.235648
793.154871	0.235766
793.347423	0.236028
793.539957	0.235839
793.732473	0.235818
793.924970	0.235681
794.117449	0.235946
794.309910	0.236038
794.502353	0.236395
794.694777	0.236728
794.887183	0.236755
795.079571	0.236944
795.271941	0.237467
795.464293	0.237682
795.656626	0.238355
795.848941	0.238677
796.041238	0.238868
796.233516	0.239090
796.425777	0.239159
796.618019	0.239557
796.810243	0.239874
797.002449	0.239885
797.194636	0.240108
797.386805	0.240184
797.578956	0.240285
797.771089	0.240527
797.963204	0.240435
798.155300	0.241008
798.347378	0.241067
798.539438	0.241437
798.731480	0.241542
798.923503	0.242141
799.115509	0.242203
799.307496	0.242485
799.499465	0.243090
799.691415	0.243533
799.883348	0.243562
800.075262	0.243870
800.267158	0.244043
800.459035	0.244382
800.650895	0.244292
800.842736	0.244801
801.034559	0.244967
801.226364	0.245037
801.418150	0.245195
801.609919	0.245296
801.801669	0.245688
801.993401	0.245893
802.185114	0.246261
802.376810	0.246336
802.568487	0.246707
802.760146	0.246837
802.951787	0.247332
803.143409	0.247715
803.335014	0.248199
803.526600	0.248554
803.718168	0.249058
803.909717	0.249478
804.101249	0.250304
804.292762	0.250410
804.484257	0.251032
804.675734	0.251064
804.867192	0.251592
805.058632	0.251729
805.250054	0.251934
805.441458	0.252112
805.632844	0.252441
805.824211	0.252437
806.015561	0.252771
806.206891	0.252833
806.398204	0.253174
806.589499	0.253251
806.780775	0.253420
806.972033	0.253582
807.163273	0.253739
807.354495	0.253919
807.545698	0.254311
807.736883	0.254621
807.928050	0.255043
808.119199	0.255401
808.310329	0.255772
808.501441	0.256531
808.692535	0.256769
808.883611	0.257023
809.074669	0.257528
809.265708	0.257588
809.456729	0.257656
809.647732	0.257944
809.838717	0.258383
810.029683	0.258587
810.220632	0.258501
810.411562	0.259108
810.602474	0.259454
810.793367	0.259627
810.984242	0.260257
811.175100	0.260624
811.365938	0.260978
811.556759	0.260987
811.747562	0.261280
811.938346	0.261872
812.129112	0.262233
812.319860	0.262792
812.510589	0.263186
812.701300	0.263357
812.891994	0.264148
813.082668	0.264790
813.273325	0.265366
813.463964	0.265852
813.654584	0.266352
813.845186	0.266568
814.035769	0.266940
814.226335	0.267437
814.416882	0.268238
814.607411	0.268561
814.797922	0.268702
814.988415	0.269120
815.178889	0.269642
815.369345	0.269819
815.559783	0.270176
815.750203	0.270561
815.940605	0.270869
816.130988	0.271054
816.321353	0.271356
816.511700	0.271885
816.702028	0.272169
816.892339	0.272384
817.082631	0.272958
817.272905	0.273674
817.463161	0.274306
817.653398	0.274830
817.843617	0.275084
818.033819	0.275450
818.224001	0.275749
818.414166	0.276545
818.604312	0.276900
818.794440	0.277239
818.984550	0.277601
819.174642	0.277872
819.364716	0.277924
819.554771	0.278686
819.744808	0.279203
819.934827	0.279794
820.124827	0.280161
820.314810	0.280559
820.504774	0.281017
820.694720	0.281567
820.884647	0.281758
821.074557	0.282291
821.264448	0.282827
821.454321	0.283279
821.644176	0.283661
821.834012	0.283825
822.023831	0.284363
822.213631	0.284821
822.403413	0.284856
822.593176	0.285520
822.782922	0.285880
822.972649	0.285878
823.162358	0.286088
823.352049	0.286728
823.541721	0.287195
823.731376	0.287696
823.921012	0.287880
824.110629	0.288549
824.300229	0.288773
824.489811	0.289476
824.679374	0.290045
824.868919	0.290668
825.058445	0.291122
825.247954	0.291725
825.437444	0.292204
825.626916	0.293007
825.816370	0.293271
826.005806	0.294133
826.195223	0.294723
826.384622	0.295169
826.574003	0.295703
826.763366	0.295743
826.952711	0.296052
827.142037	0.296624
827.331345	0.297011
827.520635	0.297355
827.709906	0.297582
827.899160	0.297845
828.088395	0.298171
828.277612	0.298501
828.466810	0.299225
828.655991	0.299630
828.845153	0.300072
829.034297	0.300710
829.223423	0.301138
829.412531	0.301767
829.601620	0.302160
829.790691	0.302850
829.979744	0.303559
830.168779	0.303846
830.357795	0.304389
830.546793	0.304862
830.735773	0.305284
830.924735	0.306084
831.113679	0.306523
831.302604	0.306874
831.491511	0.306988
831.680400	0.307057
831.869271	0.307702
832.058123	0.308129
832.246957	0.308448
832.435773	0.308707
832.624571	0.309066
832.813351	0.309594
833.002112	0.310657
833.190855	0.311399
833.379580	0.311869
833.568287	0.312426
833.756975	0.313014
833.945645	0.313419
834.134297	0.314280
834.322931	0.315137
834.511547	0.315286
834.700144	0.315655
834.888723	0.316673
835.077284	0.317534
835.265826	0.318249
835.454351	0.318883
835.642857	0.319545
835.831345	0.319877
836.019815	0.320167
836.208266	0.321047
836.396699	0.321140
836.585114	0.321240
836.773511	0.321674
836.961890	0.321705
837.150250	0.322241
837.338592	0.322876
837.526916	0.323245
837.715222	0.323925
837.903510	0.324413
838.091779	0.325240
838.280030	0.325815
838.468263	0.326451
838.656477	0.327293
838.844674	0.327620
839.032852	0.328143
839.221012	0.328788
839.409153	0.329511
839.597277	0.330220
839.785382	0.330725
839.973469	0.331458
840.161538	0.331856
840.349589	0.332611
840.537621	0.333766
840.725635	0.334512
840.913631	0.335392
841.101609	0.336068
841.289568	0.336512
841.477509	0.337364
841.665432	0.337978
841.853337	0.338747
842.041224	0.339619
842.229092	0.339670
842.416942	0.340384
842.604774	0.340805
842.792588	0.340980
842.980383	0.341504
843.168160	0.341943
843.355919	0.342243
843.543660	0.343057
843.731382	0.343272
843.919087	0.343888
844.106773	0.343979
844.294441	0.344279
844.482090	0.344754
844.669722	0.344892
844.857335	0.345422
845.044930	0.346202
845.232507	0.346550
845.420065	0.346960
845.607605	0.347878
845.795127	0.348719
845.982631	0.349226
846.170117	0.349794
846.357584	0.350935
846.545033	0.351213
846.732464	0.351675
846.919877	0.352309
847.107272	0.352879
847.294648	0.353004
847.482006	0.353332
847.669346	0.353806
847.856667	0.354398
848.043971	0.354732
848.231256	0.355562
848.418523	0.356027
848.605771	0.356572
848.793002	0.357187
848.980214	0.357901
849.167408	0.358553
849.354584	0.359153
849.541742	0.359465
849.728881	0.360029
849.916002	0.360563
850.103105	0.361053
850.290190	0.361270
850.477256	0.361677
850.664304	0.362206
850.851334	0.362748
851.038346	0.363282
851.225340	0.364347
851.412315	0.364984
851.599272	0.365315
851.786211	0.366420
851.973132	0.367135
852.160034	0.367873
852.346918	0.368568
852.533784	0.369272
852.720632	0.370279
852.907462	0.370844
853.094273	0.371620
853.281066	0.372202
853.467841	0.372329
853.654598	0.372824
853.841336	0.373504
854.028056	0.373926
854.214758	0.374322
854.401442	0.374793
854.588107	0.375312
854.774755	0.375324
854.961384	0.376099
855.147995	0.376614
855.334587	0.377190
855.521162	0.377468
855.707718	0.377997
855.894256	0.378582
856.080775	0.378894
856.267277	0.379143
856.453760	0.380059
856.640225	0.380611
856.826672	0.380973
857.013101	0.381356
857.199511	0.381607
857.385903	0.381864
857.572277	0.382701
857.758633	0.383243
857.944970	0.384003
858.131290	0.384429
858.317591	0.384835
858.503873	0.385191
858.690138	0.385863
858.876384	0.386696
859.062612	0.387354
859.248822	0.387013
859.435014	0.387183
859.621188	0.387613
859.807343	0.388190
859.993480	0.388776
860.179599	0.389735
860.365699	0.390311
860.551781	0.390774
860.737846	0.391388
860.923891	0.392212
861.109919	0.392736
861.295929	0.393186
861.481920	0.393676
861.667893	0.393685
861.853848	0.393811
862.039784	0.394118
862.225702	0.394240
862.411603	0.394825
862.597484	0.395468
862.783348	0.396220
862.969193	0.397093
863.155021	0.397483
863.340830	0.398281
863.526620	0.398749
863.712393	0.398968
863.898147	0.399774
864.083883	0.400284
864.269601	0.400582
864.455301	0.401158
864.640982	0.401257
864.826645	0.401083
865.012290	0.401815
865.197917	0.402356
865.383526	0.402907
865.569116	0.403014
865.754688	0.402853
865.940242	0.403390
866.125777	0.404077
866.311295	0.404659
866.496794	0.405762
866.682275	0.406123
866.867737	0.406754
867.053182	0.407421
867.238608	0.408237
867.424016	0.409180
867.609406	0.409484
867.794778	0.409930
867.980131	0.409995
868.165466	0.410305
868.350783	0.410509
868.536082	0.410809
868.721362	0.411363
868.906625	0.412046
869.091869	0.412591
869.277094	0.413079
869.462302	0.413287
869.647491	0.413652
869.832662	0.414475
870.017815	0.415516
870.202950	0.416323
870.388066	0.416394
870.573165	0.416536
870.758245	0.416693
870.943306	0.417113
871.128350	0.417419
871.313375	0.417807
871.498382	0.418013
871.683371	0.418053
871.868342	0.418043
872.053294	0.418463
872.238229	0.418853
872.423144	0.419027
872.608042	0.419253
872.792922	0.419574
872.977783	0.420294
873.162626	0.420214
873.347451	0.420163
873.532258	0.420620
873.717046	0.420913
873.901816	0.421166
874.086568	0.421640
874.271302	0.422760
874.456017	0.423564
874.640715	0.423716
874.825394	0.424400
875.010055	0.425030
875.194697	0.425156
875.379322	0.425868
875.563928	0.426000
875.748516	0.426757
875.933085	0.426177
876.117637	0.425892
876.302170	0.426040
876.486685	0.426075
876.671182	0.426465
876.855661	0.426911
877.040121	0.427100
877.224563	0.427406
877.408987	0.427296
877.593393	0.428014
877.777780	0.428250
877.962150	0.428569
878.146501	0.428870
878.330833	0.429070
878.515148	0.429335
878.699444	0.429548
878.883722	0.429782
879.067982	0.430085
879.252224	0.430021
879.436447	0.430400
879.620653	0.430975
879.804840	0.431424
879.989008	0.431499
880.173159	0.431818
880.357291	0.431932
880.541405	0.432160
880.725501	0.432063
880.909579	0.432476
881.093638	0.432663
881.277680	0.432664
881.461703	0.432819
881.645707	0.432980
881.829694	0.432892
882.013662	0.432859
882.197612	0.433037
882.381544	0.434017
882.565458	0.434318
882.749353	0.434655
882.933230	0.434918
883.117089	0.434641
883.300930	0.434787
883.484753	0.434966
883.668557	0.435453
883.852343	0.436084
884.036111	0.436000
884.219861	0.436132
884.403592	0.436402
884.587305	0.436065
884.771000	0.436611
884.954677	0.436601
885.138335	0.436920
885.321976	0.436549
885.505598	0.436441
885.689201	0.436259
885.872787	0.436194
886.056354	0.436567
886.239904	0.437073
886.423434	0.437044
886.606947	0.437410
886.790442	0.436867
886.973918	0.437177
887.157376	0.437382
887.340816	0.437426
887.524237	0.437215
887.707641	0.436772
887.891026	0.436888
888.074393	0.436750
888.257741	0.436551
888.441072	0.436926
888.624384	0.436698
888.807678	0.436433
888.990954	0.436686
889.174211	0.436900
889.357451	0.437016
889.540672	0.436829
889.723875	0.436881
889.907059	0.437333
890.090226	0.437241
890.273374	0.437526
890.456504	0.437234
890.639616	0.436465
890.822709	0.436318
891.005785	0.435722
891.188842	0.435376
891.371881	0.435914
891.554901	0.435738
891.737904	0.435779
891.920888	0.436013
892.103854	0.436534
892.286802	0.437033
892.469731	0.437380
892.652643	0.437505
892.835536	0.437795
893.018410	0.437076
893.201267	0.436400
893.384106	0.436532
893.566926	0.436238
893.749728	0.436014
893.932511	0.435451
894.115277	0.434856
894.298024	0.434877
894.480753	0.434492
894.663464	0.434822
894.846157	0.435140
895.028831	0.434763
895.211487	0.434714
895.394125	0.434455
895.576745	0.434183
895.759346	0.434200
895.941930	0.433980
896.124495	0.433845
896.307041	0.433117
896.489570	0.432876
896.672080	0.432331
896.854573	0.431684
897.037046	0.431447
897.219502	0.431440
897.401940	0.431128
897.584359	0.431167
897.766760	0.431581
897.949143	0.431785
898.131507	0.431562
898.313854	0.432093
898.496182	0.431845
898.678492	0.431028
898.860783	0.431061
899.043057	0.430932
899.225312	0.429894
899.407549	0.428795
899.589768	0.428508
899.771968	0.428709
899.954151	0.428596
900.136315	0.428548
900.318461	0.428627
900.500588	0.428033
900.682698	0.428030
900.864789	0.428295
901.046862	0.428359
901.228917	0.427867
901.410953	0.427231
901.592971	0.426675
901.774972	0.426335
901.956953	0.425948
902.138917	0.426109
902.320862	0.425366
902.502790	0.424909
902.684699	0.424604
902.866589	0.424579
903.048462	0.424098
903.230316	0.423411
903.412152	0.423209
903.593970	0.422977
903.775770	0.422498
903.957551	0.422103
904.139314	0.422055
904.321059	0.421505
904.502786	0.420599
904.684494	0.419830
904.866185	0.419495
905.047857	0.418692
905.229510	0.418418
905.411146	0.418016
905.592763	0.418061
905.774363	0.417204
905.955943	0.416413
906.137506	0.415895
906.319051	0.416306
906.500577	0.415973
906.682085	0.415866
906.863575	0.414557
907.045046	0.413969
907.226500	0.412984
907.407935	0.412526
907.589352	0.412495
907.770750	0.412021
907.952131	0.411279
908.133493	0.410449
908.314837	0.410191
908.496163	0.410562
908.677470	0.409568
908.858760	0.409023
909.040031	0.408280
909.221284	0.407164
909.402518	0.406959
909.583735	0.405795
909.764933	0.405775
909.946113	0.405121
910.127275	0.403953
910.308418	0.403494
910.489544	0.402672
910.670651	0.402963
910.851740	0.401946
911.032810	0.400706
911.213863	0.400053
911.394897	0.399222
911.575913	0.398313
911.756911	0.397929
911.937890	0.397987
912.118851	0.398045
912.299794	0.397011
912.480719	0.397098
912.661626	0.397044
912.842514	0.396738
913.023384	0.395798
913.204236	0.394856
913.385070	0.394798
913.565886	0.394384
913.746683	0.393190
913.927462	0.392127
914.108223	0.391444
914.288965	0.390185
914.469690	0.389460
914.650396	0.389075
914.831084	0.388346
915.011754	0.386789
915.192405	0.385425
915.373038	0.384720
915.553653	0.384100
915.734250	0.382800
915.914829	0.382365
916.095389	0.381446
916.275931	0.380696
916.456455	0.379370
916.636961	0.379072
916.817448	0.378004
916.997917	0.377945
917.178368	0.376637
917.358801	0.375974
917.539216	0.375587
917.719612	0.375340
917.899990	0.374021
918.080350	0.374504
918.260692	0.373453
918.441015	0.372797
918.621320	0.370928
918.801607	0.370787
918.981876	0.370016
919.162127	0.368487
919.342359	0.367077
919.522573	0.366751
919.702769	0.365484
919.882947	0.365066
920.063106	0.364315
920.243247	0.363784
920.423370	0.362945
920.603475	0.362566
920.783562	0.362142
920.963630	0.361386
921.143680	0.360202
921.323712	0.358957
921.503725	0.357670
921.683721	0.357301
921.863698	0.355985
922.043657	0.354826
922.223598	0.354034
922.403520	0.353264
922.583424	0.352049
922.763311	0.351161
922.943178	0.351510
923.123028	0.350281
923.302859	0.348584
923.482673	0.347971
923.662467	0.347326
923.842244	0.346119
924.022003	0.344964
924.201743	0.344028
924.381465	0.342891
924.561169	0.341374
924.740854	0.340593
924.920522	0.340323
925.100171	0.339334
925.279802	0.337944
925.459414	0.337062
925.639009	0.335687
925.818585	0.334884
925.998143	0.334334
926.177683	0.332695
926.357205	0.331963
926.536708	0.330888
926.716193	0.329954
926.895660	0.328696
927.075109	0.327832
927.254539	0.326932
927.433951	0.325545
927.613345	0.323828
927.792721	0.323677
927.972079	0.322762
928.151418	0.320803
928.330739	0.319752
928.510042	0.319537
928.689327	0.318363
928.868593	0.317055
929.047841	0.315957
929.227071	0.315406
929.406283	0.312766
929.585476	0.312027
929.764652	0.311469
929.943809	0.309955
930.122948	0.308446
930.302068	0.307153
930.481171	0.305957
930.660255	0.304965
930.839321	0.303587
931.018369	0.303020
931.197398	0.301223
931.376409	0.299726
931.555402	0.299115
931.734377	0.297899
931.913334	0.297093
932.092272	0.296948
932.271192	0.295812
932.450094	0.294583
932.628978	0.293246
932.807844	0.292843
932.986691	0.292535
933.165520	0.291111
933.344331	0.290069
933.523123	0.287982
933.701898	0.286688
933.880654	0.285416
934.059392	0.284160
934.238111	0.282835
934.416813	0.280571
934.595496	0.278718
934.774161	0.277486
934.952808	0.276002
935.131437	0.275190
935.310047	0.273256
935.488639	0.272334
935.667213	0.271731
935.845769	0.271134
936.024306	0.270582
936.202825	0.268678
936.381326	0.267303
936.559809	0.265584
936.738274	0.264578
936.916720	0.263411
937.095148	0.262418
937.273558	0.260955
937.451950	0.260075
937.630323	0.258598
937.808678	0.257321
937.987015	0.256750
938.165334	0.257087
938.343635	0.256387
938.521917	0.255540
938.700181	0.254040
938.878427	0.252984
939.056655	0.251013
939.234864	0.249257
939.413055	0.248574
939.591228	0.247166
939.769383	0.244853
939.947519	0.242723
940.125638	0.241766
940.303738	0.240595
940.481820	0.238588
940.659883	0.237133
940.837929	0.236907
941.015956	0.235525
941.193965	0.234309
941.371955	0.233397
941.549928	0.233113
941.727882	0.230731
941.905818	0.229091
942.083736	0.227657
942.261636	0.225727
942.439517	0.223741
942.617380	0.223078
942.795225	0.220885
942.973052	0.219207
943.150860	0.216172
943.328651	0.215210
943.506423	0.214202
943.684176	0.214224
943.861912	0.213973
944.039629	0.211586
944.217328	0.209853
944.395009	0.208760
944.572672	0.206665
944.750317	0.205260
944.927943	0.204588
945.105551	0.201677
945.283141	0.199075
945.460712	0.197604
945.638265	0.197571
945.815801	0.194837
945.993317	0.193777
946.170816	0.192504
946.348297	0.192773
946.525759	0.191074
946.703203	0.191503
946.880629	0.189281
947.058036	0.187534
947.235425	0.184786
947.412797	0.183156
947.590149	0.181111
947.767484	0.180206
947.944800	0.178098
948.122099	0.176061
948.299379	0.174055
948.476640	0.172305
948.653884	0.171315
948.831109	0.171869
949.008316	0.172150
949.185505	0.170950
949.362676	0.169856
949.539828	0.168230
949.716962	0.167554
949.894078	0.166768
950.071176	0.168119
950.248256	0.166335
950.425317	0.164222
950.602360	0.163309
950.779385	0.161201
950.956391	0.160853
951.133380	0.160461
951.310350	0.158181
951.487302	0.157229
951.664235	0.154940
951.841151	0.154260
952.018048	0.153124
952.194927	0.150204
952.371788	0.150276
952.548631	0.147882
952.725455	0.145770
952.902261	0.144646
953.079049	0.142071
953.255819	0.140577
953.432570	0.138868
953.609303	0.137834
953.786018	0.138086
953.962715	0.138335
954.139394	0.137033
954.316054	0.134985
954.492696	0.133539
954.669320	0.130837
954.845926	0.128334
955.022513	0.126413
955.199083	0.124565
955.375634	0.122560
955.552166	0.120838
955.728681	0.118273
955.905177	0.117754
956.081655	0.116952
956.258115	0.116345
956.434557	0.116255
956.610980	0.116724
956.787385	0.116390
956.963772	0.115281
957.140141	0.112889
957.316492	0.113036
957.492824	0.112339
957.669138	0.111300
957.845434	0.111074
958.021712	0.110753
958.197971	0.109381
958.374212	0.107564
958.550435	0.105526
958.726640	0.105113
958.902826	0.103081
959.078995	0.102774
959.255145	0.102632
959.431277	0.104857
959.607390	0.102761
959.783486	0.102452
959.959563	0.101421
960.135622	0.101389
960.311662	0.100342
960.487685	0.100808
960.663689	0.098535
960.839675	0.097874
961.015643	0.094701
961.191593	0.094873
961.367524	0.093864
961.543437	0.093881
961.719332	0.092268
961.895209	0.091319
962.071067	0.090970
962.246907	0.092074
962.422730	0.092431
962.598533	0.091164
962.774319	0.090912
962.950086	0.089488
963.125835	0.089147
963.301566	0.092281
963.477279	0.093379
963.652973	0.091823
963.828650	0.090149
964.004308	0.088432
964.179947	0.089114
964.355569	0.088899
964.531172	0.089039
964.706757	0.088182
964.882324	0.085782
965.057873	0.085753
965.233403	0.084753
965.408916	0.085416
965.584410	0.085603
965.759885	0.085556
965.935343	0.084653
966.110782	0.085137
966.286203	0.085457
966.461606	0.087506
966.636991	0.087792
966.812357	0.087334
966.987705	0.085885
967.163035	0.086277
967.338347	0.087008
967.513641	0.087251
967.688916	0.087912
967.864173	0.088058
968.039412	0.086170
968.214632	0.082591
968.389835	0.083799
968.565019	0.083828
968.740185	0.083405
968.915333	0.083475
969.090462	0.082699
969.265573	0.080522
969.440667	0.081718
969.615741	0.081664
969.790798	0.083181
969.965836	0.085996
970.140856	0.085527
970.315858	0.087904
970.490842	0.084815
970.665808	0.087291
970.840755	0.088534
971.015684	0.084603
971.190595	0.086083
971.365487	0.084278
971.540362	0.080822
971.715218	0.082330
971.890056	0.080530
972.064875	0.082694
972.239677	0.080653
972.414460	0.079368
972.589225	0.080899
972.763972	0.080641
972.938700	0.080481
973.113411	0.082652
973.288103	0.084992
973.462777	0.083442
973.637432	0.083436
973.812070	0.083039
973.986689	0.086114
974.161290	0.086517
974.335873	0.084378
974.510437	0.085004
974.684984	0.085952
974.859512	0.083519
975.034022	0.085690
975.208513	0.084963
975.382987	0.086081
975.557442	0.082713
975.731879	0.082728
975.906298	0.083099
976.080698	0.084571
976.255080	0.083211
976.429445	0.083169
976.603790	0.081378
976.778118	0.081645
976.952427	0.079973
977.126719	0.082845
977.300992	0.084479
977.475246	0.085434
977.649483	0.084805
977.823701	0.084532
977.997901	0.085132
978.172083	0.085074
978.346247	0.084358
978.520392	0.083491
978.694519	0.081569
978.868628	0.083076
979.042719	0.080904
979.216791	0.082038
979.390845	0.082599
979.564882	0.082048
979.738899	0.081170
979.912899	0.080502
980.086880	0.080510
980.260843	0.081530
980.434788	0.078600
980.608715	0.078522
980.782623	0.078921
980.956514	0.077890
981.130386	0.075910
981.304240	0.076133
981.478075	0.076927
981.651892	0.078222
981.825692	0.077642
981.999472	0.078221
982.173235	0.079754
982.346980	0.079266
982.520706	0.079906
982.694414	0.082227
982.868104	0.081617
983.041775	0.081734
983.215428	0.083773
983.389064	0.082805
983.562680	0.084472
983.736279	0.087686
983.909860	0.088906
984.083422	0.087839
984.256966	0.085068
984.430491	0.087196
984.603999	0.085198
984.777488	0.083479
984.950959	0.083536
985.124412	0.080960
985.297847	0.078375
985.471263	0.076168
985.644661	0.077278
985.818041	0.080046
985.991403	0.079564
986.164747	0.081755
986.338072	0.081161
986.511379	0.080236
986.684668	0.080249
986.857938	0.080937
987.031191	0.080623
987.204425	0.080186
987.377641	0.079183
987.550839	0.078689
987.724018	0.079014
987.897179	0.079084
988.070322	0.082724
988.243447	0.082530
988.416554	0.081796
988.589642	0.082216
988.762712	0.082350
988.935764	0.082966
989.108798	0.082739
989.281813	0.081429
989.454811	0.081846
989.627790	0.079213
989.800751	0.078877
989.973693	0.078375
990.146617	0.078492
990.319524	0.078001
990.492412	0.077088
990.665281	0.076913
990.838133	0.077925
991.010966	0.077469
991.183781	0.076658
991.356578	0.076731
991.529356	0.077788
991.702117	0.079002
991.874859	0.078876
992.047583	0.079347
992.220288	0.079586
992.392976	0.081830
992.565645	0.081744
992.738296	0.083071
992.910929	0.081693
993.083543	0.082386
993.256139	0.081141
993.428718	0.082132
993.601277	0.082965
993.773819	0.083434
993.946342	0.079699
994.118848	0.080769
994.291335	0.080010
994.463803	0.080730
994.636254	0.077666
994.808686	0.077236
994.981100	0.076269
995.153496	0.075259
995.325874	0.075539
995.498233	0.078093
995.670574	0.076509
995.842897	0.076182
996.015202	0.076936
996.187488	0.080314
996.359757	0.081377
996.532007	0.081907
996.704239	0.082763
996.876452	0.082065
997.048648	0.079936
997.220825	0.079988
997.392984	0.081392
997.565124	0.081420
997.737247	0.077897
997.909351	0.079651
998.081437	0.078965
998.253505	0.078507
998.425554	0.078758
998.597586	0.079081
998.769599	0.081065
998.941594	0.081059
999.113571	0.079799
999.285529	0.081127
999.457469	0.079163
999.629391	0.078407
999.801295	0.077257
999.973181	0.077130
1000.145048	0.078327
1000.316897	0.076996
1000.488728	0.077999
1000.660541	0.078466
1000.832335	0.078540
1001.004111	0.077947
1001.175869	0.079532
1001.347609	0.081078
1001.519331	0.082361
1001.691034	0.083641
1001.862719	0.084202
1002.034386	0.082399
1002.206035	0.081851
1002.377665	0.082388
1002.549277	0.083281
1002.720871	0.082310
1002.892447	0.080831
1003.064004	0.077518
1003.235544	0.074932
1003.407065	0.074815
1003.578568	0.075127
1003.750052	0.075913
1003.921519	0.076996
1004.092967	0.077243
1004.264397	0.077363
1004.435809	0.076542
1004.607202	0.079117
1004.778577	0.078992
1004.949934	0.078072
1005.121273	0.077599
1005.292594	0.079433
1005.463896	0.076065
1005.635180	0.075734
1005.806446	0.075326
1005.977694	0.078134
1006.148923	0.077580
1006.320135	0.078018
1006.491328	0.077900
1006.662503	0.077851
1006.833659	0.075989
1007.004798	0.078499
1007.175918	0.077527
1007.347020	0.077101
1007.518103	0.076387
1007.689169	0.077328
1007.860216	0.077147
1008.031245	0.077434
1008.202256	0.079705
1008.373248	0.081619
1008.544223	0.080318
1008.715179	0.081855
1008.886117	0.083766
1009.057036	0.082970
1009.227938	0.082229
1009.398821	0.082414
1009.569686	0.082959
1009.740533	0.081215
1009.911361	0.080255
1010.082172	0.080749
1010.252964	0.079192
1010.423738	0.078689
1010.594493	0.078227
1010.765231	0.078914
1010.935950	0.079004
1011.106651	0.077673
1011.277334	0.078094
1011.447998	0.077716
1011.618645	0.078341
1011.789273	0.079128
1011.959882	0.077914
1012.130474	0.078652
1012.301048	0.077844
1012.471603	0.078170
1012.642140	0.078838
1012.812658	0.079009
1012.983159	0.078948
1013.153641	0.079614
1013.324105	0.079312
1013.494551	0.080184
1013.664979	0.079877
1013.835388	0.078998
1014.005779	0.078510
1014.176152	0.079572
1014.346507	0.077443
1014.516843	0.077651
1014.687162	0.077136
1014.857462	0.077733
1015.027744	0.078650
1015.198007	0.079824
1015.368252	0.079951
1015.538480	0.079523
1015.708689	0.078473
1015.878879	0.079282
1016.049052	0.080117
1016.219206	0.077740
1016.389342	0.076725
1016.559460	0.076326
1016.729559	0.075522
1016.899641	0.075635
1017.069704	0.075541
1017.239749	0.073631
1017.409775	0.073080
1017.579784	0.073171
1017.749774	0.073944
1017.919746	0.076384
1018.089700	0.075824
1018.259635	0.074016
1018.429553	0.075941
1018.599452	0.077498
1018.769333	0.080179
1018.939195	0.081561
1019.109040	0.079303
1019.278866	0.080216
1019.448674	0.080126
1019.618464	0.079320
1019.788235	0.081544
1019.957989	0.080436
1020.127724	0.080131
1020.297441	0.079818
1020.467139	0.078729
1020.636820	0.081434
1020.806482	0.083374
1020.976126	0.080149
1021.145752	0.080375
1021.315359	0.079559
1021.484948	0.077979
1021.654519	0.076567
1021.824072	0.076967
1021.993607	0.076772
1022.163123	0.075631
1022.332621	0.073920
1022.502101	0.074665
1022.671563	0.073895
1022.841007	0.074306
1023.010432	0.074563
1023.179839	0.075889
1023.349228	0.075636
1023.518598	0.077070
1023.687951	0.075131
1023.857285	0.073768
1024.026601	0.072905
1024.195899	0.072704
1024.365178	0.071628
1024.534439	0.073832
1024.703682	0.073157
1024.872907	0.072734
1025.042114	0.071168
1025.211302	0.073464
1025.380472	0.073244
1025.549624	0.074606
1025.718758	0.077338
1025.887873	0.077772
1026.056970	0.077581
1026.226049	0.076856
1026.395110	0.077753
1026.564153	0.078592
1026.733177	0.078671
1026.902183	0.078369
1027.071171	0.077744
1027.240141	0.075887
1027.409092	0.075927
1027.578026	0.073653
1027.746940	0.075875
1027.915837	0.075018
1028.084716	0.074901
1028.253576	0.075113
1028.422418	0.077242
1028.591242	0.076965
1028.760048	0.078098
1028.928835	0.078553
1029.097604	0.080128
1029.266355	0.078300
1029.435088	0.078412
1029.603803	0.078172
1029.772499	0.077768
1029.941177	0.076002
1030.109837	0.075834
1030.278478	0.074638
1030.447102	0.072846
1030.615707	0.072154
1030.784294	0.072377
1030.952863	0.070760
1031.121413	0.070667
1031.289945	0.069469
1031.458460	0.070606
1031.626955	0.071355
1031.795433	0.071553
1031.963892	0.073758
1032.132334	0.073387
1032.300756	0.072715
1032.469161	0.074407
1032.637548	0.075108
1032.805916	0.075670
1032.974266	0.075621
1033.142598	0.075196
1033.310911	0.074452
1033.479207	0.074675
1033.647484	0.075216
1033.815743	0.076250
1033.983983	0.076461
1034.152206	0.076683
1034.320410	0.076807
1034.488596	0.077352
1034.656764	0.079158
1034.824914	0.080363
1034.993045	0.078512
1035.161158	0.078695
1035.329253	0.078792
1035.497330	0.078431
1035.665388	0.077836
1035.833428	0.078589
1036.001450	0.076460
1036.169454	0.074256
1036.337440	0.074089
1036.505407	0.075169
1036.673356	0.075394
1036.841287	0.075975
1037.009200	0.076060
1037.177094	0.075185
1037.344970	0.073209
1037.512828	0.074667
1037.680668	0.074765
1037.848489	0.076018
1038.016293	0.074595
1038.184078	0.074650
1038.351845	0.073583
1038.519593	0.073521
1038.687324	0.073347
1038.855036	0.074548
1039.022730	0.074659
1039.190406	0.073845
1039.358063	0.070971
1039.525702	0.072185
1039.693323	0.070544
1039.860926	0.070289
1040.028511	0.069769
1040.196077	0.070871
1040.363625	0.071298
1040.531155	0.072302
1040.698667	0.073452
1040.866161	0.075952
1041.033636	0.074236
1041.201093	0.075275
1041.368532	0.076000
1041.535952	0.076688
1041.703355	0.077521
1041.870739	0.077836
1042.038105	0.077537
1042.205452	0.079673
1042.372782	0.078418
1042.540093	0.080570
1042.707386	0.080987
1042.874661	0.080988
1043.041918	0.081804
1043.209156	0.082508
1043.376376	0.080827
1043.543578	0.081030
1043.710762	0.079624
1043.877927	0.080841
1044.045074	0.080805
1044.212203	0.082085
1044.379314	0.080538
1044.546407	0.078876
1044.713481	0.077053
1044.880537	0.078814
1045.047575	0.077906
1045.214595	0.077799
1045.381596	0.077287
1045.548579	0.077135
1045.715544	0.075609
1045.882491	0.077231
1046.049420	0.077281
1046.216330	0.078457
1046.383222	0.079494
1046.550096	0.078953
1046.716951	0.078864
1046.883789	0.079024
1047.050608	0.079130
1047.217409	0.079278
1047.384192	0.079526
1047.550956	0.079691
1047.717703	0.078061
1047.884431	0.074335
1048.051140	0.075251
1048.217832	0.075424
1048.384505	0.073971
1048.551161	0.074507
1048.717798	0.073913
1048.884416	0.072362
1049.051017	0.075661
1049.217599	0.076142
1049.384163	0.078202
1049.550709	0.078751
1049.717237	0.077637
1049.883746	0.077019
1050.050237	0.076065
1050.216710	0.076755
1050.383165	0.078204
1050.549601	0.075439
1050.716019	0.075677
1050.882420	0.075444
1051.048801	0.073641
1051.215165	0.074483
1051.381510	0.076947
1051.547837	0.077412
1051.714146	0.077583
1051.880437	0.078657
1052.046709	0.080139
1052.212964	0.080315
1052.379200	0.082118
1052.545417	0.082970
1052.711617	0.082304
1052.877798	0.080705
1053.043961	0.081428
1053.210106	0.081118
1053.376233	0.080124
1053.542341	0.078594
1053.708432	0.079548
1053.874504	0.078587
1054.040557	0.078127
1054.206593	0.078100
1054.372610	0.076335
1054.538609	0.075707
1054.704590	0.075460
1054.870553	0.074180
1055.036497	0.074635
1055.202424	0.073537
1055.368331	0.070974
1055.534221	0.072600
1055.700093	0.073797
1055.865946	0.076359
1056.031781	0.073928
1056.197598	0.073681
1056.363397	0.074701
1056.529177	0.073258
1056.694939	0.072599
1056.860683	0.074426
1057.026409	0.074162
1057.192116	0.072707
1057.357806	0.072323
1057.523477	0.073824
1057.689130	0.074237
1057.854764	0.074332
1058.020381	0.075109
1058.185979	0.076064
1058.351559	0.076374
1058.517120	0.076839
1058.682664	0.078191
1058.848189	0.078953
1059.013696	0.080098
1059.179185	0.081229
1059.344656	0.081908
1059.510108	0.082374
1059.675542	0.083542
1059.840958	0.084216
1060.006356	0.082665
1060.171735	0.081520
1060.337096	0.081741
1060.502439	0.082395
1060.667764	0.081303
1060.833071	0.080299
1060.998359	0.080808
1061.163629	0.080170
1061.328881	0.081755
1061.494115	0.082830
1061.659330	0.084511
1061.824527	0.083637
1061.989706	0.083910
1062.154867	0.085513
1062.320010	0.087620
1062.485134	0.088678
1062.650240	0.088738
1062.815328	0.086667
1062.980398	0.086241
1063.145449	0.088544
1063.310482	0.089370
1063.475497	0.086953
1063.640494	0.084478
1063.805473	0.084591
1063.970433	0.084524
1064.135375	0.084099
1064.300299	0.085427
1064.465204	0.085165
1064.630092	0.084136
1064.794961	0.084596
1064.959812	0.086578
1065.124645	0.089515
1065.289459	0.088892
1065.454256	0.089022
1065.619034	0.089430
1065.783793	0.087639
1065.948535	0.088742
1066.113258	0.084987
1066.277964	0.084612
1066.442651	0.086148
1066.607319	0.085199
1066.771970	0.086016
1066.936602	0.086615
1067.101216	0.086829
1067.265812	0.087902
1067.430389	0.088463
1067.594949	0.090335
1067.759490	0.091506
1067.924013	0.089863
1068.088518	0.088835
1068.253004	0.085227
1068.417472	0.082640
1068.581922	0.084491
1068.746354	0.085182
1068.910768	0.083082
1069.075163	0.085580
1069.239540	0.085763
1069.403899	0.085929
1069.568240	0.085839
1069.732562	0.089024
1069.896866	0.089211
1070.061152	0.088082
1070.225420	0.088553
1070.389670	0.091603
1070.553901	0.090023
1070.718114	0.090468
1070.882309	0.090240
1071.046486	0.092310
1071.210644	0.090073
1071.374784	0.088692
1071.538906	0.088054
1071.703010	0.088832
1071.867096	0.088847
1072.031163	0.087928
1072.195212	0.087331
1072.359243	0.086140
1072.523256	0.084543
1072.687250	0.087070
1072.851226	0.088647
1073.015184	0.088056
1073.179124	0.083284
1073.343045	0.083593
1073.506949	0.081817
1073.670834	0.080790
1073.834701	0.082730
1073.998549	0.085353
1074.162380	0.082496
1074.326192	0.082424
1074.489986	0.083418
1074.653761	0.084863
1074.817519	0.082721
1074.981258	0.086178
1075.144979	0.087066
1075.308682	0.086187
1075.472367	0.084361
1075.636033	0.087329
1075.799681	0.088117
1075.963311	0.086731
1076.126923	0.087223
1076.290516	0.087596
1076.454092	0.085312
1076.617649	0.085692
1076.781187	0.085131
1076.944708	0.084472
1077.108210	0.082608
1077.271695	0.083884
1077.435160	0.084968
1077.598608	0.086773
1077.762038	0.088023
1077.925449	0.091271
1078.088842	0.090837
1078.252217	0.093844
1078.415573	0.095392
1078.578912	0.098482
1078.742232	0.096788
1078.905534	0.094983
1079.068817	0.094375
1079.232083	0.095115
1079.395330	0.093801
1079.558559	0.094485
1079.721770	0.092512
1079.884962	0.091137
1080.048136	0.090886
1080.211293	0.093398
1080.374430	0.095635
1080.537550	0.095605
1080.700651	0.093339
1080.863735	0.094334
1081.026800	0.094457
1081.189846	0.096494
1081.352875	0.099408
1081.515885	0.100688
1081.678877	0.099927
1081.841851	0.100645
1082.004807	0.101413
1082.167744	0.102102
1082.330663	0.101781
1082.493564	0.101960
1082.656447	0.097863
1082.819312	0.095899
1082.982158	0.094844
1083.144986	0.095358
1083.307796	0.094673
1083.470587	0.093487
1083.633361	0.092573
1083.796116	0.091905
1083.958853	0.091504
1084.121571	0.095840
1084.284272	0.095254
1084.446954	0.092203
1084.609618	0.090221
1084.772264	0.090410
1084.934892	0.092675
1085.097501	0.093293
1085.260092	0.094152
1085.422665	0.095196
1085.585220	0.092714
1085.747756	0.092058
1085.910274	0.092691
1086.072774	0.092145
1086.235256	0.093726
1086.397720	0.094309
1086.560165	0.097625
1086.722592	0.096853
1086.885001	0.097122
1087.047392	0.098521
1087.209764	0.101996
1087.372119	0.105934
1087.534455	0.104632
1087.696772	0.104658
1087.859072	0.102236
1088.021353	0.099419
1088.183616	0.100603
1088.345861	0.098377
1088.508088	0.099182
1088.670296	0.098931
1088.832486	0.096819
1088.994658	0.102823
1089.156812	0.099770
1089.318948	0.100280
1089.481065	0.101106
1089.643164	0.101528
1089.805245	0.104786
1089.967308	0.101821
1090.129352	0.099722
1090.291378	0.098983
1090.453386	0.097583
1090.615376	0.098011
1090.777347	0.100048
1090.939301	0.097565
1091.101236	0.097375
1091.263153	0.096453
1091.425051	0.099273
1091.586932	0.098958
1091.748794	0.099022
1091.910638	0.097972
1092.072463	0.098835
1092.234271	0.095545
1092.396060	0.097503
1092.557831	0.098505
1092.719584	0.096138
1092.881319	0.097732
1093.043035	0.096328
1093.204733	0.094976
1093.366413	0.096355
1093.528075	0.096446
1093.689718	0.099687
1093.851343	0.100117
1094.012950	0.101027
1094.174539	0.104722
1094.336110	0.106163
1094.497662	0.109790
1094.659196	0.111177
1094.820712	0.108226
1094.982210	0.110663
1095.143689	0.111511
1095.305151	0.112780
1095.466594	0.109462
1095.628018	0.109547
1095.789425	0.105005
1095.950813	0.105004
1096.112183	0.106172
1096.273535	0.108213
1096.434869	0.107964
1096.596184	0.107135
1096.757482	0.106789
1096.918761	0.109407
1097.080021	0.109592
1097.241264	0.113258
1097.402488	0.111224
1097.563694	0.111687
1097.724882	0.111921
1097.886052	0.109947
1098.047203	0.106512
1098.208336	0.107125
1098.369451	0.108342
1098.530548	0.107461
1098.691627	0.103937
1098.852687	0.104757
1099.013729	0.104782
1099.174753	0.105210
1099.335758	0.108238
1099.496746	0.111161
1099.657715	0.112726
1099.818666	0.110709
1099.979599	0.110732
1100.140513	0.111703
1100.301409	0.114211
1100.462287	0.112218
1100.623147	0.113750
1100.783989	0.113873
1100.944812	0.113325
1101.105617	0.107903
1101.266404	0.109415
1101.427173	0.107447
1101.587923	0.107804
1101.748656	0.109442
1101.909370	0.111385
1102.070066	0.107509
1102.230743	0.101285
1102.391403	0.104066
1102.552044	0.104231
1102.712667	0.101676
1102.873271	0.103025
1103.033858	0.101665
1103.194426	0.100169
1103.354976	0.102262
1103.515508	0.105180
1103.676021	0.107702
1103.836517	0.106165
1103.996994	0.109279
1104.157453	0.111098
1104.317893	0.112690
1104.478316	0.112798
1104.638720	0.112740
1104.799106	0.113365
1104.959474	0.116052
1105.119823	0.119026
1105.280155	0.118040
1105.440468	0.117428
1105.600763	0.120021
1105.761039	0.117603
1105.921298	0.115458
1106.081538	0.119848
1106.241760	0.122983
1106.401964	0.118536
1106.562149	0.118805
1106.722316	0.118406
1106.882465	0.119135
1107.042596	0.117236
1107.202709	0.114766
1107.362803	0.116945
1107.522879	0.115737
1107.682937	0.110255
1107.842977	0.112962
1108.002999	0.112750
1108.163002	0.115312
1108.322987	0.113808
1108.482954	0.110933
1108.642902	0.115037
1108.802833	0.114475
1108.962745	0.111645
1109.122639	0.111420
1109.282515	0.112189
1109.442372	0.113268
1109.602211	0.113009
1109.762032	0.112911
1109.921835	0.120003
1110.081620	0.123041
1110.241386	0.125635
1110.401134	0.125808
1110.560864	0.127898
1110.720576	0.130089
1110.880269	0.124280
1111.039945	0.121889
1111.199602	0.122493
1111.359240	0.117310
1111.518861	0.115143
1111.678463	0.116819
1111.838047	0.118441
1111.997613	0.113403
1112.157161	0.110679
1112.316690	0.116168
1112.476202	0.122508
1112.635695	0.125072
1112.795169	0.126847
1112.954626	0.126583
1113.114064	0.128959
1113.273484	0.127398
1113.432886	0.129637
1113.592270	0.128846
1113.751635	0.124239
1113.910983	0.118775
1114.070312	0.120734
1114.229622	0.123226
1114.388915	0.118794
1114.548189	0.113388
1114.707445	0.116421
1114.866683	0.117598
1115.025903	0.119011
1115.185104	0.125902
1115.344287	0.125964
1115.503452	0.123526
1115.662599	0.121242
1115.821727	0.126804
1115.980838	0.125115
1116.139930	0.117913
1116.299004	0.116172
1116.458059	0.120463
1116.617097	0.117493
1116.776116	0.119281
1116.935117	0.121040
1117.094099	0.118203
1117.253064	0.120933
1117.412010	0.129333
1117.570938	0.136485
1117.729848	0.142315
1117.888740	0.140855
1118.047613	0.143398
1118.206468	0.141201
1118.365305	0.140678
1118.524124	0.147720
1118.682924	0.145460
1118.841707	0.139535
1119.000471	0.136158
1119.159216	0.130763
1119.317944	0.122632
1119.476653	0.118473
1119.635344	0.117934
1119.794017	0.114739
1119.952672	0.112925
1120.111308	0.110972
1120.269927	0.110507
1120.428527	0.110573
1120.587108	0.115495
1120.745672	0.116972
1120.904217	0.122586
1121.062744	0.124439
1121.221253	0.127458
1121.379744	0.122564
1121.538216	0.123009
1121.696671	0.124730
1121.855107	0.121854
1122.013524	0.118288
1122.171924	0.115876
1122.330305	0.114754
1122.488668	0.117545
1122.647013	0.115881
1122.805340	0.119772
1122.963648	0.120848
1123.121938	0.118611
1123.280210	0.122879
1123.438464	0.124466
1123.596700	0.127789
1123.754917	0.130232
1123.913116	0.127092
1124.071297	0.127260
1124.229459	0.123658
1124.387604	0.121881
1124.545730	0.129145
1124.703838	0.133202
1124.861928	0.130990
1125.019999	0.131139
1125.178052	0.125573
1125.336088	0.126477
1125.494104	0.128186
1125.652103	0.127538
1125.810083	0.132799
1125.968045	0.123680
1126.125989	0.118538
1126.283915	0.121366
1126.441823	0.121266
1126.599712	0.120234
1126.757583	0.125027
1126.915436	0.127051
1127.073270	0.128232
1127.231087	0.126626
1127.388885	0.138533
1127.546665	0.138958
1127.704426	0.136354
1127.862170	0.141120
1128.019895	0.143728
1128.177602	0.137637
1128.335291	0.134737
1128.492961	0.138547
1128.650614	0.135132
1128.808248	0.124795
1128.965864	0.126371
1129.123461	0.134032
1129.281041	0.130131
1129.438602	0.131045
1129.596145	0.133648
1129.753670	0.134039
1129.911176	0.138520
1130.068665	0.137751
1130.226135	0.140815
1130.383587	0.132565
1130.541020	0.130432
1130.698436	0.141319
1130.855833	0.139423
1131.013212	0.137076
1131.170573	0.136099
1131.327915	0.127544
1131.485239	0.131912
1131.642545	0.135736
1131.799833	0.144648
1131.957103	0.140264
1132.114354	0.134928
1132.271588	0.140450
1132.428803	0.140631
1132.585999	0.147715
1132.743178	0.147647
1132.900338	0.142778
1133.057480	0.143631
1133.214604	0.136517
1133.371710	0.141490
1133.528797	0.140128
1133.685866	0.137498
1133.842917	0.138398
1133.999950	0.133269
1134.156964	0.133655
1134.313960	0.136902
1134.470938	0.133710
1134.627898	0.137720
1134.784840	0.139052
1134.941763	0.134383
1135.098668	0.132127
1135.255555	0.133412
1135.412424	0.135579
1135.569274	0.140646
1135.726107	0.145208
1135.882921	0.150356
1136.039716	0.141774
1136.196494	0.134695
1136.353253	0.147315
1136.509995	0.152003
1136.666717	0.148952
1136.823422	0.148427
1136.980109	0.139640
1137.136777	0.136325
1137.293427	0.130119
1137.450059	0.140069
1137.606672	0.142830
1137.763267	0.133870
1137.919844	0.135085
1138.076403	0.141259
1138.232944	0.143490
1138.389466	0.153538
1138.545971	0.152204
1138.702457	0.160767
1138.858924	0.168223
1139.015374	0.174815
1139.171805	0.166384
1139.328218	0.160947
1139.484613	0.156260
1139.640990	0.154904
1139.797348	0.157160
1139.953688	0.157268
1140.110010	0.153562
1140.266314	0.145141
1140.422600	0.140234
1140.578867	0.142853
1140.735116	0.146834
1140.891347	0.153059
1141.047559	0.149900
1141.203754	0.138176
1141.359930	0.134270
1141.516088	0.135103
1141.672228	0.140386
1141.828349	0.139918
1141.984452	0.147163
1142.140537	0.142627
1142.296604	0.133122
1142.452653	0.129431
1142.608683	0.137124
1142.764695	0.141914
1142.920689	0.142058
1143.076665	0.142399
1143.232622	0.142842
1143.388562	0.147076
1143.544483	0.156170
1143.700385	0.158513
1143.856270	0.161449
1144.012136	0.163113
1144.167985	0.169328
1144.323814	0.171344
1144.479626	0.165403
1144.635420	0.158428
1144.791195	0.161784
1144.946952	0.156221
1145.102691	0.159286
1145.258411	0.166376
1145.414113	0.156657
1145.569798	0.141891
1145.725463	0.143088
1145.881111	0.145142
1146.036741	0.151824
1146.192352	0.145249
1146.347945	0.137820
1146.503519	0.136375
1146.659076	0.128907
1146.814614	0.136440
1146.970134	0.143718
1147.125636	0.149538
1147.281120	0.146014
1147.436585	0.153104
1147.592032	0.152756
1147.747461	0.161400
1147.902872	0.161150
1148.058265	0.158795
1148.213639	0.161585
1148.368995	0.162541
1148.524333	0.152017
1148.679653	0.163405
1148.834954	0.152464
1148.990237	0.149058
1149.145502	0.150589
1149.300749	0.151008
1149.455977	0.155277
1149.611188	0.150513
1149.766380	0.148316
1149.921553	0.142519
1150.076709	0.144093
1150.231846	0.151407
1150.386966	0.154788
1150.542066	0.156287
1150.697149	0.164580
1150.852214	0.174750
1151.007260	0.180431
1151.162288	0.180704
1151.317298	0.181894
1151.472289	0.176852
1151.627263	0.171888
1151.782218	0.168371
1151.937155	0.167731
1152.092073	0.166155
1152.246974	0.163385
1152.401856	0.161660
1152.556720	0.151538
1152.711566	0.153414
1152.866393	0.136898
1153.021203	0.138948
1153.175994	0.145872
1153.330767	0.135872
1153.485521	0.124557
1153.640258	0.115789
1153.794976	0.108521
1153.949676	0.120815
1154.104358	0.125108
1154.259021	0.147217
1154.413667	0.141615
1154.568294	0.140433
1154.722903	0.142391
1154.877493	0.151917
1155.032066	0.154945
1155.186620	0.160551
1155.341156	0.163846
1155.495674	0.159818
1155.650173	0.154431
1155.804654	0.159755
1155.959118	0.152715
1156.113562	0.153864
1156.267989	0.157974
1156.422397	0.153600
1156.576788	0.162718
1156.731160	0.164595
1156.885513	0.167858
1157.039849	0.168879
1157.194166	0.158729
1157.348465	0.157502
1157.502746	0.154747
1157.657009	0.158698
1157.811253	0.161268
1157.965479	0.149849
1158.119687	0.143383
1158.273877	0.138466
1158.428048	0.131953
1158.582201	0.137863
1158.736337	0.143906
1158.890453	0.160128
1159.044552	0.136467
1159.198632	0.142740
1159.352694	0.148254
1159.506738	0.158850
1159.660764	0.163800
1159.814771	0.174552
1159.968761	0.171247
1160.122732	0.174118
1160.276685	0.148761
1160.430619	0.153811
1160.584535	0.149404
1160.738434	0.150764
1160.892313	0.145650
1161.046175	0.147398
1161.200019	0.140619
1161.353844	0.146104
1161.507651	0.140144
1161.661440	0.144710
1161.815210	0.158517
1161.968962	0.169206
1162.122697	0.172374
1162.276412	0.159198
1162.430110	0.159837
1162.583789	0.152626
1162.737451	0.156501
1162.891094	0.151775
1163.044718	0.147394
1163.198325	0.143262
1163.351913	0.136141
1163.505483	0.130638
1163.659035	0.138844
1163.812569	0.141651
1163.966084	0.148089
1164.119581	0.152464
1164.273060	0.162431
1164.426521	0.169415
1164.579964	0.168178
1164.733388	0.167221
1164.886794	0.157167
1165.040182	0.161446
1165.193551	0.145348
1165.346903	0.149368
1165.500236	0.142420
1165.653551	0.132672
1165.806848	0.142269
1165.960126	0.150747
1166.113386	0.152647
1166.266628	0.168125
1166.419852	0.166160
1166.573058	0.166843
1166.726245	0.171522
1166.879414	0.186104
1167.032565	0.194854
1167.185698	0.188215
1167.338812	0.185546
1167.491909	0.177216
1167.644987	0.156258
1167.798046	0.142983
1167.951088	0.158634
1168.104111	0.165631
1168.257117	0.150901
1168.410103	0.137660
1168.563072	0.147050
1168.716023	0.141824
1168.868955	0.154371
1169.021869	0.163913
1169.174765	0.176429
1169.327642	0.177045
1169.480501	0.160074
1169.633343	0.160323
1169.786165	0.161572
1169.938970	0.168036
1170.091757	0.176469
1170.244525	0.142804
1170.397275	0.144991
1170.550007	0.146121
1170.702720	0.136205
1170.855415	0.145321
1171.008092	0.137040
1171.160751	0.140632
1171.313392	0.124246
1171.466014	0.280423
1171.618619	0.092477
1171.771205	0.092477
1171.923772	0.092477
