sample name	sample
index	261
start time	 02-25-2021  10:56:51 AM
880	0.442144
Peak Time (s)	92.537
Peak Height 	0.4421
calc peak height	90,93
Baseline Time (s)	10.54
Baseline Value 	-0.003626
subtract baseline	10,4
Abs	0.300076
Peak Time (s)	92.04
Peak Height 	0.3001
calc peak height	90,93
Baseline Time (s)	11.537
Baseline Value 	0.004558
subtract baseline	10,3
PK_550	0.132623
Peak Time (s)	90.035
Peak Height 	0.1326
calc peak height	90,93
Baseline Time (s)	11.037
Baseline Value 	1.291E-4
subtract baseline	10,2
PK_880	0.280870
Peak Time (s)	92.04
Peak Height 	0.2809
calc peak height	90,93
Baseline Time (s)	9.537
Baseline Value 	0.00166
subtract baseline	10,1


Time (s)	A880-A510	A880-A775	A880-A975	A880	I510	I775	I975	I880	
0.036000	0.000780	-0.000369	0.000532	-0.000220	6885.520174	46197.220130	3955.126643	24330.788156
0.536500	-0.001015	0.000593	0.000504	0.003711	6831.917685	45901.661372	3944.305982	24136.558446
1.039000	-0.002830	-0.000119	-0.003410	0.005719	6796.534118	45632.664725	3928.307625	24038.062711
1.540000	-0.000066	-0.000010	-0.002791	-0.000601	6881.141102	46271.263057	3947.075591	24349.690646
2.037500	-0.000556	0.000621	0.001112	0.000030	6870.600402	46271.268715	3956.031691	24318.366273
2.535000	0.002032	0.000499	0.001386	-0.000192	6897.067917	46281.270593	3957.395573	24329.404026
3.035000	-0.003603	0.000853	-0.002685	0.005462	6791.779148	45754.033743	3930.947029	24050.654371
3.535500	0.001531	0.000730	-0.000155	0.000478	6886.015345	46237.252546	3951.329751	24296.149898
4.036000	-0.000705	0.000373	-0.002644	0.000398	6865.753334	46209.629679	3944.757602	24300.137926
4.536000	0.001105	0.000074	-0.002805	0.000131	6885.272242	46206.403155	3945.043110	24313.349968
5.036000	0.000708	0.000175	-0.001346	0.001842	6865.457723	46045.840478	3944.358501	24228.700343
5.536500	0.000455	0.000272	-0.003802	-0.000313	6883.324709	46270.595339	3943.540451	24335.375157
6.037000	0.000510	-0.000197	0.000699	-0.000490	6885.518345	46241.442176	3956.325238	24344.172777
6.537000	0.000158	0.000380	-0.002207	-0.000076	6878.302834	46257.727401	3947.239156	24323.641486
7.037500	-0.000381	-0.000175	0.001147	-0.000518	6877.400438	46246.407556	3957.634724	24345.584640
7.535000	-0.001186	0.000313	0.001007	0.000170	6863.379653	46226.503885	3955.360389	24311.448091
8.034500	0.000432	0.000084	-0.004993	-0.000279	6882.794012	46248.439400	3940.215319	24333.700958
8.535500	-0.000371	-0.000026	-0.001080	-0.000549	6877.786268	46264.514803	3951.610748	24347.130213
9.035500	-0.000343	-0.000303	-0.003763	-0.000825	6880.642423	46264.405506	3945.040097	24360.840061
9.536500	0.000000	-0.000457	-0.004732	-0.000896	6884.536500	46256.069423	3942.596568	24364.352211
10.036500	0.000860	0.000503	0.000970	0.000115	6883.107213	46250.926759	3955.408467	24314.143014
10.539500	0.001209	0.000558	0.001909	0.000000	6887.487074	46267.948934	3958.305579	24319.867358
11.037000	-0.002432	0.000000	0.000063	0.004037	6815.746150	45810.577869	3942.223529	24120.558562
11.537500	0.001607	0.000996	0.000000	0.000018	6891.069236	46310.010851	3953.014153	24318.969478
12.035000	0.000002	0.000078	0.001448	-0.000348	6879.396391	46254.760814	3957.995283	24337.131683
12.535000	0.001148	0.000035	-0.001450	-0.000711	6893.614563	46286.740011	3951.040043	24355.154852
13.035500	-0.000300	-0.000103	-0.009003	0.003424	6841.253363	45861.129220	3919.491644	24150.698056
13.535500	0.000160	0.000280	0.001153	-0.000786	6885.008944	46318.892464	3958.389806	24358.910688
14.036000	0.001488	0.000437	0.003299	-0.000248	6892.454847	46280.576106	3962.821801	24332.150572
14.536500	-0.001393	0.000348	-0.003781	0.002294	6841.590872	46018.113441	3936.530883	24206.371192
15.036500	0.000482	0.000400	0.001345	-0.000371	6884.126756	46289.199154	3957.775739	24338.264489
15.561000	0.000698	0.000718	0.000672	-0.000447	6886.886663	46328.689629	3956.133046	24342.045834
16.037500	0.000153	-0.000115	0.003204	-0.001139	6888.270396	46314.641420	3965.025817	24376.460240
16.537500	-0.000199	0.000397	-0.001720	-0.000362	6877.643429	46288.050159	3949.348652	24337.845886
17.035000	-0.002300	-0.000595	-0.004417	0.004697	6810.861631	45686.533734	3928.348800	24088.161216
17.535500	0.001733	0.000991	-0.003297	-0.002536	6916.439983	46566.140877	3950.980759	24446.051289
18.035500	0.002031	-0.000028	-0.002376	-0.001441	6908.877476	46353.585249	3950.504419	24391.466317
18.536000	-0.001962	-0.000157	-0.002777	0.000710	6851.067808	46125.609722	3943.548197	24284.702562
19.036000	-0.000872	-0.000030	-0.003191	0.001094	6857.666752	46099.971897	3941.377833	24265.669529
19.536500	-0.000095	0.000357	0.000859	0.001476	6861.357810	46100.373633	3951.372045	24246.758585
20.039500	-0.000190	0.000133	0.001183	0.001549	6859.796404	46070.837081	3952.061990	24243.167921
20.537000	0.001195	-0.000003	-0.004096	0.001419	6874.000988	46070.255241	3938.044284	24249.577833
21.036500	-0.001377	-0.000713	-0.001274	0.001420	6849.895543	45999.500033	3945.704652	24249.535963
21.537000	0.002085	0.000613	0.000393	0.001888	6877.964040	46084.909899	3948.976370	24226.443515
22.035500	-0.000203	0.000104	-0.002472	0.001079	6864.080067	46114.858222	3943.372530	24266.427320
22.535000	0.000456	0.000138	-0.003389	0.001216	6868.966217	46104.455944	3940.508779	24259.611077
23.036000	-0.001663	0.000308	0.003130	0.002805	6834.321851	45963.313719	3953.952854	24181.160980
23.536000	-0.000561	0.000137	-0.002262	0.001116	6860.369443	46114.386502	3943.840384	24264.557506
24.036500	-0.000758	-0.000481	-0.002799	0.000798	6861.505245	46084.440157	3943.247438	24280.309526
24.537000	-0.000073	0.000073	-0.002943	0.000801	6867.891287	46139.364904	3942.847803	24280.148594
25.037000	-0.000692	-0.000294	-0.002772	0.001734	6853.368513	46009.951109	3940.780309	24234.042996
25.537000	-0.000850	-0.000691	-0.001411	0.000337	6864.961316	46109.571765	3948.282070	24303.162772
26.034500	0.001473	0.000503	-0.000867	0.001769	6873.322412	46085.794964	3945.861900	24232.281201
26.534500	-0.000211	0.000353	-0.001494	0.001134	6863.481237	46134.100036	3945.882711	24263.680866
27.035500	0.000021	-0.000161	0.002046	0.002094	6856.665983	45987.432032	3952.933454	24216.262032
27.536000	0.000102	0.000407	0.000964	0.001916	6859.094310	46061.571896	3950.457615	24225.035380
28.035500	0.002501	0.000502	0.000087	-0.001684	6915.640752	46431.154208	3957.929097	24403.580930
28.536000	-0.000160	-0.000088	0.001642	-0.000758	6881.727334	46279.164353	3959.658943	24357.496115
29.071500	0.002910	0.000825	0.001434	0.000068	6902.910614	46287.872325	3956.813455	24316.498146
29.539000	0.000970	0.000176	-0.002158	-0.000532	6890.246289	46282.993811	3948.616034	24346.275532
30.037500	0.000918	0.000115	-0.003483	-0.000603	6890.425148	46283.976124	3945.196829	24349.785039
30.537000	-0.000150	0.000240	0.001209	-0.000104	6875.679443	46246.516999	3956.668962	24325.040325
31.035500	-0.003097	0.000569	-0.000697	0.005535	6795.767201	45718.692760	3936.108716	24047.068701
31.539500	0.001037	-0.000342	-0.003558	0.002067	6866.435368	45972.035846	3937.748861	24217.574994
32.036000	-0.001651	-0.000232	0.003361	0.001951	6842.391486	45994.619358	3956.936516	24223.333570
32.560500	0.001722	0.000465	0.005583	-0.000193	6894.149903	46277.923401	3968.998222	24329.445781
33.036000	-0.002858	0.000815	0.002126	0.006158	6792.228221	45681.460980	3942.064921	24016.561921
33.536500	0.004176	0.001179	0.000672	0.000302	6912.686225	46299.841668	3954.076293	24304.880736
34.042000	0.003065	0.000544	0.000515	0.000308	6902.105059	46235.782602	3953.631438	24304.602763
34.537000	-0.000123	-0.000441	-0.003046	-0.001080	6885.103314	46275.994756	3947.688143	24373.481327
35.037000	-0.002520	-0.000780	-0.004403	0.003887	6816.325909	45748.285472	3930.562955	24127.930572
35.537000	-0.000259	-0.000184	-0.001756	0.001928	6855.598711	46001.590233	3943.008890	24224.431815
36.035000	0.001449	0.000513	0.000547	0.002509	6866.153592	46013.116897	3947.699194	24195.760252
36.535000	0.000363	0.000684	0.003621	0.002819	6853.081054	45999.274482	3955.263234	24180.475052
37.036000	-0.001336	0.000372	0.001100	0.002565	6839.608061	45993.523995	3949.057516	24193.029714
37.536000	0.000401	-0.001117	-0.003394	0.001071	6869.810805	45994.019793	3940.891579	24266.816472
38.036000	0.002397	0.001209	-0.002566	0.002808	6872.243875	46052.678051	3938.428891	24181.040748
38.536500	-0.002086	-0.000325	-0.001658	0.001541	6842.155956	46026.115922	3944.329874	24243.585683
39.037000	-0.000898	-0.000019	-0.000046	0.001755	6851.250273	46035.216531	3948.138713	24233.002598
39.537000	0.000749	0.000415	-0.002659	0.002426	6860.368356	46011.580649	3939.208382	24199.847997
40.037000	0.000070	0.000152	-0.000663	0.002216	6855.980342	46006.356613	3945.199910	24210.206596
40.535000	-0.000955	-0.000058	0.001125	0.001563	6852.500999	46050.402126	3951.863343	24242.470955
41.034500	0.000158	-0.000385	0.001772	0.001614	6862.445735	46012.805121	3953.498376	24239.964246
41.535500	-0.000184	0.001504	-0.002921	0.003267	6843.793599	46036.314952	3936.226303	24158.417678
42.035500	0.000167	0.000501	-0.004300	0.002033	6858.609415	46059.395470	3935.834931	24219.284747
42.538500	-0.000181	0.001056	0.000919	0.002644	6849.629182	46053.717805	3948.345107	24189.094593
43.036000	-0.001179	0.000427	-0.004168	0.001644	6849.660655	46090.686845	3937.244721	24238.491558
43.538500	-0.000375	-0.000280	-0.000820	0.001334	6860.071659	46051.101081	3947.175448	24253.788551
44.037000	-0.001376	0.000256	-0.006775	0.002033	6844.184420	46034.925977	3929.168193	24219.242725
44.537000	0.000202	0.000162	-0.000843	0.001852	6860.626367	46043.570814	3945.700142	24228.182206
45.034500	-0.000261	0.000314	-0.002005	0.002906	6846.442633	45953.895091	3939.681124	24176.203484
45.534500	0.002213	0.000418	0.003469	-0.000242	6899.253351	46278.152614	3963.277794	24331.897262
46.035000	0.002272	0.000618	-0.001827	0.000097	6896.596363	46264.221758	3947.803252	24315.043987
46.535500	0.001218	-0.000218	0.002925	-0.000495	6892.241946	46239.892049	3962.474685	24344.446930
47.036000	-0.002893	0.000258	-0.005283	0.006116	6792.290278	45630.559327	3922.230751	24018.610594
47.536000	0.001003	0.000067	-0.001915	-0.000553	6890.752973	46274.091178	3949.337532	24347.301281
48.037000	0.002848	0.000685	-0.000690	-0.000021	6903.167687	46282.769505	3951.231253	24320.915851
48.548000	0.000802	-0.000578	-0.004211	-0.000509	6888.449304	46205.252622	3942.960054	24345.120676
49.035500	-0.002456	-0.000395	-0.001414	0.004281	6813.272368	45747.345108	3937.559527	24108.579585
49.537500	0.000624	0.001136	-0.001425	0.002452	6858.951421	46080.747864	3942.485970	24198.560338
50.044500	0.001033	0.000151	0.003460	-0.000331	6888.946946	46260.304610	3963.498147	24336.268851
50.535000	0.002884	0.001879	0.003141	0.000700	6896.686582	46330.085013	3959.771796	24285.151907
51.036000	-0.000710	0.000284	-0.000027	0.006036	6813.185310	45641.129422	3936.565294	24022.547305
51.535500	0.002431	-0.000092	-0.000115	-0.002819	6925.760294	46485.553952	3960.498183	24460.163074
52.036000	0.001992	0.000139	0.005883	-0.000007	6894.938808	46226.728795	3969.314008	24320.222492
52.536000	-0.003425	-0.002737	0.000288	0.001833	6826.975308	45757.844616	3948.836474	24229.136513
53.039000	-0.032417	-0.017933	0.007104	0.293743	4720.158646	23984.920866	3378.038509	13730.954387
53.537000	-0.015920	-0.017119	-0.009640	-0.037734	7086.394484	48322.069202	4032.597128	26275.302579
54.034500	-0.032479	-0.100128	-0.036896	-0.260054	9687.987385	65535.000000	4752.483224	41982.956149
54.534500	-0.047573	-0.212321	-0.036653	-0.372246	11415.308103	65535.000000	5340.391503	53539.562189
55.035000	-0.039456	-0.136321	-0.014322	-0.296247	10167.750569	65535.000000	5040.771727	45390.294142
55.535000	-0.032130	-0.131210	-0.005445	-0.291136	10205.444178	65535.000000	5060.605897	44891.691675
56.035500	-0.023630	-0.095527	-0.005592	-0.255387	9754.715328	65525.498626	4878.333817	41563.971567
56.535500	-0.017775	-0.099054	-0.010464	-0.258979	9907.793582	65535.000000	4872.107579	41886.120920
57.036000	-0.000780	-0.084749	-0.003148	-0.244673	9951.967060	65534.705180	4838.434365	40618.804882
57.536500	0.009047	-0.061837	0.003668	-0.215201	9635.385813	64594.413134	4732.932531	38136.016490
58.036500	0.014576	-0.031004	0.011694	-0.162155	8926.320177	61513.772686	4538.943588	34070.576474
58.536500	0.023006	-0.015173	0.019992	-0.115764	8413.048082	57524.824371	4389.802421	30900.239955
59.037000	0.031597	-0.004293	0.030052	-0.057295	7803.352429	51845.930919	4218.200520	27357.845746
59.537500	0.042264	0.000763	0.040038	-0.000209	7295.534286	46309.456495	4068.628836	24330.249358
60.035500	0.055596	0.010218	0.054915	0.042152	7004.460646	43135.174139	3988.558401	22327.275194
60.535000	0.069132	0.016898	0.069446	0.078669	6787.436293	40457.741898	3928.056682	20750.678648
61.035500	0.084428	0.025779	0.086440	0.129090	6477.154426	37023.434267	3841.741143	18780.596632
61.535000	0.103685	0.035393	0.110312	0.173941	6266.345409	34357.023919	3790.865124	17210.370682
62.038000	0.129451	0.049025	0.139807	0.218833	6116.740767	32166.037024	3755.061671	15793.011776
62.539000	0.150303	0.062119	0.168132	0.263136	5942.062570	30130.394300	3719.223429	14530.763476
63.036500	0.171976	0.075224	0.188868	0.295403	5866.191594	28951.109522	3694.166188	13689.184879
63.537000	0.195332	0.091154	0.209057	0.324147	5828.310183	28191.036282	3676.000032	12990.363884
64.036500	0.201079	0.096236	0.218009	0.326654	5851.031648	28341.984241	3689.651326	12931.581345
64.534500	0.209535	0.101528	0.222938	0.338323	5828.495020	27969.787824	3675.380267	12662.388185
65.043000	0.215767	0.105674	0.231506	0.346341	5816.042460	27746.466688	3676.536258	12481.563391
65.555500	0.221414	0.109970	0.230771	0.351547	5819.110873	27694.264647	3664.123821	12365.935355
66.038000	0.226710	0.112773	0.241896	0.357533	5814.308816	27512.561138	3674.851564	12234.679105
66.535500	0.228841	0.115044	0.248488	0.365502	5773.975412	27190.539202	3671.963988	12062.725122
67.039000	0.235972	0.117733	0.249855	0.368647	5801.452292	27164.931187	3668.248534	11995.724522
67.536500	0.239982	0.119726	0.251576	0.373538	5795.361416	27003.003101	3661.666247	11892.503361
68.036500	0.241148	0.120664	0.261868	0.378403	5769.906230	26785.196940	3672.968136	11790.971797
68.537000	0.243410	0.123611	0.262364	0.387362	5724.360630	26455.605242	3655.404617	11606.937823
69.034500	0.243911	0.124612	0.255978	0.392926	5690.399138	26208.419616	3631.182485	11494.541589
69.535000	0.248580	0.126095	0.263129	0.391115	5733.939249	26386.600809	3649.285294	11530.966220
70.035000	0.253950	0.129014	0.268103	0.396606	5733.123318	26247.398015	3648.232758	11420.992316
70.536000	0.252924	0.130497	0.269156	0.404331	5674.485960	25912.927948	3634.735045	11268.603556
71.035500	0.252227	0.130738	0.267848	0.408565	5641.959388	25701.450178	3623.679364	11186.216449
71.536000	0.260617	0.132727	0.273159	0.406680	5710.153922	25906.588206	3638.060711	11222.797255
72.036000	0.262185	0.132323	0.274652	0.408240	5710.208666	25802.363311	3637.925772	11192.522101
72.537000	0.257837	0.133835	0.271984	0.415187	5635.332479	25516.426577	3618.766520	11058.988417
73.037000	0.260154	0.134695	0.271929	0.419303	5623.584780	25346.788560	3610.585779	10980.869777
73.537000	0.264991	0.136067	0.282775	0.415542	5680.162793	25614.690229	3639.580945	11052.204390
74.043000	0.263688	0.134936	0.281503	0.416579	5664.659261	25501.185208	3634.933692	11032.479892
74.535000	0.263926	0.134818	0.278824	0.423264	5622.357128	25148.463131	3616.331167	10906.386444
75.034500	0.264043	0.135603	0.281617	0.425678	5607.434392	25064.831322	3617.077384	10861.325752
75.535500	0.267979	0.135858	0.280500	0.421399	5661.162230	25298.428996	3623.318426	10941.371687
76.036000	0.267700	0.136164	0.286636	0.422291	5653.439788	25268.077527	3633.771247	10924.621680
76.539000	0.269765	0.137186	0.283053	0.424213	5654.382797	25221.552052	3622.801892	10888.634540
77.039000	0.267927	0.135901	0.285494	0.429576	5607.337008	24881.095804	3617.034109	10789.088960
77.537000	0.274201	0.137539	0.283916	0.426528	5668.388068	25120.570291	3619.930928	10845.516037
78.037000	0.269516	0.135714	0.284691	0.425033	5647.347824	25103.597464	3624.423102	10873.336798
78.537500	0.270986	0.136243	0.290191	0.425838	5651.722103	25089.466509	3633.787995	10858.351352
79.037500	0.268250	0.136586	0.284530	0.432563	5590.135949	24764.420473	3609.300186	10734.184024
79.535500	0.274611	0.137782	0.288315	0.428355	5659.022547	25039.321672	3625.021298	10811.651929
80.035000	0.274957	0.136635	0.292755	0.428039	5663.391885	24996.827843	3634.515208	10817.494306
80.535500	0.270681	0.134121	0.288340	0.432355	5607.176875	24650.614974	3617.166345	10737.989734
81.038000	0.272529	0.136195	0.285804	0.434070	5608.042363	24668.721506	3608.847739	10706.629808
81.536500	0.274347	0.134853	0.290524	0.428537	5656.083683	24880.678467	3629.056378	10808.292372
82.036500	0.274722	0.135133	0.290759	0.429015	5655.404169	24870.605159	3628.571466	10799.454112
82.537000	0.272399	0.134058	0.285050	0.434576	5603.924860	24536.041525	3606.395861	10697.388708
83.039500	0.275889	0.135575	0.292480	0.435737	5619.039054	24553.873580	3618.661326	10676.250149
83.534500	0.274615	0.135373	0.291294	0.430604	5644.252483	24802.168376	3626.473090	10770.152543
84.035000	0.274917	0.134911	0.292191	0.430894	5644.331142	24764.143688	3627.680550	10764.825173
84.535500	0.274054	0.133639	0.286198	0.437150	5597.984877	24386.835167	3603.630383	10650.585597
85.037500	0.273988	0.133310	0.287703	0.436696	5600.488058	24392.999146	3607.431786	10658.814000
85.536000	0.277937	0.133994	0.292376	0.432071	5656.456272	24658.541502	3625.708093	10743.206527
86.039000	0.277869	0.134083	0.291075	0.432466	5653.400557	24643.094009	3622.344781	10735.955290
86.536500	0.274533	0.133122	0.288707	0.438909	5589.726452	24274.025421	3605.083449	10618.758248
87.036500	0.276736	0.132283	0.294786	0.432174	5647.866465	24567.453420	3630.302517	10741.313402
87.537000	0.275279	0.131748	0.290017	0.432249	5637.819404	24536.928421	3620.680966	10739.937032
88.037500	0.277585	0.132638	0.290953	0.433323	5645.898724	24527.728495	3620.410486	10720.277148
88.535000	0.273976	0.131726	0.290416	0.439353	5583.289766	24183.292055	3607.540732	10610.745188
89.035000	0.277157	0.132342	0.294336	0.434168	5637.553537	24470.742331	3625.436563	10704.839982
89.535500	0.279877	0.131781	0.295906	0.435371	5647.502226	24382.920875	3626.165118	10682.908705
90.035500	0.278789	0.132623	0.293683	0.436119	5635.463263	24387.571055	3620.278939	10669.301431
90.536000	0.276845	0.130613	0.285660	0.440348	5595.355854	24079.786001	3596.429227	10592.826792
91.036000	0.278088	0.130252	0.289633	0.434589	5640.889843	24345.813260	3615.317483	10697.146198
91.536500	0.279764	0.129540	0.293687	0.435453	5646.219187	24267.824584	3621.603453	10681.409156
92.039500	0.280870	0.130127	0.300076	0.436221	5648.441431	24258.860096	3632.788736	10667.439774
92.537000	0.276612	0.129097	0.293727	0.442144	5582.299028	23918.215614	3608.553366	10560.571995
93.037500	0.282285	0.129303	0.293978	0.437005	5652.589616	24179.564586	3619.112276	10653.208597
93.535000	0.279010	0.129444	0.296184	0.436973	5631.319624	24188.109466	3623.536008	10653.795381
94.037500	0.281871	0.129273	0.297122	0.437540	5646.357234	24151.847731	3624.272378	10643.528983
94.535500	0.277032	0.128287	0.294934	0.437297	5616.321737	24115.360353	3620.424843	10647.929237
95.036000	0.275801	0.126426	0.295972	0.440724	5586.215389	23857.494145	3615.718684	10586.067312
95.538500	0.281154	0.127307	0.296287	0.438279	5636.802727	24019.285084	3621.156032	10630.142742
96.036000	0.278266	0.127531	0.297506	0.438717	5615.113108	24008.830200	3622.700761	10622.229010
96.536500	0.282835	0.127516	0.297297	0.439138	5642.194374	23987.606823	3621.455586	10614.639097
97.039500	0.277613	0.126236	0.298020	0.444020	5576.687759	23689.210405	3613.272366	10527.031945
97.534500	0.282941	0.126929	0.300384	0.439718	5639.078579	23930.742663	3626.424926	10604.168118
98.039500	0.282257	0.125001	0.295587	0.437972	5646.049419	23921.896354	3620.379691	10635.705161
98.568000	0.282955	0.125487	0.298396	0.439478	5640.747003	23872.348555	3622.956438	10608.490766
99.035500	0.281639	0.125986	0.303278	0.440542	5625.186009	23844.966785	3630.550757	10589.335661
