sample name	sample
index	1030
start time	 04-19-2021  12:36:43 PM


Wavelength (nm)	Absorbance
494.344910	-0.053739
494.563924	-0.053739
494.782919	-0.053739
495.001897	-0.048105
495.220856	-0.033655
495.439797	-0.020895
495.658719	-0.003189
495.877624	-0.001830
496.096510	-0.001574
496.315378	0.004771
496.534227	0.011103
496.753059	0.009642
496.971872	0.002375
497.190667	0.101724
497.409444	0.143304
497.628203	0.158783
497.846943	0.168480
498.065665	0.173977
498.284369	0.178063
498.503055	0.180457
498.721723	0.183006
498.940372	0.186034
499.159003	0.186065
499.377616	0.187052
499.596210	0.187438
499.814787	0.187520
500.033345	0.187754
500.251885	0.187819
500.470406	0.187175
500.688910	0.186681
500.907395	0.185546
501.125862	0.185814
501.344311	0.185412
501.562742	0.185326
501.781154	0.186197
501.999548	0.186269
502.217924	0.185546
502.436282	0.187221
502.654621	0.186040
502.872942	0.185679
503.091245	0.186048
503.309530	0.185385
503.527797	0.185208
503.746045	0.184526
503.964275	0.184662
504.182487	0.186350
504.400681	0.186295
504.618856	0.187447
504.837013	0.187704
505.055152	0.188147
505.273273	0.189185
505.491376	0.189802
505.709460	0.190736
505.927526	0.191609
506.145574	0.192261
506.363604	0.193214
506.581615	0.193365
506.799608	0.193836
507.017583	0.193391
507.235540	0.192747
507.453478	0.192078
507.671399	0.191201
507.889301	0.190989
508.107185	0.190093
508.325050	0.189847
508.542898	0.190924
508.760727	0.191731
508.978538	0.192168
509.196330	0.192703
509.414105	0.193179
509.631861	0.194021
509.849599	0.195073
510.067319	0.195457
510.285021	0.195360
510.502704	0.194179
510.720369	0.193485
510.938016	0.194289
511.155645	0.195925
511.373255	0.195605
511.590848	0.196659
511.808422	0.195580
512.025977	0.195801
512.243515	0.195780
512.461034	0.196888
512.678536	0.198523
512.896018	0.199347
513.113483	0.198618
513.330930	0.199607
513.548358	0.200079
513.765768	0.201360
513.983160	0.202147
514.200533	0.202760
514.417889	0.203390
514.635226	0.202437
514.852545	0.202074
515.069845	0.202044
515.287128	0.202152
515.504392	0.201646
515.721638	0.201394
515.938866	0.201315
516.156075	0.200615
516.373267	0.199947
516.590440	0.199713
516.807594	0.200027
517.024731	0.200267
517.241850	0.200033
517.458950	0.200249
517.676032	0.201292
517.893095	0.201978
518.110141	0.202709
518.327168	0.203687
518.544177	0.204157
518.761168	0.204488
518.978141	0.205043
519.195095	0.205697
519.412031	0.205450
519.628949	0.205477
519.845849	0.205142
520.062731	0.205473
520.279594	0.205555
520.496439	0.206820
520.713266	0.207107
520.930074	0.207279
521.146865	0.206962
521.363637	0.208259
521.580391	0.208580
521.797127	0.208853
522.013844	0.208645
522.230543	0.209337
522.447224	0.209705
522.663887	0.209427
522.880532	0.209191
523.097158	0.209894
523.313766	0.209698
523.530356	0.209911
523.746928	0.210038
523.963481	0.211055
524.180017	0.211445
524.396534	0.211252
524.613032	0.211593
524.829513	0.212323
525.045975	0.213210
525.262420	0.213818
525.478845	0.213513
525.695253	0.214125
525.911643	0.214376
526.128014	0.213496
526.344367	0.214108
526.560702	0.214419
526.777018	0.215014
526.993316	0.215722
527.209597	0.216035
527.425858	0.217006
527.642102	0.217399
527.858328	0.217793
528.074535	0.220104
528.290724	0.220100
528.506894	0.220734
528.723047	0.221122
528.939181	0.220797
529.155297	0.220995
529.371395	0.221520
529.587475	0.222326
529.803536	0.222923
530.019579	0.221995
530.235604	0.222934
530.451611	0.223533
530.667600	0.223979
530.883570	0.225013
531.099522	0.225499
531.315456	0.225337
531.531372	0.224890
531.747269	0.224911
531.963148	0.225477
532.179009	0.225432
532.394852	0.225438
532.610676	0.225875
532.826482	0.226056
533.042271	0.226216
533.258040	0.226572
533.473792	0.227319
533.689525	0.227776
533.905240	0.228005
534.120937	0.228543
534.336616	0.229620
534.552277	0.230095
534.767919	0.229668
534.983543	0.230423
535.199149	0.230565
535.414736	0.230878
535.630306	0.231101
535.845857	0.231873
536.061390	0.231625
536.276904	0.231740
536.492401	0.232115
536.707879	0.233060
536.923339	0.233561
537.138781	0.233589
537.354204	0.234063
537.569610	0.234287
537.784997	0.234404
538.000366	0.235221
538.215716	0.235608
538.431049	0.235002
538.646363	0.235296
538.861659	0.235159
539.076937	0.235738
539.292196	0.235901
539.507438	0.236874
539.722661	0.237269
539.937866	0.237636
540.153052	0.237858
540.368221	0.238585
540.583371	0.238391
540.798503	0.238594
541.013617	0.239051
541.228712	0.239717
541.443789	0.239417
541.658848	0.239854
541.873889	0.239685
542.088912	0.240064
542.303916	0.240332
542.518902	0.240718
542.733870	0.240969
542.948820	0.241763
543.163752	0.241607
543.378665	0.242626
543.593560	0.242505
543.808437	0.243200
544.023295	0.242902
544.238136	0.243405
544.452958	0.244039
544.667762	0.244664
544.882548	0.244223
545.097315	0.244491
545.312064	0.244376
545.526795	0.244636
545.741508	0.244435
545.956203	0.245061
546.170879	0.245279
546.385537	0.245729
546.600177	0.245745
546.814799	0.246522
547.029402	0.246885
547.243988	0.246815
547.458555	0.247271
547.673103	0.248332
547.887634	0.248757
548.102146	0.249058
548.316640	0.249208
548.531116	0.249195
548.745574	0.249326
548.960013	0.249861
549.174435	0.250119
549.388838	0.250159
549.603222	0.249615
549.817589	0.249782
550.031937	0.250196
550.246267	0.250555
550.460579	0.250933
550.674873	0.251108
550.889148	0.251085
551.103405	0.251288
551.317644	0.251916
551.531865	0.252330
551.746068	0.252373
551.960252	0.252385
552.174418	0.251913
552.388566	0.252083
552.602696	0.252167
552.816807	0.252637
553.030900	0.252349
553.244975	0.252377
553.459032	0.252555
553.673070	0.252471
553.887091	0.252619
554.101093	0.253055
554.315077	0.252981
554.529042	0.253277
554.742990	0.253561
554.956919	0.254390
555.170830	0.254732
555.384722	0.254953
555.598597	0.255438
555.812453	0.255786
556.026291	0.256089
556.240111	0.256248
556.453913	0.256709
556.667696	0.256557
556.881461	0.256915
557.095208	0.256971
557.308937	0.256735
557.522647	0.256988
557.736339	0.257023
557.950013	0.256825
558.163669	0.257006
558.377307	0.256829
558.590926	0.256518
558.804527	0.256636
559.018110	0.256491
559.231675	0.256703
559.445221	0.256460
559.658749	0.256690
559.872259	0.256987
560.085751	0.257144
560.299225	0.257548
560.512680	0.258285
560.726117	0.258385
560.939536	0.259109
561.152937	0.259591
561.366319	0.260143
561.579683	0.259933
561.793029	0.260240
562.006357	0.260824
562.219667	0.260914
562.432958	0.260964
562.646231	0.260797
562.859486	0.261079
563.072723	0.261190
563.285941	0.261576
563.499141	0.261873
563.712323	0.262025
563.925487	0.262315
564.138632	0.262096
564.351760	0.262101
564.564869	0.262123
564.777960	0.261606
564.991032	0.262297
565.204087	0.262359
565.417123	0.262608
565.630141	0.263045
565.843140	0.263263
566.056122	0.263555
566.269085	0.264194
566.482030	0.264823
566.694957	0.265403
566.907866	0.264682
567.120756	0.264195
567.333628	0.264149
567.546482	0.263578
567.759318	0.263265
567.972135	0.263333
568.184935	0.263004
568.397716	0.263003
568.610478	0.262782
568.823223	0.263366
569.035949	0.263432
569.248657	0.263839
569.461347	0.264344
569.674019	0.264998
569.886672	0.264832
570.099308	0.264702
570.311925	0.264442
570.524523	0.264707
570.737104	0.264990
570.949666	0.265317
571.162210	0.265379
571.374736	0.265754
571.587244	0.265693
571.799733	0.266220
572.012205	0.266595
572.224658	0.267289
572.437092	0.267566
572.649509	0.267487
572.861907	0.267534
573.074287	0.267279
573.286649	0.267148
573.498993	0.266890
573.711318	0.267174
573.923625	0.267358
574.135914	0.267138
574.348185	0.267075
574.560438	0.267068
574.772672	0.267138
574.984888	0.267813
575.197086	0.267681
575.409266	0.268177
575.621427	0.267802
575.833570	0.267897
576.045695	0.268280
576.257802	0.268140
576.469890	0.268306
576.681961	0.269006
576.894013	0.269133
577.106046	0.269613
577.318062	0.269429
577.530059	0.270377
577.742039	0.270286
577.954000	0.270621
578.165942	0.271040
578.377867	0.271397
578.589773	0.271657
578.801661	0.271515
579.013531	0.271666
579.225382	0.272096
579.437216	0.271885
579.649031	0.272675
579.860828	0.272581
580.072606	0.272634
580.284367	0.272611
580.496109	0.272269
580.707833	0.272338
580.919539	0.272242
581.131227	0.272110
581.342896	0.271934
581.554547	0.271672
581.766180	0.271267
581.977795	0.271355
582.189391	0.271599
582.400969	0.271808
582.612529	0.271950
582.824071	0.272171
583.035595	0.272373
583.247100	0.272977
583.458587	0.273258
583.670056	0.274008
583.881506	0.274615
584.092939	0.274978
584.304353	0.275071
584.515749	0.275383
584.727127	0.275486
584.938486	0.275828
585.149828	0.275526
585.361151	0.275509
585.572456	0.275964
585.783742	0.276043
585.995011	0.276101
586.206261	0.276020
586.417493	0.276059
586.628706	0.276580
586.839902	0.276787
587.051079	0.277113
587.262238	0.277489
587.473379	0.277199
587.684502	0.277115
587.895606	0.277304
588.106692	0.278097
588.317760	0.278325
588.528810	0.278324
588.739841	0.278139
588.950855	0.278686
589.161850	0.278482
589.372827	0.278910
589.583785	0.279133
589.794726	0.278816
590.005648	0.279205
590.216552	0.279402
590.427437	0.279792
590.638305	0.280317
590.849154	0.280329
591.059985	0.280767
591.270798	0.280941
591.481592	0.281353
591.692369	0.282259
591.903127	0.282199
592.113867	0.282784
592.324588	0.283150
592.535292	0.283530
592.745977	0.283482
592.956644	0.283846
593.167293	0.284018
593.377923	0.284022
593.588536	0.284192
593.799130	0.284295
594.009706	0.284437
594.220263	0.284445
594.430803	0.284632
594.641324	0.285103
594.851827	0.285092
595.062312	0.285116
595.272778	0.285249
595.483227	0.285339
595.693657	0.285394
595.904069	0.285756
596.114462	0.285490
596.324838	0.285212
596.535195	0.285349
596.745534	0.285802
596.955855	0.286135
597.166157	0.286491
597.376441	0.286274
597.586707	0.286522
597.796955	0.286680
598.007185	0.287088
598.217396	0.287473
598.427589	0.287117
598.637764	0.287006
598.847921	0.286952
599.058060	0.287100
599.268180	0.287370
599.478282	0.287679
599.688366	0.287144
599.898431	0.287563
600.108479	0.287894
600.318508	0.288236
600.528519	0.288655
600.738511	0.289169
600.948486	0.289210
601.158442	0.289357
601.368380	0.289585
601.578300	0.290194
601.788202	0.290235
601.998085	0.289954
602.207950	0.290254
602.417797	0.290185
602.627626	0.290104
602.837436	0.289915
603.047228	0.290198
603.257002	0.290334
603.466758	0.290281
603.676496	0.290478
603.886215	0.291035
604.095916	0.291030
604.305599	0.291429
604.515264	0.291463
604.724910	0.291612
604.934538	0.291625
605.144148	0.291651
605.353740	0.291760
605.563314	0.291917
605.772869	0.291936
605.982406	0.292288
606.191925	0.292357
606.401425	0.292397
606.610908	0.292838
606.820372	0.292955
607.029818	0.292803
607.239246	0.293248
607.448655	0.293391
607.658047	0.293616
607.867420	0.293920
608.076775	0.293715
608.286111	0.293695
608.495430	0.293615
608.704730	0.293414
608.914012	0.293683
609.123275	0.293415
609.332521	0.293156
609.541748	0.292986
609.750957	0.292834
609.960148	0.293008
610.169321	0.293056
610.378475	0.293183
610.587611	0.293417
610.796729	0.293327
611.005829	0.293186
611.214910	0.293604
611.423974	0.294101
611.633019	0.294527
611.842045	0.294957
612.051054	0.295342
612.260044	0.295538
612.469017	0.296112
612.677970	0.296584
612.886906	0.297078
613.095824	0.297030
613.304723	0.296854
613.513604	0.297106
613.722467	0.296770
613.931311	0.297168
614.140138	0.297470
614.348946	0.297514
614.557736	0.297610
614.766507	0.297864
614.975261	0.298198
615.183996	0.298713
615.392713	0.298537
615.601412	0.299102
615.810092	0.299218
616.018754	0.299224
616.227399	0.299372
616.436024	0.299503
616.644632	0.299495
616.853222	0.299439
617.061793	0.299265
617.270346	0.299703
617.478880	0.299632
617.687397	0.299366
617.895895	0.299485
618.104375	0.299664
618.312837	0.299698
618.521281	0.299800
618.729706	0.299865
618.938113	0.300142
619.146502	0.299903
619.354873	0.300210
619.563226	0.300406
619.771560	0.300714
619.979876	0.300586
620.188174	0.300856
620.396453	0.300869
620.604715	0.301263
620.812958	0.301378
621.021183	0.301493
621.229390	0.301612
621.437578	0.302249
621.645748	0.302458
621.853900	0.302951
622.062034	0.303182
622.270150	0.303672
622.478247	0.303922
622.686326	0.304196
622.894387	0.304531
623.102430	0.304857
623.310454	0.305019
623.518461	0.305081
623.726449	0.304975
623.934418	0.304903
624.142370	0.305060
624.350303	0.305061
624.558218	0.305066
624.766115	0.305346
624.973994	0.305199
625.181855	0.305318
625.389697	0.305380
625.597521	0.305457
625.805327	0.305379
626.013114	0.305338
626.220883	0.305518
626.428634	0.305772
626.636367	0.305827
626.844082	0.306090
627.051778	0.305935
627.259457	0.306210
627.467117	0.306852
627.674758	0.307421
627.882382	0.307944
628.089987	0.308457
628.297574	0.308472
628.505143	0.308627
628.712694	0.309025
628.920226	0.309555
629.127740	0.309527
629.335236	0.309392
629.542714	0.309421
629.750174	0.309320
629.957615	0.309038
630.165038	0.309229
630.372443	0.309334
630.579829	0.309375
630.787198	0.309590
630.994548	0.309857
631.201880	0.310221
631.409194	0.310644
631.616489	0.311087
631.823766	0.311409
632.031025	0.311626
632.238266	0.312010
632.445489	0.312056
632.652693	0.311949
632.859879	0.312354
633.067047	0.312055
633.274197	0.311835
633.481329	0.311695
633.688442	0.312116
633.895537	0.312211
634.102614	0.312404
634.309672	0.312844
634.516713	0.312952
634.723735	0.312906
634.930739	0.313394
635.137724	0.313861
635.344692	0.313964
635.551641	0.313691
635.758572	0.313886
635.965485	0.313926
636.172379	0.314046
636.379256	0.314414
636.586114	0.314755
636.792954	0.314873
636.999775	0.314862
637.206579	0.315198
637.413364	0.315516
637.620131	0.315897
637.826880	0.316216
638.033610	0.316120
638.240323	0.316182
638.447017	0.316167
638.653692	0.316190
638.860350	0.316301
639.066990	0.316603
639.273611	0.316733
639.480214	0.316848
639.686798	0.316980
639.893365	0.317366
640.099913	0.317469
640.306443	0.317612
640.512955	0.317811
640.719449	0.318093
640.925924	0.317925
641.132381	0.318275
641.338820	0.318332
641.545241	0.318250
641.751644	0.318235
641.958028	0.318362
642.164394	0.318767
642.370742	0.319052
642.577071	0.319280
642.783383	0.319605
642.989676	0.319686
643.195951	0.319990
643.402207	0.320481
643.608446	0.320866
643.814666	0.320940
644.020868	0.320982
644.227052	0.321242
644.433218	0.321479
644.639365	0.321557
644.845494	0.321817
645.051605	0.321761
645.257698	0.321905
645.463772	0.321742
645.669828	0.322171
645.875866	0.322274
646.081886	0.322586
646.287888	0.322633
646.493871	0.322881
646.699836	0.322916
646.905783	0.323172
647.111712	0.323322
647.317622	0.323946
647.523514	0.323974
647.729388	0.324319
647.935244	0.324442
648.141082	0.324837
648.346901	0.324973
648.552702	0.325212
648.758485	0.325646
648.964250	0.325668
649.169996	0.325784
649.375724	0.326090
649.581434	0.326135
649.787126	0.326144
649.992800	0.326265
650.198455	0.326762
650.404092	0.326810
650.609711	0.327091
650.815311	0.327580
651.020894	0.327462
651.226458	0.327747
651.432004	0.328029
651.637532	0.328188
651.843041	0.328274
652.048532	0.328377
652.254006	0.328684
652.459460	0.328752
652.664897	0.328678
652.870315	0.329135
653.075716	0.329520
653.281097	0.329510
653.486461	0.329904
653.691807	0.330148
653.897134	0.330313
654.102443	0.330633
654.307734	0.330565
654.513006	0.330843
654.718261	0.331091
654.923497	0.330913
655.128715	0.331266
655.333915	0.331531
655.539096	0.331841
655.744259	0.332157
655.949404	0.332371
656.154531	0.332832
656.359640	0.332974
656.564730	0.333098
656.769802	0.333364
656.974856	0.333557
657.179892	0.333801
657.384909	0.334202
657.589908	0.334364
657.794889	0.334315
657.999852	0.334400
658.204797	0.334795
658.409723	0.335029
658.614631	0.335458
658.819521	0.336104
659.024393	0.336285
659.229246	0.336324
659.434081	0.336305
659.638898	0.336935
659.843697	0.337099
660.048478	0.337350
660.253240	0.337596
660.457984	0.337879
660.662710	0.337908
660.867417	0.338134
661.072107	0.338235
661.276778	0.338611
661.481431	0.338739
661.686066	0.339063
661.890682	0.339179
662.095281	0.339216
662.299861	0.339154
662.504422	0.339330
662.708966	0.339587
662.913491	0.339973
663.117999	0.340044
663.322488	0.339895
663.526958	0.340009
663.731411	0.340094
663.935845	0.340442
664.140261	0.340582
664.344659	0.340335
664.549038	0.340432
664.753400	0.340504
664.957743	0.340740
665.162068	0.341163
665.366375	0.341442
665.570663	0.341859
665.774933	0.341903
665.979185	0.342219
666.183419	0.342733
666.387635	0.342831
666.591832	0.342966
666.796011	0.343268
667.000172	0.343578
667.204315	0.343786
667.408439	0.344057
667.612545	0.344427
667.816634	0.344796
668.020703	0.345155
668.224755	0.345580
668.428788	0.346087
668.632803	0.346402
668.836800	0.346585
669.040779	0.347154
669.244739	0.347329
669.448681	0.347484
669.652605	0.347666
669.856511	0.347881
670.060399	0.348072
670.264268	0.348215
670.468119	0.348326
670.671952	0.348279
670.875767	0.347951
671.079563	0.347877
671.283341	0.348181
671.487101	0.348401
671.690843	0.348593
671.894567	0.348760
672.098272	0.348869
672.301959	0.349259
672.505628	0.349774
672.709278	0.350389
672.912911	0.351172
673.116525	0.351375
673.320121	0.351307
673.523699	0.351464
673.727258	0.351895
673.930799	0.351945
674.134322	0.351916
674.337827	0.351860
674.541314	0.351891
674.744782	0.351771
674.948232	0.351882
675.151664	0.352250
675.355078	0.352634
675.558474	0.352582
675.761851	0.352903
675.965210	0.353217
676.168551	0.353580
676.371873	0.353796
676.575178	0.353883
676.778464	0.354108
676.981732	0.354080
677.184981	0.354353
677.388213	0.354421
677.591426	0.354403
677.794621	0.354600
677.997798	0.354933
678.200956	0.354794
678.404097	0.354839
678.607219	0.355131
678.810323	0.355450
679.013408	0.355361
679.216476	0.355389
679.419525	0.355962
679.622556	0.356156
679.825569	0.355918
680.028563	0.356218
680.231540	0.356657
680.434498	0.356961
680.637438	0.357242
680.840359	0.357443
681.043263	0.357819
681.246148	0.357794
681.449015	0.358086
681.651864	0.358684
681.854694	0.359120
682.057506	0.359116
682.260301	0.359069
682.463076	0.359247
682.665834	0.359126
682.868573	0.359388
683.071295	0.359540
683.273998	0.359821
683.476682	0.359835
683.679349	0.359900
683.881997	0.360313
684.084627	0.360739
684.287239	0.360996
684.489833	0.361430
684.692408	0.361360
684.894965	0.361870
685.097504	0.361811
685.300025	0.362032
685.502527	0.362117
685.705012	0.362214
685.907478	0.362291
686.109925	0.362524
686.312355	0.362770
686.514766	0.363160
686.717159	0.363113
686.919534	0.363440
687.121891	0.363553
687.324230	0.363796
687.526550	0.364207
687.728852	0.364304
687.931136	0.364390
688.133401	0.364970
688.335649	0.365184
688.537878	0.365455
688.740089	0.365466
688.942281	0.365829
689.144456	0.366122
689.346612	0.365827
689.548750	0.365848
689.750870	0.366070
689.952971	0.365674
690.155055	0.365930
690.357120	0.366029
690.559167	0.366309
690.761195	0.366295
690.963206	0.366500
691.165198	0.366949
691.367172	0.367267
691.569128	0.367116
691.771065	0.367362
691.972984	0.367298
692.174885	0.367555
692.376768	0.367674
692.578633	0.367797
692.780479	0.367817
692.982308	0.367964
693.184118	0.368118
693.385909	0.368601
693.587683	0.368929
693.789438	0.369342
693.991175	0.369201
694.192894	0.369287
694.394595	0.369513
694.596277	0.369609
694.797941	0.369678
694.999587	0.369782
695.201215	0.369919
695.402824	0.369834
695.604416	0.370099
695.805989	0.370478
696.007543	0.370414
696.209080	0.370515
696.410598	0.370651
696.612099	0.370591
696.813580	0.370571
697.015044	0.370371
697.216490	0.370453
697.417917	0.370395
697.619326	0.370440
697.820717	0.370659
698.022089	0.370933
698.223444	0.371131
698.424780	0.371358
698.626098	0.371359
698.827397	0.371543
699.028679	0.371827
699.229942	0.371829
699.431187	0.371836
699.632414	0.371986
699.833622	0.372166
700.034813	0.372314
700.235985	0.372584
700.437139	0.373093
700.638274	0.373381
700.839392	0.373814
701.040491	0.374019
701.241572	0.374349
701.442635	0.374492
701.643679	0.374606
701.844706	0.374811
702.045714	0.374850
702.246704	0.374979
702.447675	0.374902
702.648629	0.374710
702.849564	0.375003
703.050481	0.375135
703.251380	0.375307
703.452260	0.375522
703.653122	0.375502
703.853966	0.375436
704.054792	0.375352
704.255600	0.375768
704.456389	0.375774
704.657160	0.375645
704.857913	0.375340
705.058648	0.375357
705.259365	0.375031
705.460063	0.374994
705.660743	0.375312
705.861405	0.375736
706.062048	0.375593
706.262674	0.375594
706.463281	0.375633
706.663870	0.375839
706.864441	0.375799
707.064993	0.375848
707.265527	0.376236
707.466043	0.376080
707.666541	0.375707
707.867021	0.375953
708.067482	0.376045
708.267925	0.375939
708.468350	0.376277
708.668757	0.376580
708.869145	0.376936
709.069516	0.376814
709.269868	0.376707
709.470201	0.376986
709.670517	0.376933
709.870814	0.377192
710.071093	0.377309
710.271354	0.377048
710.471597	0.376852
710.671821	0.376610
710.872028	0.376457
711.072216	0.376695
711.272385	0.376652
711.472537	0.376638
711.672670	0.376282
711.872785	0.376085
712.072882	0.376274
712.272961	0.376311
712.473021	0.376453
712.673063	0.376439
712.873087	0.376281
713.073093	0.376378
713.273081	0.376590
713.473050	0.376553
713.673001	0.376749
713.872934	0.376390
714.072849	0.376010
714.272745	0.375844
714.472623	0.376022
714.672483	0.376032
714.872325	0.375774
715.072148	0.375201
715.271954	0.375162
715.471741	0.375123
715.671509	0.375109
715.871260	0.375290
716.070992	0.375407
716.270707	0.374991
716.470403	0.374893
716.670080	0.374598
716.869740	0.374780
717.069381	0.374885
717.269004	0.374715
717.468609	0.374595
717.668195	0.374444
717.867764	0.374154
718.067314	0.374178
718.266846	0.373915
718.466360	0.373894
718.665855	0.373789
718.865332	0.373612
719.064791	0.373275
719.264232	0.373500
719.463655	0.373658
719.663059	0.373805
719.862445	0.373781
720.061813	0.373829
720.261163	0.374228
720.460494	0.373862
720.659807	0.373769
720.859102	0.373854
721.058379	0.373254
721.257638	0.373080
721.456878	0.372758
721.656100	0.372790
721.855304	0.372696
722.054490	0.372533
722.253657	0.372716
722.452806	0.372638
722.651937	0.372723
722.851050	0.372848
723.050145	0.372893
723.249221	0.372738
723.448279	0.372465
723.647319	0.372246
723.846340	0.371786
724.045344	0.371505
724.244329	0.371288
724.443296	0.371229
724.642245	0.370972
724.841175	0.370741
725.040088	0.370720
725.238982	0.370556
725.437857	0.370721
725.636715	0.370622
725.835554	0.370592
726.034376	0.370499
726.233179	0.370024
726.431963	0.370124
726.630730	0.369797
726.829478	0.369373
727.028208	0.369404
727.226920	0.368897
727.425614	0.368706
727.624289	0.368414
727.822946	0.368236
728.021585	0.368133
728.220206	0.367996
728.418808	0.367890
728.617392	0.368128
728.815958	0.367548
729.014506	0.367472
729.213036	0.367208
729.411547	0.367329
729.610040	0.367164
729.808515	0.366930
730.006972	0.366632
730.205410	0.366629
730.403831	0.366201
730.602233	0.366286
730.800616	0.366143
730.998982	0.365961
731.197329	0.365304
731.395658	0.365020
731.593969	0.364946
731.792262	0.364713
731.990536	0.364415
732.188793	0.364212
732.387031	0.363867
732.585250	0.363885
732.783452	0.363748
732.981635	0.363696
733.179800	0.363950
733.377947	0.363658
733.576076	0.363579
733.774186	0.363345
733.972278	0.363638
734.170352	0.363682
734.368408	0.363552
734.566446	0.363448
734.764465	0.363304
734.962466	0.362891
735.160449	0.362835
735.358413	0.362512
735.556360	0.362374
735.754288	0.361703
735.952198	0.361222
736.150090	0.360887
736.347963	0.360693
736.545818	0.360432
736.743655	0.360036
736.941474	0.359941
737.139275	0.359758
737.337057	0.359390
737.534821	0.359316
737.732567	0.359333
737.930295	0.359195
738.128005	0.358983
738.325696	0.358905
738.523369	0.358906
738.721024	0.358567
738.918660	0.358844
739.116279	0.358883
739.313879	0.358457
739.511461	0.358362
739.709024	0.358322
739.906570	0.358074
740.104097	0.357943
740.301606	0.357962
740.499097	0.358018
740.696569	0.357381
740.894024	0.357455
741.091460	0.357553
741.288878	0.357480
741.486277	0.357100
741.683659	0.356988
741.881022	0.356887
742.078367	0.356370
742.275694	0.356335
742.473002	0.356397
742.670293	0.356062
742.867565	0.355951
743.064819	0.355769
743.262054	0.355757
743.459272	0.355761
743.656471	0.355568
743.853652	0.355660
744.050815	0.355380
744.247959	0.355161
744.445085	0.354890
744.642194	0.354519
744.839283	0.354294
745.036355	0.354138
745.233408	0.353706
745.430444	0.353473
745.627461	0.352745
745.824459	0.352229
746.021440	0.352065
746.218402	0.351906
746.415346	0.351923
746.612272	0.351821
746.809180	0.351154
747.006069	0.351015
747.202940	0.350819
747.399793	0.350861
747.596628	0.350812
747.793444	0.350361
747.990243	0.350205
748.187023	0.349994
748.383784	0.349568
748.580528	0.349473
748.777253	0.349178
748.973960	0.349110
749.170649	0.348552
749.367320	0.348096
749.563973	0.347913
749.760607	0.347376
749.957223	0.346616
750.153821	0.346256
750.350400	0.346072
750.546962	0.345620
750.743505	0.345011
750.940030	0.344998
751.136536	0.344759
751.333025	0.344500
751.529495	0.344048
751.725947	0.344252
751.922381	0.343814
752.118796	0.343598
752.315194	0.343621
752.511573	0.343615
752.707934	0.343410
752.904276	0.343342
753.100601	0.343248
753.296907	0.343404
753.493195	0.343069
753.689465	0.343188
753.885716	0.342948
754.081949	0.342579
754.278164	0.342240
754.474361	0.342290
754.670540	0.341957
754.866700	0.341826
755.062843	0.341590
755.258967	0.341424
755.455072	0.341324
755.651160	0.340992
755.847229	0.340907
756.043280	0.340687
756.239313	0.340403
756.435328	0.340544
756.631324	0.340083
756.827302	0.339723
757.023262	0.339316
757.219204	0.338955
757.415127	0.339097
757.611033	0.338784
757.806920	0.338600
758.002788	0.338229
758.198639	0.337837
758.394471	0.337863
758.590286	0.337741
758.786081	0.337724
758.981859	0.337437
759.177619	0.336946
759.373360	0.337022
759.569083	0.336928
759.764788	0.336909
759.960474	0.336718
760.156143	0.336526
760.351793	0.336542
760.547425	0.336296
760.743038	0.336269
760.938634	0.336110
761.134211	0.335787
761.329770	0.335435
761.525311	0.335368
761.720833	0.335226
761.916338	0.334661
762.111824	0.334384
762.307292	0.334342
762.502741	0.334118
762.698173	0.333706
762.893586	0.333491
763.088981	0.333221
763.284358	0.332523
763.479716	0.332567
763.675057	0.332378
763.870379	0.332111
764.065683	0.331641
764.260968	0.331331
764.456236	0.331368
764.651485	0.330895
764.846716	0.331149
765.041929	0.331273
765.237123	0.330896
765.432299	0.331117
765.627457	0.330839
765.822597	0.330645
766.017719	0.330415
766.212822	0.330375
766.407907	0.330222
766.602974	0.329978
766.798023	0.329849
766.993054	0.329745
767.188066	0.329385
767.383060	0.329478
767.578036	0.329607
767.772993	0.329733
767.967933	0.329450
768.162854	0.329574
768.357757	0.329464
768.552642	0.329284
768.747508	0.328827
768.942356	0.328566
769.137186	0.328109
769.331998	0.327944
769.526792	0.327758
769.721567	0.327963
769.916324	0.327913
770.111063	0.327746
770.305784	0.328057
770.500486	0.328191
770.695171	0.328497
770.889837	0.328409
771.084484	0.328297
771.279114	0.328134
771.473725	0.328000
771.668318	0.328037
771.862893	0.327827
772.057450	0.327676
772.251988	0.327678
772.446509	0.327436
772.641011	0.327772
772.835494	0.327946
773.029960	0.327942
773.224407	0.327594
773.418836	0.327650
773.613247	0.327733
773.807640	0.327282
774.002014	0.327159
774.196370	0.327169
774.390708	0.327017
774.585028	0.326602
774.779330	0.326640
774.973613	0.326822
775.167878	0.326570
775.362125	0.326465
775.556354	0.326879
775.750564	0.326644
775.944756	0.326817
776.138930	0.326713
776.333086	0.326687
776.527223	0.326572
776.721343	0.326437
776.915444	0.326539
777.109526	0.326324
777.303591	0.326324
777.497637	0.326586
777.691666	0.326332
777.885676	0.326490
778.079667	0.326568
778.273641	0.326745
778.467596	0.326830
778.661533	0.326713
778.855452	0.327011
779.049352	0.326655
779.243235	0.326724
779.437099	0.326852
779.630945	0.326673
779.824773	0.326958
780.018582	0.326788
780.212373	0.327005
780.406146	0.327222
780.599901	0.327240
780.793638	0.327453
780.987356	0.327380
781.181056	0.327433
781.374738	0.327751
781.568402	0.327777
781.762047	0.327869
781.955674	0.327818
782.149283	0.327857
782.342874	0.328108
782.536447	0.328106
782.730001	0.328375
782.923537	0.328506
783.117055	0.328448
783.310555	0.328326
783.504036	0.328275
783.697499	0.328123
783.890944	0.328325
784.084371	0.328244
784.277780	0.328370
784.471170	0.328444
784.664542	0.328407
784.857896	0.328594
785.051231	0.328814
785.244549	0.328882
785.437848	0.329068
785.631129	0.328845
785.824392	0.328675
786.017636	0.328775
786.210863	0.328405
786.404071	0.328158
786.597260	0.328102
786.790432	0.327965
786.983585	0.328059
787.176721	0.328011
787.369838	0.328279
787.562936	0.328405
787.756017	0.328425
787.949079	0.328756
788.142123	0.329253
788.335149	0.329169
788.528156	0.329332
788.721146	0.329366
788.914117	0.329666
789.107070	0.329569
789.300005	0.329721
789.492921	0.329689
789.685819	0.329570
789.878699	0.329492
790.071561	0.329680
790.264405	0.329866
790.457230	0.330127
790.650037	0.330260
790.842826	0.330421
791.035597	0.330378
791.228349	0.330447
791.421084	0.330625
791.613800	0.330676
791.806497	0.330761
791.999177	0.330668
792.191838	0.330669
792.384481	0.330638
792.577106	0.330830
792.769713	0.331203
792.962301	0.331101
793.154871	0.331279
793.347423	0.331286
793.539957	0.331337
793.732473	0.331404
793.924970	0.331384
794.117449	0.331655
794.309910	0.331421
794.502353	0.331500
794.694777	0.331802
794.887183	0.332182
795.079571	0.332690
795.271941	0.333008
795.464293	0.333425
795.656626	0.333841
795.848941	0.333777
796.041238	0.334478
796.233516	0.334878
796.425777	0.335381
796.618019	0.335552
796.810243	0.335571
797.002449	0.335636
797.194636	0.335802
797.386805	0.335929
797.578956	0.336385
797.771089	0.336430
797.963204	0.336630
798.155300	0.336476
798.347378	0.336637
798.539438	0.336703
798.731480	0.336830
798.923503	0.336846
799.115509	0.337467
799.307496	0.337897
799.499465	0.338029
799.691415	0.338136
799.883348	0.338560
800.075262	0.338624
800.267158	0.339047
800.459035	0.339478
800.650895	0.339785
800.842736	0.339408
801.034559	0.339287
801.226364	0.339709
801.418150	0.339923
801.609919	0.340089
801.801669	0.340189
801.993401	0.340443
802.185114	0.340849
802.376810	0.341116
802.568487	0.341406
802.760146	0.341535
802.951787	0.341785
803.143409	0.341589
803.335014	0.341741
803.526600	0.341853
803.718168	0.342015
803.909717	0.342030
804.101249	0.342314
804.292762	0.342846
804.484257	0.343293
804.675734	0.343126
804.867192	0.343793
805.058632	0.344326
805.250054	0.344956
805.441458	0.345268
805.632844	0.345428
805.824211	0.345514
806.015561	0.345440
806.206891	0.345549
806.398204	0.346219
806.589499	0.346547
806.780775	0.347029
806.972033	0.347369
807.163273	0.347529
807.354495	0.348015
807.545698	0.348733
807.736883	0.349426
807.928050	0.350105
808.119199	0.350471
808.310329	0.350733
808.501441	0.350859
808.692535	0.351216
808.883611	0.351689
809.074669	0.351923
809.265708	0.352337
809.456729	0.352741
809.647732	0.353020
809.838717	0.353218
810.029683	0.353617
810.220632	0.353791
810.411562	0.354181
810.602474	0.354452
810.793367	0.354767
810.984242	0.355082
811.175100	0.355409
811.365938	0.355690
811.556759	0.355819
811.747562	0.356294
811.938346	0.356806
812.129112	0.356948
812.319860	0.357659
812.510589	0.357967
812.701300	0.358286
812.891994	0.358828
813.082668	0.359099
813.273325	0.359867
813.463964	0.360165
813.654584	0.360372
813.845186	0.361027
814.035769	0.361281
814.226335	0.361696
814.416882	0.361918
814.607411	0.362003
814.797922	0.362351
814.988415	0.362383
815.178889	0.362763
815.369345	0.363263
815.559783	0.363457
815.750203	0.363862
815.940605	0.364358
816.130988	0.364955
816.321353	0.365448
816.511700	0.365965
816.702028	0.366549
816.892339	0.366779
817.082631	0.367450
817.272905	0.367792
817.463161	0.368205
817.653398	0.368633
817.843617	0.368709
818.033819	0.369022
818.224001	0.369418
818.414166	0.369820
818.604312	0.370135
818.794440	0.370464
818.984550	0.371145
819.174642	0.371194
819.364716	0.371483
819.554771	0.371912
819.744808	0.372563
819.934827	0.372863
820.124827	0.373032
820.314810	0.373643
820.504774	0.373876
820.694720	0.374435
820.884647	0.374913
821.074557	0.375724
821.264448	0.376422
821.454321	0.376673
821.644176	0.377182
821.834012	0.377852
822.023831	0.378089
822.213631	0.378478
822.403413	0.378706
822.593176	0.379202
822.782922	0.379097
822.972649	0.379492
823.162358	0.379646
823.352049	0.380275
823.541721	0.380701
823.731376	0.381290
823.921012	0.381735
824.110629	0.382249
824.300229	0.382960
824.489811	0.384017
824.679374	0.384316
824.868919	0.384999
825.058445	0.385638
825.247954	0.386315
825.437444	0.387035
825.626916	0.387495
825.816370	0.387785
826.005806	0.388264
826.195223	0.388662
826.384622	0.389257
826.574003	0.389761
826.763366	0.389967
826.952711	0.390168
827.142037	0.390413
827.331345	0.391110
827.520635	0.391518
827.709906	0.391824
827.899160	0.392527
828.088395	0.392956
828.277612	0.393483
828.466810	0.394026
828.655991	0.394779
828.845153	0.395492
829.034297	0.396132
829.223423	0.396766
829.412531	0.397554
829.601620	0.397680
829.790691	0.398209
829.979744	0.398971
830.168779	0.399442
830.357795	0.399852
830.546793	0.400661
830.735773	0.400655
830.924735	0.401077
831.113679	0.401855
831.302604	0.402623
831.491511	0.403218
831.680400	0.403835
831.869271	0.404391
832.058123	0.404895
832.246957	0.405112
832.435773	0.405728
832.624571	0.406681
832.813351	0.407023
833.002112	0.407335
833.190855	0.407854
833.379580	0.408062
833.568287	0.408621
833.756975	0.409065
833.945645	0.409539
834.134297	0.410365
834.322931	0.410581
834.511547	0.410977
834.700144	0.411262
834.888723	0.411777
835.077284	0.412306
835.265826	0.413119
835.454351	0.414033
835.642857	0.414924
835.831345	0.415492
836.019815	0.415922
836.208266	0.416310
836.396699	0.416993
836.585114	0.417729
836.773511	0.418397
836.961890	0.418702
837.150250	0.418875
837.338592	0.419354
837.526916	0.420218
837.715222	0.420836
837.903510	0.421838
838.091779	0.422816
838.280030	0.423151
838.468263	0.423819
838.656477	0.424570
838.844674	0.425592
839.032852	0.425711
839.221012	0.426235
839.409153	0.427185
839.597277	0.427545
839.785382	0.427852
839.973469	0.428764
840.161538	0.429137
840.349589	0.429476
840.537621	0.429665
840.725635	0.430364
840.913631	0.430791
841.101609	0.430928
841.289568	0.431163
841.477509	0.431736
841.665432	0.432265
841.853337	0.432835
842.041224	0.433220
842.229092	0.434009
842.416942	0.434192
842.604774	0.434464
842.792588	0.435270
842.980383	0.435961
843.168160	0.436873
843.355919	0.437669
843.543660	0.438398
843.731382	0.439062
843.919087	0.439634
844.106773	0.441004
844.294441	0.441796
844.482090	0.442374
844.669722	0.442685
844.857335	0.443073
845.044930	0.442936
845.232507	0.443512
845.420065	0.444167
845.607605	0.444723
845.795127	0.444913
845.982631	0.445487
846.170117	0.445946
846.357584	0.446742
846.545033	0.447441
846.732464	0.448338
846.919877	0.448948
847.107272	0.449835
847.294648	0.450151
847.482006	0.450800
847.669346	0.451367
847.856667	0.452152
848.043971	0.452929
848.231256	0.453530
848.418523	0.454001
848.605771	0.454852
848.793002	0.454877
848.980214	0.455514
849.167408	0.456314
849.354584	0.456957
849.541742	0.457566
849.728881	0.458059
849.916002	0.458477
850.103105	0.458942
850.290190	0.459089
850.477256	0.459746
850.664304	0.460732
850.851334	0.460841
851.038346	0.461246
851.225340	0.461656
851.412315	0.462200
851.599272	0.462466
851.786211	0.463116
851.973132	0.463367
852.160034	0.464008
852.346918	0.463853
852.533784	0.464868
852.720632	0.465194
852.907462	0.465879
853.094273	0.466568
853.281066	0.467700
853.467841	0.467941
853.654598	0.468689
853.841336	0.469391
854.028056	0.470279
854.214758	0.470679
854.401442	0.471447
854.588107	0.471906
854.774755	0.472205
854.961384	0.471982
855.147995	0.472720
855.334587	0.473289
855.521162	0.474001
855.707718	0.474703
855.894256	0.475169
856.080775	0.476026
856.267277	0.476466
856.453760	0.476881
856.640225	0.477713
856.826672	0.478748
857.013101	0.479301
857.199511	0.479615
857.385903	0.480428
857.572277	0.481074
857.758633	0.480845
857.944970	0.481517
858.131290	0.482166
858.317591	0.482705
858.503873	0.483017
858.690138	0.483748
858.876384	0.484564
859.062612	0.484416
859.248822	0.484646
859.435014	0.485496
859.621188	0.485931
859.807343	0.486674
859.993480	0.487272
860.179599	0.487523
860.365699	0.487779
860.551781	0.487842
860.737846	0.488746
860.923891	0.489561
861.109919	0.490178
861.295929	0.490801
861.481920	0.491171
861.667893	0.491436
861.853848	0.492018
862.039784	0.492330
862.225702	0.493115
862.411603	0.493293
862.597484	0.493515
862.783348	0.494132
862.969193	0.493900
863.155021	0.494588
863.340830	0.495012
863.526620	0.495381
863.712393	0.496368
863.898147	0.496492
864.083883	0.496765
864.269601	0.497788
864.455301	0.498234
864.640982	0.499170
864.826645	0.499490
865.012290	0.500501
865.197917	0.501550
865.383526	0.501898
865.569116	0.502799
865.754688	0.503264
865.940242	0.503374
866.125777	0.503744
866.311295	0.504320
866.496794	0.504340
866.682275	0.504434
866.867737	0.504103
867.053182	0.504397
867.238608	0.504535
867.424016	0.505537
867.609406	0.505648
867.794778	0.505814
867.980131	0.505722
868.165466	0.506566
868.350783	0.506853
868.536082	0.507609
868.721362	0.507519
868.906625	0.508042
869.091869	0.507980
869.277094	0.508530
869.462302	0.509145
869.647491	0.509907
869.832662	0.509823
870.017815	0.510006
870.202950	0.510276
870.388066	0.511231
870.573165	0.511110
870.758245	0.511541
870.943306	0.511994
871.128350	0.512510
871.313375	0.512993
871.498382	0.513456
871.683371	0.514004
871.868342	0.514271
872.053294	0.514546
872.238229	0.515231
872.423144	0.515544
872.608042	0.515599
872.792922	0.515549
872.977783	0.515448
873.162626	0.516265
873.347451	0.516722
873.532258	0.517347
873.717046	0.517988
873.901816	0.518122
874.086568	0.518835
874.271302	0.519519
874.456017	0.520525
874.640715	0.521037
874.825394	0.521471
875.010055	0.521312
875.194697	0.521343
875.379322	0.521063
875.563928	0.521788
875.748516	0.521206
875.933085	0.520889
876.117637	0.520196
876.302170	0.520308
876.486685	0.520014
876.671182	0.520813
876.855661	0.521397
877.040121	0.521568
877.224563	0.521872
877.408987	0.522701
877.593393	0.523341
877.777780	0.523652
877.962150	0.524545
878.146501	0.524567
878.330833	0.524587
878.515148	0.524336
878.699444	0.524916
878.883722	0.524706
879.067982	0.525066
879.252224	0.524959
879.436447	0.525580
879.620653	0.525118
879.804840	0.525186
879.989008	0.525557
880.173159	0.525684
880.357291	0.525762
880.541405	0.526165
880.725501	0.525966
880.909579	0.526376
881.093638	0.526554
881.277680	0.527095
881.461703	0.527718
881.645707	0.527926
881.829694	0.528399
882.013662	0.528508
882.197612	0.529145
882.381544	0.529289
882.565458	0.529111
882.749353	0.529265
882.933230	0.529081
883.117089	0.529652
883.300930	0.529623
883.484753	0.529374
883.668557	0.529614
883.852343	0.529101
884.036111	0.529338
884.219861	0.529722
884.403592	0.529050
884.587305	0.529336
884.771000	0.528689
884.954677	0.528772
885.138335	0.529430
885.321976	0.529100
885.505598	0.529249
885.689201	0.529233
885.872787	0.529216
886.056354	0.530141
886.239904	0.530541
886.423434	0.530935
886.606947	0.530817
886.790442	0.530714
886.973918	0.531302
887.157376	0.531512
887.340816	0.532026
887.524237	0.532464
887.707641	0.532533
887.891026	0.532108
888.074393	0.532361
888.257741	0.532537
888.441072	0.532906
888.624384	0.532823
888.807678	0.532644
888.990954	0.532309
889.174211	0.531995
889.357451	0.531630
889.540672	0.531946
889.723875	0.531703
889.907059	0.531316
890.090226	0.530948
890.273374	0.531300
890.456504	0.530888
890.639616	0.530862
890.822709	0.530985
891.005785	0.531161
891.188842	0.530845
891.371881	0.530793
891.554901	0.531003
891.737904	0.530370
891.920888	0.530084
892.103854	0.529725
892.286802	0.529709
892.469731	0.529178
892.652643	0.528727
892.835536	0.528359
893.018410	0.528060
893.201267	0.528013
893.384106	0.528294
893.566926	0.527820
893.749728	0.528521
893.932511	0.528441
894.115277	0.528481
894.298024	0.528606
894.480753	0.528522
894.663464	0.528191
894.846157	0.527900
895.028831	0.528153
895.211487	0.528628
895.394125	0.528469
895.576745	0.528009
895.759346	0.527899
895.941930	0.527734
896.124495	0.527914
896.307041	0.528232
896.489570	0.528193
896.672080	0.527723
896.854573	0.526151
897.037046	0.525548
897.219502	0.526051
897.401940	0.526137
897.584359	0.525665
897.766760	0.525115
897.949143	0.524743
898.131507	0.524105
898.313854	0.523707
898.496182	0.524030
898.678492	0.524590
898.860783	0.523722
899.043057	0.523013
899.225312	0.523048
899.407549	0.522990
899.589768	0.522697
899.771968	0.522661
899.954151	0.522411
900.136315	0.522335
900.318461	0.520851
900.500588	0.519921
900.682698	0.519626
900.864789	0.519554
901.046862	0.518817
901.228917	0.518767
901.410953	0.518134
901.592971	0.517038
901.774972	0.516767
901.956953	0.516928
902.138917	0.517215
902.320862	0.517053
902.502790	0.516930
902.684699	0.516572
902.866589	0.515524
903.048462	0.515864
903.230316	0.516013
903.412152	0.515502
903.593970	0.515122
903.775770	0.514596
903.957551	0.513858
904.139314	0.512494
904.321059	0.512188
904.502786	0.511659
904.684494	0.510632
904.866185	0.510503
905.047857	0.509671
905.229510	0.508886
905.411146	0.508682
905.592763	0.508030
905.774363	0.507847
905.955943	0.506631
906.137506	0.506377
906.319051	0.506009
906.500577	0.505296
906.682085	0.505141
906.863575	0.504955
907.045046	0.504221
907.226500	0.503435
907.407935	0.503018
907.589352	0.503114
907.770750	0.502854
907.952131	0.502015
908.133493	0.501653
908.314837	0.501493
908.496163	0.500672
908.677470	0.500484
908.858760	0.500641
909.040031	0.499818
909.221284	0.499286
909.402518	0.498406
909.583735	0.498148
909.764933	0.497560
909.946113	0.496341
910.127275	0.496281
910.308418	0.495061
910.489544	0.494155
910.670651	0.493846
910.851740	0.494200
911.032810	0.494001
911.213863	0.493402
911.394897	0.492429
911.575913	0.491806
911.756911	0.490550
911.937890	0.490377
912.118851	0.490309
912.299794	0.489648
912.480719	0.488154
912.661626	0.487407
912.842514	0.486219
913.023384	0.485967
913.204236	0.485331
913.385070	0.484740
913.565886	0.483796
913.746683	0.482819
913.927462	0.481911
914.108223	0.481340
914.288965	0.480492
914.469690	0.480525
914.650396	0.479663
914.831084	0.479026
915.011754	0.478265
915.192405	0.477343
915.373038	0.475845
915.553653	0.474896
915.734250	0.474335
915.914829	0.473294
916.095389	0.472565
916.275931	0.470642
916.456455	0.469464
916.636961	0.468608
916.817448	0.467827
916.997917	0.467616
917.178368	0.467098
917.358801	0.465033
917.539216	0.464296
917.719612	0.463196
917.899990	0.463148
918.080350	0.461520
918.260692	0.460547
918.441015	0.459411
918.621320	0.458501
918.801607	0.457485
918.981876	0.457408
919.162127	0.456044
919.342359	0.454813
919.522573	0.453799
919.702769	0.453430
919.882947	0.452295
920.063106	0.451843
920.243247	0.450224
920.423370	0.448460
920.603475	0.447523
920.783562	0.446867
920.963630	0.446158
921.143680	0.444659
921.323712	0.444088
921.503725	0.443870
921.683721	0.442557
921.863698	0.442622
922.043657	0.442589
922.223598	0.441523
922.403520	0.440194
922.583424	0.438762
922.763311	0.438683
922.943178	0.437797
923.123028	0.436419
923.302859	0.435487
923.482673	0.433734
923.662467	0.431782
923.842244	0.430355
924.022003	0.429819
924.201743	0.429514
924.381465	0.428707
924.561169	0.427922
924.740854	0.426566
924.920522	0.425833
925.100171	0.423769
925.279802	0.423680
925.459414	0.423419
925.639009	0.422850
925.818585	0.420884
925.998143	0.420153
926.177683	0.418866
926.357205	0.418039
926.536708	0.417370
926.716193	0.417645
926.895660	0.416513
927.075109	0.414903
927.254539	0.413102
927.433951	0.412070
927.613345	0.410032
927.792721	0.409174
927.972079	0.407747
928.151418	0.405810
928.330739	0.404394
928.510042	0.403002
928.689327	0.402365
928.868593	0.401613
929.047841	0.400747
929.227071	0.399318
929.406283	0.396782
929.585476	0.395335
929.764652	0.394657
929.943809	0.394166
930.122948	0.392509
930.302068	0.390626
930.481171	0.388904
930.660255	0.387157
930.839321	0.385988
931.018369	0.385099
931.197398	0.385102
931.376409	0.383270
931.555402	0.382055
931.734377	0.381498
931.913334	0.380073
932.092272	0.379306
932.271192	0.378019
932.450094	0.377358
932.628978	0.377358
932.807844	0.374857
932.986691	0.372294
933.165520	0.370307
933.344331	0.368466
933.523123	0.367093
933.701898	0.366225
933.880654	0.365777
934.059392	0.363706
934.238111	0.362383
934.416813	0.360799
934.595496	0.360591
934.774161	0.359648
934.952808	0.359108
935.131437	0.357720
935.310047	0.354624
935.488639	0.352430
935.667213	0.351697
935.845769	0.349985
936.024306	0.349576
936.202825	0.347742
936.381326	0.345879
936.559809	0.344601
936.738274	0.343237
936.916720	0.342810
937.095148	0.341335
937.273558	0.338810
937.451950	0.336361
937.630323	0.334766
937.808678	0.334118
937.987015	0.332380
938.165334	0.329973
938.343635	0.329536
938.521917	0.328310
938.700181	0.328573
938.878427	0.329283
939.056655	0.328559
939.234864	0.326352
939.413055	0.323726
939.591228	0.324373
939.769383	0.323900
939.947519	0.321124
940.125638	0.319338
940.303738	0.317680
940.481820	0.315494
940.659883	0.313612
940.837929	0.313492
941.015956	0.312951
941.193965	0.309409
941.371955	0.307317
941.549928	0.305582
941.727882	0.303117
941.905818	0.300087
942.083736	0.297481
942.261636	0.296636
942.439517	0.293838
942.617380	0.292461
942.795225	0.290428
942.973052	0.288533
943.150860	0.288202
943.328651	0.288296
943.506423	0.288356
943.684176	0.287029
943.861912	0.285095
944.039629	0.283470
944.217328	0.282483
944.395009	0.284079
944.572672	0.283418
944.750317	0.281847
944.927943	0.279720
945.105551	0.277189
945.283141	0.275091
945.460712	0.273149
945.638265	0.272393
945.815801	0.272222
945.993317	0.268726
946.170816	0.264958
946.348297	0.263600
946.525759	0.262600
946.703203	0.260824
946.880629	0.259569
947.058036	0.259007
947.235425	0.257450
947.412797	0.254566
947.590149	0.252255
947.767484	0.253935
947.944800	0.251659
948.122099	0.249436
948.299379	0.249023
948.476640	0.248777
948.653884	0.247099
948.831109	0.245855
949.008316	0.243495
949.185505	0.241459
949.362676	0.238751
949.539828	0.237587
949.716962	0.236447
949.894078	0.234783
950.071176	0.233555
950.248256	0.231842
950.425317	0.231071
950.602360	0.229864
950.779385	0.229214
950.956391	0.226587
951.133380	0.226256
951.310350	0.224915
951.487302	0.223024
951.664235	0.222851
951.841151	0.222770
952.018048	0.221690
952.194927	0.220832
952.371788	0.220666
952.548631	0.219882
952.725455	0.219403
952.902261	0.218813
953.079049	0.218078
953.255819	0.216761
953.432570	0.213896
953.609303	0.210055
953.786018	0.209489
953.962715	0.206324
954.139394	0.207071
954.316054	0.204382
954.492696	0.204384
954.669320	0.203485
954.845926	0.201287
955.022513	0.200341
955.199083	0.199830
955.375634	0.198844
955.552166	0.201079
955.728681	0.198894
955.905177	0.196505
956.081655	0.193829
956.258115	0.192702
956.434557	0.192219
956.610980	0.191393
956.787385	0.191588
956.963772	0.191820
957.140141	0.188667
957.316492	0.189291
957.492824	0.190059
957.669138	0.190300
957.845434	0.189166
958.021712	0.187081
958.197971	0.188572
958.374212	0.190929
958.550435	0.189106
958.726640	0.191423
958.902826	0.192661
959.078995	0.192768
959.255145	0.191627
959.431277	0.190583
959.607390	0.191175
959.783486	0.190315
959.959563	0.187100
960.135622	0.185927
960.311662	0.180925
960.487685	0.177546
960.663689	0.176741
960.839675	0.175783
961.015643	0.177207
961.191593	0.177098
961.367524	0.175535
961.543437	0.175564
961.719332	0.176056
961.895209	0.177180
962.071067	0.176333
962.246907	0.175479
962.422730	0.174448
962.598533	0.174427
962.774319	0.171556
962.950086	0.171293
963.125835	0.169508
963.301566	0.168191
963.477279	0.168877
963.652973	0.168292
963.828650	0.169054
964.004308	0.170550
964.179947	0.168771
964.355569	0.170814
964.531172	0.170703
964.706757	0.172904
964.882324	0.173546
965.057873	0.174747
965.233403	0.173288
965.408916	0.172179
965.584410	0.170113
965.759885	0.170633
965.935343	0.170654
966.110782	0.169896
966.286203	0.166346
966.461606	0.165835
966.636991	0.165207
966.812357	0.167149
966.987705	0.165233
967.163035	0.168064
967.338347	0.165871
967.513641	0.164147
967.688916	0.164779
967.864173	0.167484
968.039412	0.167421
968.214632	0.167673
968.389835	0.167769
968.565019	0.171969
968.740185	0.170823
968.915333	0.170831
969.090462	0.170852
969.265573	0.169704
969.440667	0.168390
969.615741	0.167857
969.790798	0.167354
969.965836	0.167162
970.140856	0.165938
970.315858	0.164618
970.490842	0.166314
970.665808	0.166555
970.840755	0.168264
971.015684	0.168366
971.190595	0.168521
971.365487	0.168326
971.540362	0.167154
971.715218	0.165384
971.890056	0.166612
972.064875	0.166304
972.239677	0.165987
972.414460	0.163027
972.589225	0.163587
972.763972	0.162956
972.938700	0.162269
973.113411	0.163926
973.288103	0.164528
973.462777	0.162760
973.637432	0.161123
973.812070	0.161866
973.986689	0.163155
974.161290	0.162149
974.335873	0.161856
974.510437	0.163127
974.684984	0.161105
974.859512	0.162779
975.034022	0.162438
975.208513	0.163572
975.382987	0.161439
975.557442	0.163937
975.731879	0.164762
975.906298	0.165795
976.080698	0.164914
976.255080	0.167104
976.429445	0.164095
976.603790	0.165577
976.778118	0.166421
976.952427	0.170617
977.126719	0.169021
977.300992	0.167909
977.475246	0.167026
977.649483	0.167128
977.823701	0.167300
977.997901	0.168617
978.172083	0.170677
978.346247	0.171031
978.520392	0.168566
978.694519	0.168360
978.868628	0.171524
979.042719	0.172168
979.216791	0.172550
979.390845	0.171662
979.564882	0.170927
979.738899	0.168625
979.912899	0.167940
980.086880	0.167117
980.260843	0.168556
980.434788	0.167235
980.608715	0.168328
980.782623	0.169422
980.956514	0.171476
981.130386	0.172501
981.304240	0.170937
981.478075	0.169999
981.651892	0.172128
981.825692	0.170514
981.999472	0.170597
982.173235	0.170525
982.346980	0.169584
982.520706	0.167109
982.694414	0.167767
982.868104	0.168486
983.041775	0.170509
983.215428	0.170268
983.389064	0.170739
983.562680	0.170081
983.736279	0.169770
983.909860	0.168287
984.083422	0.168382
984.256966	0.167034
984.430491	0.167517
984.603999	0.166474
984.777488	0.166557
984.950959	0.166540
985.124412	0.166863
985.297847	0.166186
985.471263	0.167793
985.644661	0.167985
985.818041	0.169182
985.991403	0.169990
986.164747	0.169740
986.338072	0.168967
986.511379	0.170276
986.684668	0.170922
986.857938	0.171569
987.031191	0.170811
987.204425	0.170654
987.377641	0.169485
987.550839	0.167737
987.724018	0.165570
987.897179	0.166450
988.070322	0.165778
988.243447	0.165602
988.416554	0.165273
988.589642	0.164794
988.762712	0.164758
988.935764	0.164889
989.108798	0.168470
989.281813	0.171361
989.454811	0.170515
989.627790	0.169801
989.800751	0.170733
989.973693	0.171033
990.146617	0.170876
990.319524	0.170530
990.492412	0.168545
990.665281	0.165397
990.838133	0.164608
991.010966	0.163439
991.183781	0.165130
991.356578	0.163382
991.529356	0.162923
991.702117	0.162600
991.874859	0.163117
992.047583	0.166817
992.220288	0.169267
992.392976	0.167664
992.565645	0.169554
992.738296	0.168368
992.910929	0.166532
993.083543	0.165499
993.256139	0.166937
993.428718	0.166281
993.601277	0.165945
993.773819	0.164721
993.946342	0.166795
994.118848	0.164910
994.291335	0.164631
994.463803	0.166491
994.636254	0.168382
994.808686	0.166389
994.981100	0.167302
995.153496	0.166432
995.325874	0.166001
995.498233	0.166095
995.670574	0.167479
995.842897	0.167683
996.015202	0.167554
996.187488	0.168220
996.359757	0.169543
996.532007	0.168361
996.704239	0.168244
996.876452	0.169665
997.048648	0.168975
997.220825	0.168174
997.392984	0.167024
997.565124	0.167742
997.737247	0.167848
997.909351	0.168546
998.081437	0.169413
998.253505	0.168347
998.425554	0.168055
998.597586	0.167063
998.769599	0.167644
998.941594	0.169656
999.113571	0.169975
999.285529	0.167872
999.457469	0.166952
999.629391	0.167223
999.801295	0.168239
999.973181	0.166143
1000.145048	0.168516
1000.316897	0.168094
1000.488728	0.168630
1000.660541	0.169398
1000.832335	0.169682
1001.004111	0.169186
1001.175869	0.168859
1001.347609	0.169969
1001.519331	0.171749
1001.691034	0.170110
1001.862719	0.170952
1002.034386	0.169812
1002.206035	0.169424
1002.377665	0.169086
1002.549277	0.169175
1002.720871	0.169313
1002.892447	0.168551
1003.064004	0.168444
1003.235544	0.169032
1003.407065	0.169177
1003.578568	0.168569
1003.750052	0.168213
1003.921519	0.169045
1004.092967	0.170017
1004.264397	0.170520
1004.435809	0.170184
1004.607202	0.169415
1004.778577	0.168589
1004.949934	0.168907
1005.121273	0.167955
1005.292594	0.167397
1005.463896	0.166212
1005.635180	0.167211
1005.806446	0.166578
1005.977694	0.166214
1006.148923	0.168404
1006.320135	0.169828
1006.491328	0.168050
1006.662503	0.168176
1006.833659	0.167747
1007.004798	0.168816
1007.175918	0.166639
1007.347020	0.167206
1007.518103	0.167032
1007.689169	0.165173
1007.860216	0.163863
1008.031245	0.164695
1008.202256	0.166849
1008.373248	0.167771
1008.544223	0.167828
1008.715179	0.168247
1008.886117	0.165963
1009.057036	0.166513
1009.227938	0.166137
1009.398821	0.167295
1009.569686	0.166984
1009.740533	0.165910
1009.911361	0.166699
1010.082172	0.165839
1010.252964	0.165366
1010.423738	0.167108
1010.594493	0.165143
1010.765231	0.163900
1010.935950	0.163179
1011.106651	0.164659
1011.277334	0.164573
1011.447998	0.164303
1011.618645	0.164594
1011.789273	0.165242
1011.959882	0.165017
1012.130474	0.166916
1012.301048	0.168721
1012.471603	0.167793
1012.642140	0.166838
1012.812658	0.166707
1012.983159	0.164419
1013.153641	0.164511
1013.324105	0.164489
1013.494551	0.163815
1013.664979	0.163781
1013.835388	0.164284
1014.005779	0.165631
1014.176152	0.167398
1014.346507	0.168468
1014.516843	0.169733
1014.687162	0.169157
1014.857462	0.169625
1015.027744	0.169718
1015.198007	0.169327
1015.368252	0.169192
1015.538480	0.169003
1015.708689	0.167603
1015.878879	0.167507
1016.049052	0.168502
1016.219206	0.167862
1016.389342	0.167908
1016.559460	0.169590
1016.729559	0.169189
1016.899641	0.167127
1017.069704	0.167575
1017.239749	0.168506
1017.409775	0.167822
1017.579784	0.165337
1017.749774	0.166969
1017.919746	0.166719
1018.089700	0.164176
1018.259635	0.164534
1018.429553	0.165549
1018.599452	0.164719
1018.769333	0.165273
1018.939195	0.164474
1019.109040	0.166732
1019.278866	0.165861
1019.448674	0.166621
1019.618464	0.166509
1019.788235	0.165884
1019.957989	0.165202
1020.127724	0.164081
1020.297441	0.162076
1020.467139	0.162283
1020.636820	0.160680
1020.806482	0.160597
1020.976126	0.159721
1021.145752	0.162184
1021.315359	0.163702
1021.484948	0.164744
1021.654519	0.165012
1021.824072	0.164449
1021.993607	0.164268
1022.163123	0.164924
1022.332621	0.166250
1022.502101	0.167706
1022.671563	0.167402
1022.841007	0.165339
1023.010432	0.165584
1023.179839	0.165902
1023.349228	0.166242
1023.518598	0.165817
1023.687951	0.165240
1023.857285	0.162463
1024.026601	0.160403
1024.195899	0.160100
1024.365178	0.163122
1024.534439	0.162207
1024.703682	0.163571
1024.872907	0.163263
1025.042114	0.163859
1025.211302	0.163089
1025.380472	0.165869
1025.549624	0.168237
1025.718758	0.166600
1025.887873	0.163892
1026.056970	0.164465
1026.226049	0.162623
1026.395110	0.162347
1026.564153	0.163109
1026.733177	0.162566
1026.902183	0.161978
1027.071171	0.160565
1027.240141	0.161353
1027.409092	0.162871
1027.578026	0.163347
1027.746940	0.164622
1027.915837	0.165547
1028.084716	0.165576
1028.253576	0.166775
1028.422418	0.166553
1028.591242	0.167315
1028.760048	0.168241
1028.928835	0.168662
1029.097604	0.168738
1029.266355	0.167863
1029.435088	0.167497
1029.603803	0.165510
1029.772499	0.167369
1029.941177	0.168685
1030.109837	0.167545
1030.278478	0.166247
1030.447102	0.164837
1030.615707	0.163698
1030.784294	0.163562
1030.952863	0.162556
1031.121413	0.163140
1031.289945	0.161546
1031.458460	0.159137
1031.626955	0.158739
1031.795433	0.158228
1031.963892	0.160579
1032.132334	0.161713
1032.300756	0.161551
1032.469161	0.162486
1032.637548	0.163429
1032.805916	0.163474
1032.974266	0.165189
1033.142598	0.166692
1033.310911	0.166805
1033.479207	0.164555
1033.647484	0.163721
1033.815743	0.161535
1033.983983	0.161698
1034.152206	0.159930
1034.320410	0.160460
1034.488596	0.159147
1034.656764	0.157611
1034.824914	0.159381
1034.993045	0.158286
1035.161158	0.156596
1035.329253	0.160454
1035.497330	0.159453
1035.665388	0.161185
1035.833428	0.161066
1036.001450	0.162549
1036.169454	0.163843
1036.337440	0.163891
1036.505407	0.164654
1036.673356	0.166013
1036.841287	0.165507
1037.009200	0.166688
1037.177094	0.165938
1037.344970	0.165344
1037.512828	0.164334
1037.680668	0.163696
1037.848489	0.163925
1038.016293	0.163404
1038.184078	0.164302
1038.351845	0.163532
1038.519593	0.162894
1038.687324	0.162032
1038.855036	0.161963
1039.022730	0.161486
1039.190406	0.161860
1039.358063	0.159784
1039.525702	0.160574
1039.693323	0.158789
1039.860926	0.158609
1040.028511	0.158305
1040.196077	0.159081
1040.363625	0.158528
1040.531155	0.159095
1040.698667	0.157331
1040.866161	0.156192
1041.033636	0.155944
1041.201093	0.156084
1041.368532	0.155362
1041.535952	0.158468
1041.703355	0.159693
1041.870739	0.159785
1042.038105	0.160680
1042.205452	0.162153
1042.372782	0.163776
1042.540093	0.164451
1042.707386	0.165265
1042.874661	0.166025
1043.041918	0.162627
1043.209156	0.159992
1043.376376	0.159955
1043.543578	0.158882
1043.710762	0.158693
1043.877927	0.158467
1044.045074	0.158333
1044.212203	0.155917
1044.379314	0.156098
1044.546407	0.157027
1044.713481	0.158447
1044.880537	0.158348
1045.047575	0.159178
1045.214595	0.158317
1045.381596	0.157600
1045.548579	0.157884
1045.715544	0.159897
1045.882491	0.160530
1046.049420	0.158965
1046.216330	0.158860
1046.383222	0.160475
1046.550096	0.158578
1046.716951	0.158325
1046.883789	0.161492
1047.050608	0.160919
1047.217409	0.161309
1047.384192	0.162221
1047.550956	0.163444
1047.717703	0.164699
1047.884431	0.164487
1048.051140	0.165660
1048.217832	0.166089
1048.384505	0.163578
1048.551161	0.163233
1048.717798	0.163633
1048.884416	0.162758
1049.051017	0.163650
1049.217599	0.163465
1049.384163	0.162808
1049.550709	0.163535
1049.717237	0.165621
1049.883746	0.165476
1050.050237	0.166285
1050.216710	0.165479
1050.383165	0.165340
1050.549601	0.166384
1050.716019	0.166962
1050.882420	0.167509
1051.048801	0.167676
1051.215165	0.165748
1051.381510	0.165368
1051.547837	0.165042
1051.714146	0.165920
1051.880437	0.164927
1052.046709	0.161497
1052.212964	0.160462
1052.379200	0.157890
1052.545417	0.158209
1052.711617	0.159580
1052.877798	0.159529
1053.043961	0.158875
1053.210106	0.157279
1053.376233	0.156888
1053.542341	0.157915
1053.708432	0.157415
1053.874504	0.158603
1054.040557	0.157975
1054.206593	0.156200
1054.372610	0.158120
1054.538609	0.157863
1054.704590	0.159871
1054.870553	0.159670
1055.036497	0.159251
1055.202424	0.160265
1055.368331	0.161419
1055.534221	0.158731
1055.700093	0.158473
1055.865946	0.157005
1056.031781	0.158867
1056.197598	0.157759
1056.363397	0.157376
1056.529177	0.159773
1056.694939	0.157760
1056.860683	0.158439
1057.026409	0.160623
1057.192116	0.160547
1057.357806	0.160883
1057.523477	0.158974
1057.689130	0.159301
1057.854764	0.161967
1058.020381	0.160208
1058.185979	0.163490
1058.351559	0.163278
1058.517120	0.162433
1058.682664	0.162694
1058.848189	0.163844
1059.013696	0.163875
1059.179185	0.164318
1059.344656	0.162590
1059.510108	0.163771
1059.675542	0.162636
1059.840958	0.159854
1060.006356	0.161808
1060.171735	0.163578
1060.337096	0.161921
1060.502439	0.162851
1060.667764	0.162500
1060.833071	0.162267
1060.998359	0.161415
1061.163629	0.161470
1061.328881	0.162086
1061.494115	0.161433
1061.659330	0.162156
1061.824527	0.162398
1061.989706	0.163568
1062.154867	0.161938
1062.320010	0.160250
1062.485134	0.159354
1062.650240	0.156759
1062.815328	0.158783
1062.980398	0.160171
1063.145449	0.159706
1063.310482	0.160840
1063.475497	0.160852
1063.640494	0.162979
1063.805473	0.165232
1063.970433	0.165595
1064.135375	0.168781
1064.300299	0.168425
1064.465204	0.169075
1064.630092	0.167059
1064.794961	0.166041
1064.959812	0.165009
1065.124645	0.165289
1065.289459	0.167171
1065.454256	0.168023
1065.619034	0.164769
1065.783793	0.161601
1065.948535	0.157878
1066.113258	0.160135
1066.277964	0.161116
1066.442651	0.162056
1066.607319	0.161015
1066.771970	0.159453
1066.936602	0.159382
1067.101216	0.163707
1067.265812	0.166671
1067.430389	0.167127
1067.594949	0.163493
1067.759490	0.162227
1067.924013	0.162385
1068.088518	0.163891
1068.253004	0.164256
1068.417472	0.163036
1068.581922	0.160647
1068.746354	0.160333
1068.910768	0.159773
1069.075163	0.160370
1069.239540	0.161053
1069.403899	0.159523
1069.568240	0.159320
1069.732562	0.161342
1069.896866	0.160473
1070.061152	0.161625
1070.225420	0.161936
1070.389670	0.164417
1070.553901	0.165688
1070.718114	0.166189
1070.882309	0.166778
1071.046486	0.166157
1071.210644	0.163856
1071.374784	0.165766
1071.538906	0.163383
1071.703010	0.161253
1071.867096	0.161261
1072.031163	0.162307
1072.195212	0.163255
1072.359243	0.164625
1072.523256	0.163300
1072.687250	0.164099
1072.851226	0.165814
1073.015184	0.166881
1073.179124	0.169247
1073.343045	0.169479
1073.506949	0.168824
1073.670834	0.167334
1073.834701	0.164836
1073.998549	0.165912
1074.162380	0.165538
1074.326192	0.162960
1074.489986	0.162193
1074.653761	0.161511
1074.817519	0.159142
1074.981258	0.158355
1075.144979	0.158386
1075.308682	0.159115
1075.472367	0.158982
1075.636033	0.159536
1075.799681	0.158537
1075.963311	0.158180
1076.126923	0.160728
1076.290516	0.161176
1076.454092	0.161439
1076.617649	0.162505
1076.781187	0.161723
1076.944708	0.161192
1077.108210	0.158620
1077.271695	0.160122
1077.435160	0.159773
1077.598608	0.157874
1077.762038	0.159302
1077.925449	0.159861
1078.088842	0.158822
1078.252217	0.159956
1078.415573	0.161360
1078.578912	0.163274
1078.742232	0.163272
1078.905534	0.162097
1079.068817	0.162622
1079.232083	0.163491
1079.395330	0.165305
1079.558559	0.167548
1079.721770	0.166779
1079.884962	0.166460
1080.048136	0.168053
1080.211293	0.169471
1080.374430	0.170441
1080.537550	0.169299
1080.700651	0.165836
1080.863735	0.162674
1081.026800	0.159768
1081.189846	0.159496
1081.352875	0.162065
1081.515885	0.160581
1081.678877	0.159470
1081.841851	0.158039
1082.004807	0.158540
1082.167744	0.161213
1082.330663	0.162848
1082.493564	0.164158
1082.656447	0.162035
1082.819312	0.160795
1082.982158	0.159215
1083.144986	0.158996
1083.307796	0.162943
1083.470587	0.162051
1083.633361	0.163634
1083.796116	0.163647
1083.958853	0.161351
1084.121571	0.164678
1084.284272	0.160547
1084.446954	0.162285
1084.609618	0.161339
1084.772264	0.161110
1084.934892	0.162339
1085.097501	0.159253
1085.260092	0.158206
1085.422665	0.159067
1085.585220	0.156393
1085.747756	0.159841
1085.910274	0.159890
1086.072774	0.160513
1086.235256	0.157714
1086.397720	0.156357
1086.560165	0.157283
1086.722592	0.158344
1086.885001	0.160164
1087.047392	0.164463
1087.209764	0.163023
1087.372119	0.160042
1087.534455	0.159821
1087.696772	0.160715
1087.859072	0.160954
1088.021353	0.162014
1088.183616	0.161166
1088.345861	0.159642
1088.508088	0.156256
1088.670296	0.157171
1088.832486	0.160923
1088.994658	0.157930
1089.156812	0.161237
1089.318948	0.161006
1089.481065	0.157635
1089.643164	0.158448
1089.805245	0.159103
1089.967308	0.164078
1090.129352	0.162979
1090.291378	0.161773
1090.453386	0.163511
1090.615376	0.160284
1090.777347	0.158117
1090.939301	0.159824
1091.101236	0.158006
1091.263153	0.159886
1091.425051	0.154660
1091.586932	0.154783
1091.748794	0.155237
1091.910638	0.156269
1092.072463	0.159186
1092.234271	0.161746
1092.396060	0.162470
1092.557831	0.163802
1092.719584	0.161890
1092.881319	0.163525
1093.043035	0.165349
1093.204733	0.165828
1093.366413	0.168683
1093.528075	0.168448
1093.689718	0.168120
1093.851343	0.166979
1094.012950	0.166280
1094.174539	0.166712
1094.336110	0.168661
1094.497662	0.167503
1094.659196	0.166792
1094.820712	0.162360
1094.982210	0.160119
1095.143689	0.161609
1095.305151	0.163350
1095.466594	0.165721
1095.628018	0.169328
1095.789425	0.167408
1095.950813	0.166364
1096.112183	0.166681
1096.273535	0.171453
1096.434869	0.171657
1096.596184	0.170045
1096.757482	0.168466
1096.918761	0.167194
1097.080021	0.160379
1097.241264	0.159762
1097.402488	0.161808
1097.563694	0.158711
1097.724882	0.155318
1097.886052	0.154419
1098.047203	0.154879
1098.208336	0.152246
1098.369451	0.151574
1098.530548	0.151746
1098.691627	0.150189
1098.852687	0.144629
1099.013729	0.147234
1099.174753	0.148762
1099.335758	0.153550
1099.496746	0.152718
1099.657715	0.153976
1099.818666	0.152314
1099.979599	0.155613
1100.140513	0.155476
1100.301409	0.157318
1100.462287	0.157362
1100.623147	0.155242
1100.783989	0.153725
1100.944812	0.157674
1101.105617	0.160547
1101.266404	0.160826
1101.427173	0.161139
1101.587923	0.160899
1101.748656	0.161966
1101.909370	0.160278
1102.070066	0.162020
1102.230743	0.159595
1102.391403	0.157126
1102.552044	0.153904
1102.712667	0.154049
1102.873271	0.153976
1103.033858	0.156689
1103.194426	0.157599
1103.354976	0.159287
1103.515508	0.157859
1103.676021	0.160324
1103.836517	0.160353
1103.996994	0.159178
1104.157453	0.161289
1104.317893	0.162556
1104.478316	0.163144
1104.638720	0.164690
1104.799106	0.164179
1104.959474	0.168271
1105.119823	0.164510
1105.280155	0.163836
1105.440468	0.170681
1105.600763	0.168474
1105.761039	0.163526
1105.921298	0.165180
1106.081538	0.162443
1106.241760	0.164712
1106.401964	0.163532
1106.562149	0.165510
1106.722316	0.164429
1106.882465	0.153089
1107.042596	0.153583
1107.202709	0.157432
1107.362803	0.154702
1107.522879	0.156354
1107.682937	0.148273
1107.842977	0.145251
1108.002999	0.148742
1108.163002	0.148484
1108.322987	0.154116
1108.482954	0.154644
1108.642902	0.153198
1108.802833	0.152694
1108.962745	0.157620
1109.122639	0.164065
1109.282515	0.164790
1109.442372	0.163082
1109.602211	0.165864
1109.762032	0.168968
1109.921835	0.168468
1110.081620	0.164830
1110.241386	0.165184
1110.401134	0.159429
1110.560864	0.158648
1110.720576	0.160517
1110.880269	0.159831
1111.039945	0.160057
1111.199602	0.157503
1111.359240	0.158237
1111.518861	0.160666
1111.678463	0.159164
1111.838047	0.160013
1111.997613	0.161364
1112.157161	0.156493
1112.316690	0.153987
1112.476202	0.153745
1112.635695	0.155459
1112.795169	0.153701
1112.954626	0.155424
1113.114064	0.156163
1113.273484	0.155422
1113.432886	0.153180
1113.592270	0.153516
1113.751635	0.153149
1113.910983	0.154842
1114.070312	0.152131
1114.229622	0.154030
1114.388915	0.151302
1114.548189	0.149277
1114.707445	0.150478
1114.866683	0.150362
1115.025903	0.152714
1115.185104	0.152980
1115.344287	0.152183
1115.503452	0.156056
1115.662599	0.157098
1115.821727	0.161633
1115.980838	0.164197
1116.139930	0.157899
1116.299004	0.158703
1116.458059	0.158146
1116.617097	0.161096
1116.776116	0.155662
1116.935117	0.152925
1117.094099	0.149878
1117.253064	0.148285
1117.412010	0.148532
1117.570938	0.152650
1117.729848	0.155429
1117.888740	0.156755
1118.047613	0.154855
1118.206468	0.156681
1118.365305	0.155443
1118.524124	0.150742
1118.682924	0.150559
1118.841707	0.146587
1119.000471	0.147861
1119.159216	0.145063
1119.317944	0.146285
1119.476653	0.146736
1119.635344	0.144668
1119.794017	0.148799
1119.952672	0.152542
1120.111308	0.152909
1120.269927	0.157561
1120.428527	0.154842
1120.587108	0.153938
1120.745672	0.152788
1120.904217	0.153100
1121.062744	0.156895
1121.221253	0.150027
1121.379744	0.154441
1121.538216	0.150074
1121.696671	0.150954
1121.855107	0.154370
1122.013524	0.148402
1122.171924	0.148332
1122.330305	0.145603
1122.488668	0.145648
1122.647013	0.150451
1122.805340	0.150643
1122.963648	0.151996
1123.121938	0.148476
1123.280210	0.149194
1123.438464	0.154947
1123.596700	0.150779
1123.754917	0.152339
1123.913116	0.149141
1124.071297	0.150047
1124.229459	0.150965
1124.387604	0.150409
1124.545730	0.154712
1124.703838	0.147216
1124.861928	0.142954
1125.019999	0.145147
1125.178052	0.144510
1125.336088	0.143969
1125.494104	0.142211
1125.652103	0.139431
1125.810083	0.139563
1125.968045	0.134069
1126.125989	0.141091
1126.283915	0.142132
1126.441823	0.145685
1126.599712	0.146938
1126.757583	0.150331
1126.915436	0.151323
1127.073270	0.157088
1127.231087	0.155394
1127.388885	0.154798
1127.546665	0.151403
1127.704426	0.157810
1127.862170	0.157858
1128.019895	0.150973
1128.177602	0.150477
1128.335291	0.152182
1128.492961	0.144045
1128.650614	0.144043
1128.808248	0.146169
1128.965864	0.149481
1129.123461	0.149423
1129.281041	0.148885
1129.438602	0.152765
1129.596145	0.150535
1129.753670	0.144909
1129.911176	0.146393
1130.068665	0.152010
1130.226135	0.151174
1130.383587	0.152616
1130.541020	0.151852
1130.698436	0.148188
1130.855833	0.150639
1131.013212	0.150966
1131.170573	0.160228
1131.327915	0.161410
1131.485239	0.160796
1131.642545	0.162499
1131.799833	0.159557
1131.957103	0.155001
1132.114354	0.157615
1132.271588	0.157736
1132.428803	0.158460
1132.585999	0.150435
1132.743178	0.154473
1132.900338	0.152829
1133.057480	0.150793
1133.214604	0.152450
1133.371710	0.155387
1133.528797	0.155545
1133.685866	0.151272
1133.842917	0.153802
1133.999950	0.156093
1134.156964	0.149878
1134.313960	0.150677
1134.470938	0.154030
1134.627898	0.145069
1134.784840	0.145687
1134.941763	0.148189
1135.098668	0.149194
1135.255555	0.143021
1135.412424	0.142054
1135.569274	0.143101
1135.726107	0.140464
1135.882921	0.143022
1136.039716	0.150677
1136.196494	0.149632
1136.353253	0.146526
1136.509995	0.151355
1136.666717	0.156622
1136.823422	0.158755
1136.980109	0.154628
1137.136777	0.152489
1137.293427	0.145612
1137.450059	0.145510
1137.606672	0.140500
1137.763267	0.139371
1137.919844	0.139631
1138.076403	0.134346
1138.232944	0.132094
1138.389466	0.131177
1138.545971	0.135121
1138.702457	0.138555
1138.858924	0.135403
1139.015374	0.135577
1139.171805	0.137713
1139.328218	0.135129
1139.484613	0.139952
1139.640990	0.142131
1139.797348	0.140626
1139.953688	0.135734
1140.110010	0.133090
1140.266314	0.137025
1140.422600	0.139668
1140.578867	0.144185
1140.735116	0.146573
1140.891347	0.148949
1141.047559	0.143526
1141.203754	0.151537
1141.359930	0.156429
1141.516088	0.159491
1141.672228	0.155627
1141.828349	0.156837
1141.984452	0.150614
1142.140537	0.148831
1142.296604	0.148407
1142.452653	0.149657
1142.608683	0.142645
1142.764695	0.137994
1142.920689	0.129267
1143.076665	0.126936
1143.232622	0.132038
1143.388562	0.131839
1143.544483	0.130727
1143.700385	0.130262
1143.856270	0.133388
1144.012136	0.131771
1144.167985	0.135753
1144.323814	0.135098
1144.479626	0.129578
1144.635420	0.123019
1144.791195	0.123710
1144.946952	0.118797
1145.102691	0.110267
1145.258411	0.107431
1145.414113	0.111251
1145.569798	0.113639
1145.725463	0.120851
1145.881111	0.129031
1146.036741	0.133112
1146.192352	0.128266
1146.347945	0.130413
1146.503519	0.134210
1146.659076	0.133302
1146.814614	0.133984
1146.970134	0.130454
1147.125636	0.129124
1147.281120	0.135218
1147.436585	0.126564
1147.592032	0.131770
1147.747461	0.132971
1147.902872	0.140453
1148.058265	0.140494
1148.213639	0.145432
1148.368995	0.147493
1148.524333	0.147952
1148.679653	0.138700
1148.834954	0.144961
1148.990237	0.147649
1149.145502	0.150913
1149.300749	0.145050
1149.455977	0.146451
1149.611188	0.139883
1149.766380	0.137925
1149.921553	0.137455
1150.076709	0.133667
1150.231846	0.138216
1150.386966	0.139383
1150.542066	0.141227
1150.697149	0.138939
1150.852214	0.143802
1151.007260	0.146768
1151.162288	0.149832
1151.317298	0.151146
1151.472289	0.158139
1151.627263	0.145289
1151.782218	0.141567
1151.937155	0.135089
1152.092073	0.135421
1152.246974	0.125308
1152.401856	0.124189
1152.556720	0.116295
1152.711566	0.116943
1152.866393	0.118857
1153.021203	0.120434
1153.175994	0.123801
1153.330767	0.122247
1153.485521	0.117755
1153.640258	0.119601
1153.794976	0.120740
1153.949676	0.125248
1154.104358	0.118894
1154.259021	0.114501
1154.413667	0.114354
1154.568294	0.109892
1154.722903	0.114989
1154.877493	0.120061
1155.032066	0.122842
1155.186620	0.120009
1155.341156	0.122958
1155.495674	0.125140
1155.650173	0.125468
1155.804654	0.129318
1155.959118	0.129344
1156.113562	0.124768
1156.267989	0.129301
1156.422397	0.131461
1156.576788	0.130903
1156.731160	0.122263
1156.885513	0.127173
1157.039849	0.123609
1157.194166	0.129873
1157.348465	0.122507
1157.502746	0.127055
1157.657009	0.122482
1157.811253	0.118399
1157.965479	0.125849
1158.119687	0.130386
1158.273877	0.125299
1158.428048	0.129631
1158.582201	0.123627
1158.736337	0.123352
1158.890453	0.120696
1159.044552	0.122942
1159.198632	0.122375
1159.352694	0.118777
1159.506738	0.117925
1159.660764	0.118644
1159.814771	0.118911
1159.968761	0.120679
1160.122732	0.125934
1160.276685	0.121736
1160.430619	0.110947
1160.584535	0.117774
1160.738434	0.110955
1160.892313	0.100497
1161.046175	0.099752
1161.200019	0.098198
1161.353844	0.101092
1161.507651	0.098931
1161.661440	0.094258
1161.815210	0.099194
1161.968962	0.090047
1162.122697	0.087113
1162.276412	0.096158
1162.430110	0.093045
1162.583789	0.096391
1162.737451	0.084234
1162.891094	0.084567
1163.044718	0.087498
1163.198325	0.096086
1163.351913	0.103340
1163.505483	0.111783
1163.659035	0.109341
1163.812569	0.114531
1163.966084	0.111226
1164.119581	0.111545
1164.273060	0.109271
1164.426521	0.110786
1164.579964	0.104365
1164.733388	0.099956
1164.886794	0.091786
1165.040182	0.099294
1165.193551	0.100633
1165.346903	0.094257
1165.500236	0.097131
1165.653551	0.098793
1165.806848	0.103212
1165.960126	0.105635
1166.113386	0.105319
1166.266628	0.112660
1166.419852	0.111329
1166.573058	0.109020
1166.726245	0.113403
1166.879414	0.113041
1167.032565	0.115276
1167.185698	0.108249
1167.338812	0.101274
1167.491909	0.101440
1167.644987	0.097744
1167.798046	0.086003
1167.951088	0.078404
1168.104111	0.079520
1168.257117	0.083951
1168.410103	0.080179
1168.563072	0.074620
1168.716023	0.077627
1168.868955	0.076846
1169.021869	0.077658
1169.174765	0.086872
1169.327642	0.098441
1169.480501	0.104551
1169.633343	0.101609
1169.786165	0.107885
1169.938970	0.117960
1170.091757	0.109445
1170.244525	0.108782
1170.397275	0.105049
1170.550007	0.097034
1170.702720	0.090842
1170.855415	0.088128
1171.008092	0.082154
1171.160751	0.070481
1171.313392	0.063787
1171.466014	0.133508
1171.618619	0.036628
1171.771205	0.036628
1171.923772	0.036628
