sample name	sample
index	1210
start time	 04-26-2021  01:14:47 PM


Wavelength (nm)	Absorbance
494.344910	0.654360
494.563924	0.654360
494.782919	0.654360
495.001897	NaN
495.220856	NaN
495.439797	0.368931
495.658719	0.338810
495.877624	-0.587063
496.096510	-0.457955
496.315378	-0.293456
496.534227	-0.274780
496.753059	-0.189735
496.971872	-0.056190
497.190667	0.132340
497.409444	0.155182
497.628203	0.156446
497.846943	0.158444
498.065665	0.156731
498.284369	0.159325
498.503055	0.158424
498.721723	0.157322
498.940372	0.156337
499.159003	0.157278
499.377616	0.157393
499.596210	0.156458
499.814787	0.156838
500.033345	0.156550
500.251885	0.154644
500.470406	0.154904
500.688910	0.154541
500.907395	0.155244
501.125862	0.154624
501.344311	0.155135
501.562742	0.154653
501.781154	0.155415
501.999548	0.155311
502.217924	0.155035
502.436282	0.155805
502.654621	0.156161
502.872942	0.156385
503.091245	0.155552
503.309530	0.154982
503.527797	0.156312
503.746045	0.155640
503.964275	0.156398
504.182487	0.156538
504.400681	0.155449
504.618856	0.155113
504.837013	0.154481
505.055152	0.155935
505.273273	0.156111
505.491376	0.156547
505.709460	0.155701
505.927526	0.155688
506.145574	0.157007
506.363604	0.157963
506.581615	0.159201
506.799608	0.159633
507.017583	0.158611
507.235540	0.157915
507.453478	0.157547
507.671399	0.158056
507.889301	0.158909
508.107185	0.158353
508.325050	0.157626
508.542898	0.157122
508.760727	0.158142
508.978538	0.158879
509.196330	0.158766
509.414105	0.157767
509.631861	0.159039
509.849599	0.158626
510.067319	0.158819
510.285021	0.158942
510.502704	0.159733
510.720369	0.158774
510.938016	0.159094
511.155645	0.159684
511.373255	0.160885
511.590848	0.160248
511.808422	0.161401
512.025977	0.161303
512.243515	0.162699
512.461034	0.162641
512.678536	0.163327
512.896018	0.162984
513.113483	0.163449
513.330930	0.163584
513.548358	0.164071
513.765768	0.163766
513.983160	0.164452
514.200533	0.164098
514.417889	0.164383
514.635226	0.164236
514.852545	0.165105
515.069845	0.165172
515.287128	0.165357
515.504392	0.165003
515.721638	0.165702
515.938866	0.164689
516.156075	0.164976
516.373267	0.164789
516.590440	0.165750
516.807594	0.165626
517.024731	0.166051
517.241850	0.165849
517.458950	0.166340
517.676032	0.166286
517.893095	0.167193
518.110141	0.167612
518.327168	0.167793
518.544177	0.167633
518.761168	0.167648
518.978141	0.167331
519.195095	0.168650
519.412031	0.169462
519.628949	0.169973
519.845849	0.171416
520.062731	0.171046
520.279594	0.171903
520.496439	0.172124
520.713266	0.172610
520.930074	0.173204
521.146865	0.173235
521.363637	0.172851
521.580391	0.172592
521.797127	0.171847
522.013844	0.172679
522.230543	0.172289
522.447224	0.171784
522.663887	0.171979
522.880532	0.172244
523.097158	0.173044
523.313766	0.173417
523.530356	0.173867
523.746928	0.174605
523.963481	0.174257
524.180017	0.175464
524.396534	0.176790
524.613032	0.177018
524.829513	0.177851
525.045975	0.177190
525.262420	0.177153
525.478845	0.177412
525.695253	0.177004
525.911643	0.177370
526.128014	0.177215
526.344367	0.177652
526.560702	0.177671
526.777018	0.177359
526.993316	0.177089
527.209597	0.177313
527.425858	0.177712
527.642102	0.177888
527.858328	0.177865
528.074535	0.178116
528.290724	0.178197
528.506894	0.178713
528.723047	0.179483
528.939181	0.180383
529.155297	0.181045
529.371395	0.180671
529.587475	0.181387
529.803536	0.182390
530.019579	0.182081
530.235604	0.181334
530.451611	0.181910
530.667600	0.181409
530.883570	0.181494
531.099522	0.181995
531.315456	0.182219
531.531372	0.182586
531.747269	0.182977
531.963148	0.183288
532.179009	0.184526
532.394852	0.184717
532.610676	0.184487
532.826482	0.184859
533.042271	0.185283
533.258040	0.186317
533.473792	0.186345
533.689525	0.186160
533.905240	0.187370
534.120937	0.187194
534.336616	0.187380
534.552277	0.188243
534.767919	0.188253
534.983543	0.188234
535.199149	0.188421
535.414736	0.188827
535.630306	0.189391
535.845857	0.189227
536.061390	0.189680
536.276904	0.189745
536.492401	0.190461
536.707879	0.191025
536.923339	0.191765
537.138781	0.192273
537.354204	0.192632
537.569610	0.192706
537.784997	0.192668
538.000366	0.193513
538.215716	0.194107
538.431049	0.194358
538.646363	0.194607
538.861659	0.194558
539.076937	0.195037
539.292196	0.195945
539.507438	0.196473
539.722661	0.197141
539.937866	0.197310
540.153052	0.197739
540.368221	0.198171
540.583371	0.199283
540.798503	0.199332
541.013617	0.199612
541.228712	0.199750
541.443789	0.200207
541.658848	0.200260
541.873889	0.200066
542.088912	0.200359
542.303916	0.199981
542.518902	0.200126
542.733870	0.200814
542.948820	0.200619
543.163752	0.200332
543.378665	0.200490
543.593560	0.201190
543.808437	0.201728
544.023295	0.201907
544.238136	0.202688
544.452958	0.202246
544.667762	0.202786
544.882548	0.203822
545.097315	0.204859
545.312064	0.205102
545.526795	0.205818
545.741508	0.206286
545.956203	0.206446
546.170879	0.206744
546.385537	0.207580
546.600177	0.207595
546.814799	0.207059
547.029402	0.206610
547.243988	0.206711
547.458555	0.206807
547.673103	0.207096
547.887634	0.207668
548.102146	0.207956
548.316640	0.208084
548.531116	0.208751
548.745574	0.209021
548.960013	0.209761
549.174435	0.210516
549.388838	0.209830
549.603222	0.209675
549.817589	0.209423
550.031937	0.209637
550.246267	0.210111
550.460579	0.209212
550.674873	0.209499
550.889148	0.208891
551.103405	0.208780
551.317644	0.209684
551.531865	0.209742
551.746068	0.210174
551.960252	0.210225
552.174418	0.210532
552.388566	0.211265
552.602696	0.211010
552.816807	0.211347
553.030900	0.211611
553.244975	0.211300
553.459032	0.211563
553.673070	0.212059
553.887091	0.212496
554.101093	0.212403
554.315077	0.212683
554.529042	0.213403
554.742990	0.213845
554.956919	0.214023
555.170830	0.214484
555.384722	0.214955
555.598597	0.215089
555.812453	0.214749
556.026291	0.214768
556.240111	0.214977
556.453913	0.215414
556.667696	0.215093
556.881461	0.214345
557.095208	0.214593
557.308937	0.214274
557.522647	0.214061
557.736339	0.214541
557.950013	0.214658
558.163669	0.214847
558.377307	0.214596
558.590926	0.214940
558.804527	0.215920
559.018110	0.215950
559.231675	0.216692
559.445221	0.217267
559.658749	0.217196
559.872259	0.217622
560.085751	0.217532
560.299225	0.218104
560.512680	0.218518
560.726117	0.219081
560.939536	0.219045
561.152937	0.218981
561.366319	0.218851
561.579683	0.219348
561.793029	0.219013
562.006357	0.219477
562.219667	0.219658
562.432958	0.219961
562.646231	0.219591
562.859486	0.220369
563.072723	0.220530
563.285941	0.220917
563.499141	0.220588
563.712323	0.221050
563.925487	0.220984
564.138632	0.220948
564.351760	0.221012
564.564869	0.221219
564.777960	0.220786
564.991032	0.221103
565.204087	0.221089
565.417123	0.221433
565.630141	0.221742
565.843140	0.221906
566.056122	0.221812
566.269085	0.221636
566.482030	0.221768
566.694957	0.222179
566.907866	0.222469
567.120756	0.222555
567.333628	0.222666
567.546482	0.222427
567.759318	0.222634
567.972135	0.222738
568.184935	0.223097
568.397716	0.223196
568.610478	0.223085
568.823223	0.222874
569.035949	0.223009
569.248657	0.223468
569.461347	0.223897
569.674019	0.224095
569.886672	0.224501
570.099308	0.224688
570.311925	0.224785
570.524523	0.225031
570.737104	0.225117
570.949666	0.225636
571.162210	0.225966
571.374736	0.226405
571.587244	0.226281
571.799733	0.226443
572.012205	0.226471
572.224658	0.226915
572.437092	0.227584
572.649509	0.228014
572.861907	0.227820
573.074287	0.227775
573.286649	0.227603
573.498993	0.228115
573.711318	0.228446
573.923625	0.228992
574.135914	0.229022
574.348185	0.228491
574.560438	0.228521
574.772672	0.228981
574.984888	0.229050
575.197086	0.229261
575.409266	0.229315
575.621427	0.229317
575.833570	0.229171
576.045695	0.229380
576.257802	0.229760
576.469890	0.229897
576.681961	0.229706
576.894013	0.230001
577.106046	0.230032
577.318062	0.229517
577.530059	0.229617
577.742039	0.230150
577.954000	0.230130
578.165942	0.230696
578.377867	0.230942
578.589773	0.230764
578.801661	0.230757
579.013531	0.230854
579.225382	0.231464
579.437216	0.231841
579.649031	0.232155
579.860828	0.232271
580.072606	0.231894
580.284367	0.231854
580.496109	0.232342
580.707833	0.232824
580.919539	0.233095
581.131227	0.233151
581.342896	0.232878
581.554547	0.232964
581.766180	0.233480
581.977795	0.234113
582.189391	0.234604
582.400969	0.234737
582.612529	0.234456
582.824071	0.234195
583.035595	0.234929
583.247100	0.235193
583.458587	0.235015
583.670056	0.235301
583.881506	0.235221
584.092939	0.235340
584.304353	0.235870
584.515749	0.236145
584.727127	0.237157
584.938486	0.237415
585.149828	0.237951
585.361151	0.238249
585.572456	0.238176
585.783742	0.238407
585.995011	0.238647
586.206261	0.238938
586.417493	0.239308
586.628706	0.239145
586.839902	0.239405
587.051079	0.239728
587.262238	0.239819
587.473379	0.240122
587.684502	0.240679
587.895606	0.240877
588.106692	0.241264
588.317760	0.241507
588.528810	0.242035
588.739841	0.242129
588.950855	0.242178
589.161850	0.242660
589.372827	0.243028
589.583785	0.242609
589.794726	0.242663
590.005648	0.242497
590.216552	0.242880
590.427437	0.242999
590.638305	0.243185
590.849154	0.243157
591.059985	0.243503
591.270798	0.243690
591.481592	0.243918
591.692369	0.244229
591.903127	0.244208
592.113867	0.244504
592.324588	0.244773
592.535292	0.244955
592.745977	0.245730
592.956644	0.245238
593.167293	0.245198
593.377923	0.245712
593.588536	0.245964
593.799130	0.246483
594.009706	0.246813
594.220263	0.246938
594.430803	0.247308
594.641324	0.247019
594.851827	0.247743
595.062312	0.248266
595.272778	0.248501
595.483227	0.248763
595.693657	0.249033
595.904069	0.248947
596.114462	0.249115
596.324838	0.249013
596.535195	0.249202
596.745534	0.249484
596.955855	0.249830
597.166157	0.249927
597.376441	0.250304
597.586707	0.250327
597.796955	0.250314
598.007185	0.250678
598.217396	0.250938
598.427589	0.251343
598.637764	0.251497
598.847921	0.251724
599.058060	0.252061
599.268180	0.252135
599.478282	0.252207
599.688366	0.252645
599.898431	0.252672
600.108479	0.252629
600.318508	0.252410
600.528519	0.252694
600.738511	0.252646
600.948486	0.252815
601.158442	0.253007
601.368380	0.253514
601.578300	0.253767
601.788202	0.254027
601.998085	0.254809
602.207950	0.255438
602.417797	0.255240
602.627626	0.255458
602.837436	0.255571
603.047228	0.255696
603.257002	0.255766
603.466758	0.255879
603.676496	0.256039
603.886215	0.255685
604.095916	0.255678
604.305599	0.256058
604.515264	0.256214
604.724910	0.256425
604.934538	0.256574
605.144148	0.256831
605.353740	0.257016
605.563314	0.257098
605.772869	0.257279
605.982406	0.257606
606.191925	0.257505
606.401425	0.257644
606.610908	0.257897
606.820372	0.257912
607.029818	0.258337
607.239246	0.258501
607.448655	0.258510
607.658047	0.258669
607.867420	0.258709
608.076775	0.259310
608.286111	0.259496
608.495430	0.259522
608.704730	0.259588
608.914012	0.259540
609.123275	0.259955
609.332521	0.260206
609.541748	0.260325
609.750957	0.260997
609.960148	0.261077
610.169321	0.261194
610.378475	0.261413
610.587611	0.261531
610.796729	0.261659
611.005829	0.261611
611.214910	0.262017
611.423974	0.262432
611.633019	0.262344
611.842045	0.262433
612.051054	0.262643
612.260044	0.263090
612.469017	0.263472
612.677970	0.263822
612.886906	0.264044
613.095824	0.264371
613.304723	0.264568
613.513604	0.264722
613.722467	0.265010
613.931311	0.264972
614.140138	0.264973
614.348946	0.265332
614.557736	0.265410
614.766507	0.265417
614.975261	0.265429
615.183996	0.265662
615.392713	0.265663
615.601412	0.265636
615.810092	0.266120
616.018754	0.266074
616.227399	0.266094
616.436024	0.266570
616.644632	0.266804
616.853222	0.267186
617.061793	0.267195
617.270346	0.267688
617.478880	0.268134
617.687397	0.268062
617.895895	0.268405
618.104375	0.268592
618.312837	0.268434
618.521281	0.268720
618.729706	0.268667
618.938113	0.268966
619.146502	0.268856
619.354873	0.269105
619.563226	0.269259
619.771560	0.269378
619.979876	0.269565
620.188174	0.269568
620.396453	0.269730
620.604715	0.269890
620.812958	0.270115
621.021183	0.270629
621.229390	0.270521
621.437578	0.270847
621.645748	0.271317
621.853900	0.271633
622.062034	0.271975
622.270150	0.272151
622.478247	0.272388
622.686326	0.272598
622.894387	0.272569
623.102430	0.272944
623.310454	0.273276
623.518461	0.273161
623.726449	0.273298
623.934418	0.273615
624.142370	0.273893
624.350303	0.274267
624.558218	0.274607
624.766115	0.275164
624.973994	0.275323
625.181855	0.275618
625.389697	0.275914
625.597521	0.276205
625.805327	0.276271
626.013114	0.276214
626.220883	0.276219
626.428634	0.276139
626.636367	0.276071
626.844082	0.276317
627.051778	0.276738
627.259457	0.276982
627.467117	0.277100
627.674758	0.277168
627.882382	0.277682
628.089987	0.277838
628.297574	0.277969
628.505143	0.278006
628.712694	0.277955
628.920226	0.277875
629.127740	0.278076
629.335236	0.278210
629.542714	0.278422
629.750174	0.278080
629.957615	0.278620
630.165038	0.278850
630.372443	0.279017
630.579829	0.279504
630.787198	0.279304
630.994548	0.279248
631.201880	0.279476
631.409194	0.279763
631.616489	0.279988
631.823766	0.279710
632.031025	0.280273
632.238266	0.280450
632.445489	0.280450
632.652693	0.280910
632.859879	0.281166
633.067047	0.281207
633.274197	0.281049
633.481329	0.281408
633.688442	0.281486
633.895537	0.281336
634.102614	0.281536
634.309672	0.281650
634.516713	0.281858
634.723735	0.281613
634.930739	0.281722
635.137724	0.282000
635.344692	0.282171
635.551641	0.282335
635.758572	0.282201
635.965485	0.282352
636.172379	0.282392
636.379256	0.282478
636.586114	0.283017
636.792954	0.283215
636.999775	0.283622
637.206579	0.284024
637.413364	0.284435
637.620131	0.284886
637.826880	0.284748
638.033610	0.285180
638.240323	0.285353
638.447017	0.285454
638.653692	0.285679
638.860350	0.285529
639.066990	0.285615
639.273611	0.285851
639.480214	0.285936
639.686798	0.286541
639.893365	0.286910
640.099913	0.286922
640.306443	0.287378
640.512955	0.287745
640.719449	0.288159
640.925924	0.288152
641.132381	0.288421
641.338820	0.288760
641.545241	0.288838
641.751644	0.288720
641.958028	0.289273
642.164394	0.289436
642.370742	0.289675
642.577071	0.290018
642.783383	0.290426
642.989676	0.290367
643.195951	0.290335
643.402207	0.290526
643.608446	0.290849
643.814666	0.291012
644.020868	0.291174
644.227052	0.291326
644.433218	0.291623
644.639365	0.291801
644.845494	0.292227
645.051605	0.292734
645.257698	0.292898
645.463772	0.293203
645.669828	0.293309
645.875866	0.293364
646.081886	0.293465
646.287888	0.293121
646.493871	0.293323
646.699836	0.293067
646.905783	0.293100
647.111712	0.293366
647.317622	0.293392
647.523514	0.293640
647.729388	0.293939
647.935244	0.294363
648.141082	0.294834
648.346901	0.294969
648.552702	0.295717
648.758485	0.296118
648.964250	0.296345
649.169996	0.296631
649.375724	0.296785
649.581434	0.297162
649.787126	0.297117
649.992800	0.297524
650.198455	0.297659
650.404092	0.297414
650.609711	0.297143
650.815311	0.297127
651.020894	0.297205
651.226458	0.296988
651.432004	0.297025
651.637532	0.296947
651.843041	0.296942
652.048532	0.297279
652.254006	0.297627
652.459460	0.297768
652.664897	0.298005
652.870315	0.298484
653.075716	0.298899
653.281097	0.298924
653.486461	0.299291
653.691807	0.299325
653.897134	0.299501
654.102443	0.299768
654.307734	0.300262
654.513006	0.300615
654.718261	0.300543
654.923497	0.300887
655.128715	0.301122
655.333915	0.301149
655.539096	0.301629
655.744259	0.301879
655.949404	0.302006
656.154531	0.302303
656.359640	0.302434
656.564730	0.302730
656.769802	0.302928
656.974856	0.303278
657.179892	0.303734
657.384909	0.303680
657.589908	0.303698
657.794889	0.304020
657.999852	0.304539
658.204797	0.304678
658.409723	0.304769
658.614631	0.304964
658.819521	0.305263
659.024393	0.305467
659.229246	0.306082
659.434081	0.306263
659.638898	0.306587
659.843697	0.306675
660.048478	0.307256
660.253240	0.307611
660.457984	0.307867
660.662710	0.308240
660.867417	0.308578
661.072107	0.308608
661.276778	0.309127
661.481431	0.309399
661.686066	0.309132
661.890682	0.309109
662.095281	0.309298
662.299861	0.309328
662.504422	0.309311
662.708966	0.309427
662.913491	0.309649
663.117999	0.309433
663.322488	0.309369
663.526958	0.309881
663.731411	0.310014
663.935845	0.310236
664.140261	0.310542
664.344659	0.310851
664.549038	0.311173
664.753400	0.311592
664.957743	0.312072
665.162068	0.312433
665.366375	0.312510
665.570663	0.312835
665.774933	0.313017
665.979185	0.313364
666.183419	0.313674
666.387635	0.314047
666.591832	0.313987
666.796011	0.314170
667.000172	0.314320
667.204315	0.314693
667.408439	0.314931
667.612545	0.315200
667.816634	0.315359
668.020703	0.315335
668.224755	0.315427
668.428788	0.315783
668.632803	0.316265
668.836800	0.316547
669.040779	0.316915
669.244739	0.317132
669.448681	0.317253
669.652605	0.317481
669.856511	0.318092
670.060399	0.318491
670.264268	0.319018
670.468119	0.319083
670.671952	0.319468
670.875767	0.319776
671.079563	0.320239
671.283341	0.320462
671.487101	0.320714
671.690843	0.320789
671.894567	0.321078
672.098272	0.321320
672.301959	0.321904
672.505628	0.322172
672.709278	0.322312
672.912911	0.322688
673.116525	0.323156
673.320121	0.323674
673.523699	0.324005
673.727258	0.324081
673.930799	0.324143
674.134322	0.324260
674.337827	0.324464
674.541314	0.324758
674.744782	0.324612
674.948232	0.325010
675.151664	0.325216
675.355078	0.325271
675.558474	0.325545
675.761851	0.325677
675.965210	0.325889
676.168551	0.325973
676.371873	0.326291
676.575178	0.326701
676.778464	0.326802
676.981732	0.326750
677.184981	0.327047
677.388213	0.327217
677.591426	0.327212
677.794621	0.327269
677.997798	0.327651
678.200956	0.327558
678.404097	0.327787
678.607219	0.327860
678.810323	0.328089
679.013408	0.327988
679.216476	0.328096
679.419525	0.328444
679.622556	0.328554
679.825569	0.328622
680.028563	0.329191
680.231540	0.329301
680.434498	0.329525
680.637438	0.329739
680.840359	0.330167
681.043263	0.330560
681.246148	0.330771
681.449015	0.331046
681.651864	0.330799
681.854694	0.330832
682.057506	0.330893
682.260301	0.330975
682.463076	0.331325
682.665834	0.331747
682.868573	0.332065
683.071295	0.332508
683.273998	0.332781
683.476682	0.333519
683.679349	0.333700
683.881997	0.334111
684.084627	0.334774
684.287239	0.334956
684.489833	0.335187
684.692408	0.335187
684.894965	0.335217
685.097504	0.335485
685.300025	0.335817
685.502527	0.336185
685.705012	0.336330
685.907478	0.336334
686.109925	0.336740
686.312355	0.336896
686.514766	0.337313
686.717159	0.337613
686.919534	0.337736
687.121891	0.337820
687.324230	0.337865
687.526550	0.338349
687.728852	0.338639
687.931136	0.338753
688.133401	0.338722
688.335649	0.338545
688.537878	0.338804
688.740089	0.339222
688.942281	0.339563
689.144456	0.339803
689.346612	0.339869
689.548750	0.339998
689.750870	0.340300
689.952971	0.340671
690.155055	0.341410
690.357120	0.341852
690.559167	0.342085
690.761195	0.342530
690.963206	0.343094
691.165198	0.343429
691.367172	0.343851
691.569128	0.344217
691.771065	0.344592
691.972984	0.344538
692.174885	0.344813
692.376768	0.344991
692.578633	0.344907
692.780479	0.344799
692.982308	0.344820
693.184118	0.344856
693.385909	0.344606
693.587683	0.344539
693.789438	0.344884
693.991175	0.344617
694.192894	0.344391
694.394595	0.344446
694.596277	0.344538
694.797941	0.344529
694.999587	0.344429
695.201215	0.344587
695.402824	0.344670
695.604416	0.344622
695.805989	0.344950
696.007543	0.345090
696.209080	0.345114
696.410598	0.345418
696.612099	0.345573
696.813580	0.345775
697.015044	0.345946
697.216490	0.346285
697.417917	0.346367
697.619326	0.346276
697.820717	0.346617
698.022089	0.346991
698.223444	0.346952
698.424780	0.347393
698.626098	0.347724
698.827397	0.347853
699.028679	0.347858
699.229942	0.348010
699.431187	0.348260
699.632414	0.348409
699.833622	0.348501
700.034813	0.348572
700.235985	0.348537
700.437139	0.348914
700.638274	0.349259
700.839392	0.349862
701.040491	0.350403
701.241572	0.350691
701.442635	0.350941
701.643679	0.351416
701.844706	0.351868
702.045714	0.351895
702.246704	0.351978
702.447675	0.352000
702.648629	0.351858
702.849564	0.351756
703.050481	0.351778
703.251380	0.351891
703.452260	0.351872
703.653122	0.352124
703.853966	0.352370
704.054792	0.352119
704.255600	0.352228
704.456389	0.352256
704.657160	0.352118
704.857913	0.352473
705.058648	0.352571
705.259365	0.352301
705.460063	0.351955
705.660743	0.352117
705.861405	0.351917
706.062048	0.352051
706.262674	0.352123
706.463281	0.352395
706.663870	0.351944
706.864441	0.351900
707.064993	0.352227
707.265527	0.352294
707.466043	0.352332
707.666541	0.352746
707.867021	0.352623
708.067482	0.352972
708.267925	0.352865
708.468350	0.353141
708.668757	0.352990
708.869145	0.353105
709.069516	0.353323
709.269868	0.353321
709.470201	0.353342
709.670517	0.353536
709.870814	0.353229
710.071093	0.353270
710.271354	0.353176
710.471597	0.353781
710.671821	0.353687
710.872028	0.353698
711.072216	0.353776
711.272385	0.353862
711.472537	0.353929
711.672670	0.353958
711.872785	0.354084
712.072882	0.354263
712.272961	0.353991
712.473021	0.353829
712.673063	0.353446
712.873087	0.353461
713.073093	0.353350
713.273081	0.353114
713.473050	0.353090
713.673001	0.353054
713.872934	0.353122
714.072849	0.353002
714.272745	0.352968
714.472623	0.353298
714.672483	0.352769
714.872325	0.352595
715.072148	0.352867
715.271954	0.352874
715.471741	0.352769
715.671509	0.352560
715.871260	0.352555
716.070992	0.352596
716.270707	0.352512
716.470403	0.352881
716.670080	0.353165
716.869740	0.352875
717.069381	0.353009
717.269004	0.353018
717.468609	0.353406
717.668195	0.353380
717.867764	0.353349
718.067314	0.353021
718.266846	0.353084
718.466360	0.352862
718.665855	0.352800
718.865332	0.352514
719.064791	0.352405
719.264232	0.352056
719.463655	0.351974
719.663059	0.351999
719.862445	0.351828
720.061813	0.351747
720.261163	0.351875
720.460494	0.352135
720.659807	0.352164
720.859102	0.352413
721.058379	0.352384
721.257638	0.352538
721.456878	0.352427
721.656100	0.352867
721.855304	0.352766
722.054490	0.352660
722.253657	0.352391
722.452806	0.352224
722.651937	0.352190
722.851050	0.352126
723.050145	0.352110
723.249221	0.351962
723.448279	0.351828
723.647319	0.351616
723.846340	0.351592
724.045344	0.351354
724.244329	0.351537
724.443296	0.351053
724.642245	0.350762
724.841175	0.350284
725.040088	0.350226
725.238982	0.349903
725.437857	0.349956
725.636715	0.349502
725.835554	0.349438
726.034376	0.349229
726.233179	0.349052
726.431963	0.349147
726.630730	0.348962
726.829478	0.348807
727.028208	0.348999
727.226920	0.348753
727.425614	0.348910
727.624289	0.348922
727.822946	0.348591
728.021585	0.348783
728.220206	0.348411
728.418808	0.348627
728.617392	0.348753
728.815958	0.348535
729.014506	0.348483
729.213036	0.348194
729.411547	0.347954
729.610040	0.348031
729.808515	0.348061
730.006972	0.348118
730.205410	0.347782
730.403831	0.347501
730.602233	0.347671
730.800616	0.347533
730.998982	0.347577
731.197329	0.347345
731.395658	0.346937
731.593969	0.346525
731.792262	0.346374
731.990536	0.346382
732.188793	0.346302
732.387031	0.346061
732.585250	0.345947
732.783452	0.346021
732.981635	0.346220
733.179800	0.346388
733.377947	0.346378
733.576076	0.346608
733.774186	0.346518
733.972278	0.346429
734.170352	0.346082
734.368408	0.345806
734.566446	0.345555
734.764465	0.345211
734.962466	0.345105
735.160449	0.344819
735.358413	0.344091
735.556360	0.343717
735.754288	0.343252
735.952198	0.343354
736.150090	0.343321
736.347963	0.343028
736.545818	0.343108
736.743655	0.342916
736.941474	0.342772
737.139275	0.342745
737.337057	0.342816
737.534821	0.343002
737.732567	0.342661
737.930295	0.342931
738.128005	0.343031
738.325696	0.342841
738.523369	0.343016
738.721024	0.342977
738.918660	0.343371
739.116279	0.343531
739.313879	0.343357
739.511461	0.343439
739.709024	0.342747
739.906570	0.342687
740.104097	0.342659
740.301606	0.342247
740.499097	0.342165
740.696569	0.341702
740.894024	0.341522
741.091460	0.341567
741.288878	0.340978
741.486277	0.341250
741.683659	0.340996
741.881022	0.340760
742.078367	0.340637
742.275694	0.340474
742.473002	0.340423
742.670293	0.340287
742.867565	0.339966
743.064819	0.340159
743.262054	0.339957
743.459272	0.339873
743.656471	0.339570
743.853652	0.339514
744.050815	0.339428
744.247959	0.339456
744.445085	0.339024
744.642194	0.338949
744.839283	0.338678
745.036355	0.338248
745.233408	0.337972
745.430444	0.337938
745.627461	0.337638
745.824459	0.337465
746.021440	0.337187
746.218402	0.337242
746.415346	0.337125
746.612272	0.337164
746.809180	0.337422
747.006069	0.337393
747.202940	0.337440
747.399793	0.337499
747.596628	0.337475
747.793444	0.337321
747.990243	0.337042
748.187023	0.336986
748.383784	0.336901
748.580528	0.336486
748.777253	0.336252
748.973960	0.335874
749.170649	0.335405
749.367320	0.335173
749.563973	0.335023
749.760607	0.334866
749.957223	0.334428
750.153821	0.333917
750.350400	0.333811
750.546962	0.333363
750.743505	0.333003
750.940030	0.332867
751.136536	0.332276
751.333025	0.332031
751.529495	0.331670
751.725947	0.331630
751.922381	0.331397
752.118796	0.330955
752.315194	0.330737
752.511573	0.330618
752.707934	0.330159
752.904276	0.329990
753.100601	0.329528
753.296907	0.329266
753.493195	0.328843
753.689465	0.328589
753.885716	0.328527
754.081949	0.328381
754.278164	0.328215
754.474361	0.328124
754.670540	0.328153
754.866700	0.328033
755.062843	0.327977
755.258967	0.327676
755.455072	0.327611
755.651160	0.327520
755.847229	0.327654
756.043280	0.327436
756.239313	0.327219
756.435328	0.327224
756.631324	0.327198
756.827302	0.327125
757.023262	0.327282
757.219204	0.327119
757.415127	0.326706
757.611033	0.326251
757.806920	0.326108
758.002788	0.326289
758.198639	0.325881
758.394471	0.325595
758.590286	0.325233
758.786081	0.325123
758.981859	0.325159
759.177619	0.325050
759.373360	0.324925
759.569083	0.324619
759.764788	0.324399
759.960474	0.324210
760.156143	0.324110
760.351793	0.324312
760.547425	0.323866
760.743038	0.323726
760.938634	0.323351
761.134211	0.323165
761.329770	0.323249
761.525311	0.322835
761.720833	0.322629
761.916338	0.322298
762.111824	0.321947
762.307292	0.322069
762.502741	0.321904
762.698173	0.322001
762.893586	0.321966
763.088981	0.321728
763.284358	0.321714
763.479716	0.321869
763.675057	0.321903
763.870379	0.321925
764.065683	0.321728
764.260968	0.321501
764.456236	0.321357
764.651485	0.321118
764.846716	0.321316
765.041929	0.321325
765.237123	0.320910
765.432299	0.320971
765.627457	0.320657
765.822597	0.320388
766.017719	0.320221
766.212822	0.320080
766.407907	0.320056
766.602974	0.319974
766.798023	0.319919
766.993054	0.320123
767.188066	0.319828
767.383060	0.319886
767.578036	0.319970
767.772993	0.319803
767.967933	0.319859
768.162854	0.319565
768.357757	0.319104
768.552642	0.318732
768.747508	0.318249
768.942356	0.318160
769.137186	0.317927
769.331998	0.317439
769.526792	0.317174
769.721567	0.317046
769.916324	0.316875
770.111063	0.316883
770.305784	0.316508
770.500486	0.316772
770.695171	0.316629
770.889837	0.316375
771.084484	0.316431
771.279114	0.316732
771.473725	0.316625
771.668318	0.316586
771.862893	0.316324
772.057450	0.316567
772.251988	0.316238
772.446509	0.316309
772.641011	0.316459
772.835494	0.316513
773.029960	0.315925
773.224407	0.316155
773.418836	0.316362
773.613247	0.316790
773.807640	0.316859
774.002014	0.317085
774.196370	0.317035
774.390708	0.316772
774.585028	0.316565
774.779330	0.316806
774.973613	0.316618
775.167878	0.316216
775.362125	0.315721
775.556354	0.315556
775.750564	0.315391
775.944756	0.315149
776.138930	0.314999
776.333086	0.314804
776.527223	0.314754
776.721343	0.314647
776.915444	0.315073
777.109526	0.315144
777.303591	0.315288
777.497637	0.315274
777.691666	0.315345
777.885676	0.315702
778.079667	0.316062
778.273641	0.316461
778.467596	0.316489
778.661533	0.316403
778.855452	0.316479
779.049352	0.316439
779.243235	0.316409
779.437099	0.316639
779.630945	0.316576
779.824773	0.316541
780.018582	0.316357
780.212373	0.316710
780.406146	0.316834
780.599901	0.316822
780.793638	0.316908
780.987356	0.317205
781.181056	0.316961
781.374738	0.316980
781.568402	0.317190
781.762047	0.317214
781.955674	0.316838
782.149283	0.316737
782.342874	0.316735
782.536447	0.316755
782.730001	0.316553
782.923537	0.316497
783.117055	0.316208
783.310555	0.315921
783.504036	0.316021
783.697499	0.315892
783.890944	0.315967
784.084371	0.315961
784.277780	0.315848
784.471170	0.315723
784.664542	0.315681
784.857896	0.315892
785.051231	0.315589
785.244549	0.315266
785.437848	0.315268
785.631129	0.315143
785.824392	0.315082
786.017636	0.314681
786.210863	0.314658
786.404071	0.314950
786.597260	0.314823
786.790432	0.315139
786.983585	0.315076
787.176721	0.315188
787.369838	0.315145
787.562936	0.314974
787.756017	0.315281
787.949079	0.315627
788.142123	0.315530
788.335149	0.315803
788.528156	0.316024
788.721146	0.316422
788.914117	0.316597
789.107070	0.316812
789.300005	0.317235
789.492921	0.317349
789.685819	0.317070
789.878699	0.317093
790.071561	0.317144
790.264405	0.317148
790.457230	0.317050
790.650037	0.316787
790.842826	0.316583
791.035597	0.316713
791.228349	0.316992
791.421084	0.316877
791.613800	0.316913
791.806497	0.316848
791.999177	0.316956
792.191838	0.317111
792.384481	0.317535
792.577106	0.317788
792.769713	0.317668
792.962301	0.317641
793.154871	0.318071
793.347423	0.318094
793.539957	0.318589
793.732473	0.318601
793.924970	0.318377
794.117449	0.318592
794.309910	0.318805
794.502353	0.318811
794.694777	0.318798
794.887183	0.318584
795.079571	0.318795
795.271941	0.318707
795.464293	0.318812
795.656626	0.319025
795.848941	0.318793
796.041238	0.318649
796.233516	0.318625
796.425777	0.318744
796.618019	0.318822
796.810243	0.319146
797.002449	0.319147
797.194636	0.319227
797.386805	0.319523
797.578956	0.319707
797.771089	0.319733
797.963204	0.320172
798.155300	0.320337
798.347378	0.320632
798.539438	0.320450
798.731480	0.320513
798.923503	0.320572
799.115509	0.320614
799.307496	0.320532
799.499465	0.320824
799.691415	0.320694
799.883348	0.320710
800.075262	0.320769
800.267158	0.320936
800.459035	0.320916
800.650895	0.320988
800.842736	0.320862
801.034559	0.321378
801.226364	0.321638
801.418150	0.321895
801.609919	0.322318
801.801669	0.322711
801.993401	0.322828
802.185114	0.323466
802.376810	0.323946
802.568487	0.324537
802.760146	0.324620
802.951787	0.324676
803.143409	0.325071
803.335014	0.325101
803.526600	0.325373
803.718168	0.325787
803.909717	0.325850
804.101249	0.325982
804.292762	0.326417
804.484257	0.326894
804.675734	0.327277
804.867192	0.327334
805.058632	0.327753
805.250054	0.327957
805.441458	0.328153
805.632844	0.328341
805.824211	0.328440
806.015561	0.328118
806.206891	0.327845
806.398204	0.327760
806.589499	0.328224
806.780775	0.328042
806.972033	0.328180
807.163273	0.328467
807.354495	0.328563
807.545698	0.328955
807.736883	0.329444
807.928050	0.329879
808.119199	0.330137
808.310329	0.330237
808.501441	0.330957
808.692535	0.331317
808.883611	0.331414
809.074669	0.331539
809.265708	0.331574
809.456729	0.331968
809.647732	0.332180
809.838717	0.332801
810.029683	0.333185
810.220632	0.333115
810.411562	0.333420
810.602474	0.333725
810.793367	0.334194
810.984242	0.334647
811.175100	0.334800
811.365938	0.335061
811.556759	0.334814
811.747562	0.334780
811.938346	0.335168
812.129112	0.335220
812.319860	0.335368
812.510589	0.335730
812.701300	0.335887
812.891994	0.336012
813.082668	0.336437
813.273325	0.337021
813.463964	0.337438
813.654584	0.337668
813.845186	0.337989
814.035769	0.338452
814.226335	0.338764
814.416882	0.339061
814.607411	0.339438
814.797922	0.339828
814.988415	0.340129
815.178889	0.340622
815.369345	0.341023
815.559783	0.341268
815.750203	0.341673
815.940605	0.341809
816.130988	0.342113
816.321353	0.342405
816.511700	0.342812
816.702028	0.342861
816.892339	0.342920
817.082631	0.342950
817.272905	0.343277
817.463161	0.343305
817.653398	0.343371
817.843617	0.343329
818.033819	0.343544
818.224001	0.343290
818.414166	0.343690
818.604312	0.343903
818.794440	0.344175
818.984550	0.344224
819.174642	0.344379
819.364716	0.344834
819.554771	0.345245
819.744808	0.345526
819.934827	0.345684
820.124827	0.345879
820.314810	0.346189
820.504774	0.346592
820.694720	0.347090
820.884647	0.347433
821.074557	0.347647
821.264448	0.348291
821.454321	0.348596
821.644176	0.349090
821.834012	0.349589
822.023831	0.350059
822.213631	0.350402
822.403413	0.350611
822.593176	0.350820
822.782922	0.351341
822.972649	0.351679
823.162358	0.351937
823.352049	0.352417
823.541721	0.352525
823.731376	0.353018
823.921012	0.353385
824.110629	0.354031
824.300229	0.354543
824.489811	0.355083
824.679374	0.355250
824.868919	0.355779
825.058445	0.355507
825.247954	0.356209
825.437444	0.356014
825.626916	0.356436
825.816370	0.356701
826.005806	0.357057
826.195223	0.356940
826.384622	0.357276
826.574003	0.357406
826.763366	0.358410
826.952711	0.358695
827.142037	0.359521
827.331345	0.359634
827.520635	0.360007
827.709906	0.360399
827.899160	0.361127
828.088395	0.361482
828.277612	0.362157
828.466810	0.362265
828.655991	0.362380
828.845153	0.362286
829.034297	0.362398
829.223423	0.362771
829.412531	0.363062
829.601620	0.363223
829.790691	0.363485
829.979744	0.363660
830.168779	0.364448
830.357795	0.364911
830.546793	0.365576
830.735773	0.366787
830.924735	0.367065
831.113679	0.367492
831.302604	0.368325
831.491511	0.368891
831.680400	0.369580
831.869271	0.369894
832.058123	0.370765
832.246957	0.371532
832.435773	0.371860
832.624571	0.372533
832.813351	0.373550
833.002112	0.374069
833.190855	0.374815
833.379580	0.375149
833.568287	0.375462
833.756975	0.375737
833.945645	0.376265
834.134297	0.377126
834.322931	0.377514
834.511547	0.377811
834.700144	0.377829
834.888723	0.378294
835.077284	0.379081
835.265826	0.379811
835.454351	0.380213
835.642857	0.380414
835.831345	0.380309
836.019815	0.380705
836.208266	0.380921
836.396699	0.381383
836.585114	0.381724
836.773511	0.382090
836.961890	0.382523
837.150250	0.383268
837.338592	0.383628
837.526916	0.384169
837.715222	0.384700
837.903510	0.385010
838.091779	0.385295
838.280030	0.385517
838.468263	0.385914
838.656477	0.386204
838.844674	0.386728
839.032852	0.387200
839.221012	0.387673
839.409153	0.388267
839.597277	0.388953
839.785382	0.389510
839.973469	0.390215
840.161538	0.390297
840.349589	0.390703
840.537621	0.390671
840.725635	0.390889
840.913631	0.391183
841.101609	0.391527
841.289568	0.391597
841.477509	0.392071
841.665432	0.392455
841.853337	0.392750
842.041224	0.393007
842.229092	0.393249
842.416942	0.393779
842.604774	0.393886
842.792588	0.394126
842.980383	0.394733
843.168160	0.395415
843.355919	0.395668
843.543660	0.396476
843.731382	0.396724
843.919087	0.397362
844.106773	0.397850
844.294441	0.398741
844.482090	0.398962
844.669722	0.399724
844.857335	0.400336
845.044930	0.400752
845.232507	0.401217
845.420065	0.402400
845.607605	0.402932
845.795127	0.403480
845.982631	0.404075
846.170117	0.404777
846.357584	0.404983
846.545033	0.405207
846.732464	0.405734
846.919877	0.406343
847.107272	0.406714
847.294648	0.407427
847.482006	0.408054
847.669346	0.408229
847.856667	0.408570
848.043971	0.408873
848.231256	0.408856
848.418523	0.409517
848.605771	0.409362
848.793002	0.409546
848.980214	0.410014
849.167408	0.410397
849.354584	0.410720
849.541742	0.411159
849.728881	0.411724
849.916002	0.412179
850.103105	0.412265
850.290190	0.413365
850.477256	0.414253
850.664304	0.414549
850.851334	0.414908
851.038346	0.415459
851.225340	0.415917
851.412315	0.416179
851.599272	0.416944
851.786211	0.417776
851.973132	0.417616
852.160034	0.417259
852.346918	0.417773
852.533784	0.418026
852.720632	0.418385
852.907462	0.418758
853.094273	0.419370
853.281066	0.419748
853.467841	0.420193
853.654598	0.421033
853.841336	0.421656
854.028056	0.421975
854.214758	0.422208
854.401442	0.422645
854.588107	0.423542
854.774755	0.424081
854.961384	0.424896
855.147995	0.425030
855.334587	0.425212
855.521162	0.425352
855.707718	0.425636
855.894256	0.426292
856.080775	0.426606
856.267277	0.426561
856.453760	0.427014
856.640225	0.426853
856.826672	0.427645
857.013101	0.428227
857.199511	0.429173
857.385903	0.429607
857.572277	0.429969
857.758633	0.430657
857.944970	0.430887
858.131290	0.430992
858.317591	0.431897
858.503873	0.432128
858.690138	0.432462
858.876384	0.432539
859.062612	0.433042
859.248822	0.433710
859.435014	0.433987
859.621188	0.434901
859.807343	0.435843
859.993480	0.435807
860.179599	0.436171
860.365699	0.436313
860.551781	0.437144
860.737846	0.437532
860.923891	0.437747
861.109919	0.438258
861.295929	0.438451
861.481920	0.438545
861.667893	0.438786
861.853848	0.439050
862.039784	0.439991
862.225702	0.440589
862.411603	0.440808
862.597484	0.441260
862.783348	0.441297
862.969193	0.441753
863.155021	0.442351
863.340830	0.443510
863.526620	0.444099
863.712393	0.443985
863.898147	0.443977
864.083883	0.444698
864.269601	0.445378
864.455301	0.446216
864.640982	0.447054
864.826645	0.447224
865.012290	0.447427
865.197917	0.447429
865.383526	0.447762
865.569116	0.448101
865.754688	0.448140
865.940242	0.448455
866.125777	0.448576
866.311295	0.448056
866.496794	0.448390
866.682275	0.448119
866.867737	0.448593
867.053182	0.448987
867.238608	0.449364
867.424016	0.449740
867.609406	0.449611
867.794778	0.449839
867.980131	0.450542
868.165466	0.450889
868.350783	0.451386
868.536082	0.451350
868.721362	0.451696
868.906625	0.452030
869.091869	0.452270
869.277094	0.452739
869.462302	0.453512
869.647491	0.453624
869.832662	0.453776
870.017815	0.454315
870.202950	0.454705
870.388066	0.455111
870.573165	0.455522
870.758245	0.456064
870.943306	0.456030
871.128350	0.455848
871.313375	0.455341
871.498382	0.455701
871.683371	0.455784
871.868342	0.456205
872.053294	0.456574
872.238229	0.456286
872.423144	0.456176
872.608042	0.456066
872.792922	0.456414
872.977783	0.457328
873.162626	0.457428
873.347451	0.457262
873.532258	0.457384
873.717046	0.457705
873.901816	0.458397
874.086568	0.458636
874.271302	0.459343
874.456017	0.459158
874.640715	0.459553
874.825394	0.460147
875.010055	0.460497
875.194697	0.460600
875.379322	0.460446
875.563928	0.460471
875.748516	0.460768
875.933085	0.461615
876.117637	0.462441
876.302170	0.462877
876.486685	0.462908
876.671182	0.463413
876.855661	0.464044
877.040121	0.464380
877.224563	0.464741
877.408987	0.465310
877.593393	0.465342
877.777780	0.465268
877.962150	0.465351
878.146501	0.465095
878.330833	0.465191
878.515148	0.465368
878.699444	0.465101
878.883722	0.465434
879.067982	0.465440
879.252224	0.465120
879.436447	0.465207
879.620653	0.465679
879.804840	0.466764
879.989008	0.466858
880.173159	0.466644
880.357291	0.468132
880.541405	0.468365
880.725501	0.468317
880.909579	0.468689
881.093638	0.469424
881.277680	0.469267
881.461703	0.469183
881.645707	0.469751
881.829694	0.470112
882.013662	0.469797
882.197612	0.469443
882.381544	0.469712
882.565458	0.469912
882.749353	0.469530
882.933230	0.469559
883.117089	0.469279
883.300930	0.468986
883.484753	0.469350
883.668557	0.469192
883.852343	0.469785
884.036111	0.470165
884.219861	0.470318
884.403592	0.470248
884.587305	0.470428
884.771000	0.470371
884.954677	0.470430
885.138335	0.470100
885.321976	0.470466
885.505598	0.469465
885.689201	0.469350
885.872787	0.469176
886.056354	0.469563
886.239904	0.469882
886.423434	0.470350
886.606947	0.470894
886.790442	0.470774
886.973918	0.470698
887.157376	0.471465
887.340816	0.471185
887.524237	0.471380
887.707641	0.471407
887.891026	0.470853
888.074393	0.470466
888.257741	0.470026
888.441072	0.470563
888.624384	0.470034
888.807678	0.470363
888.990954	0.470479
889.174211	0.469805
889.357451	0.469315
889.540672	0.469525
889.723875	0.469105
889.907059	0.468709
890.090226	0.468091
890.273374	0.468389
890.456504	0.467967
890.639616	0.468197
890.822709	0.468742
891.005785	0.468899
891.188842	0.469141
891.371881	0.469409
891.554901	0.469908
891.737904	0.470352
891.920888	0.470351
892.103854	0.470536
892.286802	0.470013
892.469731	0.469296
892.652643	0.468943
892.835536	0.468450
893.018410	0.468607
893.201267	0.467940
893.384106	0.468005
893.566926	0.467306
893.749728	0.467491
893.932511	0.467621
894.115277	0.467632
894.298024	0.467689
894.480753	0.467728
894.663464	0.467381
894.846157	0.467525
895.028831	0.467081
895.211487	0.467236
895.394125	0.467132
895.576745	0.467061
895.759346	0.467562
895.941930	0.467685
896.124495	0.467647
896.307041	0.467607
896.489570	0.467859
896.672080	0.467865
896.854573	0.467655
897.037046	0.466299
897.219502	0.465763
897.401940	0.465630
897.584359	0.465153
897.766760	0.464584
897.949143	0.464542
898.131507	0.463976
898.313854	0.463601
898.496182	0.463096
898.678492	0.463191
898.860783	0.463176
899.043057	0.462330
899.225312	0.461560
899.407549	0.461596
899.589768	0.460847
899.771968	0.460340
899.954151	0.459735
900.136315	0.459979
900.318461	0.460473
900.500588	0.459680
900.682698	0.459711
900.864789	0.460160
901.046862	0.459911
901.228917	0.460096
901.410953	0.459802
901.592971	0.459770
901.774972	0.459117
901.956953	0.457768
902.138917	0.457943
902.320862	0.457322
902.502790	0.456722
902.684699	0.456444
902.866589	0.456011
903.048462	0.456141
903.230316	0.456083
903.412152	0.455651
903.593970	0.455679
903.775770	0.455120
903.957551	0.454694
904.139314	0.454042
904.321059	0.453396
904.502786	0.452653
904.684494	0.451889
904.866185	0.451233
905.047857	0.450549
905.229510	0.450323
905.411146	0.449911
905.592763	0.449856
905.774363	0.449482
905.955943	0.449064
906.137506	0.448650
906.319051	0.448134
906.500577	0.447871
906.682085	0.447630
906.863575	0.446811
907.045046	0.446098
907.226500	0.445683
907.407935	0.445326
907.589352	0.445051
907.770750	0.444682
907.952131	0.444402
908.133493	0.443716
908.314837	0.443343
908.496163	0.442963
908.677470	0.442801
908.858760	0.441988
909.040031	0.442158
909.221284	0.441263
909.402518	0.441017
909.583735	0.440237
909.764933	0.439727
909.946113	0.439261
910.127275	0.438401
910.308418	0.437759
910.489544	0.437680
910.670651	0.436365
910.851740	0.435336
911.032810	0.434480
911.213863	0.433993
911.394897	0.433373
911.575913	0.432624
911.756911	0.432254
911.937890	0.431638
912.118851	0.430293
912.299794	0.429810
912.480719	0.429131
912.661626	0.428516
912.842514	0.427764
913.023384	0.426887
913.204236	0.426708
913.385070	0.426656
913.565886	0.425980
913.746683	0.425087
913.927462	0.424525
914.108223	0.424580
914.288965	0.423995
914.469690	0.423707
914.650396	0.423295
914.831084	0.422634
915.011754	0.420905
915.192405	0.420840
915.373038	0.421322
915.553653	0.420878
915.734250	0.420057
915.914829	0.418789
916.095389	0.418512
916.275931	0.417907
916.456455	0.417305
916.636961	0.417397
916.817448	0.416352
916.997917	0.415035
917.178368	0.413519
917.358801	0.413074
917.539216	0.413082
917.719612	0.411527
917.899990	0.410688
918.080350	0.410097
918.260692	0.408897
918.441015	0.408948
918.621320	0.408016
918.801607	0.408281
918.981876	0.407641
919.162127	0.407134
919.342359	0.407424
919.522573	0.407043
919.702769	0.406421
919.882947	0.406088
920.063106	0.404084
920.243247	0.403564
920.423370	0.402200
920.603475	0.400951
920.783562	0.400002
920.963630	0.398439
921.143680	0.397649
921.323712	0.396502
921.503725	0.396462
921.683721	0.395707
921.863698	0.395297
922.043657	0.394435
922.223598	0.394090
922.403520	0.393680
922.583424	0.393413
922.763311	0.392255
922.943178	0.391006
923.123028	0.389571
923.302859	0.389819
923.482673	0.388196
923.662467	0.387062
923.842244	0.385883
924.022003	0.384599
924.201743	0.383481
924.381465	0.382670
924.561169	0.381644
924.740854	0.380741
924.920522	0.378552
925.100171	0.378592
925.279802	0.378147
925.459414	0.376509
925.639009	0.374831
925.818585	0.373090
925.998143	0.372082
926.177683	0.371083
926.357205	0.369776
926.536708	0.369370
926.716193	0.367570
926.895660	0.367111
927.075109	0.367321
927.254539	0.366090
927.433951	0.365870
927.613345	0.364749
927.792721	0.363389
927.972079	0.362005
928.151418	0.360702
928.330739	0.359512
928.510042	0.358578
928.689327	0.356331
928.868593	0.355580
929.047841	0.354742
929.227071	0.353594
929.406283	0.353224
929.585476	0.352833
929.764652	0.352214
929.943809	0.351381
930.122948	0.349843
930.302068	0.349558
930.481171	0.349289
930.660255	0.347544
930.839321	0.346159
931.018369	0.344779
931.197398	0.343229
931.376409	0.341659
931.555402	0.340255
931.734377	0.339448
931.913334	0.338069
932.092272	0.336681
932.271192	0.335500
932.450094	0.334042
932.628978	0.332933
932.807844	0.332033
932.986691	0.330641
933.165520	0.330077
933.344331	0.328427
933.523123	0.326929
933.701898	0.325449
933.880654	0.324299
934.059392	0.324492
934.238111	0.323745
934.416813	0.323155
934.595496	0.321976
934.774161	0.320496
934.952808	0.320137
935.131437	0.319214
935.310047	0.319142
935.488639	0.317989
935.667213	0.316570
935.845769	0.315195
936.024306	0.313685
936.202825	0.313480
936.381326	0.312916
936.559809	0.311047
936.738274	0.311257
936.916720	0.310705
937.095148	0.310057
937.273558	0.308244
937.451950	0.306580
937.630323	0.305628
937.808678	0.303994
937.987015	0.302498
938.165334	0.300711
938.343635	0.298539
938.521917	0.296851
938.700181	0.296190
938.878427	0.295748
939.056655	0.295419
939.234864	0.293485
939.413055	0.293023
939.591228	0.291358
939.769383	0.291083
939.947519	0.290274
940.125638	0.287896
940.303738	0.286189
940.481820	0.285561
940.659883	0.284195
940.837929	0.283161
941.015956	0.280099
941.193965	0.279754
941.371955	0.277639
941.549928	0.274590
941.727882	0.273729
941.905818	0.272246
942.083736	0.271155
942.261636	0.269448
942.439517	0.269033
942.617380	0.270086
942.795225	0.268956
942.973052	0.269042
943.150860	0.269280
943.328651	0.267430
943.506423	0.266838
943.684176	0.265223
943.861912	0.264707
944.039629	0.262495
944.217328	0.260253
944.395009	0.258538
944.572672	0.256324
944.750317	0.255914
944.927943	0.255582
945.105551	0.253060
945.283141	0.251410
945.460712	0.250821
945.638265	0.249826
945.815801	0.248983
945.993317	0.246614
946.170816	0.246281
946.348297	0.244680
946.525759	0.242924
946.703203	0.242970
946.880629	0.242411
947.058036	0.240238
947.235425	0.240806
947.412797	0.238790
947.590149	0.239663
947.767484	0.238784
947.944800	0.237404
948.122099	0.235553
948.299379	0.233600
948.476640	0.230280
948.653884	0.229707
948.831109	0.227329
949.008316	0.225727
949.185505	0.225082
949.362676	0.223026
949.539828	0.221972
949.716962	0.222317
949.894078	0.222231
950.071176	0.222214
950.248256	0.219061
950.425317	0.216865
950.602360	0.216028
950.779385	0.211629
950.956391	0.212479
951.133380	0.210732
951.310350	0.209759
951.487302	0.208571
951.664235	0.206076
951.841151	0.207746
952.018048	0.207316
952.194927	0.208719
952.371788	0.209746
952.548631	0.208168
952.725455	0.207274
952.902261	0.204851
953.079049	0.201331
953.255819	0.201349
953.432570	0.198939
953.609303	0.198052
953.786018	0.193070
953.962715	0.191006
954.139394	0.190192
954.316054	0.187752
954.492696	0.187521
954.669320	0.191482
954.845926	0.191189
955.022513	0.190161
955.199083	0.188245
955.375634	0.187685
955.552166	0.187541
955.728681	0.183801
955.905177	0.184660
956.081655	0.182461
956.258115	0.177290
956.434557	0.176123
956.610980	0.175147
956.787385	0.174944
956.963772	0.175582
957.140141	0.174679
957.316492	0.174498
957.492824	0.172165
957.669138	0.173711
957.845434	0.174695
958.021712	0.173519
958.197971	0.170904
958.374212	0.170878
958.550435	0.170444
958.726640	0.171739
958.902826	0.171474
959.078995	0.171074
959.255145	0.167221
959.431277	0.166145
959.607390	0.166182
959.783486	0.166983
959.959563	0.165043
960.135622	0.163605
960.311662	0.160934
960.487685	0.160806
960.663689	0.161962
960.839675	0.163077
961.015643	0.164199
961.191593	0.162718
961.367524	0.161203
961.543437	0.161460
961.719332	0.162510
961.895209	0.162294
962.071067	0.159428
962.246907	0.158974
962.422730	0.158950
962.598533	0.156891
962.774319	0.155629
962.950086	0.156238
963.125835	0.153146
963.301566	0.150705
963.477279	0.151215
963.652973	0.151830
963.828650	0.150252
964.004308	0.151558
964.179947	0.153095
964.355569	0.154883
964.531172	0.157316
964.706757	0.157599
964.882324	0.160445
965.057873	0.158984
965.233403	0.162372
965.408916	0.162346
965.584410	0.159572
965.759885	0.158347
965.935343	0.158109
966.110782	0.157983
966.286203	0.159131
966.461606	0.157337
966.636991	0.158670
966.812357	0.157178
966.987705	0.158494
967.163035	0.160357
967.338347	0.158758
967.513641	0.157075
967.688916	0.157368
967.864173	0.160529
968.039412	0.157343
968.214632	0.157049
968.389835	0.156629
968.565019	0.157589
968.740185	0.157070
968.915333	0.156798
969.090462	0.158801
969.265573	0.155320
969.440667	0.154062
969.615741	0.158626
969.790798	0.159787
969.965836	0.160620
970.140856	0.156871
970.315858	0.157829
970.490842	0.159663
970.665808	0.158704
970.840755	0.163927
971.015684	0.161390
971.190595	0.159696
971.365487	0.158310
971.540362	0.159111
971.715218	0.161062
971.890056	0.162791
972.064875	0.161540
972.239677	0.162423
972.414460	0.154657
972.589225	0.157181
972.763972	0.156725
972.938700	0.156863
973.113411	0.153539
973.288103	0.152678
973.462777	0.148445
973.637432	0.149608
973.812070	0.149341
973.986689	0.153608
974.161290	0.152352
974.335873	0.151780
974.510437	0.148850
974.684984	0.148692
974.859512	0.148361
975.034022	0.149888
975.208513	0.147259
975.382987	0.147079
975.557442	0.145932
975.731879	0.146562
975.906298	0.147797
976.080698	0.152803
976.255080	0.151971
976.429445	0.152971
976.603790	0.152678
976.778118	0.153253
976.952427	0.152654
977.126719	0.156069
977.300992	0.153650
977.475246	0.149627
977.649483	0.145450
977.823701	0.145467
977.997901	0.144613
978.172083	0.145148
978.346247	0.145472
978.520392	0.143945
978.694519	0.141917
978.868628	0.143394
979.042719	0.147379
979.216791	0.149522
979.390845	0.151607
979.564882	0.151538
979.738899	0.152922
979.912899	0.153153
980.086880	0.152619
980.260843	0.150472
980.434788	0.150218
980.608715	0.150846
980.782623	0.151073
980.956514	0.149225
981.130386	0.149623
981.304240	0.146572
981.478075	0.145829
981.651892	0.147811
981.825692	0.148529
981.999472	0.149186
982.173235	0.149064
982.346980	0.148354
982.520706	0.147695
982.694414	0.146377
982.868104	0.148750
983.041775	0.149669
983.215428	0.148841
983.389064	0.149738
983.562680	0.148430
983.736279	0.148201
983.909860	0.147326
984.083422	0.148002
984.256966	0.146724
984.430491	0.146220
984.603999	0.145341
984.777488	0.147746
984.950959	0.146850
985.124412	0.147753
985.297847	0.147225
985.471263	0.147871
985.644661	0.150156
985.818041	0.152415
985.991403	0.150141
986.164747	0.149816
986.338072	0.146954
986.511379	0.147085
986.684668	0.147465
986.857938	0.146388
987.031191	0.146168
987.204425	0.144611
987.377641	0.145718
987.550839	0.148473
987.724018	0.149897
987.897179	0.151141
988.070322	0.151694
988.243447	0.152272
988.416554	0.153969
988.589642	0.152372
988.762712	0.153305
988.935764	0.152603
989.108798	0.149555
989.281813	0.147368
989.454811	0.146781
989.627790	0.146245
989.800751	0.146731
989.973693	0.144888
990.146617	0.145503
990.319524	0.143764
990.492412	0.144359
990.665281	0.144493
990.838133	0.146173
991.010966	0.148473
991.183781	0.148498
991.356578	0.149407
991.529356	0.149465
991.702117	0.152065
991.874859	0.153231
992.047583	0.152951
992.220288	0.153951
992.392976	0.152637
992.565645	0.151727
992.738296	0.152830
992.910929	0.149611
993.083543	0.148686
993.256139	0.148173
993.428718	0.150646
993.601277	0.153007
993.773819	0.152735
993.946342	0.153713
994.118848	0.153489
994.291335	0.154785
994.463803	0.155568
994.636254	0.156228
994.808686	0.155884
994.981100	0.151676
995.153496	0.148749
995.325874	0.148287
995.498233	0.147731
995.670574	0.148031
995.842897	0.145036
996.015202	0.144697
996.187488	0.145140
996.359757	0.143853
996.532007	0.145958
996.704239	0.145011
996.876452	0.145516
997.048648	0.146183
997.220825	0.144341
997.392984	0.145041
997.565124	0.145433
997.737247	0.146520
997.909351	0.146097
998.081437	0.144320
998.253505	0.144685
998.425554	0.144614
998.597586	0.145358
998.769599	0.147650
998.941594	0.146565
999.113571	0.146743
999.285529	0.144787
999.457469	0.144833
999.629391	0.145994
999.801295	0.147717
999.973181	0.148660
1000.145048	0.147718
1000.316897	0.146182
1000.488728	0.148337
1000.660541	0.149109
1000.832335	0.150742
1001.004111	0.150065
1001.175869	0.147836
1001.347609	0.144801
1001.519331	0.144904
1001.691034	0.144672
1001.862719	0.146153
1002.034386	0.145821
1002.206035	0.144596
1002.377665	0.143852
1002.549277	0.144867
1002.720871	0.148461
1002.892447	0.152096
1003.064004	0.152572
1003.235544	0.152662
1003.407065	0.151557
1003.578568	0.153713
1003.750052	0.154182
1003.921519	0.155568
1004.092967	0.156280
1004.264397	0.152838
1004.435809	0.152239
1004.607202	0.151465
1004.778577	0.151336
1004.949934	0.150368
1005.121273	0.146988
1005.292594	0.146709
1005.463896	0.145052
1005.635180	0.145352
1005.806446	0.147219
1005.977694	0.146639
1006.148923	0.145620
1006.320135	0.146271
1006.491328	0.147573
1006.662503	0.148085
1006.833659	0.148695
1007.004798	0.148380
1007.175918	0.148296
1007.347020	0.148004
1007.518103	0.146706
1007.689169	0.149156
1007.860216	0.150161
1008.031245	0.148470
1008.202256	0.147179
1008.373248	0.149452
1008.544223	0.148793
1008.715179	0.147144
1008.886117	0.146195
1009.057036	0.148452
1009.227938	0.146192
1009.398821	0.144724
1009.569686	0.145296
1009.740533	0.147154
1009.911361	0.145129
1010.082172	0.144606
1010.252964	0.145613
1010.423738	0.147174
1010.594493	0.145639
1010.765231	0.144632
1010.935950	0.144767
1011.106651	0.143821
1011.277334	0.141684
1011.447998	0.140887
1011.618645	0.143531
1011.789273	0.140938
1011.959882	0.139881
1012.130474	0.140307
1012.301048	0.140773
1012.471603	0.139612
1012.642140	0.141878
1012.812658	0.143574
1012.983159	0.143350
1013.153641	0.142113
1013.324105	0.143759
1013.494551	0.143122
1013.664979	0.143025
1013.835388	0.142716
1014.005779	0.142636
1014.176152	0.141724
1014.346507	0.141866
1014.516843	0.141798
1014.687162	0.141283
1014.857462	0.141909
1015.027744	0.142668
1015.198007	0.140603
1015.368252	0.141992
1015.538480	0.144456
1015.708689	0.143310
1015.878879	0.144486
1016.049052	0.146479
1016.219206	0.145763
1016.389342	0.144551
1016.559460	0.145080
1016.729559	0.147779
1016.899641	0.146315
1017.069704	0.146037
1017.239749	0.146878
1017.409775	0.147189
1017.579784	0.144087
1017.749774	0.146259
1017.919746	0.146289
1018.089700	0.147404
1018.259635	0.146020
1018.429553	0.146964
1018.599452	0.146151
1018.769333	0.146472
1018.939195	0.145714
1019.109040	0.148751
1019.278866	0.149070
1019.448674	0.150835
1019.618464	0.151437
1019.788235	0.151395
1019.957989	0.150171
1020.127724	0.149135
1020.297441	0.148918
1020.467139	0.147756
1020.636820	0.146131
1020.806482	0.144908
1020.976126	0.142864
1021.145752	0.139792
1021.315359	0.138822
1021.484948	0.139551
1021.654519	0.141912
1021.824072	0.142129
1021.993607	0.142250
1022.163123	0.140715
1022.332621	0.141700
1022.502101	0.144355
1022.671563	0.144903
1022.841007	0.144163
1023.010432	0.144334
1023.179839	0.141542
1023.349228	0.141492
1023.518598	0.142155
1023.687951	0.142075
1023.857285	0.139681
1024.026601	0.137445
1024.195899	0.136571
1024.365178	0.138009
1024.534439	0.135657
1024.703682	0.135478
1024.872907	0.135059
1025.042114	0.132452
1025.211302	0.130378
1025.380472	0.132255
1025.549624	0.132671
1025.718758	0.133327
1025.887873	0.133216
1026.056970	0.136582
1026.226049	0.138414
1026.395110	0.138779
1026.564153	0.141111
1026.733177	0.144672
1026.902183	0.144141
1027.071171	0.145493
1027.240141	0.145566
1027.409092	0.145935
1027.578026	0.144444
1027.746940	0.142268
1027.915837	0.139036
1028.084716	0.138905
1028.253576	0.137297
1028.422418	0.137652
1028.591242	0.136906
1028.760048	0.135888
1028.928835	0.137500
1029.097604	0.139066
1029.266355	0.137871
1029.435088	0.140595
1029.603803	0.138218
1029.772499	0.138267
1029.941177	0.137022
1030.109837	0.134100
1030.278478	0.137184
1030.447102	0.135070
1030.615707	0.135692
1030.784294	0.137665
1030.952863	0.136834
1031.121413	0.137964
1031.289945	0.138091
1031.458460	0.140530
1031.626955	0.142338
1031.795433	0.139400
1031.963892	0.141061
1032.132334	0.140307
1032.300756	0.142552
1032.469161	0.140535
1032.637548	0.142166
1032.805916	0.142778
1032.974266	0.142070
1033.142598	0.142327
1033.310911	0.144344
1033.479207	0.143502
1033.647484	0.142004
1033.815743	0.140460
1033.983983	0.142501
1034.152206	0.141245
1034.320410	0.141994
1034.488596	0.139499
1034.656764	0.140431
1034.824914	0.140419
1034.993045	0.140175
1035.161158	0.140735
1035.329253	0.140601
1035.497330	0.140497
1035.665388	0.141565
1035.833428	0.139205
1036.001450	0.140358
1036.169454	0.140052
1036.337440	0.138994
1036.505407	0.141294
1036.673356	0.142563
1036.841287	0.143709
1037.009200	0.143877
1037.177094	0.141969
1037.344970	0.143027
1037.512828	0.142737
1037.680668	0.145422
1037.848489	0.145817
1038.016293	0.144636
1038.184078	0.143540
1038.351845	0.142973
1038.519593	0.144879
1038.687324	0.146549
1038.855036	0.146283
1039.022730	0.148043
1039.190406	0.145237
1039.358063	0.143201
1039.525702	0.139940
1039.693323	0.138396
1039.860926	0.138256
1040.028511	0.136547
1040.196077	0.136532
1040.363625	0.136648
1040.531155	0.134624
1040.698667	0.135270
1040.866161	0.139604
1041.033636	0.142585
1041.201093	0.145111
1041.368532	0.145008
1041.535952	0.145368
1041.703355	0.145663
1041.870739	0.145239
1042.038105	0.147155
1042.205452	0.145644
1042.372782	0.144023
1042.540093	0.144153
1042.707386	0.143642
1042.874661	0.144842
1043.041918	0.144980
1043.209156	0.141379
1043.376376	0.145553
1043.543578	0.144442
1043.710762	0.145038
1043.877927	0.145043
1044.045074	0.141439
1044.212203	0.139945
1044.379314	0.139498
1044.546407	0.137444
1044.713481	0.138890
1044.880537	0.136122
1045.047575	0.135050
1045.214595	0.134457
1045.381596	0.133223
1045.548579	0.136072
1045.715544	0.137589
1045.882491	0.135823
1046.049420	0.136224
1046.216330	0.137135
1046.383222	0.135877
1046.550096	0.136411
1046.716951	0.136902
1046.883789	0.136982
1047.050608	0.137762
1047.217409	0.135148
1047.384192	0.135142
1047.550956	0.136405
1047.717703	0.136434
1047.884431	0.137663
1048.051140	0.139331
1048.217832	0.141578
1048.384505	0.139946
1048.551161	0.138600
1048.717798	0.142325
1048.884416	0.144121
1049.051017	0.142875
1049.217599	0.142818
1049.384163	0.141957
1049.550709	0.141606
1049.717237	0.138856
1049.883746	0.139826
1050.050237	0.138757
1050.216710	0.136214
1050.383165	0.135533
1050.549601	0.137126
1050.716019	0.137134
1050.882420	0.138111
1051.048801	0.137908
1051.215165	0.138354
1051.381510	0.140015
1051.547837	0.140848
1051.714146	0.142558
1051.880437	0.141493
1052.046709	0.142206
1052.212964	0.143602
1052.379200	0.143359
1052.545417	0.144025
1052.711617	0.145519
1052.877798	0.144666
1053.043961	0.146652
1053.210106	0.147259
1053.376233	0.147941
1053.542341	0.145361
1053.708432	0.141631
1053.874504	0.141623
1054.040557	0.138410
1054.206593	0.135379
1054.372610	0.133478
1054.538609	0.132235
1054.704590	0.131537
1054.870553	0.131803
1055.036497	0.133090
1055.202424	0.136609
1055.368331	0.135442
1055.534221	0.137389
1055.700093	0.137353
1055.865946	0.139273
1056.031781	0.138210
1056.197598	0.135576
1056.363397	0.134783
1056.529177	0.134100
1056.694939	0.132500
1056.860683	0.131510
1057.026409	0.131906
1057.192116	0.133873
1057.357806	0.133860
1057.523477	0.136095
1057.689130	0.136156
1057.854764	0.137022
1058.020381	0.138018
1058.185979	0.138646
1058.351559	0.140825
1058.517120	0.141548
1058.682664	0.141835
1058.848189	0.141781
1059.013696	0.138881
1059.179185	0.140957
1059.344656	0.141043
1059.510108	0.141487
1059.675542	0.141341
1059.840958	0.141335
1060.006356	0.140318
1060.171735	0.140095
1060.337096	0.141974
1060.502439	0.144273
1060.667764	0.141691
1060.833071	0.141926
1060.998359	0.143467
1061.163629	0.144888
1061.328881	0.146055
1061.494115	0.147113
1061.659330	0.149458
1061.824527	0.148239
1061.989706	0.147967
1062.154867	0.149392
1062.320010	0.148453
1062.485134	0.146648
1062.650240	0.148602
1062.815328	0.149692
1062.980398	0.148558
1063.145449	0.147285
1063.310482	0.148099
1063.475497	0.147036
1063.640494	0.146720
1063.805473	0.146300
1063.970433	0.147926
1064.135375	0.141594
1064.300299	0.138924
1064.465204	0.138414
1064.630092	0.137861
1064.794961	0.136980
1064.959812	0.135902
1065.124645	0.136774
1065.289459	0.140261
1065.454256	0.138208
1065.619034	0.139647
1065.783793	0.139237
1065.948535	0.139465
1066.113258	0.139729
1066.277964	0.137982
1066.442651	0.140703
1066.607319	0.140329
1066.771970	0.135957
1066.936602	0.133979
1067.101216	0.136641
1067.265812	0.138650
1067.430389	0.139390
1067.594949	0.138702
1067.759490	0.139884
1067.924013	0.138168
1068.088518	0.138630
1068.253004	0.140159
1068.417472	0.144872
1068.581922	0.143395
1068.746354	0.141970
1068.910768	0.143979
1069.075163	0.144462
1069.239540	0.143304
1069.403899	0.143657
1069.568240	0.142930
1069.732562	0.140368
1069.896866	0.139160
1070.061152	0.140149
1070.225420	0.141662
1070.389670	0.139157
1070.553901	0.140621
1070.718114	0.142650
1070.882309	0.144723
1071.046486	0.148820
1071.210644	0.153301
1071.374784	0.153387
1071.538906	0.157240
1071.703010	0.156693
1071.867096	0.158139
1072.031163	0.157949
1072.195212	0.158106
1072.359243	0.157755
1072.523256	0.156432
1072.687250	0.151943
1072.851226	0.153411
1073.015184	0.150131
1073.179124	0.150345
1073.343045	0.148113
1073.506949	0.143058
1073.670834	0.141547
1073.834701	0.139965
1073.998549	0.137591
1074.162380	0.141407
1074.326192	0.140177
1074.489986	0.138705
1074.653761	0.137763
1074.817519	0.139477
1074.981258	0.142991
1075.144979	0.146363
1075.308682	0.143928
1075.472367	0.144245
1075.636033	0.144129
1075.799681	0.144250
1075.963311	0.148010
1076.126923	0.148828
1076.290516	0.148467
1076.454092	0.150242
1076.617649	0.148316
1076.781187	0.150896
1076.944708	0.149333
1077.108210	0.147878
1077.271695	0.147338
1077.435160	0.146684
1077.598608	0.145990
1077.762038	0.147747
1077.925449	0.145764
1078.088842	0.146892
1078.252217	0.148486
1078.415573	0.152676
1078.578912	0.153345
1078.742232	0.151327
1078.905534	0.150066
1079.068817	0.153849
1079.232083	0.153318
1079.395330	0.153516
1079.558559	0.152956
1079.721770	0.152789
1079.884962	0.150982
1080.048136	0.150539
1080.211293	0.151166
1080.374430	0.150904
1080.537550	0.152502
1080.700651	0.150960
1080.863735	0.152036
1081.026800	0.150482
1081.189846	0.148355
1081.352875	0.148607
1081.515885	0.149193
1081.678877	0.152579
1081.841851	0.151857
1082.004807	0.148765
1082.167744	0.148052
1082.330663	0.149476
1082.493564	0.150713
1082.656447	0.151852
1082.819312	0.153007
1082.982158	0.155780
1083.144986	0.154262
1083.307796	0.154905
1083.470587	0.156678
1083.633361	0.160315
1083.796116	0.157219
1083.958853	0.159464
1084.121571	0.163644
1084.284272	0.161878
1084.446954	0.156763
1084.609618	0.155854
1084.772264	0.157795
1084.934892	0.155550
1085.097501	0.156129
1085.260092	0.153845
1085.422665	0.152108
1085.585220	0.148893
1085.747756	0.150020
1085.910274	0.152434
1086.072774	0.155409
1086.235256	0.154461
1086.397720	0.153352
1086.560165	0.154504
1086.722592	0.159008
1086.885001	0.161831
1087.047392	0.161437
1087.209764	0.160171
1087.372119	0.158473
1087.534455	0.159472
1087.696772	0.162000
1087.859072	0.159024
1088.021353	0.158129
1088.183616	0.157957
1088.345861	0.155893
1088.508088	0.157164
1088.670296	0.161513
1088.832486	0.162271
1088.994658	0.159657
1089.156812	0.157534
1089.318948	0.159475
1089.481065	0.157829
1089.643164	0.157361
1089.805245	0.157965
1089.967308	0.160633
1090.129352	0.156501
1090.291378	0.155825
1090.453386	0.156008
1090.615376	0.151334
1090.777347	0.153862
1090.939301	0.154773
1091.101236	0.155259
1091.263153	0.155290
1091.425051	0.150505
1091.586932	0.152276
1091.748794	0.156391
1091.910638	0.159936
1092.072463	0.161215
1092.234271	0.160560
1092.396060	0.162098
1092.557831	0.163087
1092.719584	0.161112
1092.881319	0.163460
1093.043035	0.161542
1093.204733	0.159305
1093.366413	0.153942
1093.528075	0.154269
1093.689718	0.152729
1093.851343	0.151835
1094.012950	0.151808
1094.174539	0.151447
1094.336110	0.151237
1094.497662	0.159084
1094.659196	0.158048
1094.820712	0.158727
1094.982210	0.162752
1095.143689	0.161707
1095.305151	0.164834
1095.466594	0.167534
1095.628018	0.166365
1095.789425	0.167028
1095.950813	0.154864
1096.112183	0.155639
1096.273535	0.159262
1096.434869	0.160658
1096.596184	0.166658
1096.757482	0.161078
1096.918761	0.155471
1097.080021	0.158786
1097.241264	0.157419
1097.402488	0.165544
1097.563694	0.166540
1097.724882	0.168142
1097.886052	0.165272
1098.047203	0.160991
1098.208336	0.157743
1098.369451	0.160244
1098.530548	0.157701
1098.691627	0.156957
1098.852687	0.155523
1099.013729	0.154214
1099.174753	0.146885
1099.335758	0.147252
1099.496746	0.148487
1099.657715	0.156453
1099.818666	0.158802
1099.979599	0.161492
1100.140513	0.162823
1100.301409	0.162326
1100.462287	0.167494
1100.623147	0.173389
1100.783989	0.173186
1100.944812	0.175560
1101.105617	0.175017
1101.266404	0.173071
1101.427173	0.170791
1101.587923	0.169712
1101.748656	0.168613
1101.909370	0.166545
1102.070066	0.167863
1102.230743	0.171172
1102.391403	0.168380
1102.552044	0.160680
1102.712667	0.163360
1102.873271	0.163704
1103.033858	0.162659
1103.194426	0.161736
1103.354976	0.163282
1103.515508	0.158298
1103.676021	0.151731
1103.836517	0.154914
1103.996994	0.157547
1104.157453	0.153933
1104.317893	0.157030
1104.478316	0.157629
1104.638720	0.159964
1104.799106	0.157713
1104.959474	0.164088
1105.119823	0.169425
1105.280155	0.170917
1105.440468	0.168749
1105.600763	0.168026
1105.761039	0.164488
1105.921298	0.166311
1106.081538	0.163899
1106.241760	0.165384
1106.401964	0.161241
1106.562149	0.159360
1106.722316	0.156206
1106.882465	0.163102
1107.042596	0.163264
1107.202709	0.166537
1107.362803	0.166179
1107.522879	0.164792
1107.682937	0.163042
1107.842977	0.164646
1108.002999	0.165494
1108.163002	0.164192
1108.322987	0.165386
1108.482954	0.168207
1108.642902	0.166435
1108.802833	0.163620
1108.962745	0.166041
1109.122639	0.168629
1109.282515	0.168282
1109.442372	0.164953
1109.602211	0.165960
1109.762032	0.164684
1109.921835	0.161552
1110.081620	0.165829
1110.241386	0.170125
1110.401134	0.168473
1110.560864	0.164445
1110.720576	0.163068
1110.880269	0.166468
1111.039945	0.163053
1111.199602	0.159362
1111.359240	0.157424
1111.518861	0.152915
1111.678463	0.151188
1111.838047	0.153196
1111.997613	0.154331
1112.157161	0.155119
1112.316690	0.155500
1112.476202	0.158677
1112.635695	0.163283
1112.795169	0.165717
1112.954626	0.167657
1113.114064	0.171869
1113.273484	0.171382
1113.432886	0.176130
1113.592270	0.171781
1113.751635	0.177001
1113.910983	0.176347
1114.070312	0.173689
1114.229622	0.174786
1114.388915	0.177836
1114.548189	0.172528
1114.707445	0.180903
1114.866683	0.177637
1115.025903	0.184118
1115.185104	0.184437
1115.344287	0.182426
1115.503452	0.183802
1115.662599	0.183957
1115.821727	0.185270
1115.980838	0.188493
1116.139930	0.188609
1116.299004	0.189778
1116.458059	0.182036
1116.617097	0.175433
1116.776116	0.184939
1116.935117	0.178789
1117.094099	0.179924
1117.253064	0.171702
1117.412010	0.173229
1117.570938	0.169208
1117.729848	0.171940
1117.888740	0.185831
1118.047613	0.187076
1118.206468	0.181895
1118.365305	0.181265
1118.524124	0.179944
1118.682924	0.186464
1118.841707	0.187515
1119.000471	0.185385
1119.159216	0.177710
1119.317944	0.166474
1119.476653	0.169028
1119.635344	0.171055
1119.794017	0.178250
1119.952672	0.182569
1120.111308	0.182659
1120.269927	0.176648
1120.428527	0.177284
1120.587108	0.188908
1120.745672	0.192483
1120.904217	0.188180
1121.062744	0.186899
1121.221253	0.189422
1121.379744	0.182516
1121.538216	0.175728
1121.696671	0.186016
1121.855107	0.187466
1122.013524	0.177466
1122.171924	0.176303
1122.330305	0.178322
1122.488668	0.181415
1122.647013	0.182749
1122.805340	0.181246
1122.963648	0.180440
1123.121938	0.177950
1123.280210	0.180514
1123.438464	0.187891
1123.596700	0.187587
1123.754917	0.188367
1123.913116	0.185188
1124.071297	0.181447
1124.229459	0.184920
1124.387604	0.192390
1124.545730	0.187391
1124.703838	0.183271
1124.861928	0.179316
1125.019999	0.179566
1125.178052	0.182747
1125.336088	0.178843
1125.494104	0.177800
1125.652103	0.178229
1125.810083	0.176139
1125.968045	0.174707
1126.125989	0.172037
1126.283915	0.170735
1126.441823	0.170956
1126.599712	0.167505
1126.757583	0.179315
1126.915436	0.173189
1127.073270	0.177610
1127.231087	0.179975
1127.388885	0.181232
1127.546665	0.183212
1127.704426	0.185849
1127.862170	0.192450
1128.019895	0.194514
1128.177602	0.185770
1128.335291	0.186814
1128.492961	0.181467
1128.650614	0.181350
1128.808248	0.180668
1128.965864	0.183524
1129.123461	0.180567
1129.281041	0.180425
1129.438602	0.176640
1129.596145	0.175225
1129.753670	0.187522
1129.911176	0.196252
1130.068665	0.195758
1130.226135	0.201909
1130.383587	0.207265
1130.541020	0.209975
1130.698436	0.201237
1130.855833	0.201962
1131.013212	0.211868
1131.170573	0.206913
1131.327915	0.201251
1131.485239	0.200666
1131.642545	0.192022
1131.799833	0.180828
1131.957103	0.181685
1132.114354	0.188183
1132.271588	0.184717
1132.428803	0.177657
1132.585999	0.176508
1132.743178	0.171403
1132.900338	0.170358
1133.057480	0.170030
1133.214604	0.179191
1133.371710	0.178516
1133.528797	0.168092
1133.685866	0.165279
1133.842917	0.169961
1133.999950	0.172496
1134.156964	0.178459
1134.313960	0.182367
1134.470938	0.183307
1134.627898	0.175762
1134.784840	0.178006
1134.941763	0.185837
1135.098668	0.185033
1135.255555	0.181747
1135.412424	0.183067
1135.569274	0.186651
1135.726107	0.188655
1135.882921	0.192165
1136.039716	0.200263
1136.196494	0.205237
1136.353253	0.209357
1136.509995	0.217000
1136.666717	0.212396
1136.823422	0.210067
1136.980109	0.213676
1137.136777	0.216135
1137.293427	0.215301
1137.450059	0.207597
1137.606672	0.192950
1137.763267	0.185484
1137.919844	0.198413
1138.076403	0.208023
1138.232944	0.206255
1138.389466	0.195882
1138.545971	0.190230
1138.702457	0.205949
1138.858924	0.207649
1139.015374	0.220577
1139.171805	0.226062
1139.328218	0.212431
1139.484613	0.200486
1139.640990	0.199782
1139.797348	0.212614
1139.953688	0.214460
1140.110010	0.202242
1140.266314	0.200253
1140.422600	0.201586
1140.578867	0.191694
1140.735116	0.190852
1140.891347	0.204065
1141.047559	0.201018
1141.203754	0.196513
1141.359930	0.196135
1141.516088	0.199039
1141.672228	0.200267
1141.828349	0.186244
1141.984452	0.189145
1142.140537	0.195834
1142.296604	0.184625
1142.452653	0.190418
1142.608683	0.187776
1142.764695	0.188835
1142.920689	0.179699
1143.076665	0.182661
1143.232622	0.192824
1143.388562	0.199324
1143.544483	0.206650
1143.700385	0.222296
1143.856270	0.217877
1144.012136	0.217423
1144.167985	0.216959
1144.323814	0.217195
1144.479626	0.215293
1144.635420	0.211386
1144.791195	0.205820
1144.946952	0.195831
1145.102691	0.177892
1145.258411	0.186588
1145.414113	0.180160
1145.569798	0.182688
1145.725463	0.184230
1145.881111	0.193926
1146.036741	0.194903
1146.192352	0.202948
1146.347945	0.203851
1146.503519	0.218646
1146.659076	0.210264
1146.814614	0.212273
1146.970134	0.205771
1147.125636	0.199149
1147.281120	0.185812
1147.436585	0.192163
1147.592032	0.186552
1147.747461	0.198580
1147.902872	0.191035
1148.058265	0.191716
1148.213639	0.189897
1148.368995	0.176309
1148.524333	0.188368
1148.679653	0.189032
1148.834954	0.189251
1148.990237	0.197342
1149.145502	0.173021
1149.300749	0.187819
1149.455977	0.184161
1149.611188	0.206100
1149.766380	0.219885
1149.921553	0.217675
1150.076709	0.234450
1150.231846	0.221781
1150.386966	0.217595
1150.542066	0.239436
1150.697149	0.221008
1150.852214	0.222967
1151.007260	0.209636
1151.162288	0.216431
1151.317298	0.222495
1151.472289	0.212085
1151.627263	0.218587
1151.782218	0.220421
1151.937155	0.208980
1152.092073	0.214808
1152.246974	0.209011
1152.401856	0.202479
1152.556720	0.204650
1152.711566	0.200510
1152.866393	0.191031
1153.021203	0.194683
1153.175994	0.207443
1153.330767	0.216106
1153.485521	0.208553
1153.640258	0.228817
1153.794976	0.243518
1153.949676	0.227441
1154.104358	0.216333
1154.259021	0.221529
1154.413667	0.211591
1154.568294	0.195147
1154.722903	0.199318
1154.877493	0.211984
1155.032066	0.208470
1155.186620	0.186845
1155.341156	0.196860
1155.495674	0.194060
1155.650173	0.206153
1155.804654	0.202397
1155.959118	0.209136
1156.113562	0.189362
1156.267989	0.174835
1156.422397	0.163795
1156.576788	0.169871
1156.731160	0.164218
1156.885513	0.187308
1157.039849	0.172626
1157.194166	0.176468
1157.348465	0.162765
1157.502746	0.165324
1157.657009	0.159092
1157.811253	0.160503
1157.965479	0.156568
1158.119687	0.165713
1158.273877	0.166183
1158.428048	0.182255
1158.582201	0.202659
1158.736337	0.217664
1158.890453	0.233704
1159.044552	0.263565
1159.198632	0.276414
1159.352694	0.297899
1159.506738	0.289462
1159.660764	0.282141
1159.814771	0.263465
1159.968761	0.236362
1160.122732	0.233938
1160.276685	0.219041
1160.430619	0.220929
1160.584535	0.198634
1160.738434	0.200428
1160.892313	0.197640
1161.046175	0.196010
1161.200019	0.197242
1161.353844	0.203838
1161.507651	0.192062
1161.661440	0.182444
1161.815210	0.177049
1161.968962	0.178207
1162.122697	0.181102
1162.276412	0.191522
1162.430110	0.178783
1162.583789	0.192925
1162.737451	0.197665
1162.891094	0.217618
1163.044718	0.230199
1163.198325	0.221606
1163.351913	0.235226
1163.505483	0.231205
1163.659035	0.218164
1163.812569	0.253134
1163.966084	0.263865
1164.119581	0.279466
1164.273060	0.258595
1164.426521	0.247783
1164.579964	0.243462
1164.733388	0.259158
1164.886794	0.258694
1165.040182	0.250554
1165.193551	0.200692
1165.346903	0.186500
1165.500236	0.191790
1165.653551	0.205507
1165.806848	0.199386
1165.960126	0.194148
1166.113386	0.182041
1166.266628	0.176197
1166.419852	0.185598
1166.573058	0.224630
1166.726245	0.226020
1166.879414	0.197118
1167.032565	0.169470
1167.185698	0.197512
1167.338812	0.205417
1167.491909	0.216634
1167.644987	0.231813
1167.798046	0.262783
1167.951088	0.246180
1168.104111	0.233353
1168.257117	0.240733
1168.410103	0.257680
1168.563072	0.231192
1168.716023	0.231540
1168.868955	0.213562
1169.021869	0.200015
1169.174765	0.179735
1169.327642	0.163450
1169.480501	0.190974
1169.633343	0.208193
1169.786165	0.230392
1169.938970	0.239447
1170.091757	0.237986
1170.244525	0.250375
1170.397275	0.232347
1170.550007	0.218241
1170.702720	0.223990
1170.855415	0.215121
1171.008092	0.182078
1171.160751	0.155331
1171.313392	0.151995
1171.466014	0.425409
1171.618619	0.086668
1171.771205	0.086668
1171.923772	0.086668
