sample name	sample
index	348
start time	 03-01-2021  11:45:48 AM


Wavelength (nm)	Absorbance
494.344910	-0.293343
494.563924	-0.293343
494.782919	-0.293343
495.001897	-0.277175
495.220856	-0.278061
495.439797	-0.275692
495.658719	-0.265924
495.877624	-0.252558
496.096510	-0.170903
496.315378	-0.142304
496.534227	-0.056771
496.753059	-0.036746
496.971872	-0.020004
497.190667	0.220270
497.409444	0.255883
497.628203	0.270584
497.846943	0.273181
498.065665	0.273173
498.284369	0.275262
498.503055	0.275166
498.721723	0.273804
498.940372	0.274502
499.159003	0.273853
499.377616	0.270660
499.596210	0.267443
499.814787	0.267801
500.033345	0.266421
500.251885	0.264961
500.470406	0.263611
500.688910	0.262219
500.907395	0.260063
501.125862	0.261298
501.344311	0.262464
501.562742	0.263290
501.781154	0.261451
501.999548	0.259679
502.217924	0.258713
502.436282	0.258278
502.654621	0.258452
502.872942	0.258297
503.091245	0.256361
503.309530	0.255335
503.527797	0.253386
503.746045	0.252385
503.964275	0.252047
504.182487	0.251523
504.400681	0.250358
504.618856	0.249087
504.837013	0.249053
505.055152	0.248839
505.273273	0.248509
505.491376	0.248268
505.709460	0.247243
505.927526	0.247464
506.145574	0.246817
506.363604	0.246679
506.581615	0.246150
506.799608	0.245497
507.017583	0.243921
507.235540	0.242723
507.453478	0.241756
507.671399	0.241470
507.889301	0.239860
508.107185	0.238516
508.325050	0.236738
508.542898	0.236996
508.760727	0.235242
508.978538	0.235173
509.196330	0.234060
509.414105	0.233431
509.631861	0.233175
509.849599	0.233252
510.067319	0.233129
510.285021	0.233028
510.502704	0.231660
510.720369	0.230692
510.938016	0.229596
511.155645	0.229299
511.373255	0.227621
511.590848	0.226291
511.808422	0.225315
512.025977	0.224438
512.243515	0.224123
512.461034	0.223831
512.678536	0.224140
512.896018	0.224247
513.113483	0.224427
513.330930	0.225758
513.548358	0.226252
513.765768	0.225504
513.983160	0.224681
514.200533	0.223659
514.417889	0.222369
514.635226	0.221072
514.852545	0.220870
515.069845	0.220558
515.287128	0.218844
515.504392	0.216849
515.721638	0.216242
515.938866	0.216873
516.156075	0.216987
516.373267	0.217792
516.590440	0.218201
516.807594	0.217616
517.024731	0.216884
517.241850	0.217856
517.458950	0.218455
517.676032	0.218467
517.893095	0.217632
518.110141	0.216776
518.327168	0.216083
518.544177	0.215217
518.761168	0.214850
518.978141	0.213811
519.195095	0.212366
519.412031	0.212561
519.628949	0.212249
519.845849	0.212119
520.062731	0.212137
520.279594	0.212045
520.496439	0.212269
520.713266	0.212033
520.930074	0.212155
521.146865	0.212178
521.363637	0.211325
521.580391	0.210713
521.797127	0.210321
522.013844	0.210335
522.230543	0.210503
522.447224	0.210384
522.663887	0.210094
522.880532	0.209960
523.097158	0.209903
523.313766	0.209267
523.530356	0.209105
523.746928	0.209446
523.963481	0.209078
524.180017	0.208189
524.396534	0.207504
524.613032	0.207036
524.829513	0.206902
525.045975	0.206095
525.262420	0.206365
525.478845	0.206734
525.695253	0.206573
525.911643	0.206227
526.128014	0.205520
526.344367	0.205917
526.560702	0.205436
526.777018	0.205365
526.993316	0.205945
527.209597	0.205841
527.425858	0.205650
527.642102	0.204999
527.858328	0.204467
528.074535	0.204704
528.290724	0.204205
528.506894	0.204906
528.723047	0.204960
528.939181	0.204918
529.155297	0.205051
529.371395	0.204520
529.587475	0.204179
529.803536	0.204504
530.019579	0.205229
530.235604	0.205535
530.451611	0.205389
530.667600	0.204787
530.883570	0.204562
531.099522	0.204394
531.315456	0.204837
531.531372	0.205296
531.747269	0.205276
531.963148	0.204551
532.179009	0.204610
532.394852	0.204536
532.610676	0.204792
532.826482	0.204612
533.042271	0.204585
533.258040	0.204140
533.473792	0.204350
533.689525	0.204538
533.905240	0.204458
534.120937	0.204094
534.336616	0.203767
534.552277	0.203339
534.767919	0.203809
534.983543	0.203795
535.199149	0.204057
535.414736	0.203508
535.630306	0.203521
535.845857	0.204481
536.061390	0.204857
536.276904	0.205178
536.492401	0.206409
536.707879	0.206080
536.923339	0.205856
537.138781	0.205597
537.354204	0.206266
537.569610	0.206266
537.784997	0.205363
538.000366	0.204322
538.215716	0.204253
538.431049	0.204016
538.646363	0.204339
538.861659	0.204113
539.076937	0.204464
539.292196	0.203993
539.507438	0.204011
539.722661	0.204150
539.937866	0.205688
540.153052	0.205807
540.368221	0.205679
540.583371	0.205689
540.798503	0.206079
541.013617	0.206255
541.228712	0.206871
541.443789	0.206555
541.658848	0.206675
541.873889	0.206036
542.088912	0.206258
542.303916	0.206374
542.518902	0.206284
542.733870	0.206803
542.948820	0.206658
543.163752	0.206231
543.378665	0.206321
543.593560	0.206462
543.808437	0.206648
544.023295	0.206645
544.238136	0.206446
544.452958	0.205970
544.667762	0.205595
544.882548	0.205849
545.097315	0.206134
545.312064	0.206534
545.526795	0.206582
545.741508	0.206299
545.956203	0.206389
546.170879	0.206247
546.385537	0.207237
546.600177	0.207401
546.814799	0.207348
547.029402	0.207219
547.243988	0.207400
547.458555	0.207534
547.673103	0.208016
547.887634	0.208339
548.102146	0.208414
548.316640	0.208154
548.531116	0.208055
548.745574	0.208438
548.960013	0.208919
549.174435	0.208659
549.388838	0.208843
549.603222	0.209214
549.817589	0.209080
550.031937	0.209486
550.246267	0.209241
550.460579	0.209959
550.674873	0.209958
550.889148	0.209467
551.103405	0.209871
551.317644	0.210008
551.531865	0.209410
551.746068	0.208830
551.960252	0.208813
552.174418	0.209515
552.388566	0.209242
552.602696	0.209068
552.816807	0.209466
553.030900	0.209592
553.244975	0.209961
553.459032	0.210431
553.673070	0.211059
553.887091	0.211289
554.101093	0.210938
554.315077	0.211220
554.529042	0.211450
554.742990	0.211610
554.956919	0.212222
555.170830	0.211810
555.384722	0.211770
555.598597	0.212015
555.812453	0.212212
556.026291	0.212611
556.240111	0.212654
556.453913	0.212387
556.667696	0.212649
556.881461	0.212261
557.095208	0.212492
557.308937	0.212454
557.522647	0.212638
557.736339	0.212631
557.950013	0.212814
558.163669	0.212655
558.377307	0.213071
558.590926	0.213089
558.804527	0.213202
559.018110	0.213184
559.231675	0.213526
559.445221	0.213522
559.658749	0.213885
559.872259	0.213773
560.085751	0.213743
560.299225	0.213857
560.512680	0.213695
560.726117	0.213859
560.939536	0.214148
561.152937	0.213743
561.366319	0.213781
561.579683	0.213612
561.793029	0.213416
562.006357	0.213576
562.219667	0.213958
562.432958	0.214387
562.646231	0.214233
562.859486	0.214346
563.072723	0.215006
563.285941	0.215076
563.499141	0.215162
563.712323	0.216028
563.925487	0.216513
564.138632	0.216492
564.351760	0.216854
564.564869	0.217439
564.777960	0.217266
564.991032	0.217472
565.204087	0.217473
565.417123	0.217693
565.630141	0.217538
565.843140	0.217725
566.056122	0.217969
566.269085	0.217835
566.482030	0.217547
566.694957	0.218206
566.907866	0.218329
567.120756	0.218364
567.333628	0.218513
567.546482	0.218806
567.759318	0.218895
567.972135	0.219223
568.184935	0.218943
568.397716	0.219218
568.610478	0.219319
568.823223	0.219412
569.035949	0.220124
569.248657	0.220249
569.461347	0.220078
569.674019	0.220524
569.886672	0.220209
570.099308	0.221152
570.311925	0.221439
570.524523	0.221628
570.737104	0.222003
570.949666	0.221956
571.162210	0.222136
571.374736	0.222910
571.587244	0.222888
571.799733	0.223325
572.012205	0.223106
572.224658	0.223038
572.437092	0.222758
572.649509	0.222581
572.861907	0.222757
573.074287	0.222863
573.286649	0.222707
573.498993	0.222667
573.711318	0.222743
573.923625	0.222848
574.135914	0.223018
574.348185	0.223162
574.560438	0.223838
574.772672	0.224467
574.984888	0.225264
575.197086	0.225202
575.409266	0.225395
575.621427	0.225513
575.833570	0.225777
576.045695	0.226129
576.257802	0.226686
576.469890	0.226405
576.681961	0.226041
576.894013	0.225839
577.106046	0.226184
577.318062	0.226520
577.530059	0.227041
577.742039	0.226871
577.954000	0.227189
578.165942	0.227607
578.377867	0.227872
578.589773	0.227901
578.801661	0.227978
579.013531	0.228113
579.225382	0.228452
579.437216	0.228427
579.649031	0.228970
579.860828	0.228952
580.072606	0.228992
580.284367	0.229615
580.496109	0.230683
580.707833	0.230999
580.919539	0.231116
581.131227	0.231235
581.342896	0.231455
581.554547	0.231961
581.766180	0.232047
581.977795	0.232179
582.189391	0.232060
582.400969	0.231878
582.612529	0.232327
582.824071	0.232727
583.035595	0.232526
583.247100	0.232547
583.458587	0.232396
583.670056	0.232832
583.881506	0.232768
584.092939	0.232973
584.304353	0.232857
584.515749	0.233022
584.727127	0.233153
584.938486	0.233508
585.149828	0.233913
585.361151	0.234242
585.572456	0.234391
585.783742	0.234927
585.995011	0.234720
586.206261	0.235063
586.417493	0.234880
586.628706	0.235198
586.839902	0.235538
587.051079	0.235997
587.262238	0.236473
587.473379	0.236749
587.684502	0.236702
587.895606	0.237225
588.106692	0.237651
588.317760	0.237793
588.528810	0.237575
588.739841	0.237914
588.950855	0.237559
589.161850	0.237568
589.372827	0.238028
589.583785	0.238216
589.794726	0.238330
590.005648	0.238334
590.216552	0.238430
590.427437	0.238734
590.638305	0.238845
590.849154	0.239460
591.059985	0.239778
591.270798	0.239501
591.481592	0.240094
591.692369	0.240671
591.903127	0.241038
592.113867	0.241558
592.324588	0.242264
592.535292	0.242889
592.745977	0.243195
592.956644	0.243118
593.167293	0.243750
593.377923	0.244114
593.588536	0.243959
593.799130	0.244221
594.009706	0.244315
594.220263	0.244421
594.430803	0.244380
594.641324	0.244557
594.851827	0.245159
595.062312	0.245206
595.272778	0.245252
595.483227	0.245919
595.693657	0.246196
595.904069	0.246529
596.114462	0.246525
596.324838	0.246839
596.535195	0.247019
596.745534	0.247111
596.955855	0.247305
597.166157	0.247165
597.376441	0.247248
597.586707	0.247357
597.796955	0.247965
598.007185	0.248415
598.217396	0.248298
598.427589	0.248417
598.637764	0.248666
598.847921	0.248793
599.058060	0.249329
599.268180	0.249559
599.478282	0.249556
599.688366	0.249753
599.898431	0.249953
600.108479	0.250447
600.318508	0.250691
600.528519	0.250859
600.738511	0.251313
600.948486	0.251799
601.158442	0.251919
601.368380	0.252327
601.578300	0.252426
601.788202	0.252518
601.998085	0.252726
602.207950	0.252917
602.417797	0.253333
602.627626	0.253369
602.837436	0.253253
603.047228	0.253611
603.257002	0.253817
603.466758	0.253935
603.676496	0.254099
603.886215	0.254216
604.095916	0.254538
604.305599	0.254515
604.515264	0.254909
604.724910	0.255440
604.934538	0.255675
605.144148	0.256001
605.353740	0.256169
605.563314	0.256687
605.772869	0.256638
605.982406	0.256840
606.191925	0.257151
606.401425	0.257548
606.610908	0.257558
606.820372	0.257772
607.029818	0.257899
607.239246	0.258072
607.448655	0.258255
607.658047	0.258912
607.867420	0.259104
608.076775	0.259314
608.286111	0.259309
608.495430	0.259639
608.704730	0.259725
608.914012	0.260050
609.123275	0.260307
609.332521	0.260403
609.541748	0.260511
609.750957	0.260762
609.960148	0.261017
610.169321	0.261160
610.378475	0.261119
610.587611	0.261464
610.796729	0.261859
611.005829	0.262273
611.214910	0.262463
611.423974	0.262607
611.633019	0.262698
611.842045	0.262813
612.051054	0.263129
612.260044	0.263138
612.469017	0.263336
612.677970	0.263131
612.886906	0.263231
613.095824	0.263518
613.304723	0.263818
613.513604	0.263986
613.722467	0.264233
613.931311	0.264479
614.140138	0.265020
614.348946	0.265229
614.557736	0.265758
614.766507	0.265587
614.975261	0.265628
615.183996	0.265893
615.392713	0.266376
615.601412	0.266414
615.810092	0.266370
616.018754	0.266501
616.227399	0.266798
616.436024	0.266835
616.644632	0.267513
616.853222	0.267739
617.061793	0.267908
617.270346	0.268217
617.478880	0.268497
617.687397	0.268871
617.895895	0.269222
618.104375	0.269205
618.312837	0.269387
618.521281	0.269512
618.729706	0.269940
618.938113	0.270456
619.146502	0.270479
619.354873	0.270781
619.563226	0.270947
619.771560	0.270767
619.979876	0.271031
620.188174	0.271349
620.396453	0.271523
620.604715	0.271762
620.812958	0.271353
621.021183	0.271590
621.229390	0.271584
621.437578	0.271748
621.645748	0.272134
621.853900	0.272500
622.062034	0.272752
622.270150	0.272906
622.478247	0.273049
622.686326	0.273409
622.894387	0.273545
623.102430	0.273925
623.310454	0.274360
623.518461	0.274838
623.726449	0.274874
623.934418	0.275102
624.142370	0.275383
624.350303	0.275458
624.558218	0.275785
624.766115	0.276007
624.973994	0.276114
625.181855	0.275965
625.389697	0.275945
625.597521	0.276178
625.805327	0.276121
626.013114	0.276124
626.220883	0.276493
626.428634	0.276703
626.636367	0.277122
626.844082	0.277456
627.051778	0.278001
627.259457	0.278334
627.467117	0.278600
627.674758	0.278826
627.882382	0.279367
628.089987	0.279405
628.297574	0.279671
628.505143	0.279515
628.712694	0.279596
628.920226	0.279777
629.127740	0.279850
629.335236	0.280028
629.542714	0.280189
629.750174	0.280257
629.957615	0.280757
630.165038	0.280879
630.372443	0.281120
630.579829	0.281236
630.787198	0.281342
630.994548	0.281593
631.201880	0.281812
631.409194	0.281972
631.616489	0.282237
631.823766	0.282305
632.031025	0.282366
632.238266	0.282628
632.445489	0.282977
632.652693	0.283105
632.859879	0.283507
633.067047	0.283700
633.274197	0.284052
633.481329	0.284279
633.688442	0.284472
633.895537	0.284995
634.102614	0.285220
634.309672	0.285530
634.516713	0.285942
634.723735	0.286192
634.930739	0.286467
635.137724	0.286755
635.344692	0.286916
635.551641	0.287072
635.758572	0.287008
635.965485	0.287301
636.172379	0.287752
636.379256	0.287805
636.586114	0.287903
636.792954	0.288088
636.999775	0.288302
637.206579	0.288552
637.413364	0.288656
637.620131	0.288994
637.826880	0.289129
638.033610	0.289003
638.240323	0.289419
638.447017	0.289396
638.653692	0.289772
638.860350	0.289759
639.066990	0.290160
639.273611	0.290310
639.480214	0.290776
639.686798	0.291117
639.893365	0.291569
640.099913	0.291615
640.306443	0.292070
640.512955	0.292123
640.719449	0.292558
640.925924	0.292164
641.132381	0.292501
641.338820	0.292560
641.545241	0.292671
641.751644	0.292775
641.958028	0.293020
642.164394	0.293030
642.370742	0.293201
642.577071	0.293347
642.783383	0.293909
642.989676	0.293872
643.195951	0.294047
643.402207	0.294260
643.608446	0.294434
643.814666	0.294687
644.020868	0.295176
644.227052	0.295545
644.433218	0.296030
644.639365	0.296424
644.845494	0.297201
645.051605	0.297649
645.257698	0.298021
645.463772	0.298110
645.669828	0.298247
645.875866	0.298558
646.081886	0.298957
646.287888	0.298955
646.493871	0.299322
646.699836	0.299413
646.905783	0.299367
647.111712	0.299529
647.317622	0.299817
647.523514	0.299960
647.729388	0.299924
647.935244	0.299610
648.141082	0.300128
648.346901	0.300226
648.552702	0.300269
648.758485	0.300813
648.964250	0.301067
649.169996	0.301435
649.375724	0.301662
649.581434	0.302056
649.787126	0.302419
649.992800	0.302454
650.198455	0.302507
650.404092	0.302686
650.609711	0.302580
650.815311	0.302800
651.020894	0.302890
651.226458	0.303046
651.432004	0.303215
651.637532	0.303646
651.843041	0.303745
652.048532	0.304065
652.254006	0.304374
652.459460	0.304784
652.664897	0.304968
652.870315	0.305279
653.075716	0.305816
653.281097	0.305909
653.486461	0.306186
653.691807	0.306669
653.897134	0.306898
654.102443	0.307149
654.307734	0.307164
654.513006	0.307384
654.718261	0.307755
654.923497	0.308010
655.128715	0.308415
655.333915	0.308677
655.539096	0.308787
655.744259	0.308909
655.949404	0.309206
656.154531	0.309586
656.359640	0.309838
656.564730	0.310047
656.769802	0.310325
656.974856	0.310699
657.179892	0.310898
657.384909	0.311347
657.589908	0.311789
657.794889	0.312210
657.999852	0.312585
658.204797	0.312712
658.409723	0.312845
658.614631	0.312924
658.819521	0.313011
659.024393	0.313291
659.229246	0.313196
659.434081	0.313572
659.638898	0.313907
659.843697	0.313970
660.048478	0.314731
660.253240	0.315256
660.457984	0.315484
660.662710	0.315705
660.867417	0.316169
661.072107	0.316488
661.276778	0.316595
661.481431	0.316462
661.686066	0.316550
661.890682	0.316542
662.095281	0.316546
662.299861	0.316787
662.504422	0.316940
662.708966	0.316848
662.913491	0.317100
663.117999	0.317081
663.322488	0.317450
663.526958	0.317746
663.731411	0.317842
663.935845	0.318008
664.140261	0.318459
664.344659	0.318852
664.549038	0.319113
664.753400	0.319499
664.957743	0.319985
665.162068	0.320337
665.366375	0.320609
665.570663	0.320907
665.774933	0.321229
665.979185	0.321408
666.183419	0.321793
666.387635	0.322229
666.591832	0.322543
666.796011	0.323055
667.000172	0.323302
667.204315	0.323740
667.408439	0.324314
667.612545	0.324658
667.816634	0.325011
668.020703	0.324952
668.224755	0.325164
668.428788	0.325260
668.632803	0.325178
668.836800	0.325365
669.040779	0.325527
669.244739	0.325590
669.448681	0.325762
669.652605	0.326114
669.856511	0.326911
670.060399	0.327228
670.264268	0.327479
670.468119	0.327763
670.671952	0.327932
670.875767	0.328230
671.079563	0.328483
671.283341	0.328741
671.487101	0.328881
671.690843	0.328679
671.894567	0.328615
672.098272	0.328885
672.301959	0.329058
672.505628	0.329417
672.709278	0.329554
672.912911	0.329693
673.116525	0.329930
673.320121	0.329976
673.523699	0.330012
673.727258	0.330352
673.930799	0.330752
674.134322	0.331018
674.337827	0.331094
674.541314	0.331418
674.744782	0.331953
674.948232	0.332191
675.151664	0.332465
675.355078	0.333150
675.558474	0.333292
675.761851	0.333469
675.965210	0.333669
676.168551	0.334175
676.371873	0.334514
676.575178	0.334682
676.778464	0.335093
676.981732	0.335241
677.184981	0.335255
677.388213	0.335692
677.591426	0.336019
677.794621	0.336381
677.997798	0.336619
678.200956	0.336520
678.404097	0.336630
678.607219	0.336754
678.810323	0.337217
679.013408	0.337727
679.216476	0.338024
679.419525	0.338051
679.622556	0.338291
679.825569	0.338691
680.028563	0.339189
680.231540	0.339584
680.434498	0.339933
680.637438	0.340384
680.840359	0.340611
681.043263	0.341028
681.246148	0.341417
681.449015	0.341973
681.651864	0.341785
681.854694	0.342119
682.057506	0.342287
682.260301	0.342486
682.463076	0.342578
682.665834	0.342712
682.868573	0.342949
683.071295	0.343172
683.273998	0.343217
683.476682	0.343810
683.679349	0.344015
683.881997	0.344363
684.084627	0.344606
684.287239	0.344699
684.489833	0.344669
684.692408	0.344680
684.894965	0.344775
685.097504	0.345060
685.300025	0.345360
685.502527	0.345446
685.705012	0.345451
685.907478	0.345638
686.109925	0.345781
686.312355	0.346007
686.514766	0.346061
686.717159	0.346188
686.919534	0.346146
687.121891	0.346080
687.324230	0.346476
687.526550	0.346723
687.728852	0.346809
687.931136	0.346949
688.133401	0.347432
688.335649	0.347701
688.537878	0.347986
688.740089	0.348219
688.942281	0.348354
689.144456	0.348466
689.346612	0.348809
689.548750	0.349059
689.750870	0.349524
689.952971	0.349467
690.155055	0.349793
690.357120	0.349782
690.559167	0.349981
690.761195	0.350094
690.963206	0.350229
691.165198	0.350233
691.367172	0.350488
691.569128	0.350453
691.771065	0.350904
691.972984	0.350817
692.174885	0.351337
692.376768	0.351650
692.578633	0.352126
692.780479	0.352217
692.982308	0.352260
693.184118	0.352741
693.385909	0.352959
693.587683	0.352981
693.789438	0.353554
693.991175	0.353583
694.192894	0.353592
694.394595	0.353776
694.596277	0.354024
694.797941	0.354477
694.999587	0.354306
695.201215	0.354478
695.402824	0.354553
695.604416	0.354499
695.805989	0.354921
696.007543	0.355107
696.209080	0.355286
696.410598	0.355501
696.612099	0.355533
696.813580	0.355675
697.015044	0.355877
697.216490	0.356184
697.417917	0.356426
697.619326	0.356584
697.820717	0.356743
698.022089	0.356602
698.223444	0.356804
698.424780	0.357263
698.626098	0.357483
698.827397	0.357849
699.028679	0.358078
699.229942	0.358027
699.431187	0.357861
699.632414	0.358078
699.833622	0.358270
700.034813	0.358550
700.235985	0.358296
700.437139	0.358342
700.638274	0.358290
700.839392	0.358533
701.040491	0.359116
701.241572	0.359390
701.442635	0.359363
701.643679	0.359685
701.844706	0.359600
702.045714	0.359657
702.246704	0.359784
702.447675	0.360166
702.648629	0.360110
702.849564	0.359969
703.050481	0.360419
703.251380	0.360704
703.452260	0.360644
703.653122	0.361044
703.853966	0.361152
704.054792	0.361344
704.255600	0.361123
704.456389	0.361260
704.657160	0.361443
704.857913	0.361103
705.058648	0.361147
705.259365	0.361301
705.460063	0.360953
705.660743	0.361105
705.861405	0.361227
706.062048	0.361395
706.262674	0.361342
706.463281	0.361386
706.663870	0.361597
706.864441	0.361392
707.064993	0.361629
707.265527	0.361725
707.466043	0.361956
707.666541	0.362252
707.867021	0.362541
708.067482	0.362717
708.267925	0.362713
708.468350	0.363015
708.668757	0.363476
708.869145	0.363465
709.069516	0.363928
709.269868	0.363908
709.470201	0.363723
709.670517	0.363739
709.870814	0.363980
710.071093	0.364298
710.271354	0.364153
710.471597	0.364356
710.671821	0.364486
710.872028	0.364172
711.072216	0.364584
711.272385	0.364589
711.472537	0.364375
711.672670	0.364250
711.872785	0.364193
712.072882	0.364269
712.272961	0.364157
712.473021	0.364160
712.673063	0.364445
712.873087	0.364142
713.073093	0.364386
713.273081	0.364555
713.473050	0.364898
713.673001	0.364862
713.872934	0.365129
714.072849	0.365310
714.272745	0.365370
714.472623	0.365373
714.672483	0.365469
714.872325	0.365500
715.072148	0.365636
715.271954	0.365563
715.471741	0.365504
715.671509	0.365278
715.871260	0.365227
716.070992	0.365177
716.270707	0.365300
716.470403	0.365363
716.670080	0.365552
716.869740	0.365273
717.069381	0.365379
717.269004	0.365426
717.468609	0.365597
717.668195	0.365395
717.867764	0.365357
718.067314	0.365173
718.266846	0.365147
718.466360	0.364933
718.665855	0.365089
718.865332	0.364874
719.064791	0.364936
719.264232	0.364902
719.463655	0.365247
719.663059	0.365220
719.862445	0.365334
720.061813	0.365276
720.261163	0.365242
720.460494	0.365360
720.659807	0.365515
720.859102	0.365627
721.058379	0.365602
721.257638	0.365580
721.456878	0.365582
721.656100	0.365475
721.855304	0.365476
722.054490	0.365386
722.253657	0.365403
722.452806	0.365300
722.651937	0.365047
722.851050	0.365082
723.050145	0.364946
723.249221	0.365121
723.448279	0.365257
723.647319	0.365420
723.846340	0.365457
724.045344	0.365361
724.244329	0.365093
724.443296	0.365173
724.642245	0.365066
724.841175	0.365067
725.040088	0.364963
725.238982	0.364881
725.437857	0.364602
725.636715	0.364412
725.835554	0.364257
726.034376	0.364434
726.233179	0.364384
726.431963	0.364271
726.630730	0.364029
726.829478	0.363841
727.028208	0.363737
727.226920	0.363571
727.425614	0.363488
727.624289	0.363571
727.822946	0.363366
728.021585	0.362970
728.220206	0.362652
728.418808	0.362508
728.617392	0.362540
728.815958	0.362501
729.014506	0.362509
729.213036	0.362251
729.411547	0.361952
729.610040	0.361963
729.808515	0.361980
730.006972	0.361899
730.205410	0.361867
730.403831	0.361547
730.602233	0.361347
730.800616	0.361368
730.998982	0.361329
731.197329	0.361234
731.395658	0.361225
731.593969	0.361397
731.792262	0.361487
731.990536	0.361265
732.188793	0.361359
732.387031	0.361279
732.585250	0.361094
732.783452	0.361395
732.981635	0.361293
733.179800	0.360879
733.377947	0.360789
733.576076	0.360627
733.774186	0.360600
733.972278	0.360394
734.170352	0.360259
734.368408	0.360334
734.566446	0.359958
734.764465	0.359861
734.962466	0.359811
735.160449	0.359665
735.358413	0.359460
735.556360	0.359536
735.754288	0.359559
735.952198	0.359501
736.150090	0.359025
736.347963	0.358626
736.545818	0.358719
736.743655	0.358665
736.941474	0.358487
737.139275	0.358619
737.337057	0.358477
737.534821	0.358160
737.732567	0.357876
737.930295	0.357906
738.128005	0.358254
738.325696	0.358009
738.523369	0.358046
738.721024	0.358070
738.918660	0.357876
739.116279	0.357651
739.313879	0.357702
739.511461	0.357853
739.709024	0.357722
739.906570	0.357637
740.104097	0.357562
740.301606	0.357140
740.499097	0.356750
740.696569	0.356710
740.894024	0.356622
741.091460	0.356559
741.288878	0.356266
741.486277	0.356374
741.683659	0.356228
741.881022	0.355910
742.078367	0.356004
742.275694	0.355923
742.473002	0.355645
742.670293	0.355251
742.867565	0.355064
743.064819	0.354868
743.262054	0.354580
743.459272	0.354333
743.656471	0.354132
743.853652	0.353934
744.050815	0.353745
744.247959	0.353736
744.445085	0.353760
744.642194	0.353574
744.839283	0.353599
745.036355	0.353459
745.233408	0.353235
745.430444	0.353269
745.627461	0.353161
745.824459	0.353293
746.021440	0.353018
746.218402	0.352961
746.415346	0.352807
746.612272	0.352451
746.809180	0.352478
747.006069	0.352421
747.202940	0.352373
747.399793	0.352028
747.596628	0.351834
747.793444	0.351816
747.990243	0.351756
748.187023	0.351523
748.383784	0.351541
748.580528	0.351019
748.777253	0.350755
748.973960	0.350830
749.170649	0.350734
749.367320	0.350491
749.563973	0.350168
749.760607	0.349996
749.957223	0.350068
750.153821	0.349892
750.350400	0.349731
750.546962	0.349545
750.743505	0.349049
750.940030	0.348943
751.136536	0.348714
751.333025	0.348589
751.529495	0.348215
751.725947	0.348004
751.922381	0.347812
752.118796	0.347926
752.315194	0.347895
752.511573	0.347801
752.707934	0.347663
752.904276	0.347597
753.100601	0.347323
753.296907	0.347410
753.493195	0.347125
753.689465	0.347056
753.885716	0.347068
754.081949	0.347061
754.278164	0.347014
754.474361	0.346997
754.670540	0.346794
754.866700	0.346881
755.062843	0.346635
755.258967	0.346526
755.455072	0.346409
755.651160	0.346110
755.847229	0.345785
756.043280	0.345591
756.239313	0.345492
756.435328	0.345402
756.631324	0.345315
756.827302	0.345187
757.023262	0.345411
757.219204	0.345101
757.415127	0.345020
757.611033	0.345125
757.806920	0.344987
758.002788	0.344666
758.198639	0.344687
758.394471	0.344477
758.590286	0.344581
758.786081	0.344070
758.981859	0.344065
759.177619	0.343984
759.373360	0.343732
759.569083	0.343615
759.764788	0.343693
759.960474	0.343468
760.156143	0.343251
760.351793	0.342954
760.547425	0.342984
760.743038	0.343038
760.938634	0.342807
761.134211	0.342631
761.329770	0.342732
761.525311	0.342156
761.720833	0.341966
761.916338	0.341678
762.111824	0.341327
762.307292	0.341207
762.502741	0.340946
762.698173	0.340661
762.893586	0.340585
763.088981	0.340350
763.284358	0.340651
763.479716	0.340462
763.675057	0.340817
763.870379	0.340784
764.065683	0.340539
764.260968	0.340393
764.456236	0.340434
764.651485	0.340443
764.846716	0.340420
765.041929	0.340180
765.237123	0.340152
765.432299	0.340116
765.627457	0.340312
765.822597	0.340508
766.017719	0.340457
766.212822	0.340495
766.407907	0.340323
766.602974	0.340085
766.798023	0.340240
766.993054	0.340311
767.188066	0.339892
767.383060	0.339797
767.578036	0.339406
767.772993	0.339218
767.967933	0.339096
768.162854	0.338964
768.357757	0.338817
768.552642	0.338666
768.747508	0.338301
768.942356	0.338356
769.137186	0.338115
769.331998	0.338427
769.526792	0.338454
769.721567	0.338311
769.916324	0.338131
770.111063	0.338321
770.305784	0.338040
770.500486	0.338095
770.695171	0.337967
770.889837	0.337872
771.084484	0.337262
771.279114	0.337213
771.473725	0.336921
771.668318	0.336722
771.862893	0.336321
772.057450	0.336256
772.251988	0.336106
772.446509	0.335917
772.641011	0.335804
772.835494	0.336017
773.029960	0.335823
773.224407	0.335959
773.418836	0.336155
773.613247	0.336136
773.807640	0.336326
774.002014	0.336455
774.196370	0.336458
774.390708	0.336370
774.585028	0.336097
774.779330	0.335974
774.973613	0.335827
775.167878	0.335730
775.362125	0.335809
775.556354	0.335541
775.750564	0.335292
775.944756	0.335374
776.138930	0.335443
776.333086	0.335497
776.527223	0.335482
776.721343	0.335492
776.915444	0.335538
777.109526	0.335230
777.303591	0.335201
777.497637	0.335247
777.691666	0.335076
777.885676	0.334912
778.079667	0.335046
778.273641	0.335170
778.467596	0.335055
778.661533	0.334744
778.855452	0.334582
779.049352	0.334479
779.243235	0.334515
779.437099	0.334348
779.630945	0.334464
779.824773	0.334182
780.018582	0.334002
780.212373	0.334013
780.406146	0.334151
780.599901	0.334380
780.793638	0.334540
780.987356	0.334372
781.181056	0.334675
781.374738	0.334460
781.568402	0.334396
781.762047	0.334324
781.955674	0.334444
782.149283	0.334372
782.342874	0.334398
782.536447	0.334195
782.730001	0.334384
782.923537	0.334264
783.117055	0.334521
783.310555	0.334653
783.504036	0.334863
783.697499	0.334780
783.890944	0.334972
784.084371	0.334941
784.277780	0.335290
784.471170	0.335277
784.664542	0.335218
784.857896	0.335291
785.051231	0.335487
785.244549	0.335455
785.437848	0.335737
785.631129	0.335676
785.824392	0.335737
786.017636	0.335551
786.210863	0.335520
786.404071	0.335718
786.597260	0.335577
786.790432	0.335599
786.983585	0.335698
787.176721	0.335742
787.369838	0.335944
787.562936	0.336134
787.756017	0.336019
787.949079	0.336008
788.142123	0.335942
788.335149	0.336227
788.528156	0.336326
788.721146	0.336284
788.914117	0.336154
789.107070	0.336120
789.300005	0.336044
789.492921	0.336450
789.685819	0.336616
789.878699	0.336776
790.071561	0.336634
790.264405	0.336571
790.457230	0.336679
790.650037	0.336511
790.842826	0.336608
791.035597	0.336633
791.228349	0.336431
791.421084	0.336440
791.613800	0.336396
791.806497	0.336653
791.999177	0.337233
792.191838	0.337458
792.384481	0.337695
792.577106	0.337689
792.769713	0.337904
792.962301	0.337946
793.154871	0.338287
793.347423	0.338370
793.539957	0.338386
793.732473	0.338113
793.924970	0.338256
794.117449	0.338601
794.309910	0.338865
794.502353	0.338950
794.694777	0.339488
794.887183	0.339666
795.079571	0.339889
795.271941	0.340012
795.464293	0.340113
795.656626	0.340300
795.848941	0.340484
796.041238	0.340662
796.233516	0.340864
796.425777	0.340837
796.618019	0.340700
796.810243	0.340970
797.002449	0.341004
797.194636	0.341072
797.386805	0.341091
797.578956	0.341126
797.771089	0.340861
797.963204	0.340897
798.155300	0.341171
798.347378	0.341572
798.539438	0.341601
798.731480	0.341758
798.923503	0.341670
799.115509	0.341811
799.307496	0.341794
799.499465	0.342129
799.691415	0.342250
799.883348	0.342224
800.075262	0.341867
800.267158	0.341814
800.459035	0.342124
800.650895	0.342364
800.842736	0.342639
801.034559	0.342836
801.226364	0.343062
801.418150	0.343060
801.609919	0.342817
801.801669	0.343244
801.993401	0.343444
802.185114	0.343485
802.376810	0.343770
802.568487	0.343653
802.760146	0.343761
802.951787	0.344020
803.143409	0.344322
803.335014	0.344731
803.526600	0.344729
803.718168	0.344987
803.909717	0.345078
804.101249	0.345090
804.292762	0.345378
804.484257	0.345634
804.675734	0.345542
804.867192	0.345802
805.058632	0.346002
805.250054	0.346559
805.441458	0.346609
805.632844	0.346714
805.824211	0.346938
806.015561	0.347150
806.206891	0.347279
806.398204	0.347657
806.589499	0.347834
806.780775	0.347974
806.972033	0.347978
807.163273	0.348220
807.354495	0.348485
807.545698	0.348887
807.736883	0.349017
807.928050	0.349504
808.119199	0.349860
808.310329	0.350298
808.501441	0.350728
808.692535	0.350937
808.883611	0.351237
809.074669	0.351724
809.265708	0.352085
809.456729	0.352394
809.647732	0.352468
809.838717	0.352595
810.029683	0.352670
810.220632	0.353040
810.411562	0.353277
810.602474	0.353518
810.793367	0.353829
810.984242	0.353912
811.175100	0.354094
811.365938	0.354359
811.556759	0.354832
811.747562	0.354988
811.938346	0.354878
812.129112	0.355004
812.319860	0.355347
812.510589	0.355259
812.701300	0.355696
812.891994	0.355916
813.082668	0.356354
813.273325	0.356132
813.463964	0.356886
813.654584	0.357407
813.845186	0.357818
814.035769	0.358071
814.226335	0.358469
814.416882	0.358181
814.607411	0.358508
814.797922	0.358692
814.988415	0.359384
815.178889	0.359116
815.369345	0.359456
815.559783	0.359755
815.750203	0.359656
815.940605	0.360068
816.130988	0.360653
816.321353	0.360857
816.511700	0.360870
816.702028	0.360952
816.892339	0.361435
817.082631	0.361542
817.272905	0.361555
817.463161	0.362115
817.653398	0.362487
817.843617	0.362899
818.033819	0.363577
818.224001	0.364014
818.414166	0.364553
818.604312	0.364967
818.794440	0.365308
818.984550	0.366025
819.174642	0.366347
819.364716	0.366270
819.554771	0.366493
819.744808	0.366524
819.934827	0.366689
820.124827	0.366796
820.314810	0.366893
820.504774	0.367317
820.694720	0.367346
820.884647	0.367578
821.074557	0.367685
821.264448	0.367875
821.454321	0.368359
821.644176	0.368694
821.834012	0.369092
822.023831	0.369286
822.213631	0.369583
822.403413	0.370149
822.593176	0.370630
822.782922	0.371304
822.972649	0.371597
823.162358	0.371670
823.352049	0.372086
823.541721	0.371963
823.731376	0.372703
823.921012	0.372909
824.110629	0.373023
824.300229	0.373401
824.489811	0.373816
824.679374	0.374124
824.868919	0.374556
825.058445	0.374954
825.247954	0.375561
825.437444	0.375589
825.626916	0.375741
825.816370	0.375822
826.005806	0.376297
826.195223	0.376277
826.384622	0.376952
826.574003	0.377194
826.763366	0.377259
826.952711	0.377661
827.142037	0.377972
827.331345	0.378299
827.520635	0.379237
827.709906	0.379701
827.899160	0.380353
828.088395	0.380538
828.277612	0.381032
828.466810	0.381559
828.655991	0.381875
828.845153	0.382378
829.034297	0.382719
829.223423	0.382812
829.412531	0.382761
829.601620	0.382771
829.790691	0.383043
829.979744	0.383158
830.168779	0.383265
830.357795	0.383333
830.546793	0.383671
830.735773	0.384081
830.924735	0.384073
831.113679	0.384371
831.302604	0.384780
831.491511	0.385157
831.680400	0.385584
831.869271	0.386220
832.058123	0.386952
832.246957	0.387059
832.435773	0.387674
832.624571	0.388142
832.813351	0.388467
833.002112	0.389182
833.190855	0.389630
833.379580	0.389800
833.568287	0.389917
833.756975	0.389808
833.945645	0.390337
834.134297	0.390440
834.322931	0.390844
834.511547	0.391238
834.700144	0.391276
834.888723	0.391335
835.077284	0.391816
835.265826	0.392355
835.454351	0.392903
835.642857	0.393420
835.831345	0.394110
836.019815	0.394464
836.208266	0.395010
836.396699	0.395432
836.585114	0.395850
836.773511	0.396448
836.961890	0.396935
837.150250	0.397683
837.338592	0.397777
837.526916	0.398165
837.715222	0.398615
837.903510	0.398734
838.091779	0.399246
838.280030	0.399513
838.468263	0.399797
838.656477	0.399932
838.844674	0.399956
839.032852	0.400403
839.221012	0.400403
839.409153	0.400669
839.597277	0.401334
839.785382	0.401769
839.973469	0.402214
840.161538	0.402716
840.349589	0.403226
840.537621	0.403382
840.725635	0.403843
840.913631	0.404559
841.101609	0.405146
841.289568	0.405930
841.477509	0.406447
841.665432	0.407344
841.853337	0.407503
842.041224	0.408091
842.229092	0.408854
842.416942	0.409269
842.604774	0.409480
842.792588	0.409799
842.980383	0.409691
843.168160	0.410183
843.355919	0.409937
843.543660	0.410515
843.731382	0.410889
843.919087	0.411070
844.106773	0.411338
844.294441	0.411620
844.482090	0.412386
844.669722	0.413089
844.857335	0.413290
845.044930	0.413948
845.232507	0.414351
845.420065	0.414294
845.607605	0.414671
845.795127	0.414912
845.982631	0.415455
846.170117	0.415423
846.357584	0.415459
846.545033	0.415534
846.732464	0.416368
846.919877	0.416709
847.107272	0.417543
847.294648	0.418264
847.482006	0.419231
847.669346	0.419645
847.856667	0.420110
848.043971	0.420509
848.231256	0.421093
848.418523	0.421327
848.605771	0.421794
848.793002	0.422122
848.980214	0.422756
849.167408	0.422705
849.354584	0.423222
849.541742	0.423900
849.728881	0.424376
849.916002	0.424905
850.103105	0.425427
850.290190	0.425715
850.477256	0.426169
850.664304	0.426467
850.851334	0.427013
851.038346	0.427499
851.225340	0.427549
851.412315	0.427801
851.599272	0.428130
851.786211	0.428601
851.973132	0.428862
852.160034	0.429379
852.346918	0.429546
852.533784	0.429999
852.720632	0.430258
852.907462	0.431221
853.094273	0.432207
853.281066	0.433050
853.467841	0.433440
853.654598	0.433845
853.841336	0.433959
854.028056	0.434836
854.214758	0.435327
854.401442	0.435537
854.588107	0.435441
854.774755	0.435484
854.961384	0.435387
855.147995	0.435649
855.334587	0.436040
855.521162	0.436742
855.707718	0.436602
855.894256	0.436757
856.080775	0.437248
856.267277	0.437925
856.453760	0.438332
856.640225	0.439198
856.826672	0.439477
857.013101	0.439958
857.199511	0.440326
857.385903	0.440616
857.572277	0.440759
857.758633	0.441193
857.944970	0.441639
858.131290	0.441950
858.317591	0.441859
858.503873	0.442344
858.690138	0.442713
858.876384	0.442787
859.062612	0.443277
859.248822	0.443900
859.435014	0.444254
859.621188	0.444304
859.807343	0.444636
859.993480	0.444795
860.179599	0.445162
860.365699	0.445668
860.551781	0.446058
860.737846	0.446517
860.923891	0.447284
861.109919	0.447874
861.295929	0.448170
861.481920	0.448402
861.667893	0.449174
861.853848	0.449349
862.039784	0.449475
862.225702	0.449821
862.411603	0.450187
862.597484	0.450051
862.783348	0.450278
862.969193	0.450465
863.155021	0.450684
863.340830	0.450893
863.526620	0.451019
863.712393	0.451503
863.898147	0.451717
864.083883	0.451798
864.269601	0.451833
864.455301	0.452289
864.640982	0.452577
864.826645	0.452978
865.012290	0.453321
865.197917	0.453528
865.383526	0.453885
865.569116	0.454187
865.754688	0.454426
865.940242	0.455137
866.125777	0.455020
866.311295	0.455725
866.496794	0.455968
866.682275	0.455816
866.867737	0.455808
867.053182	0.456271
867.238608	0.456828
867.424016	0.456908
867.609406	0.457035
867.794778	0.457106
867.980131	0.457049
868.165466	0.457699
868.350783	0.457951
868.536082	0.458669
868.721362	0.458519
868.906625	0.458702
869.091869	0.459445
869.277094	0.460167
869.462302	0.460922
869.647491	0.461377
869.832662	0.461048
870.017815	0.461577
870.202950	0.462264
870.388066	0.462926
870.573165	0.463009
870.758245	0.463237
870.943306	0.462917
871.128350	0.462687
871.313375	0.463030
871.498382	0.463918
871.683371	0.464361
871.868342	0.464429
872.053294	0.464421
872.238229	0.464826
872.423144	0.464819
872.608042	0.465544
872.792922	0.466358
872.977783	0.466627
873.162626	0.466528
873.347451	0.466412
873.532258	0.466919
873.717046	0.467590
873.901816	0.467794
874.086568	0.468257
874.271302	0.468380
874.456017	0.468375
874.640715	0.468797
874.825394	0.469085
875.010055	0.469886
875.194697	0.469646
875.379322	0.469673
875.563928	0.470309
875.748516	0.470973
875.933085	0.471535
876.117637	0.471605
876.302170	0.471550
876.486685	0.471596
876.671182	0.471368
876.855661	0.471544
877.040121	0.471533
877.224563	0.471195
877.408987	0.471300
877.593393	0.470949
877.777780	0.471644
877.962150	0.471951
878.146501	0.472541
878.330833	0.473235
878.515148	0.473655
878.699444	0.474067
878.883722	0.474405
879.067982	0.474496
879.252224	0.474753
879.436447	0.474705
879.620653	0.474684
879.804840	0.474376
879.989008	0.474375
880.173159	0.474676
880.357291	0.474983
880.541405	0.475022
880.725501	0.474649
880.909579	0.474822
881.093638	0.474777
881.277680	0.474825
881.461703	0.475577
881.645707	0.475864
881.829694	0.475351
882.013662	0.475307
882.197612	0.475538
882.381544	0.475954
882.565458	0.476290
882.749353	0.476561
882.933230	0.476872
883.117089	0.476741
883.300930	0.476556
883.484753	0.477512
883.668557	0.477222
883.852343	0.477255
884.036111	0.477516
884.219861	0.477389
884.403592	0.477564
884.587305	0.478000
884.771000	0.478358
884.954677	0.478599
885.138335	0.478391
885.321976	0.478454
885.505598	0.478447
885.689201	0.478467
885.872787	0.478462
886.056354	0.478561
886.239904	0.478288
886.423434	0.477723
886.606947	0.477823
886.790442	0.477559
886.973918	0.477789
887.157376	0.478123
887.340816	0.478504
887.524237	0.478297
887.707641	0.477992
887.891026	0.477967
888.074393	0.478663
888.257741	0.478794
888.441072	0.479007
888.624384	0.478983
888.807678	0.478879
888.990954	0.478131
889.174211	0.478200
889.357451	0.478302
889.540672	0.478357
889.723875	0.478319
889.907059	0.478179
890.090226	0.478185
890.273374	0.478645
890.456504	0.478440
890.639616	0.479537
890.822709	0.480084
891.005785	0.480128
891.188842	0.480681
891.371881	0.480313
891.554901	0.480444
891.737904	0.480552
891.920888	0.480590
892.103854	0.480714
892.286802	0.479772
892.469731	0.479630
892.652643	0.479893
892.835536	0.479177
893.018410	0.479322
893.201267	0.479642
893.384106	0.479560
893.566926	0.479271
893.749728	0.478871
893.932511	0.479325
894.115277	0.478929
894.298024	0.478807
894.480753	0.478932
894.663464	0.478911
894.846157	0.478348
895.028831	0.478343
895.211487	0.477780
895.394125	0.478092
895.576745	0.477503
895.759346	0.477243
895.941930	0.476436
896.124495	0.476422
896.307041	0.476142
896.489570	0.475677
896.672080	0.475517
896.854573	0.475413
897.037046	0.475544
897.219502	0.475995
897.401940	0.476352
897.584359	0.477117
897.766760	0.476735
897.949143	0.476423
898.131507	0.476170
898.313854	0.475892
898.496182	0.476195
898.678492	0.476329
898.860783	0.475902
899.043057	0.476244
899.225312	0.475707
899.407549	0.475877
899.589768	0.475896
899.771968	0.475830
899.954151	0.475444
900.136315	0.475036
900.318461	0.474357
900.500588	0.474059
900.682698	0.473250
900.864789	0.473363
901.046862	0.472874
901.228917	0.472743
901.410953	0.472595
901.592971	0.472837
901.774972	0.472488
901.956953	0.472088
902.138917	0.471657
902.320862	0.471207
902.502790	0.470557
902.684699	0.470738
902.866589	0.470411
903.048462	0.470306
903.230316	0.469702
903.412152	0.469349
903.593970	0.469312
903.775770	0.468868
903.957551	0.469077
904.139314	0.468634
904.321059	0.467671
904.502786	0.467476
904.684494	0.466824
904.866185	0.466079
905.047857	0.465577
905.229510	0.464732
905.411146	0.464559
905.592763	0.463508
905.774363	0.463257
905.955943	0.463228
906.137506	0.462786
906.319051	0.462771
906.500577	0.462727
906.682085	0.462378
906.863575	0.461702
907.045046	0.460899
907.226500	0.460421
907.407935	0.460330
907.589352	0.459747
907.770750	0.458688
907.952131	0.458675
908.133493	0.458204
908.314837	0.458391
908.496163	0.458573
908.677470	0.458319
908.858760	0.458398
909.040031	0.457144
909.221284	0.456275
909.402518	0.457005
909.583735	0.456237
909.764933	0.455307
909.946113	0.454265
910.127275	0.453924
910.308418	0.454031
910.489544	0.453473
910.670651	0.453512
910.851740	0.453389
911.032810	0.451361
911.213863	0.450746
911.394897	0.450453
911.575913	0.450548
911.756911	0.449671
911.937890	0.449473
912.118851	0.448733
912.299794	0.448578
912.480719	0.447796
912.661626	0.448003
912.842514	0.447061
913.023384	0.446539
913.204236	0.445912
913.385070	0.444930
913.565886	0.443777
913.746683	0.443264
913.927462	0.442921
914.108223	0.442774
914.288965	0.442756
914.469690	0.442245
914.650396	0.442200
914.831084	0.441925
915.011754	0.441947
915.192405	0.441237
915.373038	0.441059
915.553653	0.440303
915.734250	0.439765
915.914829	0.438244
916.095389	0.437874
916.275931	0.437485
916.456455	0.435910
916.636961	0.435549
916.817448	0.435439
916.997917	0.434749
917.178368	0.433803
917.358801	0.432840
917.539216	0.432577
917.719612	0.432075
917.899990	0.431407
918.080350	0.431059
918.260692	0.429954
918.441015	0.428582
918.621320	0.427989
918.801607	0.427541
918.981876	0.427910
919.162127	0.427141
919.342359	0.426639
919.522573	0.425630
919.702769	0.424804
919.882947	0.424444
920.063106	0.424793
920.243247	0.423950
920.423370	0.422408
920.603475	0.421390
920.783562	0.421252
920.963630	0.420286
921.143680	0.419750
921.323712	0.419694
921.503725	0.420313
921.683721	0.419106
921.863698	0.418509
922.043657	0.418985
922.223598	0.417933
922.403520	0.416858
922.583424	0.416327
922.763311	0.415712
922.943178	0.414734
923.123028	0.412966
923.302859	0.412929
923.482673	0.412182
923.662467	0.411207
923.842244	0.411150
924.022003	0.411595
924.201743	0.410605
924.381465	0.409784
924.561169	0.409381
924.740854	0.408783
924.920522	0.407980
925.100171	0.407263
925.279802	0.406276
925.459414	0.405264
925.639009	0.404326
925.818585	0.404317
925.998143	0.403928
926.177683	0.403393
926.357205	0.402556
926.536708	0.401805
926.716193	0.401075
926.895660	0.401351
927.075109	0.400170
927.254539	0.398780
927.433951	0.397147
927.613345	0.396380
927.792721	0.395557
927.972079	0.395231
928.151418	0.393791
928.330739	0.393076
928.510042	0.391379
928.689327	0.391321
928.868593	0.391323
929.047841	0.391179
929.227071	0.390091
929.406283	0.388817
929.585476	0.387767
929.764652	0.387855
929.943809	0.387839
930.122948	0.386999
930.302068	0.386243
930.481171	0.384370
930.660255	0.383904
930.839321	0.382589
931.018369	0.382507
931.197398	0.381798
931.376409	0.380574
931.555402	0.379789
931.734377	0.378396
931.913334	0.376995
932.092272	0.376976
932.271192	0.375562
932.450094	0.375558
932.628978	0.374442
932.807844	0.373124
932.986691	0.372502
933.165520	0.371604
933.344331	0.371956
933.523123	0.371710
933.701898	0.370707
933.880654	0.369703
934.059392	0.369159
934.238111	0.368088
934.416813	0.368246
934.595496	0.367290
934.774161	0.366340
934.952808	0.366254
935.131437	0.364714
935.310047	0.364003
935.488639	0.364348
935.667213	0.363705
935.845769	0.363700
936.024306	0.362904
936.202825	0.362353
936.381326	0.360765
936.559809	0.360004
936.738274	0.359012
936.916720	0.358323
937.095148	0.357213
937.273558	0.356584
937.451950	0.355827
937.630323	0.354037
937.808678	0.352737
937.987015	0.352491
938.165334	0.350687
938.343635	0.349956
938.521917	0.349138
938.700181	0.348816
938.878427	0.348061
939.056655	0.346084
939.234864	0.346189
939.413055	0.345921
939.591228	0.344490
939.769383	0.343238
939.947519	0.343140
940.125638	0.342701
940.303738	0.342154
940.481820	0.340929
940.659883	0.340952
940.837929	0.340515
941.015956	0.340398
941.193965	0.340596
941.371955	0.339695
941.549928	0.340121
941.727882	0.339925
941.905818	0.339433
942.083736	0.338756
942.261636	0.338672
942.439517	0.336666
942.617380	0.335334
942.795225	0.334286
942.973052	0.335009
943.150860	0.334021
943.328651	0.331881
943.506423	0.330855
943.684176	0.331358
943.861912	0.330275
944.039629	0.330627
944.217328	0.329842
944.395009	0.329094
944.572672	0.329970
944.750317	0.329493
944.927943	0.330938
945.105551	0.330901
945.283141	0.330559
945.460712	0.330818
945.638265	0.330212
945.815801	0.330687
945.993317	0.332108
946.170816	0.332199
946.348297	0.332376
946.525759	0.330834
946.703203	0.329842
946.880629	0.328975
947.058036	0.328886
947.235425	0.329559
947.412797	0.329922
947.590149	0.330302
947.767484	0.329043
947.944800	0.328600
948.122099	0.329317
948.299379	0.329193
948.476640	0.329145
948.653884	0.327981
948.831109	0.327753
949.008316	0.327242
949.185505	0.325425
949.362676	0.323259
949.539828	0.322808
949.716962	0.321808
949.894078	0.323243
950.071176	0.322619
950.248256	0.324344
950.425317	0.324355
950.602360	0.326520
950.779385	0.329102
950.956391	0.330686
951.133380	0.329848
951.310350	0.329917
951.487302	0.328423
951.664235	0.328972
951.841151	0.329377
952.018048	0.329852
952.194927	0.326779
952.371788	0.323985
952.548631	0.322227
952.725455	0.324096
952.902261	0.323545
953.079049	0.323555
953.255819	0.322264
953.432570	0.321442
953.609303	0.322674
953.786018	0.323523
953.962715	0.325565
954.139394	0.329091
954.316054	0.329470
954.492696	0.332532
954.669320	0.335801
954.845926	0.336856
955.022513	0.338827
955.199083	0.338833
955.375634	0.339596
955.552166	0.338563
955.728681	0.336783
955.905177	0.337007
956.081655	0.335612
956.258115	0.334092
956.434557	0.334016
956.610980	0.332560
956.787385	0.331497
956.963772	0.331812
957.140141	0.332135
957.316492	0.333531
957.492824	0.332813
957.669138	0.335753
957.845434	0.336334
958.021712	0.339302
958.197971	0.340106
958.374212	0.340953
958.550435	0.339317
958.726640	0.342216
958.902826	0.342286
959.078995	0.344067
959.255145	0.341208
959.431277	0.342773
959.607390	0.343630
959.783486	0.342968
959.959563	0.341695
960.135622	0.345014
960.311662	0.342885
960.487685	0.345799
960.663689	0.345979
960.839675	0.349120
961.015643	0.348407
961.191593	0.349676
961.367524	0.352175
961.543437	0.356680
961.719332	0.353674
961.895209	0.355391
962.071067	0.352565
962.246907	0.353970
962.422730	0.351815
962.598533	0.349360
962.774319	0.350649
962.950086	0.349942
963.125835	0.343823
963.301566	0.345825
963.477279	0.346087
963.652973	0.349167
963.828650	0.348611
964.004308	0.349601
964.179947	0.350191
964.355569	0.349455
964.531172	0.349461
964.706757	0.352911
964.882324	0.350100
965.057873	0.348331
965.233403	0.347488
965.408916	0.348684
965.584410	0.348425
965.759885	0.350199
965.935343	0.346241
966.110782	0.349055
966.286203	0.348885
966.461606	0.352105
966.636991	0.355137
966.812357	0.354531
966.987705	0.353600
967.163035	0.351790
967.338347	0.348594
967.513641	0.350797
967.688916	0.346678
967.864173	0.344750
968.039412	0.343413
968.214632	0.336601
968.389835	0.337441
968.565019	0.337259
968.740185	0.340671
968.915333	0.343391
969.090462	0.342672
969.265573	0.343868
969.440667	0.344983
969.615741	0.345602
969.790798	0.352788
969.965836	0.349903
970.140856	0.350573
970.315858	0.349442
970.490842	0.349230
970.665808	0.345941
970.840755	0.344221
971.015684	0.345199
971.190595	0.345693
971.365487	0.345783
971.540362	0.344573
971.715218	0.343605
971.890056	0.339717
972.064875	0.339381
972.239677	0.341617
972.414460	0.344044
972.589225	0.342241
972.763972	0.343130
972.938700	0.338170
973.113411	0.337694
973.288103	0.334572
973.462777	0.340192
973.637432	0.340442
973.812070	0.340740
973.986689	0.337776
974.161290	0.340400
974.335873	0.336552
974.510437	0.338450
974.684984	0.340685
974.859512	0.345770
975.034022	0.341793
975.208513	0.340146
975.382987	0.338260
975.557442	0.341293
975.731879	0.335467
975.906298	0.336777
976.080698	0.335627
976.255080	0.335467
976.429445	0.331374
976.603790	0.330089
976.778118	0.328299
976.952427	0.326411
977.126719	0.321498
977.300992	0.324538
977.475246	0.321892
977.649483	0.321557
977.823701	0.320752
977.997901	0.317859
978.172083	0.318679
978.346247	0.320027
978.520392	0.321001
978.694519	0.321255
978.868628	0.322721
979.042719	0.325168
979.216791	0.324358
979.390845	0.323912
979.564882	0.325374
979.738899	0.326904
979.912899	0.324773
980.086880	0.325219
980.260843	0.325902
980.434788	0.322347
980.608715	0.322150
980.782623	0.320714
980.956514	0.318460
981.130386	0.316431
981.304240	0.314168
981.478075	0.313576
981.651892	0.313831
981.825692	0.313291
981.999472	0.312696
982.173235	0.310024
982.346980	0.309356
982.520706	0.310088
982.694414	0.310451
982.868104	0.311107
983.041775	0.309599
983.215428	0.310077
983.389064	0.309813
983.562680	0.309553
983.736279	0.308488
983.909860	0.310586
984.083422	0.307572
984.256966	0.307816
984.430491	0.306039
984.603999	0.308361
984.777488	0.307187
984.950959	0.307870
985.124412	0.309469
985.297847	0.311007
985.471263	0.308722
985.644661	0.308458
985.818041	0.308643
985.991403	0.310054
986.164747	0.305916
986.338072	0.304918
986.511379	0.303602
986.684668	0.301540
986.857938	0.301460
987.031191	0.302601
987.204425	0.304599
987.377641	0.301935
987.550839	0.301202
987.724018	0.304574
987.897179	0.302744
988.070322	0.303973
988.243447	0.304608
988.416554	0.303319
988.589642	0.301224
988.762712	0.297397
988.935764	0.295196
989.108798	0.293371
989.281813	0.289763
989.454811	0.290175
989.627790	0.289375
989.800751	0.287599
989.973693	0.285800
990.146617	0.285309
990.319524	0.286556
990.492412	0.286719
990.665281	0.285704
990.838133	0.285167
991.010966	0.284366
991.183781	0.281712
991.356578	0.281896
991.529356	0.281326
991.702117	0.282184
991.874859	0.283002
992.047583	0.283341
992.220288	0.283313
992.392976	0.284382
992.565645	0.286285
992.738296	0.287425
992.910929	0.285749
993.083543	0.287546
993.256139	0.285773
993.428718	0.286378
993.601277	0.286698
993.773819	0.286228
993.946342	0.286552
994.118848	0.285517
994.291335	0.282223
994.463803	0.284040
994.636254	0.281849
994.808686	0.282263
994.981100	0.279238
995.153496	0.278159
995.325874	0.277166
995.498233	0.276417
995.670574	0.274276
995.842897	0.273133
996.015202	0.272444
996.187488	0.274155
996.359757	0.274168
996.532007	0.276369
996.704239	0.275851
996.876452	0.273742
997.048648	0.272642
997.220825	0.272681
997.392984	0.274680
997.565124	0.271897
997.737247	0.269496
997.909351	0.268136
998.081437	0.265109
998.253505	0.265331
998.425554	0.266461
998.597586	0.265929
998.769599	0.265257
998.941594	0.263564
999.113571	0.264119
999.285529	0.264204
999.457469	0.262925
999.629391	0.264782
999.801295	0.263303
999.973181	0.263361
1000.145048	0.261519
1000.316897	0.260998
1000.488728	0.259981
1000.660541	0.260009
1000.832335	0.256531
1001.004111	0.256400
1001.175869	0.254298
1001.347609	0.253258
1001.519331	0.251104
1001.691034	0.253383
1001.862719	0.250809
1002.034386	0.252957
1002.206035	0.251024
1002.377665	0.254009
1002.549277	0.253826
1002.720871	0.253561
1002.892447	0.255277
1003.064004	0.258857
1003.235544	0.255145
1003.407065	0.258829
1003.578568	0.257723
1003.750052	0.259130
1003.921519	0.259683
1004.092967	0.259699
1004.264397	0.259654
1004.435809	0.257239
1004.607202	0.252597
1004.778577	0.255572
1004.949934	0.254013
1005.121273	0.253726
1005.292594	0.251993
1005.463896	0.249140
1005.635180	0.247206
1005.806446	0.247920
1005.977694	0.250443
1006.148923	0.251487
1006.320135	0.249426
1006.491328	0.247413
1006.662503	0.246279
1006.833659	0.245069
1007.004798	0.246244
1007.175918	0.246562
1007.347020	0.243922
1007.518103	0.241403
1007.689169	0.241791
1007.860216	0.242187
1008.031245	0.243148
1008.202256	0.242821
1008.373248	0.241797
1008.544223	0.239898
1008.715179	0.238482
1008.886117	0.238531
1009.057036	0.240852
1009.227938	0.240661
1009.398821	0.239762
1009.569686	0.238957
1009.740533	0.241451
1009.911361	0.242495
1010.082172	0.240464
1010.252964	0.242839
1010.423738	0.242671
1010.594493	0.240708
1010.765231	0.239834
1010.935950	0.241753
1011.106651	0.240030
1011.277334	0.236004
1011.447998	0.235442
1011.618645	0.235431
1011.789273	0.233075
1011.959882	0.232670
1012.130474	0.231495
1012.301048	0.230209
1012.471603	0.228554
1012.642140	0.229364
1012.812658	0.229972
1012.983159	0.228346
1013.153641	0.230026
1013.324105	0.230851
1013.494551	0.229634
1013.664979	0.230032
1013.835388	0.231137
1014.005779	0.228944
1014.176152	0.228869
1014.346507	0.228917
1014.516843	0.231081
1014.687162	0.229564
1014.857462	0.228414
1015.027744	0.228041
1015.198007	0.228378
1015.368252	0.228208
1015.538480	0.228192
1015.708689	0.228427
1015.878879	0.227227
1016.049052	0.226924
1016.219206	0.226799
1016.389342	0.226006
1016.559460	0.225885
1016.729559	0.224616
1016.899641	0.223429
1017.069704	0.222871
1017.239749	0.221068
1017.409775	0.220197
1017.579784	0.220375
1017.749774	0.220927
1017.919746	0.220877
1018.089700	0.221931
1018.259635	0.222348
1018.429553	0.221110
1018.599452	0.223393
1018.769333	0.222960
1018.939195	0.221823
1019.109040	0.220812
1019.278866	0.221869
1019.448674	0.221685
1019.618464	0.222070
1019.788235	0.220789
1019.957989	0.221031
1020.127724	0.218042
1020.297441	0.217867
1020.467139	0.218912
1020.636820	0.216422
1020.806482	0.215669
1020.976126	0.215412
1021.145752	0.213013
1021.315359	0.212457
1021.484948	0.211507
1021.654519	0.213446
1021.824072	0.212984
1021.993607	0.213371
1022.163123	0.213099
1022.332621	0.212285
1022.502101	0.212958
1022.671563	0.213577
1022.841007	0.213285
1023.010432	0.214370
1023.179839	0.212826
1023.349228	0.214732
1023.518598	0.215016
1023.687951	0.215658
1023.857285	0.215082
1024.026601	0.213657
1024.195899	0.215199
1024.365178	0.216260
1024.534439	0.215621
1024.703682	0.215750
1024.872907	0.215231
1025.042114	0.213155
1025.211302	0.213616
1025.380472	0.212694
1025.549624	0.212874
1025.718758	0.209011
1025.887873	0.206978
1026.056970	0.204608
1026.226049	0.204912
1026.395110	0.203034
1026.564153	0.203099
1026.733177	0.203432
1026.902183	0.201793
1027.071171	0.200947
1027.240141	0.202854
1027.409092	0.202846
1027.578026	0.205824
1027.746940	0.204588
1027.915837	0.204710
1028.084716	0.203800
1028.253576	0.203930
1028.422418	0.204700
1028.591242	0.204435
1028.760048	0.205139
1028.928835	0.205101
1029.097604	0.204030
1029.266355	0.203571
1029.435088	0.200959
1029.603803	0.200497
1029.772499	0.199598
1029.941177	0.200285
1030.109837	0.201668
1030.278478	0.199495
1030.447102	0.200071
1030.615707	0.199509
1030.784294	0.197899
1030.952863	0.198940
1031.121413	0.199363
1031.289945	0.197208
1031.458460	0.197016
1031.626955	0.195941
1031.795433	0.195386
1031.963892	0.194319
1032.132334	0.192743
1032.300756	0.195296
1032.469161	0.196973
1032.637548	0.198096
1032.805916	0.199335
1032.974266	0.197286
1033.142598	0.196097
1033.310911	0.197948
1033.479207	0.198336
1033.647484	0.199441
1033.815743	0.198841
1033.983983	0.196936
1034.152206	0.194052
1034.320410	0.192931
1034.488596	0.193711
1034.656764	0.195046
1034.824914	0.193216
1034.993045	0.190023
1035.161158	0.188621
1035.329253	0.187587
1035.497330	0.187256
1035.665388	0.189255
1035.833428	0.190477
1036.001450	0.190101
1036.169454	0.188637
1036.337440	0.188752
1036.505407	0.190074
1036.673356	0.190675
1036.841287	0.192044
1037.009200	0.192503
1037.177094	0.191733
1037.344970	0.191031
1037.512828	0.192255
1037.680668	0.191158
1037.848489	0.190694
1038.016293	0.191949
1038.184078	0.190459
1038.351845	0.188672
1038.519593	0.186988
1038.687324	0.186348
1038.855036	0.187754
1039.022730	0.186703
1039.190406	0.188357
1039.358063	0.188051
1039.525702	0.188135
1039.693323	0.187222
1039.860926	0.184419
1040.028511	0.183952
1040.196077	0.183893
1040.363625	0.181911
1040.531155	0.181387
1040.698667	0.179800
1040.866161	0.180489
1041.033636	0.180365
1041.201093	0.182112
1041.368532	0.185554
1041.535952	0.187245
1041.703355	0.186872
1041.870739	0.186478
1042.038105	0.187433
1042.205452	0.188430
1042.372782	0.188969
1042.540093	0.189103
1042.707386	0.189859
1042.874661	0.187723
1043.041918	0.188844
1043.209156	0.188322
1043.376376	0.188220
1043.543578	0.185915
1043.710762	0.183127
1043.877927	0.182423
1044.045074	0.179308
1044.212203	0.179085
1044.379314	0.180949
1044.546407	0.179501
1044.713481	0.180233
1044.880537	0.180041
1045.047575	0.182134
1045.214595	0.183322
1045.381596	0.182073
1045.548579	0.184856
1045.715544	0.184695
1045.882491	0.182734
1046.049420	0.182594
1046.216330	0.181468
1046.383222	0.181462
1046.550096	0.181622
1046.716951	0.179880
1046.883789	0.180058
1047.050608	0.178585
1047.217409	0.177719
1047.384192	0.177350
1047.550956	0.176614
1047.717703	0.176003
1047.884431	0.176655
1048.051140	0.174595
1048.217832	0.176139
1048.384505	0.174496
1048.551161	0.174550
1048.717798	0.175455
1048.884416	0.176493
1049.051017	0.175786
1049.217599	0.175117
1049.384163	0.173134
1049.550709	0.171889
1049.717237	0.174037
1049.883746	0.177341
1050.050237	0.175265
1050.216710	0.174289
1050.383165	0.172368
1050.549601	0.173826
1050.716019	0.174383
1050.882420	0.176107
1051.048801	0.179436
1051.215165	0.178430
1051.381510	0.175785
1051.547837	0.177485
1051.714146	0.176566
1051.880437	0.177510
1052.046709	0.174275
1052.212964	0.174825
1052.379200	0.173212
1052.545417	0.172639
1052.711617	0.173377
1052.877798	0.172729
1053.043961	0.173783
1053.210106	0.172091
1053.376233	0.172052
1053.542341	0.175365
1053.708432	0.176441
1053.874504	0.178087
1054.040557	0.175800
1054.206593	0.172659
1054.372610	0.174610
1054.538609	0.172343
1054.704590	0.175965
1054.870553	0.175885
1055.036497	0.175348
1055.202424	0.173488
1055.368331	0.172224
1055.534221	0.172048
1055.700093	0.173629
1055.865946	0.171588
1056.031781	0.171778
1056.197598	0.168205
1056.363397	0.168577
1056.529177	0.167625
1056.694939	0.167717
1056.860683	0.168475
1057.026409	0.170307
1057.192116	0.169680
1057.357806	0.170769
1057.523477	0.172019
1057.689130	0.172442
1057.854764	0.172877
1058.020381	0.173457
1058.185979	0.173606
1058.351559	0.172977
1058.517120	0.173143
1058.682664	0.171649
1058.848189	0.171671
1059.013696	0.172068
1059.179185	0.171315
1059.344656	0.170771
1059.510108	0.169640
1059.675542	0.172214
1059.840958	0.172472
1060.006356	0.169191
1060.171735	0.171685
1060.337096	0.169506
1060.502439	0.165813
1060.667764	0.167745
1060.833071	0.169161
1060.998359	0.169547
1061.163629	0.167180
1061.328881	0.165770
1061.494115	0.166590
1061.659330	0.166310
1061.824527	0.167381
1061.989706	0.170154
1062.154867	0.170388
1062.320010	0.168624
1062.485134	0.168146
1062.650240	0.168059
1062.815328	0.168059
1062.980398	0.168529
1063.145449	0.167629
1063.310482	0.167386
1063.475497	0.168255
1063.640494	0.167691
1063.805473	0.166065
1063.970433	0.167892
1064.135375	0.167544
1064.300299	0.169011
1064.465204	0.170675
1064.630092	0.169841
1064.794961	0.170230
1064.959812	0.169479
1065.124645	0.171754
1065.289459	0.173465
1065.454256	0.172068
1065.619034	0.174129
1065.783793	0.173773
1065.948535	0.173797
1066.113258	0.174603
1066.277964	0.175240
1066.442651	0.174911
1066.607319	0.173689
1066.771970	0.173346
1066.936602	0.172837
1067.101216	0.172768
1067.265812	0.172117
1067.430389	0.171968
1067.594949	0.172704
1067.759490	0.171444
1067.924013	0.171850
1068.088518	0.170701
1068.253004	0.170398
1068.417472	0.169767
1068.581922	0.169777
1068.746354	0.169743
1068.910768	0.168736
1069.075163	0.167688
1069.239540	0.169397
1069.403899	0.171186
1069.568240	0.172577
1069.732562	0.173305
1069.896866	0.174073
1070.061152	0.174757
1070.225420	0.175028
1070.389670	0.176394
1070.553901	0.179510
1070.718114	0.179488
1070.882309	0.179283
1071.046486	0.177217
1071.210644	0.177231
1071.374784	0.177766
1071.538906	0.175926
1071.703010	0.177233
1071.867096	0.175002
1072.031163	0.172977
1072.195212	0.175363
1072.359243	0.173366
1072.523256	0.172437
1072.687250	0.172591
1072.851226	0.172533
1073.015184	0.172151
1073.179124	0.170985
1073.343045	0.172007
1073.506949	0.172493
1073.670834	0.167646
1073.834701	0.168370
1073.998549	0.173178
1074.162380	0.175132
1074.326192	0.174397
1074.489986	0.172998
1074.653761	0.172515
1074.817519	0.172567
1074.981258	0.171624
1075.144979	0.173638
1075.308682	0.174495
1075.472367	0.169942
1075.636033	0.168147
1075.799681	0.170413
1075.963311	0.171236
1076.126923	0.171872
1076.290516	0.170227
1076.454092	0.171779
1076.617649	0.174280
1076.781187	0.172629
1076.944708	0.175265
1077.108210	0.172533
1077.271695	0.172515
1077.435160	0.173964
1077.598608	0.175330
1077.762038	0.176558
1077.925449	0.175331
1078.088842	0.172229
1078.252217	0.172697
1078.415573	0.174400
1078.578912	0.180115
1078.742232	0.178686
1078.905534	0.181296
1079.068817	0.181430
1079.232083	0.181450
1079.395330	0.182236
1079.558559	0.186784
1079.721770	0.188781
1079.884962	0.184728
1080.048136	0.182567
1080.211293	0.183534
1080.374430	0.180688
1080.537550	0.177949
1080.700651	0.179421
1080.863735	0.178422
1081.026800	0.173784
1081.189846	0.170543
1081.352875	0.172558
1081.515885	0.172388
1081.678877	0.170916
1081.841851	0.171033
1082.004807	0.171952
1082.167744	0.171195
1082.330663	0.171488
1082.493564	0.171634
1082.656447	0.172067
1082.819312	0.169389
1082.982158	0.170410
1083.144986	0.171072
1083.307796	0.174299
1083.470587	0.175078
1083.633361	0.176738
1083.796116	0.176109
1083.958853	0.179293
1084.121571	0.179828
1084.284272	0.181194
1084.446954	0.179996
1084.609618	0.182125
1084.772264	0.176956
1084.934892	0.176035
1085.097501	0.172365
1085.260092	0.173106
1085.422665	0.170107
1085.585220	0.172013
1085.747756	0.172969
1085.910274	0.175201
1086.072774	0.173537
1086.235256	0.173397
1086.397720	0.173175
1086.560165	0.174691
1086.722592	0.175563
1086.885001	0.175277
1087.047392	0.172906
1087.209764	0.174618
1087.372119	0.171866
1087.534455	0.172287
1087.696772	0.174856
1087.859072	0.175304
1088.021353	0.174432
1088.183616	0.174321
1088.345861	0.176487
1088.508088	0.175746
1088.670296	0.174395
1088.832486	0.175930
1088.994658	0.176703
1089.156812	0.175988
1089.318948	0.178054
1089.481065	0.177835
1089.643164	0.179240
1089.805245	0.177542
1089.967308	0.178007
1090.129352	0.177046
1090.291378	0.176069
1090.453386	0.173760
1090.615376	0.174516
1090.777347	0.174071
1090.939301	0.172776
1091.101236	0.167691
1091.263153	0.167793
1091.425051	0.168328
1091.586932	0.170271
1091.748794	0.167202
1091.910638	0.167740
1092.072463	0.168508
1092.234271	0.168866
1092.396060	0.173583
1092.557831	0.177356
1092.719584	0.176527
1092.881319	0.177137
1093.043035	0.175636
1093.204733	0.180655
1093.366413	0.182696
1093.528075	0.177494
1093.689718	0.173681
1093.851343	0.172721
1094.012950	0.171798
1094.174539	0.170556
1094.336110	0.171933
1094.497662	0.171093
1094.659196	0.167525
1094.820712	0.164667
1094.982210	0.168317
1095.143689	0.170387
1095.305151	0.170898
1095.466594	0.174220
1095.628018	0.176082
1095.789425	0.174225
1095.950813	0.176900
1096.112183	0.178531
1096.273535	0.179244
1096.434869	0.179212
1096.596184	0.181472
1096.757482	0.177552
1096.918761	0.177700
1097.080021	0.179488
1097.241264	0.180250
1097.402488	0.180340
1097.563694	0.181928
1097.724882	0.182674
1097.886052	0.181417
1098.047203	0.180608
1098.208336	0.181618
1098.369451	0.181244
1098.530548	0.182558
1098.691627	0.185652
1098.852687	0.181815
1099.013729	0.179770
1099.174753	0.179557
1099.335758	0.178858
1099.496746	0.174986
1099.657715	0.179333
1099.818666	0.177155
1099.979599	0.174690
1100.140513	0.171763
1100.301409	0.177337
1100.462287	0.177314
1100.623147	0.176779
1100.783989	0.180785
1100.944812	0.180538
1101.105617	0.181381
1101.266404	0.177894
1101.427173	0.180952
1101.587923	0.181320
1101.748656	0.177274
1101.909370	0.175112
1102.070066	0.176410
1102.230743	0.176096
1102.391403	0.178495
1102.552044	0.174844
1102.712667	0.176816
1102.873271	0.176350
1103.033858	0.173252
1103.194426	0.172412
1103.354976	0.176084
1103.515508	0.178275
1103.676021	0.179141
1103.836517	0.177620
1103.996994	0.179645
1104.157453	0.179790
1104.317893	0.179017
1104.478316	0.182561
1104.638720	0.187509
1104.799106	0.188086
1104.959474	0.185285
1105.119823	0.184722
1105.280155	0.186578
1105.440468	0.184626
1105.600763	0.185101
1105.761039	0.183749
1105.921298	0.180747
1106.081538	0.177607
1106.241760	0.175294
1106.401964	0.178188
1106.562149	0.178618
1106.722316	0.185155
1106.882465	0.188374
1107.042596	0.189523
1107.202709	0.190210
1107.362803	0.196648
1107.522879	0.195790
1107.682937	0.200783
1107.842977	0.200313
1108.002999	0.202154
1108.163002	0.196954
1108.322987	0.195661
1108.482954	0.194134
1108.642902	0.192747
1108.802833	0.190409
1108.962745	0.191283
1109.122639	0.184220
1109.282515	0.182074
1109.442372	0.178517
1109.602211	0.175763
1109.762032	0.173523
1109.921835	0.174730
1110.081620	0.175624
1110.241386	0.175230
1110.401134	0.177368
1110.560864	0.177681
1110.720576	0.181886
1110.880269	0.181201
1111.039945	0.186183
1111.199602	0.191810
1111.359240	0.191301
1111.518861	0.193443
1111.678463	0.195013
1111.838047	0.192234
1111.997613	0.197210
1112.157161	0.194261
1112.316690	0.197478
1112.476202	0.196007
1112.635695	0.188959
1112.795169	0.192042
1112.954626	0.190474
1113.114064	0.189534
1113.273484	0.185237
1113.432886	0.185742
1113.592270	0.185968
1113.751635	0.182322
1113.910983	0.182634
1114.070312	0.183241
1114.229622	0.178750
1114.388915	0.180699
1114.548189	0.180095
1114.707445	0.186379
1114.866683	0.187451
1115.025903	0.183371
1115.185104	0.186082
1115.344287	0.188431
1115.503452	0.189858
1115.662599	0.195892
1115.821727	0.193880
1115.980838	0.194400
1116.139930	0.192148
1116.299004	0.190451
1116.458059	0.193721
1116.617097	0.193941
1116.776116	0.190720
1116.935117	0.195409
1117.094099	0.189980
1117.253064	0.191479
1117.412010	0.196459
1117.570938	0.200324
1117.729848	0.201501
1117.888740	0.202392
1118.047613	0.200204
1118.206468	0.201543
1118.365305	0.194495
1118.524124	0.197735
1118.682924	0.200245
1118.841707	0.193908
1119.000471	0.193275
1119.159216	0.192030
1119.317944	0.189590
1119.476653	0.189530
1119.635344	0.189022
1119.794017	0.195847
1119.952672	0.192717
1120.111308	0.185810
1120.269927	0.191625
1120.428527	0.191129
1120.587108	0.195179
1120.745672	0.196465
1120.904217	0.198594
1121.062744	0.196479
1121.221253	0.190864
1121.379744	0.195300
1121.538216	0.201716
1121.696671	0.196418
1121.855107	0.196623
1122.013524	0.192487
1122.171924	0.192651
1122.330305	0.193270
1122.488668	0.197791
1122.647013	0.200544
1122.805340	0.201872
1122.963648	0.199515
1123.121938	0.203893
1123.280210	0.206204
1123.438464	0.206203
1123.596700	0.203004
1123.754917	0.201440
1123.913116	0.196804
1124.071297	0.195643
1124.229459	0.194316
1124.387604	0.197799
1124.545730	0.195480
1124.703838	0.198071
1124.861928	0.195200
1125.019999	0.201816
1125.178052	0.200595
1125.336088	0.201524
1125.494104	0.202325
1125.652103	0.201347
1125.810083	0.196043
1125.968045	0.197533
1126.125989	0.191548
1126.283915	0.191609
1126.441823	0.188004
1126.599712	0.194516
1126.757583	0.195830
1126.915436	0.196258
1127.073270	0.191451
1127.231087	0.191605
1127.388885	0.185213
1127.546665	0.189528
1127.704426	0.192521
1127.862170	0.193724
1128.019895	0.192257
1128.177602	0.191487
1128.335291	0.191556
1128.492961	0.196580
1128.650614	0.199980
1128.808248	0.198308
1128.965864	0.191952
1129.123461	0.193352
1129.281041	0.195133
1129.438602	0.197739
1129.596145	0.202619
1129.753670	0.197287
1129.911176	0.193446
1130.068665	0.193489
1130.226135	0.195499
1130.383587	0.193000
1130.541020	0.194824
1130.698436	0.194124
1130.855833	0.185745
1131.013212	0.187165
1131.170573	0.193393
1131.327915	0.191643
1131.485239	0.185862
1131.642545	0.191002
1131.799833	0.189525
1131.957103	0.187966
1132.114354	0.190529
1132.271588	0.202826
1132.428803	0.198508
1132.585999	0.200704
1132.743178	0.202104
1132.900338	0.203823
1133.057480	0.201924
1133.214604	0.215824
1133.371710	0.214355
1133.528797	0.203887
1133.685866	0.194524
1133.842917	0.197195
1133.999950	0.191885
1134.156964	0.199545
1134.313960	0.203412
1134.470938	0.205326
1134.627898	0.198816
1134.784840	0.189569
1134.941763	0.194062
1135.098668	0.191376
1135.255555	0.193371
1135.412424	0.192668
1135.569274	0.187319
1135.726107	0.179784
1135.882921	0.178996
1136.039716	0.182292
1136.196494	0.196231
1136.353253	0.203081
1136.509995	0.204932
1136.666717	0.194427
1136.823422	0.199179
1136.980109	0.202496
1137.136777	0.214089
1137.293427	0.207974
1137.450059	0.205191
1137.606672	0.199941
1137.763267	0.196722
1137.919844	0.203048
1138.076403	0.203188
1138.232944	0.210553
1138.389466	0.206611
1138.545971	0.196052
1138.702457	0.203794
1138.858924	0.201109
1139.015374	0.207835
1139.171805	0.207328
1139.328218	0.204531
1139.484613	0.205608
1139.640990	0.199018
1139.797348	0.200811
1139.953688	0.208096
1140.110010	0.203606
1140.266314	0.204446
1140.422600	0.203206
1140.578867	0.209105
1140.735116	0.208040
1140.891347	0.217249
1141.047559	0.214321
1141.203754	0.213237
1141.359930	0.209073
1141.516088	0.210526
1141.672228	0.208190
1141.828349	0.202260
1141.984452	0.200230
1142.140537	0.205154
1142.296604	0.197850
1142.452653	0.205631
1142.608683	0.208366
1142.764695	0.208990
1142.920689	0.205797
1143.076665	0.213949
1143.232622	0.216827
1143.388562	0.214784
1143.544483	0.207422
1143.700385	0.203302
1143.856270	0.202020
1144.012136	0.202986
1144.167985	0.200445
1144.323814	0.202314
1144.479626	0.201632
1144.635420	0.199768
1144.791195	0.196993
1144.946952	0.198931
1145.102691	0.207261
1145.258411	0.201022
1145.414113	0.201510
1145.569798	0.209562
1145.725463	0.209738
1145.881111	0.202642
1146.036741	0.194200
1146.192352	0.208224
1146.347945	0.206065
1146.503519	0.199217
1146.659076	0.203444
1146.814614	0.198925
1146.970134	0.196561
1147.125636	0.198587
1147.281120	0.198614
1147.436585	0.206749
1147.592032	0.202999
1147.747461	0.201843
1147.902872	0.214054
1148.058265	0.208858
1148.213639	0.200593
1148.368995	0.196094
1148.524333	0.195878
1148.679653	0.199295
1148.834954	0.200692
1148.990237	0.198778
1149.145502	0.202516
1149.300749	0.194000
1149.455977	0.194504
1149.611188	0.205315
1149.766380	0.210720
1149.921553	0.211227
1150.076709	0.210214
1150.231846	0.215766
1150.386966	0.215610
1150.542066	0.214435
1150.697149	0.213682
1150.852214	0.209857
1151.007260	0.220418
1151.162288	0.223451
1151.317298	0.230556
1151.472289	0.222584
1151.627263	0.218333
1151.782218	0.221115
1151.937155	0.221724
1152.092073	0.232008
1152.246974	0.229740
1152.401856	0.213812
1152.556720	0.202964
1152.711566	0.200240
1152.866393	0.215396
1153.021203	0.212387
1153.175994	0.197139
1153.330767	0.196250
1153.485521	0.191320
1153.640258	0.197775
1153.794976	0.204815
1153.949676	0.213548
1154.104358	0.210172
1154.259021	0.199217
1154.413667	0.210762
1154.568294	0.220892
1154.722903	0.218826
1154.877493	0.211987
1155.032066	0.209789
1155.186620	0.205949
1155.341156	0.206695
1155.495674	0.201142
1155.650173	0.210211
1155.804654	0.198384
1155.959118	0.186858
1156.113562	0.188942
1156.267989	0.189950
1156.422397	0.193957
1156.576788	0.197617
1156.731160	0.192795
1156.885513	0.197281
1157.039849	0.194842
1157.194166	0.200196
1157.348465	0.207246
1157.502746	0.204346
1157.657009	0.208388
1157.811253	0.210712
1157.965479	0.207783
1158.119687	0.217071
1158.273877	0.209869
1158.428048	0.209947
1158.582201	0.209268
1158.736337	0.209365
1158.890453	0.209138
1159.044552	0.204719
1159.198632	0.197190
1159.352694	0.199711
1159.506738	0.185411
1159.660764	0.193296
1159.814771	0.190914
1159.968761	0.197741
1160.122732	0.197699
1160.276685	0.197292
1160.430619	0.203740
1160.584535	0.203345
1160.738434	0.195542
1160.892313	0.199062
1161.046175	0.198065
1161.200019	0.197438
1161.353844	0.190022
1161.507651	0.189257
1161.661440	0.187588
1161.815210	0.188447
1161.968962	0.199800
1162.122697	0.204571
1162.276412	0.217499
1162.430110	0.216637
1162.583789	0.214643
1162.737451	0.206614
1162.891094	0.213891
1163.044718	0.225533
1163.198325	0.218646
1163.351913	0.199507
1163.505483	0.208780
1163.659035	0.206773
1163.812569	0.206855
1163.966084	0.213107
1164.119581	0.226128
1164.273060	0.218054
1164.426521	0.207096
1164.579964	0.212696
1164.733388	0.209382
1164.886794	0.213656
1165.040182	0.191577
1165.193551	0.197380
1165.346903	0.202226
1165.500236	0.199234
1165.653551	0.200994
1165.806848	0.196691
1165.960126	0.208413
1166.113386	0.221549
1166.266628	0.220135
1166.419852	0.230730
1166.573058	0.228051
1166.726245	0.225766
1166.879414	0.228981
1167.032565	0.230421
1167.185698	0.247579
1167.338812	0.224176
1167.491909	0.222954
1167.644987	0.210552
1167.798046	0.203488
1167.951088	0.204850
1168.104111	0.195484
1168.257117	0.192690
1168.410103	0.193308
1168.563072	0.190452
1168.716023	0.200078
1168.868955	0.206959
1169.021869	0.217734
1169.174765	0.226060
1169.327642	0.213558
1169.480501	0.219576
1169.633343	0.211152
1169.786165	0.215939
1169.938970	0.205120
1170.091757	0.200272
1170.244525	0.179781
1170.397275	0.165454
1170.550007	0.168286
1170.702720	0.173970
1170.855415	0.167902
1171.008092	0.176806
1171.160751	0.180105
1171.313392	0.197437
1171.466014	0.174777
1171.618619	0.292904
1171.771205	0.292904
1171.923772	0.292904
