sample name	sample
index	1158
start time	 04-22-2021  03:52:12 PM
880	0.538519
Peak Time (s)	102.54
Peak Height 	0.5385
calc peak height	100,103
Baseline Time (s)	9.536
Baseline Value 	-0.003761
subtract baseline	10,4
Abs	0.343534
Peak Time (s)	102.54
Peak Height 	0.3435
calc peak height	100,103
Baseline Time (s)	10.036
Baseline Value 	0.001833
subtract baseline	10,3
PK_550	0.204304
Peak Time (s)	101.536
Peak Height 	0.2043
calc peak height	100,103
Baseline Time (s)	11.537
Baseline Value 	3.9982E-4
subtract baseline	10,2
PK_880	0.333573
Peak Time (s)	101.536
Peak Height 	0.3336
calc peak height	100,103
Baseline Time (s)	11.537
Baseline Value 	0.001669
subtract baseline	10,1


Time (s)	A880-A510	A880-A775	A880-A975	A880	I510	I775	I975	I880	
0.035000	-0.002783	-0.000143	-0.004418	0.002482	6238.439219	43196.040775	3906.778914	22631.241499
0.535500	-0.003203	-0.000575	0.000262	0.002961	6231.635725	43111.791238	3916.338477	22609.525902
1.036500	-0.001847	-0.000512	-0.004051	0.004302	6231.755738	42993.929283	3903.493063	22548.939187
1.536500	-0.000962	-0.000569	-0.003704	0.000223	6269.465108	43365.901798	3913.533631	22733.855606
2.036000	-0.002935	-0.000759	0.001421	0.000070	6255.595514	43362.573704	3925.642072	22740.845773
2.541000	-0.002586	0.000116	-0.000547	0.006507	6209.587944	42849.081160	3906.430369	22449.702777
3.034000	-0.001073	-0.000422	-0.005378	0.002240	6253.252565	43192.566306	3905.153641	22642.217197
3.537500	0.001189	-0.000132	-0.001163	0.000407	6284.531030	43389.456819	3918.921765	22725.478361
4.035500	-0.001039	-0.000038	-0.005916	0.000571	6266.226286	43382.994066	3907.716186	22718.047754
4.535000	0.001674	0.000044	0.001076	0.000121	6290.462021	43432.484149	3924.730706	22738.545509
5.036000	-0.000544	-0.001438	-0.003555	-0.000620	6279.120558	43363.522673	3915.799772	22772.309296
5.536000	0.001717	0.000421	0.002271	0.000187	6290.282816	43461.407989	3927.336389	22735.523336
6.036000	-0.001924	-0.000335	-0.003409	-0.000252	6265.747320	43431.824928	3915.291122	22755.506138
6.536500	0.001578	-0.000442	0.000173	-0.000313	6293.062635	43427.629109	3923.646928	22758.300419
7.036500	-0.001721	-0.000684	-0.004852	-0.000496	6269.172660	43422.145427	3912.557507	22766.671165
7.537000	0.001709	-0.000075	0.006253	-0.000104	6292.458567	43442.353586	3937.262538	22748.770030
8.034000	0.001526	0.000729	-0.001738	0.000173	6288.922503	43491.484560	3918.143169	22736.165439
8.534500	-0.000965	-0.000289	0.000752	-0.000891	6277.972898	43495.706948	3926.316766	22784.700590
9.035500	0.000996	0.001249	0.005176	0.000494	6282.386110	43509.943317	3933.361036	22721.534761
9.536000	0.002139	0.000273	-0.001121	0.000000	6294.968615	43465.045241	3919.953335	22744.037959
10.036000	0.001520	0.000476	0.000000	0.000063	6289.723463	43478.076273	3922.383867	22741.154730
10.536000	-0.002391	-0.000042	-0.003658	0.004147	6228.814058	43051.544894	3904.729752	22555.917354
11.036500	-0.000749	-0.000018	0.007323	-0.000195	6274.293451	43456.050596	3939.977063	22752.912766
11.536500	0.000000	0.000000	-0.003053	-0.000117	6279.437315	43450.536225	3915.797001	22749.375617
12.037000	-0.000766	0.000216	0.000124	-0.000321	6275.131566	43489.647139	3923.553164	22758.662138
12.537000	-0.002687	-0.000355	-0.000717	0.004058	6227.253689	43030.947139	3911.604002	22559.963589
13.037000	0.000792	-0.000222	0.001370	-0.000100	6285.381152	43428.254785	3925.916305	22748.593127
13.535000	-0.001204	0.000374	-0.002264	-0.000120	6270.246602	43485.627432	3917.608906	22749.511369
14.034500	0.000248	0.000029	-0.000705	0.002055	6264.718537	43251.427556	3916.197152	22650.582832
14.535000	-0.002662	-0.000235	0.004352	0.001626	6245.839469	43266.744164	3928.821008	22670.064851
15.035500	0.000123	-0.000524	0.002432	-0.000378	6282.383640	43426.088723	3929.016350	22761.284084
15.538500	-0.002797	0.000638	0.000438	0.000178	6255.814887	43482.409660	3923.126710	22735.910473
16.036500	0.000518	0.000531	-0.002926	0.000068	6281.989459	43482.761243	3915.665144	22740.950423
16.536500	-0.003449	0.000402	-0.003235	0.005774	6208.619489	42942.698769	3902.016036	22482.646839
17.036000	0.000731	0.000406	0.008283	-0.002467	6303.134152	43707.968397	3947.572897	22856.797056
17.537000	-0.000564	-0.000250	0.002150	0.000090	6273.535377	43407.983143	3927.281994	22739.949343
18.035000	-0.001684	0.000441	-0.001146	0.001082	6257.415029	43380.041505	3917.416782	22694.795342
18.535000	-0.002312	-0.000209	0.000909	0.001527	6249.251913	43278.365970	3921.108568	22674.560942
19.038500	0.000079	-0.000276	-0.003848	0.000439	6275.787019	43373.122394	3912.714239	22724.058227
19.535500	-0.001693	0.000066	0.000358	0.000176	6264.253406	43429.442983	3922.948944	22736.037807
20.036000	0.000042	0.000268	0.003058	0.000824	6272.555607	43387.923483	3927.683126	22706.524110
20.536500	-0.000216	0.000465	-0.000545	0.002625	6256.836852	43239.036683	3915.261309	22624.744326
21.037000	-0.000243	-0.000524	0.000437	0.000489	6272.941438	43345.487643	3922.409946	22721.785841
21.536500	-0.000455	0.000769	-0.000802	0.000966	6267.669754	43421.299162	3918.469990	22700.056594
22.034500	0.000922	-0.000215	0.002665	0.000385	6282.656523	43383.866130	3927.789283	22726.512565
22.537500	0.000834	0.000679	0.000648	0.003202	6260.442977	43205.405296	3916.668913	22598.635028
23.035000	0.000994	0.000032	-0.001524	0.000493	6282.379342	43396.752984	3917.899732	22721.587163
23.535500	-0.000085	-0.000609	0.004237	0.000207	6276.304226	43363.709936	3931.844796	22734.594447
24.035500	-0.001458	-0.000325	-0.000308	0.000531	6263.337275	43360.015903	3920.601726	22719.860264
24.536000	-0.000598	-0.000473	-0.002729	0.000366	6271.160807	43361.572091	3915.432981	22727.356836
25.036000	-0.001502	0.000254	-0.003660	0.000557	6262.794078	43411.391859	3912.873294	22718.655924
25.536000	-0.000841	0.000717	0.002462	0.001010	6264.383350	43412.321601	3925.876335	22698.050845
26.036500	-0.002188	-0.000399	0.001525	0.000530	6257.774575	43353.169449	3924.821251	22719.877861
26.537000	-0.000344	-0.000256	-0.000368	0.001861	6261.686291	43243.040936	3917.413254	22659.407948
27.037000	0.002144	0.000273	0.005523	-0.002321	6312.935356	43681.883993	3940.742817	22850.115427
27.537500	0.000278	-0.000541	0.000269	-0.001754	6294.145371	43552.696627	3927.194307	22824.118966
28.035000	0.001097	0.000337	0.000053	-0.000577	6291.388330	43524.765793	3923.979463	22770.330263
28.535000	0.002551	0.000528	0.002428	0.000055	6297.725706	43483.705397	3928.004387	22741.552033
29.036000	-0.000256	0.000744	0.001311	0.000488	6272.846722	43463.446847	3924.424852	22721.805515
29.535500	0.000029	-0.000050	-0.001007	-0.000427	6282.033186	43474.693467	3921.195652	22763.491764
30.036500	0.000551	0.000301	-0.002451	-0.000147	6283.888918	43481.316970	3917.242028	22750.718443
30.536500	-0.001545	-0.000545	0.002726	0.001960	6251.796893	43207.176048	3924.294113	22654.931891
31.038000	-0.000710	0.000252	0.000454	0.001076	6264.886822	43363.038649	3921.099187	22695.078096
31.537500	0.002093	0.000412	-0.001345	0.000092	6293.909347	43469.502151	3919.228153	22739.860267
32.038000	0.000176	0.001012	0.001807	0.000197	6278.379628	43515.562406	3926.241852	22735.068729
32.538000	-0.003617	-0.000638	-0.001842	0.004669	6215.646458	42948.646078	3907.660293	22532.390599
33.035000	0.001024	-0.000922	-0.003153	-0.000320	6288.852689	43383.593594	3916.031195	22758.629289
33.535500	-0.000533	0.000125	0.003825	0.000064	6273.970863	43445.290216	3931.220814	22741.116198
34.036000	-0.001508	0.000177	-0.000613	0.001219	6257.709652	43342.803866	3918.324688	22688.572108
34.536500	-0.000039	0.000583	0.000992	0.002237	6261.141020	43285.895193	3919.668051	22642.336107
35.036500	-0.000566	-0.000393	0.001055	0.000689	6268.939996	43339.103863	3923.372161	22712.679775
35.537000	-0.001710	-0.000172	0.001809	0.000882	6258.740658	43341.649286	3924.665793	22703.882215
36.036500	-0.001435	-0.000255	0.000769	0.001169	6258.646041	43307.237112	3921.608955	22690.826982
36.539500	-0.003550	-0.000543	-0.001289	0.002504	6232.472358	43156.996623	3913.840845	22630.266075
37.035000	0.000758	-0.000659	0.001715	0.000824	6278.036092	43301.824476	3924.580603	22706.521040
37.535000	-0.000074	-0.000551	0.003393	0.000897	6271.108434	43305.035345	3928.289671	22703.197761
38.035000	-0.001899	-0.000472	0.002213	0.000298	6261.749188	43368.047846	3926.945619	22730.467025
38.535500	-0.000479	-0.000197	0.004580	0.001009	6267.151904	43327.528530	3930.779935	22698.091271
39.036000	-0.000736	-0.000037	-0.000064	0.000312	6270.522696	43407.133271	3921.664779	22729.822096
39.536000	-0.004556	-0.000941	-0.000161	-0.000223	6245.503640	43372.910430	3922.672456	22754.220160
40.036500	-0.001437	-0.000645	0.002836	-0.000607	6272.189243	43436.108216	3930.483910	22771.721672
40.536500	-0.001481	-0.000700	-0.001874	0.001029	6259.365230	43278.980971	3915.873189	22697.205130
41.037000	-0.000513	-0.000028	-0.002914	0.000676	6269.440404	43374.142665	3914.304188	22713.254888
41.540500	-0.000828	-0.000609	0.000347	0.000248	6270.302038	43359.973478	3922.758112	22732.742383
42.037500	-0.003555	-0.000577	0.003580	-0.000255	6253.348368	43409.706672	3931.393021	22755.660785
42.535000	-0.002975	-0.000284	-0.002787	0.001727	6242.704601	43252.798385	3912.195295	22665.471120
43.035500	-0.000815	0.000089	0.001413	0.000696	6266.981840	43383.200994	3924.182551	22712.360201
43.536000	-0.000892	-0.000184	0.001800	-0.001996	6287.008271	43608.730581	3931.302562	22835.222211
44.036000	-0.000566	-0.000154	-0.001668	-0.001688	6287.149431	43582.709660	3922.575456	22821.115536
44.536500	-0.003658	-0.000988	-0.004328	0.003496	6224.170355	43024.303897	3904.686769	22585.324536
45.036500	0.003327	0.000417	0.004378	-0.000621	6308.925811	43536.374415	3934.098543	22772.358780
45.537000	0.001103	0.000380	0.004441	-0.000440	6290.381238	43516.003493	3933.821745	22764.088561
46.040000	0.001513	-0.000397	0.002707	-0.001589	6302.397176	43550.731452	3932.463734	22816.594149
46.534500	-0.001232	-0.000697	-0.003679	0.003798	6240.220443	43023.333633	3905.471528	22571.691272
47.035000	-0.000596	-0.000859	0.000260	0.000159	6272.765346	43345.016015	3922.762691	22736.808833
47.535000	-0.000593	0.000213	0.004390	0.001841	6259.944248	43288.368435	3928.412061	22660.318155
48.035500	0.001170	0.000277	0.001432	-0.001172	6296.538223	43574.723604	3928.539787	22797.527603
48.539000	-0.002871	-0.000523	0.002436	0.002160	6240.214168	43190.583662	3923.164873	22645.835899
49.036000	-0.001451	-0.000559	0.001035	-0.001259	6277.066500	43504.886787	3927.822489	22801.504533
49.536500	-0.000470	-0.000334	0.000860	-0.004293	6307.963779	43809.957466	3934.456400	22940.680466
50.037000	-0.000104	0.000951	0.004776	-0.004726	6314.141367	43971.516738	3944.631305	22960.580515
50.539500	0.003826	-0.003888	0.008397	0.034473	6051.802250	40021.652803	3864.296621	21233.669452
51.037000	0.028603	-0.016560	0.001599	0.330450	4611.490437	21193.781693	3391.891911	12199.248696
51.534500	0.010853	-0.025998	-0.018771	-0.068683	6947.369278	47615.159076	4044.229161	26135.371164
52.035000	-0.003659	-0.097000	-0.027065	-0.284947	9310.589571	65332.937818	4732.784285	41097.986394
52.535000	-0.000186	-0.084986	-0.012346	-0.268719	9126.534194	64731.214025	4726.507559	39698.905709
53.035500	0.004605	-0.074109	-0.004455	-0.254703	8996.728753	64286.712639	4701.256250	38531.858299
53.535500	0.005981	-0.062099	-0.001345	-0.239862	8812.161010	63888.522052	4653.874110	37336.539607
54.036000	0.004390	-0.042366	-0.003997	-0.206403	8357.685862	61994.580285	4515.792239	34786.850186
54.583500	0.002765	-0.033413	-0.006924	-0.190225	8140.522079	61021.362051	4447.252396	33622.707811
55.037500	0.001715	-0.025282	-0.004511	-0.176881	7971.333112	60329.238988	4409.377454	32694.670869
55.539500	0.008707	-0.021526	0.006860	-0.158315	7839.298955	58407.508422	4384.958999	31449.933948
56.034500	0.014518	-0.014617	0.012785	-0.135401	7650.514201	56402.961203	4328.880273	29985.216102
56.535000	0.020261	-0.005401	0.014973	-0.082384	7165.793965	51280.661196	4173.633071	26878.454269
57.035000	0.030930	0.003489	0.028838	-0.041902	6886.151762	47893.952009	4099.301552	24748.905248
57.535000	0.041993	0.012403	0.040573	0.006385	6562.886539	44003.834390	4004.373345	22455.176698
58.035500	0.058146	0.020693	0.058463	0.053058	6317.756287	40536.143700	3935.041978	20467.767966
58.536000	0.074211	0.030342	0.077380	0.101831	6073.490387	37303.389361	3867.825823	18607.014322
59.036000	0.097242	0.043975	0.099096	0.149509	5901.197828	34717.672158	3813.014133	16979.216337
59.536500	0.119445	0.057053	0.116352	0.177219	5864.023897	33667.211499	3791.852368	16112.100791
60.039500	0.139473	0.071150	0.138387	0.212004	5766.687418	32240.982503	3766.722020	15099.047511
60.534500	0.158160	0.081137	0.157833	0.241630	5696.651827	30948.641957	3747.182068	14297.995489
61.036500	0.172765	0.090296	0.174404	0.282606	5534.873139	28974.962348	3702.158868	13276.346070
61.535000	0.193775	0.101220	0.191183	0.340085	5326.732624	26335.550967	3632.479336	11996.339794
62.035500	0.206689	0.107427	0.210619	0.367648	5247.924562	25216.283869	3619.331665	11440.098960
62.536000	0.219872	0.117947	0.224262	0.369891	5306.530298	25643.542346	3637.844558	11396.368736
63.035500	0.242328	0.131464	0.243585	0.392696	5304.633557	25164.599855	3632.137264	10964.321068
63.536500	0.251926	0.135207	0.256508	0.447217	5073.313215	22719.933306	3567.390785	10018.908834
64.036500	0.264354	0.143045	0.270302	0.455090	5095.692032	22718.350970	3576.231708	9891.929933
64.536500	0.265416	0.146643	0.271155	0.478534	4987.951962	21838.022588	3543.134311	9527.181053
65.037000	0.280559	0.150577	0.290116	0.484071	5033.512039	21768.603986	3562.593410	9443.865777
65.537500	0.279605	0.156371	0.296206	0.529753	4821.441526	20122.422141	3506.886966	8795.581532
66.035000	0.281410	0.158323	0.293376	0.542156	4776.344109	19715.546873	3486.771575	8631.029667
66.538000	0.284477	0.164161	0.291873	0.545631	4774.631859	19806.721453	3480.349995	8585.762324
67.035500	0.281430	0.164301	0.303697	0.534186	4810.242902	20260.775155	3511.010852	8736.227279
67.538000	0.290399	0.169091	0.305863	0.531384	4861.333811	20565.009439	3517.773832	8773.676307
68.035500	0.287709	0.171416	0.304399	0.527437	4866.871807	20820.374701	3521.181918	8826.832836
68.536000	0.287017	0.170932	0.304558	0.525706	4871.458294	20871.576210	3523.790080	8850.298315
69.037000	0.294075	0.178645	0.313139	0.521521	4921.837919	21367.743044	3541.704312	8907.429368
69.539000	0.296870	0.182582	0.305150	0.518436	4948.706235	21666.961319	3534.760707	8949.892204
70.037000	0.295554	0.182492	0.309141	0.516771	4950.310923	21734.748183	3542.775473	8972.931258
70.536500	0.297931	0.183842	0.306192	0.524092	4927.674194	21479.048384	3528.297126	8872.263129
71.038000	0.300080	0.182670	0.313529	0.516710	4971.542970	21745.067587	3549.154982	8973.781938
71.535500	0.302250	0.184547	0.318601	0.515437	4987.625718	21881.414318	3558.366311	8991.453555
72.035500	0.300419	0.186161	0.319075	0.514057	4985.514791	22011.993772	3561.084004	9010.689092
72.538500	0.301770	0.187300	0.324033	0.520226	4963.061021	21793.153973	3559.307801	8925.211921
73.036000	0.306991	0.188891	0.317409	0.514513	5014.371155	22111.759906	3557.974044	9004.320994
73.536500	0.304684	0.187039	0.325251	0.514268	5004.594458	22041.185608	3569.904271	9007.740079
74.037000	0.305838	0.190371	0.320763	0.513427	5014.051779	22224.943629	3564.496754	9019.474774
74.537500	0.302411	0.190747	0.318529	0.517628	4978.127091	22056.459661	3555.065967	8961.060782
75.034500	0.311199	0.192696	0.316386	0.512299	5045.112204	22378.345055	3559.717799	9035.261026
75.535000	0.309482	0.190752	0.324794	0.509022	5052.651243	22437.850731	3577.074770	9081.344007
76.035000	0.310361	0.193212	0.325697	0.509137	5056.348576	22543.079142	3578.261866	9079.723111
76.535000	0.308922	0.193250	0.325540	0.513463	5028.585423	22351.160894	3571.535998	9018.981902
77.036000	0.311999	0.193173	0.329472	0.507145	5074.021633	22631.101668	3587.017667	9107.898130
77.536500	0.316090	0.194410	0.328581	0.507964	5090.081604	22650.023099	3584.410194	9096.301447
78.036000	0.311693	0.195848	0.333993	0.508953	5063.712313	22670.322573	3591.177839	9082.322228
78.536500	0.309957	0.194403	0.326992	0.513306	5034.297880	22409.609586	3573.942569	9021.178600
79.034000	0.311693	0.194777	0.319536	0.507861	5069.038149	22671.286594	3570.935840	9097.763488
79.536500	0.313927	0.196239	0.329644	0.510865	5065.280438	22601.590567	3581.618189	9055.389027
80.035000	0.313540	0.196869	0.332133	0.511034	5062.574535	22622.360791	3585.143036	9053.005949
80.535000	0.316226	0.198210	0.333671	0.511335	5074.205630	22669.412661	3587.032402	9048.789487
81.035000	0.312540	0.199115	0.330985	0.511525	5055.336444	22701.798685	3582.650069	9046.118417
81.535500	0.313891	0.196196	0.329600	0.509145	5073.495334	22677.369182	3584.162401	9079.606339
82.036000	0.315174	0.198550	0.335347	0.511287	5069.299569	22686.978717	3589.670601	9049.452884
82.536000	0.314140	0.197817	0.337140	0.511972	5060.936398	22622.873307	3591.374678	9039.851961
83.036500	0.318502	0.197985	0.336995	0.512408	5080.092351	22610.730672	3590.479924	9033.733049
83.542000	0.318175	0.196702	0.331655	0.511879	5081.087240	22576.746236	3583.130987	9041.150572
84.042500	0.317931	0.198292	0.333536	0.512194	5078.345268	22634.249951	3585.514113	9036.730285
84.540000	0.316274	0.198876	0.329231	0.518317	5040.568603	22385.549849	3569.801642	8951.535028
85.035000	0.319131	0.199270	0.331299	0.512057	5084.908885	22684.704092	3582.319702	9038.656587
85.535000	0.321032	0.198153	0.328288	0.510697	5100.988865	22695.698372	3579.818541	9057.746566
86.035500	0.319122	0.197765	0.327862	0.510159	5094.208000	22702.517434	3579.987288	9065.312595
86.536000	0.318603	0.199247	0.334494	0.516277	5061.700401	22493.433949	3580.765592	8979.785338
87.035500	0.319528	0.198499	0.329613	0.510637	5093.853544	22714.107489	3581.915712	9058.587469
87.536500	0.318084	0.198415	0.327143	0.511349	5083.237989	22678.021573	3577.106856	9048.583737
88.036500	0.318896	0.198912	0.332148	0.512000	5084.028722	22671.049215	3583.694927	9039.450596
88.536500	0.317454	0.199360	0.329300	0.519140	5042.292909	22370.437698	3568.680286	8940.177395
89.037000	0.321169	0.199076	0.327067	0.514816	5081.363433	22551.354598	3571.794463	9000.098216
89.534500	0.321776	0.201442	0.334110	0.517183	5072.751638	22551.365878	3578.816269	8967.226466
90.035000	0.322271	0.201594	0.339376	0.518940	5066.593567	22479.247147	3584.134154	8942.933863
90.535500	0.318004	0.199347	0.335822	0.524521	5019.153004	22131.468367	3570.378579	8866.420478
91.035500	0.320906	0.200763	0.330828	0.520100	5054.325349	22390.170787	3569.524844	8926.944144
91.536000	0.323789	0.201827	0.333709	0.521632	5060.881851	22369.363282	3571.535775	8905.910266
92.036000	0.323093	0.201425	0.338790	0.521646	5057.432548	22350.804861	3579.143555	8905.714620
92.536500	0.324183	0.200541	0.338107	0.527240	5035.698214	22064.447658	3569.731772	8829.506404
93.042000	0.323613	0.202308	0.339425	0.524573	5045.789397	22260.017056	3575.691127	8865.720321
93.537000	0.327057	0.202529	0.335719	0.525864	5056.200548	22212.591722	3568.227236	8848.158319
94.034500	0.327136	0.201763	0.339908	0.525728	5057.244450	22184.749035	3574.682847	8850.003884
94.537500	0.324301	0.202370	0.327439	0.532639	5010.498471	21908.444047	3546.252981	8756.876908
95.035000	0.325159	0.200273	0.336297	0.525244	5050.011843	22140.407933	3570.008999	8856.578305
95.535500	0.328127	0.202028	0.335369	0.526689	5057.389266	22154.097710	3566.484531	8836.969257
96.035000	0.325885	0.202703	0.342007	0.528139	5039.555483	22119.938151	3574.215528	8817.351694
96.535500	0.329484	0.202991	0.345552	0.532043	5038.087607	21961.489954	3573.676978	8764.849267
97.038500	0.328548	0.203463	0.347527	0.528867	5048.883898	22121.374733	3581.438099	8807.525918
97.536500	0.325273	0.202311	0.341414	0.528543	5034.677337	22084.969772	3572.722802	8811.895010
98.042000	0.325650	0.202161	0.338789	0.529592	5031.453732	22032.335049	3567.250889	8797.750826
98.537000	0.327932	0.203000	0.335314	0.530176	5039.604595	22043.505076	3561.260118	8789.892474
99.035000	0.330532	0.202226	0.345558	0.530652	5049.844694	21988.810109	3575.772875	8783.503526
99.537500	0.328671	0.202692	0.340640	0.530777	5040.267113	22003.737487	3568.239406	8781.822834
100.035000	0.328619	0.201442	0.339849	0.529836	5044.548849	21990.210290	3568.461722	8794.470685
100.535000	0.329567	0.202888	0.332373	0.531675	5040.257034	21973.022386	3554.770768	8769.771660
101.035500	0.328468	0.202384	0.342269	0.531188	5037.315650	21972.294591	3570.051758	8776.308602
101.536000	0.333573	0.204304	0.339928	0.533484	5050.852133	21955.855228	3563.180211	8745.582866
102.041500	0.326487	0.202741	0.337574	0.532134	5023.303511	21946.606028	3561.705352	8763.636296
102.539500	0.328875	0.203053	0.343534	0.538519	5004.310655	21683.653919	3561.079425	8678.796831
103.036500	0.332067	0.204256	0.342668	0.533870	5041.725848	21936.998159	3566.660490	8740.442748
103.537500	0.331732	0.202675	0.329594	0.532240	5047.969001	21939.115532	3549.926744	8762.213153
104.037500	0.331461	0.204368	0.345701	0.533541	5040.391869	21956.169695	3571.659662	8744.824656
104.535000	0.328096	0.205119	0.331676	0.535556	5014.668989	21901.156763	3548.150163	8718.014872
105.038000	0.329373	0.203775	0.339739	0.533781	5029.222348	21919.892817	3562.466373	8741.633730
105.536000	0.331313	0.202736	0.336784	0.532959	5042.484712	21910.448096	3559.335223	8752.603111
106.036000	0.328995	0.203204	0.345082	0.532659	5032.786476	21943.893502	3572.052618	8756.610034
106.536000	0.332580	0.203937	0.346042	0.534072	5043.221788	21914.257340	3571.375669	8737.742471
107.036500	0.335287	0.204831	0.343650	0.535635	5048.743182	21885.188515	3565.500076	8716.960245
107.533500	0.333196	0.204973	0.338125	0.535267	5040.438017	21907.361172	3557.919132	8721.846902
108.037000	0.335253	0.204211	0.338340	0.534715	5053.030996	21898.246995	3559.041831	8729.193646
108.537500	0.329302	0.204282	0.340526	0.534824	5023.897698	21896.579936	3562.088978	8727.735607
109.034500	0.329554	0.203608	0.338321	0.534850	5024.977569	21866.156780	3558.816503	8727.392838
109.535000	0.333091	0.203856	0.345575	0.535370	5039.434926	21854.320081	3568.747230	8720.476672
110.035000	0.336674	0.205500	0.345952	0.537408	5046.876630	21837.253503	3566.282735	8693.461558
