sample name	sample
index	1455
start time	 05-10-2021  01:38:58 PM
880	0.384141
Peak Time (s)	91.537
Peak Height 	0.3841
calc peak height	90,93
Baseline Time (s)	8.536
Baseline Value 	-0.002966
subtract baseline	10,4
Abs	0.250392
Peak Time (s)	91.537
Peak Height 	0.2504
calc peak height	90,93
Baseline Time (s)	9.536
Baseline Value 	-5.2451E-4
subtract baseline	10,3
PK_550	0.130878
Peak Time (s)	91.035
Peak Height 	0.1309
calc peak height	90,93
Baseline Time (s)	10.036
Baseline Value 	5.1789E-4
subtract baseline	10,2
PK_880	0.225007
Peak Time (s)	90.035
Peak Height 	0.225
calc peak height	90,93
Baseline Time (s)	11.537
Baseline Value 	8.5957E-4
subtract baseline	10,1


Time (s)	A880-A510	A880-A775	A880-A975	A880	I510	I775	I975	I880	
0.035500	-0.003305	-0.000199	-0.001455	0.007421	6405.535491	43345.791125	3923.382008	22311.668189
0.536000	-0.002436	-0.000558	-0.002145	0.003698	6443.320259	43659.953001	3931.145160	22479.116787
1.036500	-0.001157	-0.000575	0.000618	0.003298	6457.248057	43695.972248	3939.304332	22497.232181
1.537000	-0.000702	-0.000399	-0.003028	0.000308	6485.964941	43994.060076	3937.605057	22632.877014
2.037000	-0.003991	-0.000294	-0.002267	0.004900	6420.596126	43572.141396	3927.750587	22424.921632
2.537000	-0.001689	0.000249	0.004929	0.001271	6469.681447	43964.306780	3955.828535	22589.089065
3.037000	-0.000424	-0.000140	-0.001389	-0.001344	6502.159352	44175.112586	3946.144103	22708.242975
3.535000	-0.000818	-0.000056	0.002309	0.000236	6485.598577	44033.379786	3951.671977	22636.165878
4.038000	0.000661	-0.000296	0.006020	0.000398	6496.642503	43995.367550	3960.996384	22628.783549
4.535500	-0.001573	-0.000622	0.000549	-0.000537	6485.753769	44052.936049	3949.093957	22671.412526
5.036000	0.003151	0.000139	0.001230	0.000038	6520.640188	44070.497527	3949.367587	22645.166033
5.536500	-0.001573	-0.000739	0.001181	-0.001164	6491.005542	44101.295466	3952.386418	22700.042846
6.036500	0.002124	-0.000748	0.001837	-0.000812	6519.143853	44067.012218	3953.178613	22683.930216
6.536500	0.001098	-0.000092	0.001391	-0.000614	6508.830481	44110.456280	3951.494968	22674.929373
7.037000	-0.000388	-0.000019	0.000664	-0.000342	6494.044903	44091.623454	3948.884930	22662.513440
7.537500	0.000901	-0.000178	0.004186	-0.000097	6502.817571	44053.384587	3957.470109	22651.356655
8.035000	0.001306	0.001315	0.005398	0.000505	6501.157250	44137.820801	3959.075017	22623.926252
8.535500	0.000827	0.000373	-0.001121	0.000000	6501.381613	44096.363521	3943.344506	22646.913928
9.035500	-0.000457	-0.000294	-0.003069	-0.000922	6498.328863	44120.503203	3940.682414	22688.949140
9.536000	-0.000776	0.000013	0.000000	0.000753	6481.619567	43990.951674	3944.300577	22612.616507
10.036000	0.001746	0.000000	0.001075	-0.000065	6509.661976	44067.140045	3949.232872	22649.869653
10.536500	-0.000587	-0.000930	0.000499	-0.000743	6495.743615	44043.286852	3949.501476	22680.816032
11.036500	0.001041	-0.000039	0.002272	0.000030	6502.931754	44054.492401	3952.116385	22645.559248
11.537000	0.000000	0.000728	-0.000820	0.001796	6479.397520	43959.999688	3939.470599	22565.267855
12.037000	0.000657	-0.000617	0.001572	-0.000560	6504.660161	44055.585512	3951.827280	22672.459119
12.537500	0.001209	-0.000102	0.005578	-0.000582	6509.488503	44106.458968	3962.416158	22673.454638
13.035000	0.000226	0.000343	0.000795	-0.000367	6499.409228	44128.232506	3949.291175	22663.626097
13.535500	-0.000131	0.000382	0.002304	0.002278	6474.279694	43881.880621	3946.328548	22543.402874
14.035500	-0.001660	-0.000709	0.002041	0.000846	6473.467864	43914.024229	3949.376676	22608.404109
14.536000	-0.001268	-0.001304	0.000995	0.000170	6482.387226	43921.651670	3948.409796	22639.159112
15.036000	0.000085	0.000015	0.005155	-0.000851	6502.291519	44143.101546	3962.009018	22685.717246
15.536500	0.000384	0.000495	-0.001743	0.001454	6485.461617	43970.262438	3937.964188	22580.765604
16.037000	0.001473	-0.000584	0.000099	-0.001606	6520.356781	44157.865666	3950.709607	22720.226916
16.537000	-0.001356	-0.000482	0.002792	-0.000984	6491.316124	44108.554496	3956.138159	22691.798679
17.037500	0.002140	0.000715	0.002723	-0.003553	6542.515928	44467.152580	3962.723614	22809.488952
17.534500	-0.000072	0.000127	0.002188	0.000082	6493.140926	44065.283067	3951.758304	22643.185855
18.035000	-0.000058	-0.000107	0.002044	0.000245	6491.893066	44027.692435	3950.955816	22635.747068
18.535000	-0.002697	-0.000303	0.001630	-0.000026	6472.085761	44034.696068	3950.580005	22648.078139
19.035500	-0.002324	0.000217	-0.000885	0.000052	6474.556431	44076.706697	3943.825132	22644.566135
19.536000	0.000725	0.000809	0.002170	0.000894	6493.015626	44052.937147	3949.588853	22606.209061
20.036000	-0.000850	-0.000690	0.004108	-0.000043	6487.671410	43999.752702	3957.123819	22648.872568
20.536500	-0.000388	-0.000020	0.004162	0.000350	6488.240941	44025.925875	3956.232077	22630.961748
21.037000	0.000838	0.000342	0.000805	0.000922	6493.732839	44006.149152	3945.956576	22604.952984
21.539500	-0.001582	-0.000585	0.001396	0.000133	6480.074120	43993.122954	3949.555045	22640.858698
22.037500	-0.001258	-0.000344	0.003250	0.000140	6482.723895	44015.147331	3954.389223	22640.528982
22.534500	0.001231	-0.000113	0.000541	0.000594	6499.782954	43994.116583	3946.124565	22619.880590
23.035000	-0.000088	0.000308	0.004119	0.000353	6490.734685	44056.676646	3956.109153	22630.819321
23.535500	-0.000898	-0.000414	0.005632	-0.000037	6487.216655	44025.265830	3961.119824	22648.589540
24.036000	0.001174	-0.000054	0.000506	0.000289	6501.864186	44028.568088	3946.824959	22633.743939
24.536000	0.000476	-0.000116	0.003357	-0.000171	6499.867343	44066.238555	3955.486308	22654.706375
25.036500	-0.001155	0.000009	0.000527	0.000131	6483.660481	44049.509992	3947.293260	22640.954115
25.537000	-0.001553	0.000527	0.001048	0.000613	6476.298375	44052.863245	3947.394528	22618.985720
26.040000	-0.000091	0.000081	-0.001773	0.000489	6489.563309	44022.368092	3940.384960	22624.624606
26.534500	-0.001056	-0.000415	0.000981	0.000033	6485.303115	44018.548467	3948.730764	22645.393352
27.035000	0.002177	0.000432	0.002062	-0.002054	6530.110010	44297.091330	3957.031106	22740.733027
27.536500	-0.000617	0.000181	0.004668	-0.001454	6501.463730	44216.120174	3962.316611	22713.295016
28.035500	0.000771	0.000235	0.004392	-0.000296	6503.396638	44111.353851	3958.536467	22660.416971
28.536000	0.000392	-0.000006	-0.002721	-0.000547	6502.317360	44112.223407	3940.612544	22671.840637
29.036500	0.000555	-0.000098	0.001491	-0.000814	6505.941470	44128.909068	3952.279658	22684.053127
29.536500	-0.000874	-0.000252	0.006920	-0.000860	6494.315315	44118.652103	3966.703678	22686.152965
30.036500	-0.001917	-0.000436	0.001787	-0.000556	6483.030128	44072.376459	3952.379050	22672.261311
30.542500	-0.000928	-0.000787	-0.002615	0.001247	6476.228314	43868.807108	3936.246736	22590.171333
31.037500	0.000736	-0.000123	0.003721	0.001012	6492.113774	43953.629274	3953.338942	22600.858381
31.535000	-0.004295	-0.000406	0.001369	0.002706	6436.163593	43767.426466	3942.783716	22523.996391
32.035000	-0.000834	0.000041	-0.000343	-0.000574	6492.252315	44119.245351	3946.861693	22673.070236
32.535500	-0.000606	-0.000391	0.000114	-0.000705	6495.266675	44090.785118	3948.395594	22679.069336
33.035500	-0.001163	0.000464	-0.003049	-0.000052	6485.123565	44109.934536	3938.484560	22649.294058
33.536000	-0.001088	-0.000598	-0.000556	0.001747	6470.723521	43839.514819	3940.278803	22567.464912
34.036000	-0.000484	-0.000339	0.001035	0.000617	6485.213043	43970.617904	3947.350358	22618.840490
34.536500	-0.000662	-0.000342	0.003400	0.001134	6479.395494	43921.490537	3952.177925	22595.310672
35.037000	0.000093	0.000340	0.003364	0.001191	6485.227471	43980.515979	3951.932542	22592.717268
35.537000	-0.000165	-0.000883	-0.003406	0.000994	6484.721331	43883.635900	3934.861819	22601.684605
36.037500	-0.000170	-0.000182	0.000953	0.000844	6485.940187	43964.008737	3946.545235	22608.505208
36.535000	0.001356	0.000973	0.001781	0.001953	6489.427436	43968.315116	3945.810809	22558.108217
37.035000	0.000153	-0.000495	0.004468	0.000579	6490.857712	43959.447639	3956.433719	22620.535624
37.535000	-0.001070	0.000774	0.001322	0.001365	6474.058344	44005.042693	3946.148457	22584.793821
38.035500	-0.000656	-0.001110	0.005877	0.000011	6488.843576	43954.973571	3961.641091	22646.420094
38.536000	0.000682	0.000183	0.006393	0.001543	6487.221546	43932.428439	3958.962698	22576.744940
39.036000	-0.000091	-0.000104	0.001020	0.001030	6485.034037	43953.728079	3946.234182	22600.031645
39.536500	-0.000009	-0.000352	-0.002214	0.000860	6487.150942	43946.402599	3938.284330	22607.786912
40.037000	-0.000022	0.000188	0.005247	0.001071	6485.267788	43977.431838	3957.188061	22598.151848
40.536500	-0.000667	0.000231	0.005056	0.000958	6480.818655	43992.217894	3956.981823	22603.290791
41.037500	-0.001317	-0.000106	0.001919	0.000640	6478.043383	43990.336050	3949.595911	22617.754159
41.535000	-0.000401	-0.000261	0.000789	0.000742	6484.861502	43966.169324	3946.384148	22613.154410
42.035500	-0.000223	0.000285	0.002392	0.000894	6485.068277	44003.324016	3950.167976	22606.202897
42.535500	-0.001159	0.000104	0.000296	0.000991	6476.437608	43977.085089	3944.452712	22601.823006
43.036000	-0.000467	-0.000238	0.008378	0.000642	6485.144267	43977.849779	3966.588569	22617.704316
43.536500	0.000953	0.000639	0.006230	0.001853	6486.889077	43946.236814	3957.716920	22562.672466
44.036500	0.000513	0.000284	0.003798	-0.002756	6521.972240	44349.902421	3963.459674	22772.906428
44.538000	0.000892	0.000663	0.003690	0.000025	6501.717591	44121.471123	3955.845662	22645.786835
45.039000	0.001263	-0.000046	0.004816	-0.000691	6510.869123	44122.148344	3960.693525	22678.444806
45.537000	-0.000129	-0.000188	0.000414	0.000702	6487.467254	43976.798160	3945.511032	22614.961383
46.035000	0.000926	-0.000552	0.000978	-0.000786	6508.827961	44083.207317	3950.863481	22682.772205
46.535000	-0.002767	-0.000234	0.000783	-0.000863	6478.487515	44120.583513	3950.554373	22686.274579
47.035500	0.001563	-0.000031	-0.000464	-0.000753	6513.912288	44129.353541	3947.013312	22681.245702
47.535000	-0.003245	-0.000454	0.002042	0.002917	6443.088632	43742.982241	3943.984635	22514.429188
48.039000	0.001004	0.000614	0.007678	0.001654	6488.986169	43962.645269	3962.058301	22571.703874
48.535500	0.001046	0.000089	0.004667	-0.000634	6508.554485	44129.563034	3960.150465	22675.825229
49.036500	0.000010	-0.001024	0.004958	-0.001220	6504.764116	44079.591379	3962.463428	22702.583604
49.536500	-0.000472	-0.000500	0.006684	0.003955	6457.475138	43641.310716	3953.388827	22467.512039
50.037000	0.001319	0.000604	0.007831	-0.003256	6533.028270	44428.122673	3975.507488	22795.850066
50.537500	-0.000875	-0.000309	0.002045	0.002357	6467.414982	43809.305386	3945.448666	22539.812307
51.035000	0.001302	-0.008128	0.014887	0.033261	6235.907580	40323.079695	3899.410818	21187.979625
51.535000	-0.005250	-0.021739	0.006202	0.112416	5629.578717	33133.170199	3700.885066	18133.952471
52.035500	-0.016967	-0.058612	-0.036665	-0.217736	8636.047893	62258.124872	4531.325600	35528.465354
52.538500	-0.026684	-0.106101	-0.035515	-0.288202	9504.669182	65480.967422	4838.972381	41283.554747
53.036000	-0.032748	-0.085230	-0.023058	-0.254279	8919.344544	63629.312390	4741.377502	38396.363423
53.536500	0.002314	-0.034002	-0.000878	-0.152748	8058.076122	56991.654513	4419.732157	30987.850682
54.036500	0.006524	-0.031764	0.006247	-0.149541	8070.130005	56871.288792	4434.273472	30780.926105
54.537500	0.005460	-0.017131	0.006134	-0.079362	7280.410111	50396.346268	4192.338311	26614.512341
55.037500	-0.008120	-0.021491	-0.012652	-0.141093	7799.840624	57098.356786	4335.468947	30243.016259
55.534500	0.000375	-0.030271	0.003510	-0.173711	8291.272207	60154.121134	4516.175262	32378.928206
56.035000	0.018535	-0.019197	0.022075	-0.148994	8209.740405	58384.762165	4492.251858	30745.773406
56.535000	0.032935	-0.002446	0.044960	-0.050045	7261.656244	48824.092029	4222.820489	25063.763719
57.038500	0.043503	0.008198	0.056961	0.012413	6764.862905	43663.800349	4068.432891	22089.323165
57.536000	0.054215	0.016282	0.071982	0.067225	6386.887704	39509.591679	3958.715353	19809.103226
58.036500	0.073520	0.027286	0.088188	0.102324	6260.587595	37536.016331	3910.040269	18493.073508
58.536000	0.088931	0.037232	0.101781	0.133929	6135.769395	35852.939420	3865.562987	17395.696830
59.036500	0.102211	0.043608	0.118198	0.168604	5977.841404	33776.697289	3822.325009	16280.139991
59.537000	0.121379	0.058101	0.142386	0.217387	5771.687850	31435.615493	3766.878218	14854.103452
60.037000	0.129336	0.060094	0.148199	0.238075	5687.293915	30235.020582	3734.835526	14296.070478
60.535000	0.142813	0.069112	0.154749	0.209781	5973.699000	32683.688345	3811.652507	15066.021779
61.034500	0.150224	0.075036	0.164863	0.199127	6106.356988	33841.050462	3860.460429	15369.211284
61.535000	0.161937	0.082158	0.176657	0.244981	5860.199238	31204.441603	3781.620814	14115.618957
62.041000	0.165319	0.085819	0.189655	0.301003	5516.630649	27994.165873	3690.476881	12753.250176
62.535500	0.173083	0.093500	0.195209	0.338453	5340.472521	26334.369288	3628.502198	11935.745167
63.036000	0.172696	0.098122	0.195255	0.325464	5413.782559	27302.516782	3653.280094	12211.332598
63.536500	0.180901	0.101821	0.198428	0.326588	5455.918828	27447.387538	3657.243185	12187.152794
64.040000	0.185069	0.105057	0.202086	0.329226	5465.118781	27481.152264	3659.223905	12130.668144
64.539500	0.188295	0.107365	0.203548	0.333610	5458.154314	27364.112256	3653.564328	12037.531843
65.037000	0.189217	0.108011	0.206985	0.337794	5438.642076	27166.009851	3652.124929	11949.537524
65.538500	0.190861	0.108391	0.210040	0.343026	5417.344958	26896.784705	3647.939074	11840.655999
66.038000	0.193047	0.111571	0.213193	0.346016	5412.599820	26907.348282	3648.252675	11779.042901
66.536000	0.197621	0.112296	0.217723	0.348391	5425.605557	26816.417251	3652.395633	11730.389382
67.036000	0.198793	0.114296	0.219721	0.351451	5414.436233	26758.187005	3650.351119	11668.090295
67.536500	0.197289	0.113093	0.218630	0.353411	5394.065771	26585.389426	3644.505133	11628.427186
68.036500	0.201149	0.116145	0.230174	0.355153	5406.494417	26656.760624	3663.433137	11593.305643
68.536500	0.201648	0.115730	0.222800	0.354506	5413.253049	26669.462210	3650.395686	11606.327125
69.037000	0.204813	0.117652	0.224702	0.355545	5425.831650	26717.795004	3652.059637	11585.441333
69.537000	0.202511	0.119576	0.226754	0.362238	5373.035508	26458.086156	3643.163200	11451.965679
70.035000	0.205599	0.121079	0.228395	0.356934	5422.259123	26829.594183	3656.508691	11557.567390
70.535500	0.212211	0.123076	0.230911	0.358606	5451.676026	26847.518378	3658.146134	11524.136383
71.035500	0.212966	0.123224	0.227787	0.359940	5448.214865	26782.318685	3649.538939	11497.568062
71.536000	0.208319	0.122598	0.227740	0.366474	5382.181407	26392.402603	3636.989998	11368.548997
72.036000	0.212164	0.123564	0.233623	0.363492	5422.298946	26606.646622	3653.937728	11427.194822
72.535500	0.215402	0.125688	0.231904	0.367224	5419.373817	26519.132731	3643.476266	11353.864420
73.036000	0.213535	0.126544	0.230684	0.370767	5387.570536	26373.720840	3634.442704	11284.853863
73.536500	0.210165	0.124734	0.232071	0.376606	5334.340142	25964.637652	3626.088190	11172.316219
74.037000	0.213791	0.125959	0.237462	0.373903	5370.802839	26173.793610	3641.342431	11224.225034
74.539500	0.212247	0.126339	0.240967	0.375460	5352.868608	26110.923786	3645.055698	11194.283981
75.037500	0.216574	0.126187	0.238120	0.376763	5370.356779	26033.407232	3637.164528	11169.309902
75.535500	0.215461	0.127617	0.229673	0.383933	5322.751489	25730.215814	3608.133901	11033.228059
76.035000	0.217100	0.128058	0.240568	0.379727	5356.252346	25975.384189	3636.189161	11112.789363
76.535500	0.220115	0.128011	0.239162	0.381146	5365.473890	25897.770113	3630.865717	11085.861005
77.036000	0.219388	0.128881	0.240063	0.383680	5346.661819	25809.953618	3627.804885	11037.992528
77.536000	0.216770	0.129339	0.245266	0.391547	5287.114852	25423.113858	3622.836371	10891.160802
78.036500	0.218925	0.128896	0.243121	0.386369	5328.605352	25669.542521	3628.494985	10987.494735
78.537000	0.219452	0.129753	0.242783	0.387889	5322.947541	25634.908788	3625.022434	10959.100968
79.040000	0.222084	0.131172	0.237290	0.389248	5330.203864	25638.029056	3612.347333	10933.784540
79.537500	0.220513	0.130498	0.244370	0.389002	5322.646693	25615.667762	3625.905914	10938.355021
80.034500	0.220749	0.131291	0.241211	0.390277	5316.741247	25590.505759	3617.672653	10914.672511
80.535500	0.223863	0.131955	0.239164	0.390243	5334.683284	25626.932144	3613.961262	10915.304235
81.036000	0.219885	0.130255	0.238393	0.388650	5321.079902	25621.345281	3615.475712	10944.911454
81.536000	0.217109	0.130322	0.241289	0.393607	5277.475609	25367.390619	3611.686101	10853.134315
82.036000	0.221270	0.131503	0.240533	0.388700	5328.685542	25684.045787	3619.336175	10943.985032
82.536500	0.220876	0.130588	0.242464	0.387161	5335.229741	25716.726813	3625.786450	10972.687635
83.036500	0.219917	0.130858	0.246731	0.386819	5331.697778	25748.839349	3634.433392	10979.073574
83.539500	0.220046	0.130849	0.237405	0.392750	5298.776581	25439.010439	3606.156418	10868.937684
84.040000	0.222773	0.130679	0.241574	0.386736	5348.552977	25743.809918	3624.918824	10980.633492
84.534500	0.221941	0.131447	0.241840	0.386378	5345.823704	25802.982871	3626.082854	10987.328358
85.040500	0.221120	0.130554	0.245125	0.385047	5348.759604	25826.086224	3634.747439	11012.287161
85.535500	0.218317	0.130842	0.242636	0.390719	5300.477565	25544.080206	3619.491702	10906.482610
86.036000	0.223134	0.133626	0.240351	0.385464	5357.960643	25966.362225	3625.008525	11004.447666
86.536000	0.223236	0.130116	0.241262	0.383375	5370.647054	25891.192642	3630.623571	11043.740816
87.036500	0.220904	0.130973	0.235632	0.383214	5358.082040	25945.086132	3620.420712	11046.776706
87.536500	0.224828	0.132641	0.242773	0.386956	5359.127127	25835.480902	3626.744999	10976.520780
88.037000	0.221992	0.130897	0.244382	0.383863	5360.611061	25906.703673	3635.578554	11034.542701
88.537000	0.226572	0.131361	0.242405	0.384318	5384.565662	25907.154848	3630.996972	11025.972790
89.034500	0.220688	0.131259	0.245217	0.383893	5352.912335	25924.243490	3637.100975	11033.972163
89.534500	0.221960	0.130852	0.243025	0.384886	5354.524187	25850.275252	3631.096898	11015.314626
90.035000	0.225007	0.129895	0.244227	0.383510	5380.157143	25872.368715	3635.953023	11041.190970
90.535500	0.221313	0.130642	0.243156	0.383463	5358.998171	25914.328166	3634.019555	11042.070741
91.035500	0.221395	0.130878	0.245010	0.383220	5360.879843	25939.723777	3637.983026	11046.658728
91.536500	0.221788	0.130070	0.250392	0.384141	5357.826598	25848.333093	3646.477280	11029.308250
92.036500	0.222784	0.128610	0.250063	0.382686	5372.020263	25848.101244	3648.636593	11056.739256
92.537000	0.220347	0.130095	0.239768	0.384086	5349.837844	25852.542499	3626.494504	11030.347327
93.037000	0.223590	0.129780	0.243131	0.383410	5372.496758	25871.558212	3634.072229	11043.071943
93.534500	0.217998	0.127560	0.248061	0.385680	5327.248102	25635.714989	3639.102196	11000.399745
94.034500	0.219559	0.128075	0.245903	0.382385	5355.097176	25835.692646	3641.262937	11062.406356
94.535500	0.222627	0.128783	0.242410	0.383377	5367.106790	25820.775413	3632.777392	11043.706164
95.035500	0.222394	0.128447	0.247684	0.384011	5362.082346	25769.740586	3641.557981	11031.761687
95.536000	0.220198	0.127893	0.246553	0.387800	5327.710615	25542.575819	3632.250634	10960.766560
96.036000	0.217986	0.127816	0.245124	0.384240	5335.409044	25724.566054	3636.269705	11027.456667
96.536500	0.217460	0.126302	0.244409	0.383746	5335.220996	25671.082760	3635.850463	11036.740873
