sample name	sample
index	82
start time	 02-11-2021  04:26:07 PM
880	0.369439
Peak Time (s)	92.535
Peak Height 	0.3694
calc peak height	90,93
Baseline Time (s)	9.608
Baseline Value 	-0.003505
subtract baseline	10,4
Abs	0.307400
Peak Time (s)	90.537
Peak Height 	0.3074
calc peak height	90,93
Baseline Time (s)	9.608
Baseline Value 	-0.001745
subtract baseline	10,3
PK_550	0.149900
Peak Time (s)	92.535
Peak Height 	0.1499
calc peak height	90,93
Baseline Time (s)	11.534
Baseline Value 	3.2635E-4
subtract baseline	10,2
PK_880	0.289096
Peak Time (s)	92.037
Peak Height 	0.2891
calc peak height	90,93
Baseline Time (s)	10.037
Baseline Value 	0.002568
subtract baseline	10,1


Time (s)	A880-A510	A880-A775	A880-A975	A880	I510	I775	I975	I880	
0.039000	-0.000769	-0.000774	0.001934	0.000696	4486.429641	19453.657845	3297.009905	10684.622971
0.539500	-0.001013	-0.000018	0.008846	0.002877	4477.758705	19399.543254	3301.121758	10645.774592
1.037500	-0.000333	0.000968	0.008110	0.005786	4469.832156	19326.815015	3297.950190	10594.260223
1.563500	-0.002938	-0.000212	0.000144	0.002054	4473.835921	19423.390642	3294.299425	10660.409570
2.035500	-0.002600	0.000184	-0.002580	-0.000028	4482.463971	19517.773546	3293.748326	10697.558600
2.535500	-0.006151	0.000173	0.010833	-0.000431	4471.247165	19532.747323	3305.776826	10704.782104
3.035000	0.000091	0.000370	0.005219	0.003174	4480.636994	19402.997636	3297.707957	10640.494628
3.535500	-0.000570	0.001214	0.003574	0.001157	4485.491226	19511.853814	3298.031249	10676.404490
4.036500	-0.000458	-0.000681	0.007767	-0.000602	4492.208108	19506.656804	3303.224488	10707.836370
4.535500	0.000518	-0.000239	0.000006	-0.000349	4494.814503	19513.873445	3296.247834	10703.316786
5.037000	-0.000009	-0.000501	0.006923	-0.000629	4493.923816	19514.592652	3302.508103	10708.330533
5.536500	0.000965	-0.000487	0.007881	-0.000306	4496.269186	19502.761482	3303.064762	10702.538962
6.037500	-0.001050	-0.000183	0.006633	-0.000268	4488.879312	19512.925318	3301.936795	10701.857724
6.535000	-0.001121	0.000557	0.007935	0.000433	4486.111105	19514.419726	3302.463554	10689.323339
7.035000	0.000849	-0.000003	0.013591	0.000197	4494.039482	19502.036434	3307.665280	10693.543741
7.535500	0.001624	0.000496	0.006105	-0.000225	4498.357731	19537.221684	3301.437992	10701.093014
8.035500	0.003954	-0.001131	0.008699	-0.001096	4509.966741	19508.334685	3304.479355	10716.692709
8.541000	0.000589	0.000682	-0.004652	-0.000378	4495.175431	19550.220801	3292.276703	10703.839047
9.036000	-0.003006	0.000332	-0.002322	-0.000644	4483.216313	19546.966792	3294.498295	10708.595184
9.608000	0.000363	-0.000048	0.000000	0.000000	4492.999384	19507.855293	3295.941893	10697.065973
10.037000	0.000000	-0.001278	0.017319	-0.001176	4495.929355	19505.807902	3312.227032	10718.136550
10.543000	0.001054	-0.000118	0.010375	0.000044	4495.329388	19503.492590	3304.952321	10696.277257
11.034500	-0.002318	0.000905	0.014907	0.000542	4481.437708	19523.543809	3308.530202	10687.382746
11.534500	-0.003970	0.000000	-0.000651	0.000061	4477.258642	19507.363468	3295.328808	10695.981055
12.069000	-0.000028	0.000665	0.014097	0.000782	4488.779062	19505.190320	3307.595099	10683.085639
12.535000	-0.003301	-0.000572	0.001324	-0.000364	4481.159686	19501.730041	3297.399469	10703.582820
13.409500	-0.001162	0.001291	0.007545	0.000579	4485.439101	19536.870046	3301.993825	10686.710566
13.871000	-0.003336	0.001459	-0.001460	0.000670	4477.344909	19539.819145	3294.110314	10685.084285
14.036000	-0.006705	-0.000722	0.004252	-0.000818	4470.655795	19513.347489	3300.337670	10711.715387
14.536500	-0.001756	0.000726	0.001430	0.000655	4483.042148	19512.372317	3296.610580	10685.356154
15.037000	-0.001605	-0.000021	0.008602	0.001918	4479.067041	19435.816671	3301.747013	10662.830608
15.537500	-0.000007	0.000826	-0.001869	0.000976	4488.157158	19503.923734	3293.497831	10679.621553
16.034500	-0.001329	-0.000233	0.006050	0.000249	4486.025282	19491.308683	3300.975699	10692.615571
16.537500	-0.001196	0.001238	0.001033	0.000960	4483.953092	19520.289525	3296.004862	10679.907017
17.038000	-0.002154	-0.000298	-0.007623	-0.000968	4487.431101	19535.282071	3290.250608	10714.407514
17.541500	-0.000237	0.000673	0.004129	0.001339	4486.031508	19484.273098	3298.353801	10673.146880
18.036000	0.001367	0.000731	0.007057	-0.003286	4508.523619	19663.711795	3304.963286	10756.073966
18.536500	0.000046	0.000420	0.005020	0.001579	4486.183686	19465.471822	3298.918946	10668.867668
19.039000	-0.004086	0.000116	0.011976	0.003466	4464.758353	19382.311825	3303.348686	10635.320010
19.542000	-0.000181	-0.000640	-0.002882	0.001192	4486.761271	19439.924965	3292.447034	10675.778663
20.037000	-0.000653	-0.000195	0.013561	0.001394	4484.344950	19449.166034	3306.576457	10672.174433
20.534500	0.000769	0.000885	0.011666	0.002089	4486.950209	19463.790901	3304.287318	10659.789036
21.034500	-0.004498	0.000798	0.003257	0.002197	4467.789265	19456.365226	3296.856943	10657.872418
21.535000	-0.003661	-0.000625	0.002003	0.000966	4475.131163	19449.039379	3296.836424	10679.801495
22.036000	0.001271	0.000593	0.010847	0.002206	4488.329940	19448.238617	3303.463794	10657.707605
22.536000	-0.002932	-0.001173	0.000104	0.000324	4480.020673	19452.645045	3295.752783	10691.276625
23.036000	0.001026	0.001362	0.005063	0.002689	4485.718407	19459.112047	3297.993310	10649.115613
23.536500	-0.001875	0.000909	0.003872	0.001968	4477.926595	19469.275719	3297.586394	10661.937303
24.036500	-0.001154	0.000575	0.013664	0.001390	4482.566345	19478.623357	3306.671804	10672.245754
24.537000	-0.003128	-0.000771	-0.005899	0.001095	4476.570382	19438.589933	3289.962019	10677.501079
25.037500	0.003287	-0.000610	0.001443	0.001730	4497.301082	19420.618790	3295.694859	10666.182070
25.534500	0.002002	0.000792	0.004813	0.002802	4488.817651	19433.135347	3297.679262	10647.110773
26.035000	0.001223	0.000043	-0.001782	0.002020	4488.826248	19434.392503	3292.679109	10661.016716
26.535500	0.002467	-0.001671	-0.004413	0.000102	4500.222851	19442.166045	3292.070912	10695.249583
27.035500	-0.001378	0.000949	-0.003900	0.001931	4479.831241	19472.210884	3290.949556	10662.595285
27.538500	-0.002812	-0.000005	0.000559	0.001700	4475.542538	19444.725237	3294.959762	10666.710105
28.036500	0.002600	-0.000033	0.013765	-0.001203	4505.432329	19554.389318	3309.067479	10718.617568
28.539000	-0.002090	-0.000604	0.015683	-0.000824	4487.143791	19518.078199	3310.442859	10711.818113
29.037000	-0.002065	0.001374	0.003145	0.007319	4458.293405	19284.311060	3292.361825	10567.243215
29.536000	-0.005940	-0.001052	-0.002664	-0.000328	4471.629685	19482.048644	3293.933373	10702.926458
30.037500	0.001685	0.000285	-0.010755	0.000120	4497.332703	19515.983220	3286.686015	10694.927268
30.537500	0.000503	0.001049	0.001374	0.001366	4488.592200	19497.616657	3295.949485	10672.679396
31.035000	0.000325	-0.001133	-0.005708	0.005634	4472.706839	19253.413603	3286.292990	10596.940856
31.535500	-0.003995	-0.000492	0.003076	0.002966	4466.847540	19378.220780	3296.036862	10644.198849
32.036000	0.003445	0.001114	0.007068	0.002418	4495.389666	19459.988927	3299.970724	10653.934562
32.536000	0.001703	0.000659	0.002748	0.001064	4493.991704	19494.225135	3297.396388	10678.057480
33.039500	-0.003915	0.000147	-0.004940	0.005177	4459.319520	19318.784226	3287.322907	10605.006768
33.538500	-0.001186	0.000614	0.013723	0.001028	4483.746416	19493.893162	3307.044913	10678.700698
34.037000	-0.002693	-0.000159	0.002497	0.000393	4480.629287	19488.600680	3297.759650	10690.035257
34.539500	0.001221	0.000479	0.003156	0.001627	4490.230584	19465.921312	3297.261673	10668.011665
35.037500	-0.001456	0.000665	-0.006451	0.003464	4474.092548	19403.187976	3287.493082	10635.354540
35.537500	-0.001729	0.000658	0.002010	0.003047	4474.605556	19418.743098	3295.049618	10642.759820
36.035000	0.000483	-0.000389	0.004818	0.002496	4484.463432	19399.932831	3297.948537	10652.542252
36.535500	-0.000022	-0.000524	0.005591	0.002645	4482.125622	19389.166006	3298.489342	10649.899578
37.036000	-0.000272	0.000850	-0.001442	0.003745	4477.309286	19399.578007	3291.498107	10630.374270
37.536500	-0.002193	-0.001184	0.004789	0.001149	4479.713748	19420.866515	3299.092650	10676.540967
38.036500	0.000709	0.001008	0.004773	0.002696	4484.561112	19445.391068	3297.736136	10648.992617
38.539000	-0.002698	0.000110	0.009253	0.002015	4474.826857	19437.135864	3302.232752	10661.109154
39.037000	0.001571	-0.000871	0.001416	0.002162	4489.565546	19394.314969	3295.298907	10658.486995
39.537000	-0.002984	0.000217	0.004040	0.002859	4470.812272	19409.134936	3296.960914	10646.096121
40.034500	-0.005044	-0.000510	0.002567	0.001978	4466.632020	19414.978624	3296.449941	10661.761600
40.537500	-0.001626	-0.000127	0.000401	0.003087	4474.826610	19387.469888	3293.633819	10642.042998
41.035500	-0.006433	-0.000272	0.006205	0.001983	4461.706047	19423.845644	3299.598218	10661.678639
41.538500	-0.000126	0.000202	0.001321	0.002914	4480.793767	19406.504186	3294.571402	10645.116816
42.036000	0.001945	0.000281	-0.002858	0.002314	4490.364629	19432.263392	3291.510277	10655.778294
42.539000	-0.003101	-0.000819	0.006585	0.001841	4474.010679	19408.472383	3300.052696	10664.201953
43.037000	-0.002783	0.000296	-0.002746	0.002315	4473.456612	19432.805773	3291.605469	10655.764699
43.536500	-0.005039	-0.000695	-0.000285	0.001910	4466.889340	19410.563535	3294.055092	10662.979687
44.037500	-0.002655	0.000150	0.007284	0.002391	4473.643425	19424.373156	3300.182454	10654.414618
44.540500	0.004356	0.000709	0.016110	-0.000949	4510.894928	19573.077398	3310.937152	10714.061980
45.034500	-0.002843	-0.000728	0.012820	0.000322	4480.346176	19469.668208	3306.869780	10691.307817
45.535500	-0.000886	0.000291	-0.004861	0.000213	4487.741386	19512.659960	3291.594573	10693.257613
46.035500	0.000250	-0.000197	0.004171	0.000629	4490.329302	19478.181776	3299.007304	10685.825861
46.535500	-0.003515	-0.001068	0.002221	0.000104	4478.724443	19465.017149	3297.770702	10695.207500
47.036000	-0.001606	0.001160	0.009007	0.006452	4462.968977	19308.926965	3298.151160	10582.519181
47.539000	-0.001568	0.000653	-0.004980	0.001431	4480.940016	19480.027181	3290.456846	10671.511365
48.036500	-0.001747	0.000451	-0.002323	0.003062	4474.483962	19410.297170	3291.328827	10642.483048
48.537500	0.001153	-0.000350	-0.002052	0.003483	4483.331089	19364.020684	3291.201256	10635.013245
49.035000	0.002186	-0.000746	0.009313	0.005432	4480.058421	19275.551451	3299.301677	10600.509471
49.534500	0.000568	-0.000075	0.003309	-0.000095	4494.076785	19510.417304	3298.887014	10698.760473
50.035000	0.001465	0.000824	0.006050	0.000881	4493.792983	19507.471171	3300.423326	10681.317107
50.535000	-0.001000	0.000588	0.005173	-0.002116	4495.709932	19613.199720	3302.276922	10735.005673
51.035000	-0.000188	-0.000165	0.007652	-0.002280	4499.237053	19590.594583	3304.600403	10737.958962
51.535500	0.000519	-0.000219	-0.000383	0.000180	4492.914303	19494.479910	3295.457515	10693.855677
52.039000	-0.038524	-0.024177	0.011837	0.223378	3784.129159	12307.661477	3151.613489	7573.398432
52.536500	-0.001421	-0.016187	0.010785	-0.124947	5005.736485	24226.841385	3433.270043	13286.675906
53.037000	-0.003373	-0.018082	0.010484	-0.206914	5425.816334	28537.936260	3539.118098	15438.208215
53.540000	0.000197	-0.017855	0.016765	-0.166599	5223.275525	26280.284158	3492.576850	14329.247518
54.037500	-0.007590	-0.016840	0.024559	-0.139863	5047.981600	24937.745546	3468.210070	13648.587460
54.535000	-0.015227	-0.019119	0.016369	-0.130116	4964.851485	24336.816619	3446.095472	13410.691116
55.035000	-0.004409	-0.013181	0.014846	-0.099148	4872.561338	23138.115381	3408.290866	12689.285558
55.535500	-0.003699	-0.011701	0.021863	-0.106065	4906.990482	23532.588991	3424.158037	12845.991971
56.035500	0.000870	-0.012335	0.021487	-0.083558	4826.966379	22463.683510	3398.364873	12345.119920
56.539000	0.005234	-0.011121	0.020069	-0.053840	4719.350719	21223.082257	3365.383256	11722.345971
57.036000	0.010773	-0.011638	0.030144	-0.028955	4641.361108	20183.996301	3350.506772	11232.643759
57.539000	0.017911	-0.008627	0.030382	-0.009766	4594.506826	19553.213956	3332.195091	10873.737591
58.037000	0.021853	-0.008057	0.039439	0.006448	4548.108040	18965.209457	3325.483941	10582.587676
58.539500	0.027118	-0.005890	0.053416	0.003929	4577.385660	19139.124555	3341.119036	10627.112718
59.037500	0.018453	-0.011255	0.044238	0.004629	4542.225568	18914.386997	3331.685615	10614.715291
59.537500	0.034910	-0.009833	0.056608	0.025329	4526.543672	18220.507281	3323.894662	10256.968218
60.035500	0.040108	-0.006435	0.069678	0.064677	4405.756608	17006.057504	3300.277491	9622.213787
60.538500	0.055193	-0.005753	0.074530	0.092383	4363.464999	16157.080867	3280.866694	9208.538527
61.036000	0.075471	0.003548	0.099465	0.114806	4356.396181	15763.514898	3282.950644	8892.542042
61.544000	0.094763	0.011947	0.127472	0.133547	4358.211003	15461.625096	3290.742939	8640.669787
62.036500	0.118117	0.021990	0.144638	0.152745	4371.949912	15200.299012	3289.019703	8393.675825
62.539500	0.150168	0.041582	0.166283	0.198317	4327.725790	14488.009703	3269.326479	7849.297440
63.037000	0.159895	0.054078	0.185322	0.203430	4342.661471	14686.090319	3280.655945	7791.703715
63.537500	0.172122	0.062312	0.189970	0.215878	4341.944357	14572.641530	3274.265540	7654.305456
64.034500	0.182321	0.068792	0.190332	0.228247	4334.905135	14415.865959	3264.649928	7521.619717
64.544000	0.190474	0.076783	0.201440	0.243545	4311.965778	14224.296822	3261.356418	7362.653405
65.039000	0.196013	0.082131	0.223053	0.258606	4281.979641	13974.580404	3266.520652	7211.525953
65.538500	0.204516	0.086295	0.220491	0.270949	4270.071364	13768.575604	3254.884574	7091.521425
66.038500	0.210331	0.092256	0.215692	0.282227	4253.310634	13636.746245	3242.774102	6984.816053
66.536000	0.215121	0.094395	0.217058	0.290540	4242.614296	13485.669854	3237.677328	6907.914897
67.037000	0.224887	0.102670	0.238444	0.301688	4238.439628	13416.083380	3245.216804	6807.076059
67.536500	0.228169	0.106492	0.251501	0.308299	4228.443063	13348.971686	3250.054528	6748.485134
68.037000	0.235957	0.111340	0.247724	0.315256	4230.934633	13298.553306	3242.037731	6687.791752
68.542000	0.240603	0.115880	0.251871	0.321937	4224.845831	13247.556309	3240.173463	6630.403478
69.035000	0.242959	0.119221	0.265461	0.327119	4216.444912	13203.928133	3246.400216	6586.499238
69.535500	0.240960	0.119943	0.249091	0.330252	4201.325876	13147.081295	3232.139315	6560.214244
70.035500	0.250359	0.123743	0.269797	0.333254	4220.200152	13165.851590	3245.058283	6535.195614
70.535500	0.249394	0.124527	0.276059	0.334480	4213.700816	13155.446345	3248.830164	6525.026137
71.036000	0.254746	0.125060	0.278188	0.336538	4223.480676	13119.615680	3248.883733	6508.025319
71.536500	0.254317	0.126870	0.274858	0.337947	4218.017979	13129.055677	3245.332360	6496.439252
72.036500	0.256736	0.127975	0.278457	0.338543	4223.437196	13140.998067	3247.578224	6491.542156
72.537000	0.262443	0.133081	0.266144	0.341705	4231.043627	13186.778150	3236.168146	6465.694714
73.037500	0.267646	0.131057	0.277879	0.342728	4243.634729	13115.111125	3244.023030	6457.376912
73.541000	0.261590	0.133346	0.277462	0.342290	4226.740744	13179.210804	3244.038281	6460.934185
74.035000	0.270752	0.136839	0.274587	0.344877	4246.534017	13200.624667	3240.009450	6439.962844
74.535500	0.268592	0.135728	0.288402	0.345479	4238.184038	13160.218548	3249.844675	6435.096129
75.035500	0.270877	0.136694	0.283531	0.345893	4243.833845	13173.218946	3245.874526	6431.752366
75.539000	0.270274	0.136868	0.296300	0.344800	4245.318965	13203.139565	3256.390675	6440.582355
76.036000	0.273115	0.139536	0.283558	0.347656	4245.273459	13198.704133	3244.581410	6417.566733
76.536500	0.274642	0.139990	0.289353	0.347188	4251.328959	13220.490306	3249.271938	6421.321729
77.036500	0.273564	0.141388	0.288378	0.349257	4241.787841	13204.637287	3246.983333	6404.728080
77.537500	0.276187	0.143315	0.298847	0.350531	4245.867695	13220.070882	3253.945494	6394.543832
78.037500	0.278870	0.141703	0.289494	0.348035	4261.663182	13241.050781	3248.739998	6414.522304
78.535000	0.272750	0.142466	0.284315	0.349045	4239.967980	13235.162268	3244.111164	6406.423183
79.035500	0.277780	0.143560	0.290991	0.351444	4247.932326	13204.273491	3247.303165	6387.270217
79.535500	0.272717	0.144583	0.282551	0.351431	4232.687793	13228.792990	3241.043946	6387.367016
80.036000	0.275555	0.144194	0.294027	0.351975	4239.590697	13206.692679	3249.186369	6383.041062
80.536000	0.276189	0.146166	0.294057	0.353582	4236.660776	13215.359911	3247.999875	6370.286392
81.036500	0.279578	0.147388	0.291294	0.356592	4237.798949	13173.092456	3243.690115	6346.513644
81.537000	0.280536	0.143939	0.293745	0.352907	4251.865189	13178.664267	3248.272524	6375.636775
82.037000	0.279072	0.145671	0.302742	0.355225	4240.398821	13164.846224	3253.334440	6357.290571
82.537000	0.284203	0.147341	0.298437	0.357665	4248.545238	13146.733008	3248.222638	6338.079636
83.037500	0.279459	0.145281	0.296839	0.356000	4239.225766	13137.438690	3248.272903	6351.175509
83.535000	0.281480	0.146035	0.297602	0.357513	4240.756786	13119.625330	3247.709479	6339.271129
84.035000	0.281102	0.148211	0.297578	0.358019	4238.091101	13158.861909	3247.311583	6335.303586
84.535500	0.282947	0.148408	0.298643	0.359629	4238.801891	13125.650862	3246.903461	6322.698629
85.038500	0.280729	0.148634	0.295300	0.359854	4231.454656	13125.689900	3244.242040	6320.943455
85.536000	0.278465	0.148113	0.298750	0.360431	4222.965840	13099.956164	3246.383623	6316.437497
86.036500	0.284713	0.149460	0.300333	0.360393	4241.825540	13132.422755	3247.597383	6316.732890
86.537000	0.283798	0.146492	0.294616	0.359321	4242.301788	13087.997112	3244.129721	6325.107125
87.036500	0.283265	0.147628	0.289315	0.361718	4233.472053	13058.542939	3238.464497	6306.414632
87.537000	0.289538	0.148428	0.307883	0.363021	4248.483279	13046.820937	3251.313440	6296.295358
88.035000	0.281458	0.146287	0.304430	0.360908	4230.479482	13046.180576	3250.296898	6312.716343
88.534500	0.281625	0.147689	0.303261	0.362877	4225.092972	13032.977424	3247.930452	6297.407741
89.035500	0.284570	0.149317	0.306969	0.364755	4228.280806	13027.177223	3249.308827	6282.877986
89.536000	0.286893	0.149117	0.296101	0.364745	4235.278920	13022.766272	3241.218184	6282.955683
90.036000	0.282647	0.147949	0.294119	0.364308	4223.873819	13005.777094	3240.083228	6286.328714
90.536500	0.287124	0.149281	0.307400	0.366861	4229.621504	12977.515477	3248.047506	6266.651531
91.036500	0.284700	0.146853	0.285510	0.366385	4223.801188	12932.453996	3232.342919	6270.307833
91.536500	0.284879	0.148640	0.297388	0.368567	4217.844802	12923.368970	3239.358046	6253.562005
92.037000	0.289096	0.147738	0.299580	0.366599	4236.328257	12947.920294	3242.416313	6268.665941
92.534500	0.287934	0.149900	0.304534	0.369439	4224.339493	12932.320988	3243.981562	6246.899026
93.035000	0.284407	0.148203	0.296220	0.368714	4216.009772	12909.932668	3238.397552	6252.437142
93.535500	0.283500	0.146625	0.299122	0.367335	4217.409958	12905.386547	3241.535760	6263.011145
94.035500	0.285317	0.146430	0.295806	0.367022	4223.741701	12908.084809	3239.331004	6265.414556
94.535500	0.287301	0.148992	0.294433	0.370931	4218.016546	12877.194731	3235.490973	6235.517511
95.036500	0.281986	0.145177	0.292020	0.367320	4212.971893	12872.527028	3236.357480	6263.125450
95.536500	0.282084	0.144816	0.302535	0.368382	4210.121964	12840.005725	3243.282820	6254.977541
96.037000	0.288908	0.146503	0.316821	0.371683	4220.555152	12803.278239	3251.522380	6229.794068
96.537000	0.287039	0.146022	0.301834	0.370668	4218.021190	12815.423346	3241.078958	6237.522053
97.035000	0.291916	0.146687	0.309009	0.371788	4229.216355	12805.066332	3245.563473	6228.999067
