sample name	sample
index	408
start time	 03-08-2021  10:49:28 AM


Wavelength (nm)	Absorbance
494.344910	-0.086132
494.563924	-0.086132
494.782919	-0.086132
495.001897	0.125408
495.220856	-0.091756
495.439797	-0.088817
495.658719	-0.112979
495.877624	-0.094148
496.096510	-0.111921
496.315378	-0.120600
496.534227	-0.083076
496.753059	-0.070753
496.971872	-0.019768
497.190667	0.107440
497.409444	0.140590
497.628203	0.152527
497.846943	0.155150
498.065665	0.157591
498.284369	0.158216
498.503055	0.158909
498.721723	0.158367
498.940372	0.158668
499.159003	0.160338
499.377616	0.159783
499.596210	0.159397
499.814787	0.159628
500.033345	0.159793
500.251885	0.159514
500.470406	0.159623
500.688910	0.160150
500.907395	0.161067
501.125862	0.160599
501.344311	0.160548
501.562742	0.160672
501.781154	0.160984
501.999548	0.160384
502.217924	0.161535
502.436282	0.161384
502.654621	0.161434
502.872942	0.161088
503.091245	0.162036
503.309530	0.162693
503.527797	0.164016
503.746045	0.164328
503.964275	0.164938
504.182487	0.165482
504.400681	0.165627
504.618856	0.167168
504.837013	0.167683
505.055152	0.166323
505.273273	0.166499
505.491376	0.165454
505.709460	0.165490
505.927526	0.165888
506.145574	0.165685
506.363604	0.165919
506.581615	0.164905
506.799608	0.164977
507.017583	0.166291
507.235540	0.165405
507.453478	0.165703
507.671399	0.164948
507.889301	0.165301
508.107185	0.165733
508.325050	0.166329
508.542898	0.167209
508.760727	0.167719
508.978538	0.167149
509.196330	0.168720
509.414105	0.168392
509.631861	0.169105
509.849599	0.169669
510.067319	0.170136
510.285021	0.170852
510.502704	0.171428
510.720369	0.171491
510.938016	0.172755
511.155645	0.173617
511.373255	0.174257
511.590848	0.175249
511.808422	0.174625
512.025977	0.174672
512.243515	0.173087
512.461034	0.172689
512.678536	0.172042
512.896018	0.171823
513.113483	0.170976
513.330930	0.171521
513.548358	0.171500
513.765768	0.172621
513.983160	0.172920
514.200533	0.174746
514.417889	0.174985
514.635226	0.176071
514.852545	0.176023
515.069845	0.177298
515.287128	0.176959
515.504392	0.177122
515.721638	0.176335
515.938866	0.176243
516.156075	0.176044
516.373267	0.176276
516.590440	0.176638
516.807594	0.177783
517.024731	0.177073
517.241850	0.178006
517.458950	0.177482
517.676032	0.178261
517.893095	0.178449
518.110141	0.178023
518.327168	0.178614
518.544177	0.178625
518.761168	0.178777
518.978141	0.179085
519.195095	0.179169
519.412031	0.179428
519.628949	0.180177
519.845849	0.180577
520.062731	0.181515
520.279594	0.182171
520.496439	0.182352
520.713266	0.182194
520.930074	0.182336
521.146865	0.181972
521.363637	0.182339
521.580391	0.182253
521.797127	0.182067
522.013844	0.182275
522.230543	0.182306
522.447224	0.182113
522.663887	0.182481
522.880532	0.183349
523.097158	0.184146
523.313766	0.184530
523.530356	0.184447
523.746928	0.185188
523.963481	0.184814
524.180017	0.185299
524.396534	0.185632
524.613032	0.186208
524.829513	0.186563
525.045975	0.186657
525.262420	0.187373
525.478845	0.187774
525.695253	0.187696
525.911643	0.188501
526.128014	0.188468
526.344367	0.188803
526.560702	0.188928
526.777018	0.189174
526.993316	0.189354
527.209597	0.189434
527.425858	0.189830
527.642102	0.191137
527.858328	0.191774
528.074535	0.191781
528.290724	0.192768
528.506894	0.192740
528.723047	0.192260
528.939181	0.193195
529.155297	0.193853
529.371395	0.194174
529.587475	0.193448
529.803536	0.193751
530.019579	0.194546
530.235604	0.194406
530.451611	0.195486
530.667600	0.196577
530.883570	0.196874
531.099522	0.196647
531.315456	0.196722
531.531372	0.198079
531.747269	0.197908
531.963148	0.198077
532.179009	0.198680
532.394852	0.198714
532.610676	0.198523
532.826482	0.198788
533.042271	0.199762
533.258040	0.200442
533.473792	0.200444
533.689525	0.200522
533.905240	0.200993
534.120937	0.201484
534.336616	0.201980
534.552277	0.203009
534.767919	0.203734
534.983543	0.203524
535.199149	0.203664
535.414736	0.203505
535.630306	0.204559
535.845857	0.204431
536.061390	0.204406
536.276904	0.204100
536.492401	0.203726
536.707879	0.204028
536.923339	0.203973
537.138781	0.205095
537.354204	0.205223
537.569610	0.205517
537.784997	0.206018
538.000366	0.206012
538.215716	0.206796
538.431049	0.207466
538.646363	0.206954
538.861659	0.207969
539.076937	0.207180
539.292196	0.207908
539.507438	0.208259
539.722661	0.208591
539.937866	0.209198
540.153052	0.209287
540.368221	0.209764
540.583371	0.210521
540.798503	0.210391
541.013617	0.211096
541.228712	0.211682
541.443789	0.211708
541.658848	0.212025
541.873889	0.212637
542.088912	0.212647
542.303916	0.212489
542.518902	0.212966
542.733870	0.213004
542.948820	0.213331
543.163752	0.213403
543.378665	0.213724
543.593560	0.214401
543.808437	0.214568
544.023295	0.215235
544.238136	0.215910
544.452958	0.216484
544.667762	0.217010
544.882548	0.217537
545.097315	0.217849
545.312064	0.218778
545.526795	0.218483
545.741508	0.218680
545.956203	0.218397
546.170879	0.218848
546.385537	0.218269
546.600177	0.218766
546.814799	0.218623
547.029402	0.218884
547.243988	0.219195
547.458555	0.219898
547.673103	0.220278
547.887634	0.221071
548.102146	0.220997
548.316640	0.221812
548.531116	0.222617
548.745574	0.223217
548.960013	0.223341
549.174435	0.223204
549.388838	0.223185
549.603222	0.223698
549.817589	0.223608
550.031937	0.223859
550.246267	0.224219
550.460579	0.223948
550.674873	0.224074
550.889148	0.224233
551.103405	0.225014
551.317644	0.225397
551.531865	0.225181
551.746068	0.226076
551.960252	0.226142
552.174418	0.225970
552.388566	0.225997
552.602696	0.226103
552.816807	0.226863
553.030900	0.226518
553.244975	0.226667
553.459032	0.226743
553.673070	0.226459
553.887091	0.227214
554.101093	0.227346
554.315077	0.227943
554.529042	0.228188
554.742990	0.227852
554.956919	0.227532
555.170830	0.227836
555.384722	0.228438
555.598597	0.228780
555.812453	0.228628
556.026291	0.229278
556.240111	0.229514
556.453913	0.229861
556.667696	0.230060
556.881461	0.230693
557.095208	0.231044
557.308937	0.231454
557.522647	0.231782
557.736339	0.231805
557.950013	0.232339
558.163669	0.232140
558.377307	0.232279
558.590926	0.232690
558.804527	0.233202
559.018110	0.233141
559.231675	0.233212
559.445221	0.233579
559.658749	0.234147
559.872259	0.233861
560.085751	0.234323
560.299225	0.234455
560.512680	0.234920
560.726117	0.235049
560.939536	0.235142
561.152937	0.235247
561.366319	0.235488
561.579683	0.235668
561.793029	0.235990
562.006357	0.236319
562.219667	0.236383
562.432958	0.236544
562.646231	0.236916
562.859486	0.237321
563.072723	0.237426
563.285941	0.237399
563.499141	0.237857
563.712323	0.238260
563.925487	0.238543
564.138632	0.239130
564.351760	0.239221
564.564869	0.239078
564.777960	0.239327
564.991032	0.239668
565.204087	0.240047
565.417123	0.239841
565.630141	0.240026
565.843140	0.240344
566.056122	0.240712
566.269085	0.241256
566.482030	0.241897
566.694957	0.241791
566.907866	0.241985
567.120756	0.242348
567.333628	0.242749
567.546482	0.242785
567.759318	0.242843
567.972135	0.242689
568.184935	0.242787
568.397716	0.242365
568.610478	0.242548
568.823223	0.242735
569.035949	0.242571
569.248657	0.242727
569.461347	0.243195
569.674019	0.243463
569.886672	0.243774
570.099308	0.243636
570.311925	0.244483
570.524523	0.245359
570.737104	0.245553
570.949666	0.245835
571.162210	0.246257
571.374736	0.245964
571.587244	0.246246
571.799733	0.246461
572.012205	0.246938
572.224658	0.246582
572.437092	0.246206
572.649509	0.246448
572.861907	0.246562
573.074287	0.246672
573.286649	0.247112
573.498993	0.247400
573.711318	0.248128
573.923625	0.248372
574.135914	0.249154
574.348185	0.249802
574.560438	0.250280
574.772672	0.250689
574.984888	0.250681
575.197086	0.251218
575.409266	0.250924
575.621427	0.251003
575.833570	0.251064
576.045695	0.250691
576.257802	0.250489
576.469890	0.250693
576.681961	0.250929
576.894013	0.251120
577.106046	0.250784
577.318062	0.251171
577.530059	0.250982
577.742039	0.251338
577.954000	0.251675
578.165942	0.252292
578.377867	0.252563
578.589773	0.252149
578.801661	0.252338
579.013531	0.252885
579.225382	0.253291
579.437216	0.253621
579.649031	0.253563
579.860828	0.254137
580.072606	0.254261
580.284367	0.254346
580.496109	0.254945
580.707833	0.255377
580.919539	0.255736
581.131227	0.256009
581.342896	0.256327
581.554547	0.256735
581.766180	0.256654
581.977795	0.256751
582.189391	0.256818
582.400969	0.257315
582.612529	0.257714
582.824071	0.257822
583.035595	0.257483
583.247100	0.257486
583.458587	0.257443
583.670056	0.257723
583.881506	0.258033
584.092939	0.257972
584.304353	0.258102
584.515749	0.257825
584.727127	0.257810
584.938486	0.258493
585.149828	0.258856
585.361151	0.259657
585.572456	0.259978
585.783742	0.259889
585.995011	0.260424
586.206261	0.260691
586.417493	0.261420
586.628706	0.261573
586.839902	0.261180
587.051079	0.261143
587.262238	0.260922
587.473379	0.260938
587.684502	0.261269
587.895606	0.261340
588.106692	0.261757
588.317760	0.261702
588.528810	0.261674
588.739841	0.262736
588.950855	0.263160
589.161850	0.263378
589.372827	0.263650
589.583785	0.263685
589.794726	0.263814
590.005648	0.263396
590.216552	0.263343
590.427437	0.264056
590.638305	0.263982
590.849154	0.263865
591.059985	0.263694
591.270798	0.264099
591.481592	0.264919
591.692369	0.265154
591.903127	0.265695
592.113867	0.266256
592.324588	0.266198
592.535292	0.266563
592.745977	0.266837
592.956644	0.267378
593.167293	0.267356
593.377923	0.267507
593.588536	0.267989
593.799130	0.268155
594.009706	0.267831
594.220263	0.268199
594.430803	0.268547
594.641324	0.268685
594.851827	0.268878
595.062312	0.268871
595.272778	0.268780
595.483227	0.268920
595.693657	0.269421
595.904069	0.270042
596.114462	0.270291
596.324838	0.270090
596.535195	0.270112
596.745534	0.270152
596.955855	0.270482
597.166157	0.270620
597.376441	0.270762
597.586707	0.270679
597.796955	0.271084
598.007185	0.271356
598.217396	0.271491
598.427589	0.272004
598.637764	0.272283
598.847921	0.271924
599.058060	0.271773
599.268180	0.271634
599.478282	0.271643
599.688366	0.271587
599.898431	0.271659
600.108479	0.271829
600.318508	0.272076
600.528519	0.272280
600.738511	0.272964
600.948486	0.273352
601.158442	0.273575
601.368380	0.273778
601.578300	0.273910
601.788202	0.274071
601.998085	0.274131
602.207950	0.274183
602.417797	0.274325
602.627626	0.274749
602.837436	0.275171
603.047228	0.275475
603.257002	0.275488
603.466758	0.275697
603.676496	0.275666
603.886215	0.275942
604.095916	0.276111
604.305599	0.276411
604.515264	0.276965
604.724910	0.277208
604.934538	0.277171
605.144148	0.277306
605.353740	0.277325
605.563314	0.278053
605.772869	0.278381
605.982406	0.278274
606.191925	0.278291
606.401425	0.277821
606.610908	0.277834
606.820372	0.278049
607.029818	0.278490
607.239246	0.279172
607.448655	0.278652
607.658047	0.278674
607.867420	0.279347
608.076775	0.279864
608.286111	0.280313
608.495430	0.280669
608.704730	0.280982
608.914012	0.280931
609.123275	0.280725
609.332521	0.281122
609.541748	0.281557
609.750957	0.281623
609.960148	0.281374
610.169321	0.281510
610.378475	0.281706
610.587611	0.282095
610.796729	0.282593
611.005829	0.282613
611.214910	0.282595
611.423974	0.282489
611.633019	0.282561
611.842045	0.282963
612.051054	0.282773
612.260044	0.282531
612.469017	0.282563
612.677970	0.282347
612.886906	0.282511
613.095824	0.282946
613.304723	0.283051
613.513604	0.283156
613.722467	0.283503
613.931311	0.283781
614.140138	0.283855
614.348946	0.283886
614.557736	0.284139
614.766507	0.284343
614.975261	0.284126
615.183996	0.284232
615.392713	0.284262
615.601412	0.283954
615.810092	0.284522
616.018754	0.285059
616.227399	0.285353
616.436024	0.285552
616.644632	0.285804
616.853222	0.286142
617.061793	0.286736
617.270346	0.287052
617.478880	0.287590
617.687397	0.287515
617.895895	0.287800
618.104375	0.287997
618.312837	0.288301
618.521281	0.288132
618.729706	0.288389
618.938113	0.288121
619.146502	0.288352
619.354873	0.288224
619.563226	0.288349
619.771560	0.288136
619.979876	0.288259
620.188174	0.288388
620.396453	0.288810
620.604715	0.288578
620.812958	0.288634
621.021183	0.288570
621.229390	0.288512
621.437578	0.288428
621.645748	0.288394
621.853900	0.288614
622.062034	0.288670
622.270150	0.288612
622.478247	0.289239
622.686326	0.289381
622.894387	0.289701
623.102430	0.290112
623.310454	0.290265
623.518461	0.290769
623.726449	0.290932
623.934418	0.291166
624.142370	0.291335
624.350303	0.291280
624.558218	0.291756
624.766115	0.291918
624.973994	0.292075
625.181855	0.292527
625.389697	0.292365
625.597521	0.292382
625.805327	0.292556
626.013114	0.293198
626.220883	0.293391
626.428634	0.293480
626.636367	0.293643
626.844082	0.293863
627.051778	0.294080
627.259457	0.294470
627.467117	0.294814
627.674758	0.295046
627.882382	0.294786
628.089987	0.295197
628.297574	0.295389
628.505143	0.295463
628.712694	0.295463
628.920226	0.295483
629.127740	0.295604
629.335236	0.295822
629.542714	0.296000
629.750174	0.296185
629.957615	0.295867
630.165038	0.296127
630.372443	0.296343
630.579829	0.296567
630.787198	0.296564
630.994548	0.296752
631.201880	0.296520
631.409194	0.296686
631.616489	0.296811
631.823766	0.297191
632.031025	0.297294
632.238266	0.297185
632.445489	0.297560
632.652693	0.297927
632.859879	0.297985
633.067047	0.298200
633.274197	0.298261
633.481329	0.298470
633.688442	0.298717
633.895537	0.298770
634.102614	0.299207
634.309672	0.299230
634.516713	0.299413
634.723735	0.299801
634.930739	0.300119
635.137724	0.300208
635.344692	0.300598
635.551641	0.300650
635.758572	0.300824
635.965485	0.301163
636.172379	0.301388
636.379256	0.301475
636.586114	0.301523
636.792954	0.301610
636.999775	0.302223
637.206579	0.302348
637.413364	0.302657
637.620131	0.302874
637.826880	0.302830
638.033610	0.302727
638.240323	0.302898
638.447017	0.303194
638.653692	0.303357
638.860350	0.303112
639.066990	0.303216
639.273611	0.303319
639.480214	0.303600
639.686798	0.304123
639.893365	0.304448
640.099913	0.304600
640.306443	0.304709
640.512955	0.304901
640.719449	0.305030
640.925924	0.305476
641.132381	0.305768
641.338820	0.305753
641.545241	0.305794
641.751644	0.306153
641.958028	0.306449
642.164394	0.306616
642.370742	0.306802
642.577071	0.307075
642.783383	0.306946
642.989676	0.306881
643.195951	0.307369
643.402207	0.307396
643.608446	0.307649
643.814666	0.307707
644.020868	0.307963
644.227052	0.308282
644.433218	0.308588
644.639365	0.308896
644.845494	0.309265
645.051605	0.309316
645.257698	0.309604
645.463772	0.309567
645.669828	0.309934
645.875866	0.310009
646.081886	0.309949
646.287888	0.310113
646.493871	0.310146
646.699836	0.310416
646.905783	0.310503
647.111712	0.310721
647.317622	0.311100
647.523514	0.311040
647.729388	0.311223
647.935244	0.311531
648.141082	0.311708
648.346901	0.312212
648.552702	0.312355
648.758485	0.312493
648.964250	0.312670
649.169996	0.312663
649.375724	0.312916
649.581434	0.313243
649.787126	0.313823
649.992800	0.314014
650.198455	0.314092
650.404092	0.314202
650.609711	0.314599
650.815311	0.314741
651.020894	0.315261
651.226458	0.315614
651.432004	0.315743
651.637532	0.315719
651.843041	0.315767
652.048532	0.315846
652.254006	0.316058
652.459460	0.316047
652.664897	0.316328
652.870315	0.316176
653.075716	0.316420
653.281097	0.316638
653.486461	0.316667
653.691807	0.316921
653.897134	0.317066
654.102443	0.317377
654.307734	0.317914
654.513006	0.318138
654.718261	0.318507
654.923497	0.318627
655.128715	0.319080
655.333915	0.319190
655.539096	0.319608
655.744259	0.320007
655.949404	0.320479
656.154531	0.320507
656.359640	0.320794
656.564730	0.320962
656.769802	0.321245
656.974856	0.320932
657.179892	0.321067
657.384909	0.321004
657.589908	0.321120
657.794889	0.321242
657.999852	0.321479
658.204797	0.321559
658.409723	0.321552
658.614631	0.321816
658.819521	0.322233
659.024393	0.322669
659.229246	0.323067
659.434081	0.323637
659.638898	0.323824
659.843697	0.324222
660.048478	0.324377
660.253240	0.324851
660.457984	0.325000
660.662710	0.325257
660.867417	0.325538
661.072107	0.325697
661.276778	0.325382
661.481431	0.325157
661.686066	0.325091
661.890682	0.325382
662.095281	0.325520
662.299861	0.325711
662.504422	0.326121
662.708966	0.326206
662.913491	0.326369
663.117999	0.326956
663.322488	0.327520
663.526958	0.327934
663.731411	0.328095
663.935845	0.328348
664.140261	0.328759
664.344659	0.328791
664.549038	0.329200
664.753400	0.329485
664.957743	0.329464
665.162068	0.329886
665.366375	0.329789
665.570663	0.329985
665.774933	0.330285
665.979185	0.330213
666.183419	0.330651
666.387635	0.331047
666.591832	0.331377
666.796011	0.331685
667.000172	0.331514
667.204315	0.332235
667.408439	0.332522
667.612545	0.332767
667.816634	0.333117
668.020703	0.333135
668.224755	0.333191
668.428788	0.333524
668.632803	0.334253
668.836800	0.334723
669.040779	0.335033
669.244739	0.335395
669.448681	0.335893
669.652605	0.336142
669.856511	0.336643
670.060399	0.337038
670.264268	0.337222
670.468119	0.337034
670.671952	0.337105
670.875767	0.337179
671.079563	0.337311
671.283341	0.337168
671.487101	0.337435
671.690843	0.337518
671.894567	0.337587
672.098272	0.337655
672.301959	0.337566
672.505628	0.337693
672.709278	0.337607
672.912911	0.337977
673.116525	0.338280
673.320121	0.338234
673.523699	0.338451
673.727258	0.338572
673.930799	0.338722
674.134322	0.339072
674.337827	0.339328
674.541314	0.339685
674.744782	0.339905
674.948232	0.340321
675.151664	0.340751
675.355078	0.340997
675.558474	0.341451
675.761851	0.341692
675.965210	0.342038
676.168551	0.342404
676.371873	0.342554
676.575178	0.342629
676.778464	0.342826
676.981732	0.343529
677.184981	0.343639
677.388213	0.343655
677.591426	0.343896
677.794621	0.344259
677.997798	0.344603
678.200956	0.344891
678.404097	0.345151
678.607219	0.345128
678.810323	0.344894
679.013408	0.345160
679.216476	0.345199
679.419525	0.345447
679.622556	0.345659
679.825569	0.345742
680.028563	0.345974
680.231540	0.346349
680.434498	0.346363
680.637438	0.346576
680.840359	0.346803
681.043263	0.347096
681.246148	0.347303
681.449015	0.347283
681.651864	0.347444
681.854694	0.347808
682.057506	0.347795
682.260301	0.348365
682.463076	0.348698
682.665834	0.349012
682.868573	0.349551
683.071295	0.350077
683.273998	0.350571
683.476682	0.351060
683.679349	0.351067
683.881997	0.351513
684.084627	0.351571
684.287239	0.351510
684.489833	0.351647
684.692408	0.351838
684.894965	0.351733
685.097504	0.351726
685.300025	0.351807
685.502527	0.351826
685.705012	0.351891
685.907478	0.352285
686.109925	0.352678
686.312355	0.353044
686.514766	0.353285
686.717159	0.353611
686.919534	0.353735
687.121891	0.353838
687.324230	0.354203
687.526550	0.354409
687.728852	0.354471
687.931136	0.354429
688.133401	0.354531
688.335649	0.354518
688.537878	0.354516
688.740089	0.354877
688.942281	0.355351
689.144456	0.355503
689.346612	0.355858
689.548750	0.355956
689.750870	0.356303
689.952971	0.356557
690.155055	0.356627
690.357120	0.356755
690.559167	0.356714
690.761195	0.356496
690.963206	0.356860
691.165198	0.356742
691.367172	0.357010
691.569128	0.357406
691.771065	0.357425
691.972984	0.357810
692.174885	0.358219
692.376768	0.358660
692.578633	0.358746
692.780479	0.358730
692.982308	0.358778
693.184118	0.359014
693.385909	0.358955
693.587683	0.358807
693.789438	0.358827
693.991175	0.358941
694.192894	0.358890
694.394595	0.359282
694.596277	0.359355
694.797941	0.359954
694.999587	0.359948
695.201215	0.360180
695.402824	0.360437
695.604416	0.360522
695.805989	0.360654
696.007543	0.360925
696.209080	0.360959
696.410598	0.361334
696.612099	0.361079
696.813580	0.361110
697.015044	0.361360
697.216490	0.361451
697.417917	0.361794
697.619326	0.362022
697.820717	0.362001
698.022089	0.362132
698.223444	0.362222
698.424780	0.362389
698.626098	0.362866
698.827397	0.362879
699.028679	0.363278
699.229942	0.363323
699.431187	0.363137
699.632414	0.363276
699.833622	0.363398
700.034813	0.363616
700.235985	0.363946
700.437139	0.364148
700.638274	0.364253
700.839392	0.364464
701.040491	0.364812
701.241572	0.365514
701.442635	0.365717
701.643679	0.366164
701.844706	0.366379
702.045714	0.366325
702.246704	0.366200
702.447675	0.366518
702.648629	0.366499
702.849564	0.366452
703.050481	0.366495
703.251380	0.366953
703.452260	0.366870
703.653122	0.366692
703.853966	0.366708
704.054792	0.366999
704.255600	0.366776
704.456389	0.367077
704.657160	0.367198
704.857913	0.366825
705.058648	0.366368
705.259365	0.366312
705.460063	0.366315
705.660743	0.366572
705.861405	0.366536
706.062048	0.366605
706.262674	0.366647
706.463281	0.366535
706.663870	0.366593
706.864441	0.366946
707.064993	0.367222
707.265527	0.367091
707.466043	0.367307
707.666541	0.367394
707.867021	0.367734
708.067482	0.367527
708.267925	0.367756
708.468350	0.368127
708.668757	0.368328
708.869145	0.368425
709.069516	0.368847
709.269868	0.368854
709.470201	0.368884
709.670517	0.368971
709.870814	0.369234
710.071093	0.369265
710.271354	0.369116
710.471597	0.369049
710.671821	0.369121
710.872028	0.369095
711.072216	0.369202
711.272385	0.369088
711.472537	0.368800
711.672670	0.368417
711.872785	0.368481
712.072882	0.368576
712.272961	0.368243
712.473021	0.368129
712.673063	0.368070
712.873087	0.367882
713.073093	0.368099
713.273081	0.368012
713.473050	0.368101
713.673001	0.368049
713.872934	0.368134
714.072849	0.368429
714.272745	0.368346
714.472623	0.368488
714.672483	0.368523
714.872325	0.368518
715.072148	0.368829
715.271954	0.369028
715.471741	0.369075
715.671509	0.368979
715.871260	0.369049
716.070992	0.368870
716.270707	0.368862
716.470403	0.368597
716.670080	0.368323
716.869740	0.368058
717.069381	0.368297
717.269004	0.367966
717.468609	0.367949
717.668195	0.367934
717.867764	0.368106
718.067314	0.367856
718.266846	0.367940
718.466360	0.367882
718.665855	0.368025
718.865332	0.367456
719.064791	0.367357
719.264232	0.367314
719.463655	0.367129
719.663059	0.366890
719.862445	0.366851
720.061813	0.366843
720.261163	0.366836
720.460494	0.366658
720.659807	0.366835
720.859102	0.366608
721.058379	0.366338
721.257638	0.366147
721.456878	0.366055
721.656100	0.366189
721.855304	0.366071
722.054490	0.365830
722.253657	0.365664
722.452806	0.365788
722.651937	0.366069
722.851050	0.366181
723.050145	0.366139
723.249221	0.366015
723.448279	0.365707
723.647319	0.365567
723.846340	0.365845
724.045344	0.365689
724.244329	0.364941
724.443296	0.365006
724.642245	0.364915
724.841175	0.364945
725.040088	0.365329
725.238982	0.365288
725.437857	0.365276
725.636715	0.365025
725.835554	0.365128
726.034376	0.365446
726.233179	0.365039
726.431963	0.364947
726.630730	0.364652
726.829478	0.364407
727.028208	0.364354
727.226920	0.364078
727.425614	0.363778
727.624289	0.363377
727.822946	0.363227
728.021585	0.363070
728.220206	0.362777
728.418808	0.362689
728.617392	0.362343
728.815958	0.362435
729.014506	0.362486
729.213036	0.362412
729.411547	0.362423
729.610040	0.362496
729.808515	0.362534
730.006972	0.362583
730.205410	0.362382
730.403831	0.362339
730.602233	0.361973
730.800616	0.361641
730.998982	0.361764
731.197329	0.361483
731.395658	0.361171
731.593969	0.360857
731.792262	0.360449
731.990536	0.360439
732.188793	0.360388
732.387031	0.360302
732.585250	0.360468
732.783452	0.360286
732.981635	0.360552
733.179800	0.360504
733.377947	0.360706
733.576076	0.360749
733.774186	0.360756
733.972278	0.360538
734.170352	0.360480
734.368408	0.360298
734.566446	0.360200
734.764465	0.359749
734.962466	0.359569
735.160449	0.359330
735.358413	0.359299
735.556360	0.359082
735.754288	0.358664
735.952198	0.358402
736.150090	0.358054
736.347963	0.357874
736.545818	0.358031
736.743655	0.357614
736.941474	0.357470
737.139275	0.357124
737.337057	0.357044
737.534821	0.356972
737.732567	0.357087
737.930295	0.357186
738.128005	0.356783
738.325696	0.356445
738.523369	0.356543
738.721024	0.356231
738.918660	0.355926
739.116279	0.355606
739.313879	0.355563
739.511461	0.355013
739.709024	0.354707
739.906570	0.354580
740.104097	0.354568
740.301606	0.354430
740.499097	0.354189
740.696569	0.354194
740.894024	0.354059
741.091460	0.353635
741.288878	0.353229
741.486277	0.352843
741.683659	0.352927
741.881022	0.352232
742.078367	0.351700
742.275694	0.351540
742.473002	0.351322
742.670293	0.350846
742.867565	0.351004
743.064819	0.351097
743.262054	0.350787
743.459272	0.350359
743.656471	0.350100
743.853652	0.350168
744.050815	0.349939
744.247959	0.349649
744.445085	0.349669
744.642194	0.349317
744.839283	0.348978
745.036355	0.349009
745.233408	0.348870
745.430444	0.349252
745.627461	0.349016
745.824459	0.348806
746.021440	0.348598
746.218402	0.348001
746.415346	0.347935
746.612272	0.347445
746.809180	0.347229
747.006069	0.346784
747.202940	0.346165
747.399793	0.345568
747.596628	0.345203
747.793444	0.344975
747.990243	0.345213
748.187023	0.344680
748.383784	0.344906
748.580528	0.344592
748.777253	0.344577
748.973960	0.344279
749.170649	0.344201
749.367320	0.344208
749.563973	0.344131
749.760607	0.343710
749.957223	0.343988
750.153821	0.343828
750.350400	0.343781
750.546962	0.343445
750.743505	0.343258
750.940030	0.343208
751.136536	0.343126
751.333025	0.342931
751.529495	0.342901
751.725947	0.342446
751.922381	0.342190
752.118796	0.341818
752.315194	0.341696
752.511573	0.341763
752.707934	0.341596
752.904276	0.341491
753.100601	0.341446
753.296907	0.341274
753.493195	0.341008
753.689465	0.340612
753.885716	0.340598
754.081949	0.340377
754.278164	0.340332
754.474361	0.340291
754.670540	0.339878
754.866700	0.339599
755.062843	0.339704
755.258967	0.339604
755.455072	0.339409
755.651160	0.339262
755.847229	0.339202
756.043280	0.338815
756.239313	0.338582
756.435328	0.338564
756.631324	0.338137
756.827302	0.337454
757.023262	0.337110
757.219204	0.336792
757.415127	0.336433
757.611033	0.336112
757.806920	0.335881
758.002788	0.335812
758.198639	0.335595
758.394471	0.335304
758.590286	0.334982
758.786081	0.334895
758.981859	0.334845
759.177619	0.334776
759.373360	0.334645
759.569083	0.334581
759.764788	0.334249
759.960474	0.334053
760.156143	0.334097
760.351793	0.334101
760.547425	0.333796
760.743038	0.333676
760.938634	0.333680
761.134211	0.333766
761.329770	0.333405
761.525311	0.333091
761.720833	0.333011
761.916338	0.332821
762.111824	0.332861
762.307292	0.332812
762.502741	0.332995
762.698173	0.332613
762.893586	0.332072
763.088981	0.331988
763.284358	0.331822
763.479716	0.331493
763.675057	0.331405
763.870379	0.331122
764.065683	0.331034
764.260968	0.330458
764.456236	0.330216
764.651485	0.330125
764.846716	0.330101
765.041929	0.330121
765.237123	0.330051
765.432299	0.330061
765.627457	0.329957
765.822597	0.329790
766.017719	0.329780
766.212822	0.329793
766.407907	0.329817
766.602974	0.329605
766.798023	0.329541
766.993054	0.329488
767.188066	0.329473
767.383060	0.329289
767.578036	0.329374
767.772993	0.329565
767.967933	0.329307
768.162854	0.329324
768.357757	0.329435
768.552642	0.329238
768.747508	0.329003
768.942356	0.329099
769.137186	0.329234
769.331998	0.329120
769.526792	0.328892
769.721567	0.328853
769.916324	0.328459
770.111063	0.328330
770.305784	0.328260
770.500486	0.328160
770.695171	0.327791
770.889837	0.327361
771.084484	0.327237
771.279114	0.326799
771.473725	0.326843
771.668318	0.326894
771.862893	0.326953
772.057450	0.326973
772.251988	0.326889
772.446509	0.326830
772.641011	0.326964
772.835494	0.326636
773.029960	0.326551
773.224407	0.326494
773.418836	0.326376
773.613247	0.326014
773.807640	0.325749
774.002014	0.325606
774.196370	0.325585
774.390708	0.325430
774.585028	0.325159
774.779330	0.325499
774.973613	0.325504
775.167878	0.325452
775.362125	0.325555
775.556354	0.325651
775.750564	0.325510
775.944756	0.325104
776.138930	0.325068
776.333086	0.325229
776.527223	0.324926
776.721343	0.324804
776.915444	0.324908
777.109526	0.324814
777.303591	0.324778
777.497637	0.324668
777.691666	0.324784
777.885676	0.324960
778.079667	0.324837
778.273641	0.324976
778.467596	0.324730
778.661533	0.324538
778.855452	0.324436
779.049352	0.324229
779.243235	0.324453
779.437099	0.324250
779.630945	0.323823
779.824773	0.324019
780.018582	0.323965
780.212373	0.324153
780.406146	0.324028
780.599901	0.323956
780.793638	0.323984
780.987356	0.323941
781.181056	0.324059
781.374738	0.324214
781.568402	0.324113
781.762047	0.323997
781.955674	0.323892
782.149283	0.323942
782.342874	0.323987
782.536447	0.324086
782.730001	0.324237
782.923537	0.324018
783.117055	0.324157
783.310555	0.324269
783.504036	0.324410
783.697499	0.324621
783.890944	0.324743
784.084371	0.324614
784.277780	0.324600
784.471170	0.324667
784.664542	0.324744
784.857896	0.324739
785.051231	0.324250
785.244549	0.324196
785.437848	0.323898
785.631129	0.323990
785.824392	0.324129
786.017636	0.324038
786.210863	0.323990
786.404071	0.324301
786.597260	0.324450
786.790432	0.325106
786.983585	0.325263
787.176721	0.325639
787.369838	0.325778
787.562936	0.325710
787.756017	0.325669
787.949079	0.325698
788.142123	0.325804
788.335149	0.325950
788.528156	0.325964
788.721146	0.326032
788.914117	0.326079
789.107070	0.326072
789.300005	0.326355
789.492921	0.326433
789.685819	0.326332
789.878699	0.326294
790.071561	0.326124
790.264405	0.326045
790.457230	0.325912
790.650037	0.325781
790.842826	0.325697
791.035597	0.325907
791.228349	0.326359
791.421084	0.326509
791.613800	0.326821
791.806497	0.327084
791.999177	0.327132
792.191838	0.327461
792.384481	0.327742
792.577106	0.327817
792.769713	0.327882
792.962301	0.327760
793.154871	0.328151
793.347423	0.327774
793.539957	0.327690
793.732473	0.327923
793.924970	0.328124
794.117449	0.328160
794.309910	0.328620
794.502353	0.328351
794.694777	0.328543
794.887183	0.328505
795.079571	0.328913
795.271941	0.328968
795.464293	0.329022
795.656626	0.328745
795.848941	0.328885
796.041238	0.328630
796.233516	0.328837
796.425777	0.328937
796.618019	0.328996
796.810243	0.329083
797.002449	0.329225
797.194636	0.329281
797.386805	0.329643
797.578956	0.329871
797.771089	0.330230
797.963204	0.330429
798.155300	0.330526
798.347378	0.330636
798.539438	0.330815
798.731480	0.331247
798.923503	0.331910
799.115509	0.332232
799.307496	0.332071
799.499465	0.332219
799.691415	0.332424
799.883348	0.332722
800.075262	0.333121
800.267158	0.333226
800.459035	0.333239
800.650895	0.333202
800.842736	0.333297
801.034559	0.333648
801.226364	0.334190
801.418150	0.334522
801.609919	0.334957
801.801669	0.335337
801.993401	0.335742
802.185114	0.335825
802.376810	0.335969
802.568487	0.335885
802.760146	0.335999
802.951787	0.335994
803.143409	0.336380
803.335014	0.336643
803.526600	0.336652
803.718168	0.336759
803.909717	0.337351
804.101249	0.337608
804.292762	0.338246
804.484257	0.338603
804.675734	0.338773
804.867192	0.338956
805.058632	0.339113
805.250054	0.339079
805.441458	0.339213
805.632844	0.339217
805.824211	0.339440
806.015561	0.339454
806.206891	0.339748
806.398204	0.339657
806.589499	0.339736
806.780775	0.339732
806.972033	0.340156
807.163273	0.340564
807.354495	0.341041
807.545698	0.341370
807.736883	0.341648
807.928050	0.341667
808.119199	0.342318
808.310329	0.342762
808.501441	0.343203
808.692535	0.343610
808.883611	0.343834
809.074669	0.343624
809.265708	0.343653
809.456729	0.344130
809.647732	0.344643
809.838717	0.344546
810.029683	0.344669
810.220632	0.344770
810.411562	0.344676
810.602474	0.344765
810.793367	0.345338
810.984242	0.345670
811.175100	0.345860
811.365938	0.346064
811.556759	0.346536
811.747562	0.346465
811.938346	0.346457
812.129112	0.346902
812.319860	0.347182
812.510589	0.347301
812.701300	0.347525
812.891994	0.347692
813.082668	0.347745
813.273325	0.348071
813.463964	0.348654
813.654584	0.349530
813.845186	0.349847
814.035769	0.350212
814.226335	0.350548
814.416882	0.350881
814.607411	0.351397
814.797922	0.352127
814.988415	0.352529
815.178889	0.352883
815.369345	0.353028
815.559783	0.353445
815.750203	0.353996
815.940605	0.354449
816.130988	0.355276
816.321353	0.355625
816.511700	0.355861
816.702028	0.356294
816.892339	0.356779
817.082631	0.357049
817.272905	0.357443
817.463161	0.358041
817.653398	0.358404
817.843617	0.358659
818.033819	0.358975
818.224001	0.359113
818.414166	0.359251
818.604312	0.359592
818.794440	0.360005
818.984550	0.360297
819.174642	0.360175
819.364716	0.360593
819.554771	0.360476
819.744808	0.360592
819.934827	0.361248
820.124827	0.361928
820.314810	0.361744
820.504774	0.361942
820.694720	0.362224
820.884647	0.362481
821.074557	0.362741
821.264448	0.363055
821.454321	0.363421
821.644176	0.363908
821.834012	0.363668
822.023831	0.364306
822.213631	0.364613
822.403413	0.365031
822.593176	0.365476
822.782922	0.365527
822.972649	0.366054
823.162358	0.366515
823.352049	0.366863
823.541721	0.367323
823.731376	0.367658
823.921012	0.367909
824.110629	0.368163
824.300229	0.368676
824.489811	0.369285
824.679374	0.369866
824.868919	0.370297
825.058445	0.370473
825.247954	0.371128
825.437444	0.371587
825.626916	0.372304
825.816370	0.372920
826.005806	0.373197
826.195223	0.373630
826.384622	0.374000
826.574003	0.374396
826.763366	0.374700
826.952711	0.374915
827.142037	0.375546
827.331345	0.375706
827.520635	0.375753
827.709906	0.376306
827.899160	0.377056
828.088395	0.377279
828.277612	0.377661
828.466810	0.378103
828.655991	0.378753
828.845153	0.378937
829.034297	0.379538
829.223423	0.380184
829.412531	0.380285
829.601620	0.380312
829.790691	0.380523
829.979744	0.380785
830.168779	0.381130
830.357795	0.381332
830.546793	0.382124
830.735773	0.382493
830.924735	0.382767
831.113679	0.383676
831.302604	0.384055
831.491511	0.384695
831.680400	0.385163
831.869271	0.385900
832.058123	0.386313
832.246957	0.386494
832.435773	0.386948
832.624571	0.387491
832.813351	0.387821
833.002112	0.388524
833.190855	0.389158
833.379580	0.389729
833.568287	0.389990
833.756975	0.390442
833.945645	0.390772
834.134297	0.391183
834.322931	0.391487
834.511547	0.392114
834.700144	0.392375
834.888723	0.392730
835.077284	0.393235
835.265826	0.393630
835.454351	0.394215
835.642857	0.394443
835.831345	0.395072
836.019815	0.395794
836.208266	0.396309
836.396699	0.396866
836.585114	0.397445
836.773511	0.397771
836.961890	0.398555
837.150250	0.399228
837.338592	0.400247
837.526916	0.400564
837.715222	0.401044
837.903510	0.401071
838.091779	0.401323
838.280030	0.401486
838.468263	0.401839
838.656477	0.401910
838.844674	0.402321
839.032852	0.402663
839.221012	0.402993
839.409153	0.403007
839.597277	0.403772
839.785382	0.404237
839.973469	0.404830
840.161538	0.405568
840.349589	0.406099
840.537621	0.406529
840.725635	0.406809
840.913631	0.407549
841.101609	0.408234
841.289568	0.408559
841.477509	0.409097
841.665432	0.409333
841.853337	0.409710
842.041224	0.409785
842.229092	0.409922
842.416942	0.410213
842.604774	0.410440
842.792588	0.410832
842.980383	0.411003
843.168160	0.411667
843.355919	0.412243
843.543660	0.412772
843.731382	0.413582
843.919087	0.414358
844.106773	0.415233
844.294441	0.415564
844.482090	0.416295
844.669722	0.416802
844.857335	0.417229
845.044930	0.417566
845.232507	0.418006
845.420065	0.418692
845.607605	0.418759
845.795127	0.418807
845.982631	0.419699
846.170117	0.419960
846.357584	0.420737
846.545033	0.421117
846.732464	0.421831
846.919877	0.422178
847.107272	0.422470
847.294648	0.423151
847.482006	0.423931
847.669346	0.424014
847.856667	0.424715
848.043971	0.425071
848.231256	0.425306
848.418523	0.425902
848.605771	0.426273
848.793002	0.426803
848.980214	0.427576
849.167408	0.427818
849.354584	0.428321
849.541742	0.428617
849.728881	0.429171
849.916002	0.429838
850.103105	0.430026
850.290190	0.430750
850.477256	0.431522
850.664304	0.431765
850.851334	0.432535
851.038346	0.433266
851.225340	0.433750
851.412315	0.434050
851.599272	0.434969
851.786211	0.435544
851.973132	0.436003
852.160034	0.435994
852.346918	0.436103
852.533784	0.436501
852.720632	0.436767
852.907462	0.437210
853.094273	0.438100
853.281066	0.438272
853.467841	0.438714
853.654598	0.439098
853.841336	0.439588
854.028056	0.440502
854.214758	0.440851
854.401442	0.441285
854.588107	0.441907
854.774755	0.442238
854.961384	0.442631
855.147995	0.443390
855.334587	0.443788
855.521162	0.444476
855.707718	0.444564
855.894256	0.444916
856.080775	0.445645
856.267277	0.445504
856.453760	0.445478
856.640225	0.445760
856.826672	0.445872
857.013101	0.446056
857.199511	0.445838
857.385903	0.446273
857.572277	0.446820
857.758633	0.447174
857.944970	0.448031
858.131290	0.448725
858.317591	0.449170
858.503873	0.449939
858.690138	0.450263
858.876384	0.451720
859.062612	0.452574
859.248822	0.452921
859.435014	0.453011
859.621188	0.453643
859.807343	0.454055
859.993480	0.454556
860.179599	0.454596
860.365699	0.455077
860.551781	0.455183
860.737846	0.455658
860.923891	0.456181
861.109919	0.456769
861.295929	0.456782
861.481920	0.457264
861.667893	0.457727
861.853848	0.458168
862.039784	0.458754
862.225702	0.458902
862.411603	0.458980
862.597484	0.459683
862.783348	0.460461
862.969193	0.460996
863.155021	0.461040
863.340830	0.461437
863.526620	0.461710
863.712393	0.462055
863.898147	0.462697
864.083883	0.463164
864.269601	0.462850
864.455301	0.463036
864.640982	0.463387
864.826645	0.464136
865.012290	0.464696
865.197917	0.465030
865.383526	0.465793
865.569116	0.465899
865.754688	0.466320
865.940242	0.466896
866.125777	0.467328
866.311295	0.467803
866.496794	0.468759
866.682275	0.468893
866.867737	0.469578
867.053182	0.469407
867.238608	0.469879
867.424016	0.470301
867.609406	0.470947
867.794778	0.470749
867.980131	0.471036
868.165466	0.470544
868.350783	0.470668
868.536082	0.470556
868.721362	0.470702
868.906625	0.471094
869.091869	0.471463
869.277094	0.471144
869.462302	0.471719
869.647491	0.472260
869.832662	0.472251
870.017815	0.472464
870.202950	0.472896
870.388066	0.473833
870.573165	0.474364
870.758245	0.474770
870.943306	0.475328
871.128350	0.475389
871.313375	0.475433
871.498382	0.475969
871.683371	0.476819
871.868342	0.477259
872.053294	0.477263
872.238229	0.477005
872.423144	0.476723
872.608042	0.477107
872.792922	0.477568
872.977783	0.477887
873.162626	0.478221
873.347451	0.477769
873.532258	0.477936
873.717046	0.478002
873.901816	0.478619
874.086568	0.478952
874.271302	0.479283
874.456017	0.479280
874.640715	0.479525
874.825394	0.479652
875.010055	0.480003
875.194697	0.480651
875.379322	0.481596
875.563928	0.481764
875.748516	0.482330
875.933085	0.482684
876.117637	0.483087
876.302170	0.483652
876.486685	0.484163
876.671182	0.484849
876.855661	0.484402
877.040121	0.484406
877.224563	0.484651
877.408987	0.484835
877.593393	0.485106
877.777780	0.485560
877.962150	0.485864
878.146501	0.485913
878.330833	0.485728
878.515148	0.486023
878.699444	0.485726
878.883722	0.485975
879.067982	0.486217
879.252224	0.486373
879.436447	0.486238
879.620653	0.486048
879.804840	0.486003
879.989008	0.485723
880.173159	0.486256
880.357291	0.486817
880.541405	0.486520
880.725501	0.486745
880.909579	0.486523
881.093638	0.487103
881.277680	0.487150
881.461703	0.487440
881.645707	0.488273
881.829694	0.488019
882.013662	0.487814
882.197612	0.488022
882.381544	0.488381
882.565458	0.488661
882.749353	0.488486
882.933230	0.488665
883.117089	0.489338
883.300930	0.489440
883.484753	0.489752
883.668557	0.490271
883.852343	0.490141
884.036111	0.489182
884.219861	0.489329
884.403592	0.489415
884.587305	0.489470
884.771000	0.489156
884.954677	0.489304
885.138335	0.488954
885.321976	0.488580
885.505598	0.488652
885.689201	0.489395
885.872787	0.489056
886.056354	0.489357
886.239904	0.489388
886.423434	0.489144
886.606947	0.488844
886.790442	0.489315
886.973918	0.489678
887.157376	0.489808
887.340816	0.489750
887.524237	0.489711
887.707641	0.489357
887.891026	0.489338
888.074393	0.489908
888.257741	0.489825
888.441072	0.489731
888.624384	0.489749
888.807678	0.489774
888.990954	0.489577
889.174211	0.489807
889.357451	0.490012
889.540672	0.490356
889.723875	0.490517
889.907059	0.490195
890.090226	0.490234
890.273374	0.489827
890.456504	0.489771
890.639616	0.490099
890.822709	0.489989
891.005785	0.490183
891.188842	0.489494
891.371881	0.488992
891.554901	0.489104
891.737904	0.489048
891.920888	0.489405
892.103854	0.489513
892.286802	0.489238
892.469731	0.489111
892.652643	0.488792
892.835536	0.488778
893.018410	0.488409
893.201267	0.488882
893.384106	0.488992
893.566926	0.488543
893.749728	0.488571
893.932511	0.488321
894.115277	0.488103
894.298024	0.487888
894.480753	0.487745
894.663464	0.487287
894.846157	0.487248
895.028831	0.486772
895.211487	0.486968
895.394125	0.486526
895.576745	0.486060
895.759346	0.486586
895.941930	0.486501
896.124495	0.486565
896.307041	0.486973
896.489570	0.486685
896.672080	0.486330
896.854573	0.485743
897.037046	0.485929
897.219502	0.485344
897.401940	0.484468
897.584359	0.484031
897.766760	0.483687
897.949143	0.483181
898.131507	0.482769
898.313854	0.483143
898.496182	0.482879
898.678492	0.482206
898.860783	0.482669
899.043057	0.482623
899.225312	0.482500
899.407549	0.482135
899.589768	0.481745
899.771968	0.481500
899.954151	0.481174
900.136315	0.481400
900.318461	0.480938
900.500588	0.480712
900.682698	0.480196
900.864789	0.479862
901.046862	0.479155
901.228917	0.478409
901.410953	0.477995
901.592971	0.477617
901.774972	0.476897
901.956953	0.476667
902.138917	0.476098
902.320862	0.475672
902.502790	0.475503
902.684699	0.475947
902.866589	0.475856
903.048462	0.475622
903.230316	0.474894
903.412152	0.474711
903.593970	0.475289
903.775770	0.475260
903.957551	0.475479
904.139314	0.474932
904.321059	0.474455
904.502786	0.474597
904.684494	0.474179
904.866185	0.474423
905.047857	0.473831
905.229510	0.472504
905.411146	0.471669
905.592763	0.470833
905.774363	0.470220
905.955943	0.469395
906.137506	0.468990
906.319051	0.468006
906.500577	0.467053
906.682085	0.466540
906.863575	0.465865
907.045046	0.465679
907.226500	0.465156
907.407935	0.464727
907.589352	0.464288
907.770750	0.463422
907.952131	0.463618
908.133493	0.462799
908.314837	0.463092
908.496163	0.463266
908.677470	0.462669
908.858760	0.462144
909.040031	0.461409
909.221284	0.461309
909.402518	0.461269
909.583735	0.460420
909.764933	0.460428
909.946113	0.459258
910.127275	0.458609
910.308418	0.457976
910.489544	0.457860
910.670651	0.457860
910.851740	0.456782
911.032810	0.456035
911.213863	0.455783
911.394897	0.455120
911.575913	0.454315
911.756911	0.453861
911.937890	0.453347
912.118851	0.451977
912.299794	0.451475
912.480719	0.451400
912.661626	0.450896
912.842514	0.450288
913.023384	0.449918
913.204236	0.449700
913.385070	0.448172
913.565886	0.447040
913.746683	0.447094
913.927462	0.446568
914.108223	0.444925
914.288965	0.444059
914.469690	0.443296
914.650396	0.442155
914.831084	0.441222
915.011754	0.441267
915.192405	0.441273
915.373038	0.440200
915.553653	0.439522
915.734250	0.439812
915.914829	0.439259
916.095389	0.438521
916.275931	0.437974
916.456455	0.437571
916.636961	0.436509
916.817448	0.435988
916.997917	0.435429
917.178368	0.434368
917.358801	0.433665
917.539216	0.432898
917.719612	0.432330
917.899990	0.431589
918.080350	0.430945
918.260692	0.430651
918.441015	0.429596
918.621320	0.428901
918.801607	0.428524
918.981876	0.427460
919.162127	0.426896
919.342359	0.426254
919.522573	0.425110
919.702769	0.423900
919.882947	0.422786
920.063106	0.421736
920.243247	0.421079
920.423370	0.419777
920.603475	0.418753
920.783562	0.417754
920.963630	0.416262
921.143680	0.415777
921.323712	0.415062
921.503725	0.415523
921.683721	0.414641
921.863698	0.413951
922.043657	0.413052
922.223598	0.412314
922.403520	0.411223
922.583424	0.410819
922.763311	0.410153
922.943178	0.409898
923.123028	0.408257
923.302859	0.407771
923.482673	0.407668
923.662467	0.407907
923.842244	0.407748
924.022003	0.406939
924.201743	0.405238
924.381465	0.404051
924.561169	0.402789
924.740854	0.401880
924.920522	0.401295
925.100171	0.399725
925.279802	0.397884
925.459414	0.396729
925.639009	0.395598
925.818585	0.395945
925.998143	0.395537
926.177683	0.394657
926.357205	0.393589
926.536708	0.392250
926.716193	0.390697
926.895660	0.390045
927.075109	0.388427
927.254539	0.388172
927.433951	0.387017
927.613345	0.385987
927.792721	0.384917
927.972079	0.383840
928.151418	0.382658
928.330739	0.381924
928.510042	0.380528
928.689327	0.380108
928.868593	0.379474
929.047841	0.377818
929.227071	0.376235
929.406283	0.374782
929.585476	0.373730
929.764652	0.372867
929.943809	0.372314
930.122948	0.371729
930.302068	0.371042
930.481171	0.369539
930.660255	0.368232
930.839321	0.367486
931.018369	0.367313
931.197398	0.366118
931.376409	0.365283
931.555402	0.363425
931.734377	0.362664
931.913334	0.361190
932.092272	0.359953
932.271192	0.359725
932.450094	0.358110
932.628978	0.356103
932.807844	0.355382
932.986691	0.354624
933.165520	0.354392
933.344331	0.353277
933.523123	0.351247
933.701898	0.350053
933.880654	0.348900
934.059392	0.348617
934.238111	0.347391
934.416813	0.345771
934.595496	0.344461
934.774161	0.343431
934.952808	0.342404
935.131437	0.342948
935.310047	0.342004
935.488639	0.341149
935.667213	0.339525
935.845769	0.338998
936.024306	0.338434
936.202825	0.336683
936.381326	0.335317
936.559809	0.333438
936.738274	0.331115
936.916720	0.329887
937.095148	0.328019
937.273558	0.326969
937.451950	0.326510
937.630323	0.325294
937.808678	0.324835
937.987015	0.323375
938.165334	0.322662
938.343635	0.321998
938.521917	0.321325
938.700181	0.320472
938.878427	0.320302
939.056655	0.318451
939.234864	0.317485
939.413055	0.317091
939.591228	0.316746
939.769383	0.315557
939.947519	0.314625
940.125638	0.312711
940.303738	0.311910
940.481820	0.309896
940.659883	0.307822
940.837929	0.305545
941.015956	0.302603
941.193965	0.299568
941.371955	0.297772
941.549928	0.295959
941.727882	0.293986
941.905818	0.292647
942.083736	0.291792
942.261636	0.291062
942.439517	0.290583
942.617380	0.289454
942.795225	0.290276
942.973052	0.290239
943.150860	0.289440
943.328651	0.288500
943.506423	0.287959
943.684176	0.286527
943.861912	0.285757
944.039629	0.284315
944.217328	0.283915
944.395009	0.280307
944.572672	0.277160
944.750317	0.275762
944.927943	0.275271
945.105551	0.273062
945.283141	0.272658
945.460712	0.271548
945.638265	0.269835
945.815801	0.268891
945.993317	0.268056
946.170816	0.266599
946.348297	0.265654
946.525759	0.263366
946.703203	0.261600
946.880629	0.259527
947.058036	0.257664
947.235425	0.256860
947.412797	0.255255
947.590149	0.254511
947.767484	0.254064
947.944800	0.251694
948.122099	0.251321
948.299379	0.250695
948.476640	0.248345
948.653884	0.248011
948.831109	0.246205
949.008316	0.243356
949.185505	0.241239
949.362676	0.239746
949.539828	0.239542
949.716962	0.238744
949.894078	0.237010
950.071176	0.235163
950.248256	0.231795
950.425317	0.231294
950.602360	0.231133
950.779385	0.230699
950.956391	0.230330
951.133380	0.228444
951.310350	0.225618
951.487302	0.223320
951.664235	0.224134
951.841151	0.223608
952.018048	0.222011
952.194927	0.220600
952.371788	0.220414
952.548631	0.218349
952.725455	0.217193
952.902261	0.218111
953.079049	0.218812
953.255819	0.216802
953.432570	0.216159
953.609303	0.214547
953.786018	0.214575
953.962715	0.212618
954.139394	0.210047
954.316054	0.209457
954.492696	0.206012
954.669320	0.203499
954.845926	0.201569
955.022513	0.200384
955.199083	0.198641
955.375634	0.195341
955.552166	0.192303
955.728681	0.191616
955.905177	0.188747
956.081655	0.188831
956.258115	0.189081
956.434557	0.187120
956.610980	0.186581
956.787385	0.185663
956.963772	0.184659
957.140141	0.185118
957.316492	0.185126
957.492824	0.186344
957.669138	0.184715
957.845434	0.183500
958.021712	0.185809
958.197971	0.183682
958.374212	0.186640
958.550435	0.186885
958.726640	0.185906
958.902826	0.185202
959.078995	0.182533
959.255145	0.182002
959.431277	0.180033
959.607390	0.177916
959.783486	0.177148
959.959563	0.172980
960.135622	0.172976
960.311662	0.172280
960.487685	0.170391
960.663689	0.173053
960.839675	0.173694
961.015643	0.173288
961.191593	0.172559
961.367524	0.172640
961.543437	0.172377
961.719332	0.171520
961.895209	0.170696
962.071067	0.171167
962.246907	0.167897
962.422730	0.167256
962.598533	0.165564
962.774319	0.165376
962.950086	0.166264
963.125835	0.163141
963.301566	0.163435
963.477279	0.165798
963.652973	0.165040
963.828650	0.163871
964.004308	0.162242
964.179947	0.163022
964.355569	0.161022
964.531172	0.159502
964.706757	0.160911
964.882324	0.161202
965.057873	0.158312
965.233403	0.158039
965.408916	0.157553
965.584410	0.156180
965.759885	0.155642
965.935343	0.157147
966.110782	0.157714
966.286203	0.157931
966.461606	0.155503
966.636991	0.154890
966.812357	0.155901
966.987705	0.156152
967.163035	0.156704
967.338347	0.156038
967.513641	0.156123
967.688916	0.155095
967.864173	0.155847
968.039412	0.154881
968.214632	0.155767
968.389835	0.155183
968.565019	0.155648
968.740185	0.156073
968.915333	0.156147
969.090462	0.154758
969.265573	0.155040
969.440667	0.152914
969.615741	0.151462
969.790798	0.151166
969.965836	0.149863
970.140856	0.147658
970.315858	0.146082
970.490842	0.144240
970.665808	0.144115
970.840755	0.142030
971.015684	0.144076
971.190595	0.147234
971.365487	0.144775
971.540362	0.145891
971.715218	0.149226
971.890056	0.150480
972.064875	0.152081
972.239677	0.150979
972.414460	0.153021
972.589225	0.154339
972.763972	0.154299
972.938700	0.156558
973.113411	0.156397
973.288103	0.153643
973.462777	0.154221
973.637432	0.154904
973.812070	0.155325
973.986689	0.154084
974.161290	0.152164
974.335873	0.150492
974.510437	0.150593
974.684984	0.148683
974.859512	0.150826
975.034022	0.148002
975.208513	0.148821
975.382987	0.147805
975.557442	0.148335
975.731879	0.146351
975.906298	0.146791
976.080698	0.146305
976.255080	0.147386
976.429445	0.147533
976.603790	0.150419
976.778118	0.147421
976.952427	0.150160
977.126719	0.149764
977.300992	0.151753
977.475246	0.152728
977.649483	0.153965
977.823701	0.154132
977.997901	0.154589
978.172083	0.152799
978.346247	0.155114
978.520392	0.153590
978.694519	0.153230
978.868628	0.153106
979.042719	0.152609
979.216791	0.152720
979.390845	0.154660
979.564882	0.151512
979.738899	0.153535
979.912899	0.153040
980.086880	0.152922
980.260843	0.152794
980.434788	0.153107
980.608715	0.152979
980.782623	0.153337
980.956514	0.153555
981.130386	0.154229
981.304240	0.153797
981.478075	0.156407
981.651892	0.157180
981.825692	0.157846
981.999472	0.158580
982.173235	0.158370
982.346980	0.155846
982.520706	0.153588
982.694414	0.153896
982.868104	0.152871
983.041775	0.150523
983.215428	0.147701
983.389064	0.149659
983.562680	0.148245
983.736279	0.149462
983.909860	0.150020
984.083422	0.150529
984.256966	0.152637
984.430491	0.154395
984.603999	0.154819
984.777488	0.156900
984.950959	0.155337
985.124412	0.156286
985.297847	0.154284
985.471263	0.154680
985.644661	0.154206
985.818041	0.152751
985.991403	0.153034
986.164747	0.152405
986.338072	0.153707
986.511379	0.151776
986.684668	0.153379
986.857938	0.155627
987.031191	0.158080
987.204425	0.157678
987.377641	0.158293
987.550839	0.156576
987.724018	0.156698
987.897179	0.156472
988.070322	0.158226
988.243447	0.156183
988.416554	0.154789
988.589642	0.154354
988.762712	0.156377
988.935764	0.156034
989.108798	0.157122
989.281813	0.158320
989.454811	0.159473
989.627790	0.160848
989.800751	0.160538
989.973693	0.160823
990.146617	0.157628
990.319524	0.157369
990.492412	0.155096
990.665281	0.155816
990.838133	0.156680
991.010966	0.155155
991.183781	0.154322
991.356578	0.155293
991.529356	0.155492
991.702117	0.157976
991.874859	0.157615
992.047583	0.160888
992.220288	0.158880
992.392976	0.157718
992.565645	0.158627
992.738296	0.157498
992.910929	0.158419
993.083543	0.156197
993.256139	0.156738
993.428718	0.156705
993.601277	0.156172
993.773819	0.156746
993.946342	0.155323
994.118848	0.155312
994.291335	0.156782
994.463803	0.155435
994.636254	0.157274
994.808686	0.156180
994.981100	0.154230
995.153496	0.154287
995.325874	0.155029
995.498233	0.156943
995.670574	0.156236
995.842897	0.155311
996.015202	0.156538
996.187488	0.157425
996.359757	0.157597
996.532007	0.158707
996.704239	0.158391
996.876452	0.157457
997.048648	0.156967
997.220825	0.158201
997.392984	0.157749
997.565124	0.156055
997.737247	0.155059
997.909351	0.155048
998.081437	0.155226
998.253505	0.154631
998.425554	0.155377
998.597586	0.155783
998.769599	0.153005
998.941594	0.153396
999.113571	0.151993
999.285529	0.152584
999.457469	0.151156
999.629391	0.152370
999.801295	0.151453
999.973181	0.151968
1000.145048	0.150439
1000.316897	0.152790
1000.488728	0.153260
1000.660541	0.156458
1000.832335	0.156613
1001.004111	0.159394
1001.175869	0.159020
1001.347609	0.159214
1001.519331	0.159308
1001.691034	0.159417
1001.862719	0.160097
1002.034386	0.160813
1002.206035	0.159784
1002.377665	0.158147
1002.549277	0.157925
1002.720871	0.158632
1002.892447	0.159138
1003.064004	0.157389
1003.235544	0.158050
1003.407065	0.157634
1003.578568	0.156249
1003.750052	0.156167
1003.921519	0.157598
1004.092967	0.156623
1004.264397	0.154247
1004.435809	0.153918
1004.607202	0.156324
1004.778577	0.155881
1004.949934	0.155607
1005.121273	0.156069
1005.292594	0.156593
1005.463896	0.155890
1005.635180	0.152939
1005.806446	0.155778
1005.977694	0.157164
1006.148923	0.156189
1006.320135	0.154911
1006.491328	0.154268
1006.662503	0.154914
1006.833659	0.154604
1007.004798	0.154901
1007.175918	0.157501
1007.347020	0.154877
1007.518103	0.154139
1007.689169	0.154810
1007.860216	0.155146
1008.031245	0.155099
1008.202256	0.155184
1008.373248	0.155744
1008.544223	0.155512
1008.715179	0.156629
1008.886117	0.157870
1009.057036	0.158504
1009.227938	0.156179
1009.398821	0.156825
1009.569686	0.157684
1009.740533	0.157388
1009.911361	0.157725
1010.082172	0.157745
1010.252964	0.157375
1010.423738	0.157622
1010.594493	0.157682
1010.765231	0.158320
1010.935950	0.158569
1011.106651	0.157816
1011.277334	0.157554
1011.447998	0.157547
1011.618645	0.157469
1011.789273	0.157046
1011.959882	0.157050
1012.130474	0.156292
1012.301048	0.155463
1012.471603	0.156174
1012.642140	0.155453
1012.812658	0.154827
1012.983159	0.153827
1013.153641	0.154893
1013.324105	0.155599
1013.494551	0.154413
1013.664979	0.153694
1013.835388	0.153585
1014.005779	0.154661
1014.176152	0.155378
1014.346507	0.155685
1014.516843	0.154116
1014.687162	0.153465
1014.857462	0.153373
1015.027744	0.154781
1015.198007	0.155589
1015.368252	0.156954
1015.538480	0.156278
1015.708689	0.155438
1015.878879	0.156372
1016.049052	0.157521
1016.219206	0.156803
1016.389342	0.155483
1016.559460	0.154360
1016.729559	0.153312
1016.899641	0.150753
1017.069704	0.149988
1017.239749	0.149860
1017.409775	0.149979
1017.579784	0.149760
1017.749774	0.150302
1017.919746	0.151083
1018.089700	0.153139
1018.259635	0.154233
1018.429553	0.157308
1018.599452	0.156632
1018.769333	0.155954
1018.939195	0.155351
1019.109040	0.155519
1019.278866	0.157482
1019.448674	0.155761
1019.618464	0.154161
1019.788235	0.154803
1019.957989	0.154628
1020.127724	0.155965
1020.297441	0.158113
1020.467139	0.157451
1020.636820	0.159515
1020.806482	0.155817
1020.976126	0.155875
1021.145752	0.155827
1021.315359	0.154541
1021.484948	0.156164
1021.654519	0.157275
1021.824072	0.158279
1021.993607	0.157968
1022.163123	0.155066
1022.332621	0.157608
1022.502101	0.158493
1022.671563	0.158489
1022.841007	0.158902
1023.010432	0.157145
1023.179839	0.156057
1023.349228	0.155867
1023.518598	0.157499
1023.687951	0.158381
1023.857285	0.158189
1024.026601	0.159671
1024.195899	0.158471
1024.365178	0.160423
1024.534439	0.159268
1024.703682	0.157908
1024.872907	0.156548
1025.042114	0.154606
1025.211302	0.153686
1025.380472	0.154361
1025.549624	0.153623
1025.718758	0.152763
1025.887873	0.150763
1026.056970	0.152557
1026.226049	0.152723
1026.395110	0.151704
1026.564153	0.151997
1026.733177	0.151934
1026.902183	0.151402
1027.071171	0.152001
1027.240141	0.153451
1027.409092	0.152624
1027.578026	0.151615
1027.746940	0.152240
1027.915837	0.151699
1028.084716	0.153184
1028.253576	0.153718
1028.422418	0.153682
1028.591242	0.152804
1028.760048	0.152169
1028.928835	0.154209
1029.097604	0.155281
1029.266355	0.155822
1029.435088	0.157808
1029.603803	0.157178
1029.772499	0.157385
1029.941177	0.154940
1030.109837	0.155847
1030.278478	0.158611
1030.447102	0.157217
1030.615707	0.156698
1030.784294	0.156132
1030.952863	0.156800
1031.121413	0.154223
1031.289945	0.153860
1031.458460	0.156707
1031.626955	0.155070
1031.795433	0.151137
1031.963892	0.152696
1032.132334	0.151574
1032.300756	0.151652
1032.469161	0.150084
1032.637548	0.152767
1032.805916	0.153697
1032.974266	0.152916
1033.142598	0.153927
1033.310911	0.157368
1033.479207	0.155672
1033.647484	0.155450
1033.815743	0.153614
1033.983983	0.154486
1034.152206	0.152903
1034.320410	0.154135
1034.488596	0.154191
1034.656764	0.154566
1034.824914	0.153303
1034.993045	0.154286
1035.161158	0.154898
1035.329253	0.156292
1035.497330	0.156971
1035.665388	0.158738
1035.833428	0.158231
1036.001450	0.157982
1036.169454	0.157469
1036.337440	0.157218
1036.505407	0.157491
1036.673356	0.158248
1036.841287	0.160972
1037.009200	0.159968
1037.177094	0.159937
1037.344970	0.158980
1037.512828	0.158665
1037.680668	0.158371
1037.848489	0.159037
1038.016293	0.159212
1038.184078	0.158302
1038.351845	0.156726
1038.519593	0.155750
1038.687324	0.154024
1038.855036	0.153856
1039.022730	0.154629
1039.190406	0.155317
1039.358063	0.155968
1039.525702	0.154776
1039.693323	0.155129
1039.860926	0.153746
1040.028511	0.155048
1040.196077	0.157616
1040.363625	0.158373
1040.531155	0.158210
1040.698667	0.157018
1040.866161	0.156440
1041.033636	0.157652
1041.201093	0.157308
1041.368532	0.156643
1041.535952	0.158519
1041.703355	0.157790
1041.870739	0.155018
1042.038105	0.154363
1042.205452	0.155313
1042.372782	0.154658
1042.540093	0.152799
1042.707386	0.153491
1042.874661	0.154471
1043.041918	0.150668
1043.209156	0.148997
1043.376376	0.151910
1043.543578	0.151858
1043.710762	0.149696
1043.877927	0.148813
1044.045074	0.149427
1044.212203	0.148993
1044.379314	0.148292
1044.546407	0.150411
1044.713481	0.150400
1044.880537	0.149227
1045.047575	0.150166
1045.214595	0.153993
1045.381596	0.154944
1045.548579	0.156202
1045.715544	0.156478
1045.882491	0.159945
1046.049420	0.158057
1046.216330	0.159016
1046.383222	0.158831
1046.550096	0.159072
1046.716951	0.156478
1046.883789	0.158141
1047.050608	0.156995
1047.217409	0.155924
1047.384192	0.156205
1047.550956	0.157260
1047.717703	0.159487
1047.884431	0.159795
1048.051140	0.157266
1048.217832	0.156841
1048.384505	0.154392
1048.551161	0.156320
1048.717798	0.156573
1048.884416	0.155303
1049.051017	0.155418
1049.217599	0.153716
1049.384163	0.154937
1049.550709	0.156759
1049.717237	0.158641
1049.883746	0.159136
1050.050237	0.157338
1050.216710	0.158878
1050.383165	0.158122
1050.549601	0.159186
1050.716019	0.159810
1050.882420	0.161405
1051.048801	0.163037
1051.215165	0.161570
1051.381510	0.160850
1051.547837	0.160211
1051.714146	0.159704
1051.880437	0.159944
1052.046709	0.159488
1052.212964	0.159975
1052.379200	0.156020
1052.545417	0.155240
1052.711617	0.156951
1052.877798	0.157079
1053.043961	0.157357
1053.210106	0.157115
1053.376233	0.155929
1053.542341	0.154399
1053.708432	0.153608
1053.874504	0.154617
1054.040557	0.154887
1054.206593	0.153317
1054.372610	0.153140
1054.538609	0.154205
1054.704590	0.153422
1054.870553	0.153947
1055.036497	0.155350
1055.202424	0.154403
1055.368331	0.153771
1055.534221	0.154118
1055.700093	0.154638
1055.865946	0.156101
1056.031781	0.153844
1056.197598	0.153616
1056.363397	0.154764
1056.529177	0.152821
1056.694939	0.153180
1056.860683	0.153684
1057.026409	0.150107
1057.192116	0.148352
1057.357806	0.148768
1057.523477	0.149455
1057.689130	0.151467
1057.854764	0.149824
1058.020381	0.150684
1058.185979	0.148673
1058.351559	0.149605
1058.517120	0.152302
1058.682664	0.152233
1058.848189	0.152728
1059.013696	0.154426
1059.179185	0.152523
1059.344656	0.152028
1059.510108	0.153005
1059.675542	0.154755
1059.840958	0.155629
1060.006356	0.154467
1060.171735	0.157708
1060.337096	0.156850
1060.502439	0.158140
1060.667764	0.160808
1060.833071	0.162559
1060.998359	0.162817
1061.163629	0.163724
1061.328881	0.162559
1061.494115	0.161480
1061.659330	0.158143
1061.824527	0.157651
1061.989706	0.156830
1062.154867	0.155672
1062.320010	0.156710
1062.485134	0.156422
1062.650240	0.155141
1062.815328	0.156452
1062.980398	0.160356
1063.145449	0.163268
1063.310482	0.162905
1063.475497	0.162721
1063.640494	0.160408
1063.805473	0.159603
1063.970433	0.160209
1064.135375	0.161989
1064.300299	0.160507
1064.465204	0.157359
1064.630092	0.157019
1064.794961	0.157030
1064.959812	0.157250
1065.124645	0.160697
1065.289459	0.159861
1065.454256	0.159345
1065.619034	0.159111
1065.783793	0.159504
1065.948535	0.160857
1066.113258	0.160573
1066.277964	0.163312
1066.442651	0.161350
1066.607319	0.159237
1066.771970	0.158367
1066.936602	0.160995
1067.101216	0.160515
1067.265812	0.160995
1067.430389	0.162159
1067.594949	0.160811
1067.759490	0.158459
1067.924013	0.159064
1068.088518	0.161869
1068.253004	0.163625
1068.417472	0.160834
1068.581922	0.160112
1068.746354	0.159814
1068.910768	0.161569
1069.075163	0.164232
1069.239540	0.165919
1069.403899	0.168463
1069.568240	0.169743
1069.732562	0.169349
1069.896866	0.170979
1070.061152	0.172129
1070.225420	0.172481
1070.389670	0.169340
1070.553901	0.171180
1070.718114	0.174500
1070.882309	0.173052
1071.046486	0.170704
1071.210644	0.169521
1071.374784	0.167336
1071.538906	0.167381
1071.703010	0.165141
1071.867096	0.166620
1072.031163	0.164579
1072.195212	0.162660
1072.359243	0.162879
1072.523256	0.163355
1072.687250	0.163906
1072.851226	0.166359
1073.015184	0.164779
1073.179124	0.166533
1073.343045	0.163876
1073.506949	0.166500
1073.670834	0.165775
1073.834701	0.165909
1073.998549	0.164742
1074.162380	0.164946
1074.326192	0.163555
1074.489986	0.165497
1074.653761	0.165301
1074.817519	0.167455
1074.981258	0.163420
1075.144979	0.162895
1075.308682	0.163305
1075.472367	0.162320
1075.636033	0.163851
1075.799681	0.164945
1075.963311	0.164049
1076.126923	0.164463
1076.290516	0.163533
1076.454092	0.164250
1076.617649	0.162547
1076.781187	0.162450
1076.944708	0.164736
1077.108210	0.164047
1077.271695	0.164445
1077.435160	0.167119
1077.598608	0.167430
1077.762038	0.168543
1077.925449	0.169497
1078.088842	0.170511
1078.252217	0.170537
1078.415573	0.172000
1078.578912	0.173526
1078.742232	0.172483
1078.905534	0.169662
1079.068817	0.170830
1079.232083	0.169975
1079.395330	0.171430
1079.558559	0.172987
1079.721770	0.172863
1079.884962	0.169966
1080.048136	0.172589
1080.211293	0.173073
1080.374430	0.175325
1080.537550	0.174659
1080.700651	0.173790
1080.863735	0.169996
1081.026800	0.169442
1081.189846	0.171059
1081.352875	0.172381
1081.515885	0.169866
1081.678877	0.170547
1081.841851	0.166425
1082.004807	0.164925
1082.167744	0.166327
1082.330663	0.167416
1082.493564	0.166612
1082.656447	0.164938
1082.819312	0.165387
1082.982158	0.162906
1083.144986	0.161759
1083.307796	0.164827
1083.470587	0.164874
1083.633361	0.166178
1083.796116	0.165144
1083.958853	0.166031
1084.121571	0.168801
1084.284272	0.168285
1084.446954	0.172136
1084.609618	0.171731
1084.772264	0.172544
1084.934892	0.173043
1085.097501	0.169774
1085.260092	0.171891
1085.422665	0.172183
1085.585220	0.171554
1085.747756	0.171441
1085.910274	0.170704
1086.072774	0.171738
1086.235256	0.170874
1086.397720	0.171944
1086.560165	0.175925
1086.722592	0.176910
1086.885001	0.175387
1087.047392	0.173264
1087.209764	0.172585
1087.372119	0.173210
1087.534455	0.171812
1087.696772	0.169030
1087.859072	0.167009
1088.021353	0.167970
1088.183616	0.166779
1088.345861	0.166762
1088.508088	0.170053
1088.670296	0.171934
1088.832486	0.169108
1088.994658	0.172095
1089.156812	0.175757
1089.318948	0.180026
1089.481065	0.177587
1089.643164	0.178867
1089.805245	0.180411
1089.967308	0.180564
1090.129352	0.181962
1090.291378	0.182987
1090.453386	0.181942
1090.615376	0.182653
1090.777347	0.183950
1090.939301	0.182690
1091.101236	0.180187
1091.263153	0.180504
1091.425051	0.176408
1091.586932	0.171232
1091.748794	0.169975
1091.910638	0.170226
1092.072463	0.170340
1092.234271	0.167226
1092.396060	0.169066
1092.557831	0.171474
1092.719584	0.170135
1092.881319	0.168395
1093.043035	0.171634
1093.204733	0.171536
1093.366413	0.172036
1093.528075	0.171876
1093.689718	0.175569
1093.851343	0.177648
1094.012950	0.176589
1094.174539	0.178432
1094.336110	0.181216
1094.497662	0.179837
1094.659196	0.182034
1094.820712	0.184290
1094.982210	0.185404
1095.143689	0.183319
1095.305151	0.182281
1095.466594	0.183518
1095.628018	0.180284
1095.789425	0.181524
1095.950813	0.183482
1096.112183	0.181021
1096.273535	0.175454
1096.434869	0.177686
1096.596184	0.174701
1096.757482	0.174970
1096.918761	0.176856
1097.080021	0.178089
1097.241264	0.176400
1097.402488	0.176039
1097.563694	0.177454
1097.724882	0.179849
1097.886052	0.176504
1098.047203	0.180312
1098.208336	0.176646
1098.369451	0.175017
1098.530548	0.172581
1098.691627	0.171923
1098.852687	0.171147
1099.013729	0.171470
1099.174753	0.170902
1099.335758	0.173468
1099.496746	0.172650
1099.657715	0.173803
1099.818666	0.173527
1099.979599	0.176932
1100.140513	0.180615
1100.301409	0.183138
1100.462287	0.187225
1100.623147	0.186196
1100.783989	0.185992
1100.944812	0.184057
1101.105617	0.186269
1101.266404	0.181580
1101.427173	0.184814
1101.587923	0.184977
1101.748656	0.182790
1101.909370	0.179490
1102.070066	0.180558
1102.230743	0.175035
1102.391403	0.175350
1102.552044	0.176468
1102.712667	0.180770
1102.873271	0.180410
1103.033858	0.178337
1103.194426	0.179646
1103.354976	0.180194
1103.515508	0.182387
1103.676021	0.182643
1103.836517	0.185391
1103.996994	0.183227
1104.157453	0.183500
1104.317893	0.182497
1104.478316	0.182544
1104.638720	0.185543
1104.799106	0.188177
1104.959474	0.188374
1105.119823	0.189999
1105.280155	0.189837
1105.440468	0.187394
1105.600763	0.189403
1105.761039	0.189486
1105.921298	0.194194
1106.081538	0.192381
1106.241760	0.189166
1106.401964	0.188663
1106.562149	0.190323
1106.722316	0.189179
1106.882465	0.191554
1107.042596	0.192321
1107.202709	0.192754
1107.362803	0.190152
1107.522879	0.193483
1107.682937	0.194206
1107.842977	0.193185
1108.002999	0.192123
1108.163002	0.198150
1108.322987	0.200834
1108.482954	0.200180
1108.642902	0.197095
1108.802833	0.195979
1108.962745	0.191398
1109.122639	0.190407
1109.282515	0.189833
1109.442372	0.191101
1109.602211	0.183620
1109.762032	0.182322
1109.921835	0.178757
1110.081620	0.179939
1110.241386	0.181455
1110.401134	0.181462
1110.560864	0.179774
1110.720576	0.179493
1110.880269	0.177560
1111.039945	0.176699
1111.199602	0.176795
1111.359240	0.178415
1111.518861	0.180907
1111.678463	0.178741
1111.838047	0.180234
1111.997613	0.186196
1112.157161	0.186856
1112.316690	0.189921
1112.476202	0.192087
1112.635695	0.190043
1112.795169	0.189618
1112.954626	0.185749
1113.114064	0.185745
1113.273484	0.181506
1113.432886	0.174547
1113.592270	0.177733
1113.751635	0.176629
1113.910983	0.178299
1114.070312	0.182978
1114.229622	0.181691
1114.388915	0.185627
1114.548189	0.189110
1114.707445	0.193846
1114.866683	0.197667
1115.025903	0.192649
1115.185104	0.195551
1115.344287	0.194771
1115.503452	0.193848
1115.662599	0.199864
1115.821727	0.198395
1115.980838	0.195405
1116.139930	0.193000
1116.299004	0.196087
1116.458059	0.199695
1116.617097	0.196081
1116.776116	0.197943
1116.935117	0.201396
1117.094099	0.199273
1117.253064	0.199893
1117.412010	0.202769
1117.570938	0.201313
1117.729848	0.199356
1117.888740	0.200103
1118.047613	0.199932
1118.206468	0.201521
1118.365305	0.194671
1118.524124	0.193921
1118.682924	0.195493
1118.841707	0.194321
1119.000471	0.201906
1119.159216	0.202518
1119.317944	0.199491
1119.476653	0.198298
1119.635344	0.198903
1119.794017	0.199248
1119.952672	0.196184
1120.111308	0.199311
1120.269927	0.201074
1120.428527	0.198360
1120.587108	0.194037
1120.745672	0.200342
1120.904217	0.204328
1121.062744	0.201318
1121.221253	0.203935
1121.379744	0.207998
1121.538216	0.205651
1121.696671	0.205675
1121.855107	0.208323
1122.013524	0.214763
1122.171924	0.210513
1122.330305	0.212225
1122.488668	0.207936
1122.647013	0.210689
1122.805340	0.207431
1122.963648	0.204478
1123.121938	0.202273
1123.280210	0.195525
1123.438464	0.190752
1123.596700	0.187260
1123.754917	0.179042
1123.913116	0.184081
1124.071297	0.181167
1124.229459	0.189856
1124.387604	0.189905
1124.545730	0.192031
1124.703838	0.193125
1124.861928	0.191469
1125.019999	0.200999
1125.178052	0.205827
1125.336088	0.205745
1125.494104	0.207641
1125.652103	0.204882
1125.810083	0.199978
1125.968045	0.191043
1126.125989	0.192360
1126.283915	0.195190
1126.441823	0.189300
1126.599712	0.188155
1126.757583	0.188086
1126.915436	0.185646
1127.073270	0.179088
1127.231087	0.185891
1127.388885	0.196318
1127.546665	0.192596
1127.704426	0.192516
1127.862170	0.192940
1128.019895	0.193656
1128.177602	0.187609
1128.335291	0.187539
1128.492961	0.182817
1128.650614	0.183205
1128.808248	0.184660
1128.965864	0.187842
1129.123461	0.188438
1129.281041	0.187920
1129.438602	0.187034
1129.596145	0.194337
1129.753670	0.189693
1129.911176	0.191779
1130.068665	0.190599
1130.226135	0.190299
1130.383587	0.195057
1130.541020	0.192669
1130.698436	0.196379
1130.855833	0.195862
1131.013212	0.199589
1131.170573	0.202682
1131.327915	0.210638
1131.485239	0.209085
1131.642545	0.207956
1131.799833	0.200888
1131.957103	0.202552
1132.114354	0.193829
1132.271588	0.196691
1132.428803	0.186511
1132.585999	0.193115
1132.743178	0.191719
1132.900338	0.189019
1133.057480	0.181956
1133.214604	0.180595
1133.371710	0.182871
1133.528797	0.190363
1133.685866	0.188243
1133.842917	0.188442
1133.999950	0.178170
1134.156964	0.175197
1134.313960	0.184854
1134.470938	0.183836
1134.627898	0.185315
1134.784840	0.190674
1134.941763	0.187683
1135.098668	0.190127
1135.255555	0.196589
1135.412424	0.205159
1135.569274	0.206004
1135.726107	0.204438
1135.882921	0.202361
1136.039716	0.200639
1136.196494	0.193857
1136.353253	0.190260
1136.509995	0.191519
1136.666717	0.190152
1136.823422	0.191477
1136.980109	0.197274
1137.136777	0.196848
1137.293427	0.203153
1137.450059	0.211344
1137.606672	0.213470
1137.763267	0.215008
1137.919844	0.214218
1138.076403	0.211695
1138.232944	0.210057
1138.389466	0.203854
1138.545971	0.201841
1138.702457	0.204123
1138.858924	0.202779
1139.015374	0.194505
1139.171805	0.199592
1139.328218	0.203575
1139.484613	0.202675
1139.640990	0.197555
1139.797348	0.200564
1139.953688	0.196367
1140.110010	0.192949
1140.266314	0.193961
1140.422600	0.200549
1140.578867	0.200630
1140.735116	0.196074
1140.891347	0.194310
1141.047559	0.196363
1141.203754	0.195604
1141.359930	0.190899
1141.516088	0.190434
1141.672228	0.188411
1141.828349	0.190757
1141.984452	0.189067
1142.140537	0.182988
1142.296604	0.177287
1142.452653	0.175734
1142.608683	0.188371
1142.764695	0.192168
1142.920689	0.203663
1143.076665	0.196057
1143.232622	0.198601
1143.388562	0.201706
1143.544483	0.201088
1143.700385	0.208409
1143.856270	0.216490
1144.012136	0.200025
1144.167985	0.199439
1144.323814	0.194746
1144.479626	0.211225
1144.635420	0.208348
1144.791195	0.201613
1144.946952	0.210154
1145.102691	0.221834
1145.258411	0.216687
1145.414113	0.221487
1145.569798	0.228757
1145.725463	0.221365
1145.881111	0.210196
1146.036741	0.203878
1146.192352	0.209047
1146.347945	0.207428
1146.503519	0.199239
1146.659076	0.200357
1146.814614	0.201042
1146.970134	0.192336
1147.125636	0.192871
1147.281120	0.196959
1147.436585	0.204310
1147.592032	0.198066
1147.747461	0.206472
1147.902872	0.199855
1148.058265	0.200357
1148.213639	0.196260
1148.368995	0.204158
1148.524333	0.209528
1148.679653	0.202405
1148.834954	0.199752
1148.990237	0.206553
1149.145502	0.197834
1149.300749	0.208369
1149.455977	0.207127
1149.611188	0.205946
1149.766380	0.201724
1149.921553	0.201077
1150.076709	0.205527
1150.231846	0.206432
1150.386966	0.193327
1150.542066	0.193810
1150.697149	0.195365
1150.852214	0.194753
1151.007260	0.205458
1151.162288	0.206360
1151.317298	0.199930
1151.472289	0.204031
1151.627263	0.192647
1151.782218	0.210925
1151.937155	0.209046
1152.092073	0.197105
1152.246974	0.199696
1152.401856	0.192283
1152.556720	0.191500
1152.711566	0.199120
1152.866393	0.182625
1153.021203	0.189564
1153.175994	0.184844
1153.330767	0.181505
1153.485521	0.182232
1153.640258	0.182023
1153.794976	0.184369
1153.949676	0.189759
1154.104358	0.175295
1154.259021	0.191294
1154.413667	0.188708
1154.568294	0.182757
1154.722903	0.183609
1154.877493	0.192791
1155.032066	0.185326
1155.186620	0.183090
1155.341156	0.175799
1155.495674	0.192245
1155.650173	0.173548
1155.804654	0.178397
1155.959118	0.178718
1156.113562	0.183047
1156.267989	0.168029
1156.422397	0.174771
1156.576788	0.167888
1156.731160	0.175626
1156.885513	0.164520
1157.039849	0.173394
1157.194166	0.171166
1157.348465	0.174123
1157.502746	0.164548
1157.657009	0.166134
1157.811253	0.154485
1157.965479	0.148162
1158.119687	0.142911
1158.273877	0.147276
1158.428048	0.152722
1158.582201	0.159786
1158.736337	0.151533
1158.890453	0.157684
1159.044552	0.166326
1159.198632	0.173393
1159.352694	0.189076
1159.506738	0.187910
1159.660764	0.184446
1159.814771	0.177839
1159.968761	0.170540
1160.122732	0.186099
1160.276685	0.194157
1160.430619	0.185106
1160.584535	0.181612
1160.738434	0.185875
1160.892313	0.192183
1161.046175	0.197806
1161.200019	0.201248
1161.353844	0.196700
1161.507651	0.183716
1161.661440	0.177786
1161.815210	0.188924
1161.968962	0.186446
1162.122697	0.171119
1162.276412	0.160056
1162.430110	0.152873
1162.583789	0.150390
1162.737451	0.156401
1162.891094	0.161615
1163.044718	0.154765
1163.198325	0.151112
1163.351913	0.156003
1163.505483	0.165160
1163.659035	0.162690
1163.812569	0.150954
1163.966084	0.146108
1164.119581	0.151308
1164.273060	0.156855
1164.426521	0.164534
1164.579964	0.168573
1164.733388	0.165579
1164.886794	0.153569
1165.040182	0.165714
1165.193551	0.170842
1165.346903	0.183272
1165.500236	0.177213
1165.653551	0.176284
1165.806848	0.175359
1165.960126	0.167491
1166.113386	0.173466
1166.266628	0.179667
1166.419852	0.168144
1166.573058	0.172661
1166.726245	0.165554
1166.879414	0.163211
1167.032565	0.157462
1167.185698	0.154254
1167.338812	0.153475
1167.491909	0.157417
1167.644987	0.155450
1167.798046	0.153463
1167.951088	0.155409
1168.104111	0.154059
1168.257117	0.146192
1168.410103	0.141953
1168.563072	0.137272
1168.716023	0.140131
1168.868955	0.133359
1169.021869	0.143921
1169.174765	0.146495
1169.327642	0.148292
1169.480501	0.151580
1169.633343	0.160736
1169.786165	0.159719
1169.938970	0.170296
1170.091757	0.174007
1170.244525	0.181021
1170.397275	0.174000
1170.550007	0.179539
1170.702720	0.178270
1170.855415	0.184322
1171.008092	0.190225
1171.160751	0.200037
1171.313392	0.203362
1171.466014	0.227735
1171.618619	0.234251
1171.771205	0.234251
1171.923772	0.234251
