sample name	sample
index	713
start time	 03-25-2021  11:15:59 AM
880	0.262058
Peak Time (s)	182.037
Peak Height 	0.2621
calc peak height	180,183
Baseline Time (s)	10.036
Baseline Value 	-0.00221
subtract baseline	10,4
Abs	0.177028
Peak Time (s)	180.536
Peak Height 	0.177
calc peak height	180,183
Baseline Time (s)	8.536
Baseline Value 	0.004164
subtract baseline	10,3
PK_550	0.085767
Peak Time (s)	181.536
Peak Height 	0.08577
calc peak height	180,183
Baseline Time (s)	9.536
Baseline Value 	3.889E-4
subtract baseline	10,2
PK_880	0.163843
Peak Time (s)	182.537
Peak Height 	0.1638
calc peak height	180,183
Baseline Time (s)	8.536
Baseline Value 	0.002184
subtract baseline	10,1


Time (s)	A880-A510	A880-A775	A880-A975	A880	I510	I775	I975	I880	
0.036000	0.000738	0.000643	-0.001328	0.000338	7191.069847	44212.000820	3913.982773	23442.326613
0.536500	-0.002141	0.000111	-0.001578	0.003123	7133.415915	43896.662611	3905.609548	23309.924535
1.037000	-0.002737	-0.000673	-0.004650	0.001797	7140.797340	43947.985942	3900.820901	23372.835702
1.536500	-0.001421	-0.000154	-0.003147	0.003125	7140.673621	43871.350570	3901.299943	23309.804571
2.037000	0.000640	-0.000475	-0.003920	-0.001347	7207.366435	44266.096351	3911.473642	23522.832662
2.535000	0.000640	0.000528	-0.003063	-0.001139	7205.229420	44342.194175	3913.268711	23512.880697
3.038000	0.001571	0.000738	0.002604	-0.000494	7208.167692	44300.561643	3927.238185	23482.029881
3.535500	-0.000539	-0.000408	-0.002337	-0.000818	7189.826731	44221.949360	3914.387210	23497.486783
4.035500	0.003093	-0.000292	0.002434	-0.000637	7225.319490	44215.770696	3927.162307	23488.853677
4.536000	-0.001611	-0.000092	0.000202	-0.000398	7174.570685	44212.018307	3920.266264	23477.410885
5.036000	0.000908	0.000192	0.000481	0.000199	7194.244192	44182.208999	3919.383456	23448.953076
5.536500	-0.000722	0.000504	-0.002093	0.000508	7174.407341	44182.488072	3911.396404	23434.215402
6.037000	0.000096	0.000423	0.000649	0.000507	7182.777627	44174.956689	3918.994338	23434.271020
6.536500	0.000552	0.000409	-0.001882	-0.000017	7192.798599	44223.511591	3913.429953	23459.246695
7.035000	0.001475	0.000537	0.002545	0.000301	7199.000250	44205.382627	3924.849654	23444.048792
7.538000	0.000994	0.000622	-0.001251	-0.000051	7197.689888	44247.120006	3915.270553	23460.877940
8.035500	0.000913	0.000062	-0.002320	-0.000296	7199.362068	44216.956825	3912.988093	23472.545163
8.535500	0.000000	0.000661	0.000000	0.000363	7183.260446	44211.361851	3917.592139	23441.120860
9.035000	0.000940	-0.000175	0.000770	-0.000432	7201.039831	44207.426411	3921.944796	23479.066311
9.535500	-0.000157	0.000000	0.001073	-0.000067	7186.044563	44189.245170	3921.769060	23461.616239
10.036000	0.001199	-0.000024	-0.002119	0.000000	7199.269328	44180.598117	3912.727614	23458.429918
10.536500	0.000766	0.000403	-0.001328	0.000442	7190.287662	44179.179808	3913.691860	23437.352574
11.037000	-0.000158	0.000592	0.000651	0.000955	7175.591859	44148.243624	3917.755704	23412.899970
11.535000	-0.000884	-0.000691	-0.001785	-0.000222	7180.197073	44138.172000	3914.263771	23469.010268
12.038000	0.000242	0.000709	-0.001066	0.001130	7177.898987	44142.759576	3912.514456	23404.590104
12.535500	0.001590	0.001157	0.003867	0.000987	7193.150091	44199.168715	3926.629161	23411.398794
13.035500	0.001630	0.000558	0.003424	-0.001025	7214.235395	44334.088679	3931.023441	23507.408548
13.536000	0.001292	-0.000060	-0.000533	-0.000475	7205.099624	44222.433421	3918.439555	23481.110202
14.036000	0.001907	0.001241	0.001544	0.000493	7201.462866	44254.201679	3921.521354	23434.896518
14.536000	0.000317	0.000431	-0.003665	0.003569	7153.806092	43884.791378	3898.669025	23288.799753
15.036500	0.000841	0.000659	0.001824	0.000575	7189.692685	44190.852243	3922.072590	23430.993016
15.564000	0.001735	0.000185	0.001271	-0.000090	7205.702605	44209.103211	3922.386725	23462.740414
16.040000	0.001859	0.001051	0.002234	0.000711	7198.732357	44215.302053	3922.837071	23424.502068
16.538000	0.004367	0.000723	0.004285	0.001083	7220.712251	44148.570488	3927.527221	23406.802115
17.034500	0.003501	0.001219	0.004496	0.000815	7214.551165	44221.326357	3928.867296	23419.548452
17.537500	0.003162	0.001109	0.000819	-0.001332	7233.207055	44416.274017	3924.588107	23522.075711
18.036000	0.001314	0.000114	0.003147	0.000952	7190.678236	44103.055470	3924.711858	23413.026731
18.535500	0.002025	0.000365	0.002918	0.002247	7184.706582	44003.900528	3920.465961	23351.490789
19.036500	-0.000170	0.001116	0.001420	0.002682	7157.872308	44033.771891	3915.097141	23330.804370
19.536500	0.000783	0.000117	0.004933	0.002152	7172.978300	43989.316494	3926.349214	23355.968801
20.037000	0.000741	0.001192	0.003312	0.002957	7164.354351	44014.978964	3919.587439	23317.807343
20.537000	0.001269	0.001043	0.004902	0.002750	7171.841807	44020.415240	3924.594873	23327.608906
21.037000	0.002663	0.001244	0.000155	0.003387	7179.572748	43979.038564	3909.655662	23297.428895
21.540500	0.003666	0.001338	0.005604	0.003668	7186.954173	43961.295461	3923.988483	23284.099745
22.035500	0.001531	0.001639	0.001474	0.003892	7162.866663	43968.569982	3911.899046	23273.503692
22.535500	0.002841	0.000960	0.007468	0.003866	7176.492575	43906.715559	3928.646770	23274.740759
23.035500	0.001874	0.001186	0.004452	0.003907	7166.205686	43924.241057	3920.114490	23272.796768
23.536000	0.000577	0.001145	0.002244	0.003738	7154.731512	43936.365125	3914.457615	23280.803871
24.036000	0.001079	0.000270	0.001966	0.003351	7163.777903	43890.157963	3914.759114	23299.130040
24.536500	0.001527	0.000847	0.000583	0.003872	7163.036430	43895.458135	3909.497122	23274.476200
25.036500	0.000319	0.000391	0.002258	0.003570	7153.813602	43880.904094	3914.959568	23288.751957
25.537000	0.001801	0.001619	0.004687	0.003907	7165.472415	43965.307935	3920.770472	23272.830519
26.040500	0.002631	0.001257	0.006822	0.004170	7171.251426	43906.089626	3925.989636	23260.386884
26.535000	0.000316	0.000942	0.002909	0.003909	7150.351255	43900.980636	3915.824870	23272.728365
27.035500	0.001646	0.001994	0.000663	0.006346	7139.122888	43769.966999	3902.914543	23157.767935
27.536000	0.001373	0.001740	0.001555	0.003866	7161.533425	43980.655525	3912.196500	23274.760823
28.041000	0.005088	0.002038	0.007998	0.001184	7227.114153	44264.327356	3937.679438	23401.995020
28.569000	0.002470	0.001730	0.003225	0.002451	7187.173003	44114.169246	3920.752518	23341.799894
29.063500	0.000035	0.000969	0.001114	0.007258	7113.642504	43587.553988	3901.650966	23114.907072
29.536000	0.004069	0.000959	0.008453	0.002387	7204.224897	44046.918189	3935.569787	23344.831087
30.036500	0.003646	0.001783	0.004586	0.002954	7194.059404	44071.364172	3923.140980	23317.911183
30.540000	0.002250	0.001667	0.006907	0.002802	7181.329020	44074.787939	3930.059263	23325.147168
31.034500	-0.000974	0.001167	-0.001212	0.007577	7100.284633	43576.162934	3894.425985	23099.938741
31.537500	0.004968	0.002090	0.008727	0.003542	7201.599925	44044.718656	3933.091761	23290.094003
32.035500	0.003334	0.001544	0.005451	0.006122	7158.523363	43748.622406	3916.736081	23168.299107
32.553000	0.003367	0.001384	0.006914	0.002868	7192.087908	44041.638269	3929.893151	23322.028105
33.036000	-0.000816	0.001408	-0.002030	0.008739	7090.228679	43489.776485	3889.050332	23045.532780
33.536500	0.004804	0.002380	0.006035	0.003471	7200.642043	44078.947576	3925.745527	23293.442334
34.036500	0.004198	0.001934	0.005135	0.003813	7190.921918	44004.113170	3922.280636	23277.276827
34.537000	0.004276	0.001809	0.005031	0.002589	7204.276973	44108.568834	3925.404350	23335.239367
35.037500	-0.000398	0.001496	0.002006	0.008387	7097.939609	43531.035168	3901.002265	23061.998438
35.537500	0.000932	0.001759	0.003827	0.006243	7132.940013	43757.528848	3911.905588	23162.614799
36.037500	0.003280	0.001816	0.001938	0.006340	7155.753377	43753.756867	3906.432401	23158.054393
36.535000	0.003447	0.002546	-0.000091	0.006431	7156.536650	43814.165535	3900.617658	23153.795878
37.035500	0.002004	0.001197	0.005293	0.007104	7135.076583	43623.496422	3913.578783	23122.169857
37.536000	0.001761	0.002158	0.002956	0.005976	7144.039128	43820.445841	3910.239966	23175.200593
38.036500	0.002021	0.001760	0.002630	0.005706	7149.412939	43808.363613	3910.084371	23187.897294
38.536500	0.002361	0.001974	0.005433	0.006858	7141.180799	43719.870649	3914.646794	23133.718987
39.037000	0.003564	0.002088	0.002094	0.006937	7152.578341	43723.136395	3905.221567	23130.010283
39.534500	0.003330	0.002581	0.001801	0.007132	7148.222442	43751.213660	3903.880821	23120.840236
40.037000	0.003154	0.001230	0.003691	0.006317	7154.712737	43700.615048	3911.325483	23159.129145
40.537500	0.002794	0.001968	0.000318	0.006686	7147.302803	43735.429141	3901.037657	23141.771480
41.034500	0.003061	0.002571	0.003659	0.008393	7132.728199	43631.506831	3905.519158	23061.735260
41.535500	0.003335	0.001314	0.003341	0.005919	7160.597333	43746.049738	3911.457565	23177.843511
42.035500	0.003075	0.001326	0.004462	0.006352	7153.547191	43706.355867	3913.359325	23157.470862
42.535500	0.003358	0.002476	0.005860	0.006910	7150.759369	43762.227314	3915.684303	23131.248221
43.036500	0.003588	0.002317	0.003150	0.007174	7150.411583	43722.316516	3907.472009	23118.864480
43.536500	0.003606	0.002483	0.007642	0.007392	7148.389838	43717.448861	3919.296147	23108.649582
44.037000	0.004148	0.003307	0.005639	0.008125	7146.448827	43725.984859	3911.713172	23074.274702
44.539500	0.002986	0.001650	0.006139	0.006621	7149.916312	43711.604037	3917.262237	23144.860009
45.037500	0.006063	0.003287	0.002040	0.002894	7219.524274	44220.326576	3916.228258	23320.756057
45.535000	0.005395	0.002356	0.008850	0.005041	7190.592710	43927.602513	3929.226340	23219.219261
46.067000	0.003819	0.001994	0.002733	0.008270	7141.641286	43588.718438	3903.313799	23067.469259
46.535500	0.005301	0.001881	0.003656	0.005120	7188.828532	43875.218903	3914.538537	23215.506074
47.036000	0.001333	0.002228	0.004744	0.010300	7096.122218	43420.373411	3903.261882	22972.654908
47.536000	0.004219	0.002213	0.006895	0.005380	7175.109484	43881.977191	3922.816862	23203.261666
48.036000	0.005996	0.002585	0.009098	0.005787	7189.112581	43878.666822	3927.832938	23184.081716
48.537000	0.004191	0.002051	0.007010	0.006460	7163.813181	43764.606859	3920.130120	23152.426550
49.040000	0.002480	0.002197	0.002157	0.010487	7105.759435	43399.969914	3895.677771	22963.936765
49.537500	0.004046	0.001781	0.004516	0.005206	7175.115117	43857.581545	3916.684096	23211.470974
50.034500	0.004038	0.002162	0.007837	0.005615	7170.858480	43854.920308	3924.788941	23192.174216
50.535000	0.005397	0.002307	0.004116	0.006304	7177.698388	43803.488669	3912.536472	23159.733946
51.035500	0.001437	0.002022	0.001504	0.010172	7098.452024	43413.088673	3894.757626	22978.624351
51.536000	0.005829	0.002535	0.011753	0.003383	7212.078865	44102.074512	3942.078451	23297.599871
52.036000	0.004836	0.002718	0.004875	0.007019	7164.684746	43774.816216	3912.658793	23126.137736
52.535500	0.004268	0.001861	0.006612	0.006031	7168.966087	43787.216720	3920.215242	23172.613957
53.036500	-0.054670	-0.013363	-0.001548	0.086832	5950.749614	35651.385177	3696.435341	19702.423004
53.540000	-0.040782	-0.014469	0.003557	-0.039810	7177.026829	46670.963963	4045.298738	25448.111297
54.037000	-0.018026	-0.015076	0.006709	-0.114150	8288.375488	54793.753359	4305.742436	29689.186717
54.537500	-0.018568	-0.011819	0.000819	-0.062259	7657.504953	49282.680424	4107.204377	26653.203339
55.034500	-0.010815	-0.010840	-0.013312	-0.102461	8231.479284	53908.700510	4193.525923	28973.315425
55.535000	0.030171	-0.011728	-0.001563	-0.147014	9426.690688	59317.209439	4398.584593	31808.226769
56.035500	0.026646	-0.007309	0.009310	-0.098444	8670.969441	53851.403285	4258.366613	28731.684777
56.536000	0.022147	-0.003510	0.019355	-0.044945	7929.674524	48328.250063	4111.137413	25718.314991
57.036000	0.023198	-0.003792	0.020238	-0.038276	7862.989369	47604.882574	4092.621818	25368.020697
57.536500	0.027910	-0.002060	0.027525	-0.031983	7844.380367	47136.590470	4095.786621	25042.429093
58.037000	0.038332	0.003205	0.041464	-0.002266	7622.612111	44707.833502	4046.417013	23566.861105
58.537000	0.050235	0.009376	0.049315	0.033039	7366.536800	41987.064005	3964.675173	21940.169484
59.037000	0.059205	0.015865	0.066103	0.072378	7054.152455	39130.379213	3901.291680	20276.742503
59.534500	0.070602	0.022976	0.083022	0.100170	6894.360432	37439.525830	3871.885535	19189.137579
60.037500	0.081882	0.031685	0.092384	0.132726	6695.798931	35587.417097	3811.570311	18000.585371
60.534500	0.094035	0.040080	0.109213	0.158115	6577.088801	34328.195843	3790.111695	17133.566625
61.035500	0.103346	0.047883	0.114588	0.178513	6480.409554	33426.216842	3753.456607	16472.805056
61.536000	0.113950	0.054519	0.129860	0.185818	6508.923863	33379.017992	3772.737889	16243.609984
62.036500	0.125881	0.061239	0.135426	0.191354	6564.803439	33462.605965	3772.809412	16072.456386
62.536500	0.130197	0.065488	0.136830	0.204958	6483.905448	32808.660501	3743.429191	15661.076487
63.039500	0.118581	0.063835	0.136896	0.211793	6328.228211	32227.345424	3727.476519	15459.186836
63.537000	0.129005	0.066190	0.136745	0.193590	6572.635617	33655.027427	3770.572569	16003.960842
64.063500	0.129539	0.067508	0.135873	0.196765	6549.407567	33523.244358	3760.755366	15907.274065
64.537500	0.133884	0.069876	0.137594	0.197884	6577.799937	33611.819280	3762.210085	15873.378040
65.034500	0.135203	0.070228	0.141767	0.197956	6588.834376	33631.800350	3772.175222	15871.220326
65.543500	0.138089	0.070902	0.140469	0.200003	6596.274498	33534.358482	3764.039409	15809.423435
66.035500	0.134944	0.072005	0.141065	0.203259	6539.866647	33382.203757	3757.614525	15711.730973
66.536000	0.135998	0.072880	0.141052	0.204289	6540.079103	33371.276457	3755.108475	15680.998464
67.036500	0.137245	0.073348	0.142870	0.205648	6539.100322	33308.605102	3756.209623	15640.533403
67.539500	0.139457	0.074665	0.149241	0.208073	6537.234461	33230.781862	3765.740939	15568.662270
68.036500	0.139542	0.076215	0.142642	0.211469	6508.407742	33101.596071	3741.768389	15468.668368
68.537000	0.139216	0.076032	0.145134	0.211268	6507.323523	33102.825450	3748.173736	15474.574640
69.037500	0.141531	0.075319	0.148755	0.211696	6523.723028	33023.320466	3755.818784	15462.024881
69.537500	0.139191	0.076296	0.148100	0.212852	6493.389154	33010.801016	3751.473719	15428.171390
70.035000	0.139311	0.077031	0.146783	0.214454	6480.613808	32950.475332	3744.513279	15381.432832
70.535500	0.139754	0.077920	0.150517	0.215587	6474.678124	32933.548373	3750.716227	15348.486333
71.035500	0.140505	0.077862	0.148035	0.219816	6444.893523	32637.325231	3734.788188	15226.221638
71.536000	0.143268	0.079075	0.152291	0.218343	6481.199595	32822.614574	3748.369077	15268.680953
72.039000	0.142481	0.079882	0.149387	0.221193	6450.013079	32681.582543	3734.729369	15186.677103
72.536500	0.142679	0.078910	0.148491	0.219660	6464.823509	32720.206337	3736.231339	15230.709006
73.036500	0.143226	0.080236	0.149985	0.224609	6427.262957	32471.401059	3728.114616	15089.079935
73.536500	0.143309	0.080054	0.148177	0.222244	6448.105468	32621.085728	3729.418387	15156.565281
74.035000	0.144870	0.080330	0.151244	0.222826	6456.473827	32600.087921	3735.258899	15139.940890
74.538000	0.143177	0.082299	0.154999	0.224440	6428.289912	32624.457695	3740.314118	15093.898969
75.035000	0.142826	0.081603	0.152702	0.227792	6396.984766	32347.515165	3727.026172	14998.852999
75.535500	0.145218	0.080963	0.153995	0.225307	6438.265626	32473.383007	3735.892417	15069.233756
76.035500	0.145122	0.082751	0.155349	0.228033	6414.325798	32409.368436	3732.664198	14992.054927
76.536000	0.144895	0.081830	0.153196	0.226579	6424.715803	32445.770083	3731.023829	15033.167298
77.036500	0.147217	0.083377	0.154679	0.230279	6413.047799	32299.003788	3725.834050	14928.808032
77.536500	0.147686	0.082694	0.157804	0.228278	6433.986360	32388.736915	3737.872242	14985.137737
78.037000	0.146556	0.084267	0.152301	0.231760	6394.983773	32258.906551	3716.866519	14887.297937
78.537000	0.148693	0.083984	0.156332	0.230989	6419.528508	32291.992995	3728.037912	14908.879617
79.035000	0.146597	0.084430	0.157044	0.234064	6375.998032	32113.894877	3722.526338	14822.985677
79.535000	0.149089	0.084567	0.160150	0.232148	6413.071466	32252.872890	3734.277370	14876.439012
80.035500	0.151658	0.085973	0.163181	0.233570	6422.776768	32251.732739	3738.071783	14836.721905
80.536000	0.149558	0.085084	0.158539	0.233577	6404.958944	32191.028665	3727.147133	14836.526923
81.036000	0.145254	0.084084	0.155986	0.234918	6357.644422	32032.849984	3718.084342	14799.211034
81.536000	0.151571	0.086464	0.160421	0.235218	6408.107844	32173.377281	3727.712434	14790.900596
82.036500	0.150463	0.087040	0.157153	0.237806	6377.023455	32037.421006	3714.106154	14719.234434
82.537000	0.150377	0.086190	0.158612	0.235902	6392.278067	32108.580001	3721.896038	14771.903537
83.034500	0.149256	0.086086	0.162605	0.237943	6365.799436	31964.103878	3726.447583	14715.470655
83.537500	0.151672	0.087283	0.161439	0.237357	6390.933317	32084.114280	3725.093014	14731.637849
84.037500	0.148976	0.086814	0.160042	0.239705	6348.793590	31894.607859	3716.393485	14666.943532
84.535500	0.151269	0.087249	0.161158	0.238138	6380.994511	32029.184058	3722.618294	14710.074912
85.035500	0.151254	0.087313	0.166469	0.238329	6379.276628	32020.643078	3734.603364	14704.824697
85.536000	0.152959	0.088521	0.169220	0.239727	6381.848338	32007.863232	3737.793643	14666.336897
86.036000	0.153765	0.088153	0.162503	0.239884	6387.291717	31972.473561	3721.684395	14662.017198
86.536500	0.153690	0.088698	0.162841	0.240619	6380.489804	31959.714589	3720.763114	14641.840888
87.037000	0.153296	0.088158	0.163618	0.240318	6379.714585	31943.689779	3723.267890	14650.096786
87.536500	0.153568	0.088469	0.163845	0.241194	6374.653479	31905.718028	3721.757726	14626.079871
88.034500	0.151249	0.087995	0.161883	0.243039	6339.987719	31750.620741	3712.947529	14575.671178
88.537500	0.153558	0.088495	0.162255	0.242192	6366.231068	31840.587165	3715.760122	14598.781523
89.034500	0.153836	0.089371	0.164974	0.242868	6362.915909	31854.035204	3720.492944	14580.337107
89.535000	0.153925	0.088531	0.159668	0.242274	6368.610332	31837.556711	3709.609246	14596.538411
90.035500	0.152495	0.088872	0.163564	0.244632	6337.110220	31702.884344	3713.149723	14532.299755
90.538000	0.152452	0.088770	0.168467	0.243216	6348.496348	31790.559077	3727.821448	14570.838726
91.036000	0.153801	0.090011	0.166147	0.245349	6341.995086	31731.031061	3717.462099	14512.847065
91.536000	0.154935	0.088853	0.167987	0.243687	6365.254806	31764.662852	3725.600459	14558.019534
92.039500	0.153802	0.088625	0.165530	0.246795	6330.029446	31542.782840	3712.696363	14473.674597
92.537000	0.155927	0.088821	0.165229	0.245116	6361.608808	31667.265625	3715.876951	14519.161500
93.040000	0.155230	0.089570	0.171183	0.246242	6346.443922	31642.220114	3727.099279	14488.646838
93.534500	0.154607	0.090562	0.170059	0.246377	6340.157536	31699.271135	3724.159718	14484.993515
94.035000	0.153162	0.088908	0.168610	0.247498	6318.959828	31515.046850	3718.189828	14454.704247
94.535500	0.156785	0.090779	0.170069	0.247028	6352.835250	31670.390141	3722.668782	14467.396922
95.036500	0.155492	0.089586	0.167087	0.246593	6345.707686	31619.976925	3716.757349	14479.156401
95.536500	0.154854	0.089255	0.164894	0.245646	6348.265611	31660.906491	3713.879552	14504.784887
96.039000	0.155517	0.089893	0.166638	0.249224	6324.137685	31466.021840	3709.656876	14408.201494
96.537000	0.157006	0.091177	0.164730	0.248203	6344.907022	31618.747326	3707.622364	14435.689530
97.036500	0.157108	0.090934	0.167187	0.248392	6344.182991	31590.011756	3712.835054	14430.592732
97.537000	0.156104	0.090935	0.171431	0.247614	6342.310806	31641.743451	3724.474369	14451.556550
98.037500	0.157726	0.090353	0.166213	0.250227	6334.102135	31430.149060	3706.383954	14381.270608
98.535500	0.157448	0.089729	0.168688	0.247759	6352.273279	31552.131467	3717.765560	14447.660899
99.038500	0.158450	0.090207	0.172665	0.248722	6352.590086	31519.958085	3724.766642	14421.692744
99.535500	0.156586	0.090560	0.169290	0.248635	6337.840625	31549.089202	3717.130234	14424.036237
100.036000	0.157387	0.090288	0.172055	0.251053	6324.482803	31371.419023	3717.933636	14359.130724
100.536000	0.157676	0.090745	0.166303	0.249715	6337.925509	31489.891384	3707.762931	14395.004582
101.036500	0.156254	0.090596	0.174160	0.249249	6330.016006	31510.804009	3727.028875	14407.521943
101.536500	0.157815	0.090391	0.167659	0.248845	6346.288482	31524.004379	3712.877590	14418.387246
102.037500	0.154999	0.090630	0.173934	0.251963	6297.368334	31334.034826	3720.179275	14334.786894
102.534500	0.156098	0.091269	0.167383	0.250171	6321.120953	31494.337344	3709.193154	14382.766819
103.035000	0.158262	0.091270	0.172740	0.251387	6328.937568	31414.065070	3718.746487	14350.179633
103.535000	0.158597	0.091672	0.171645	0.250037	6342.886760	31529.831752	3719.335903	14386.344339
104.035500	0.158047	0.090109	0.171233	0.250445	6334.948452	31399.666266	3717.437827	14375.406151
104.538500	0.156773	0.089302	0.167516	0.249446	6332.685100	31412.338245	3711.164717	14402.233647
105.036500	0.160173	0.090620	0.169106	0.250912	6348.712115	31402.618552	3711.450585	14362.912283
105.536500	0.157868	0.090446	0.165859	0.250249	6335.096974	31434.878214	3705.523833	14380.682082
106.038000	0.158774	0.089949	0.169271	0.250126	6343.619981	31410.152389	3713.642656	14383.970854
106.537000	0.158068	0.090985	0.169047	0.251518	6326.260717	31386.697545	3709.921418	14346.677886
107.037000	0.158293	0.090595	0.168898	0.251517	6328.132062	31361.110350	3709.582117	14346.718044
107.537500	0.157696	0.090140	0.168678	0.250820	6328.946610	31377.013631	3710.676344	14365.355638
108.037000	0.159447	0.091086	0.171422	0.251543	6337.457216	31391.721189	3715.336749	14346.024654
108.535000	0.160478	0.090700	0.169001	0.251730	6344.455132	31354.003060	3709.328696	14341.019149
109.038500	0.157988	0.090074	0.170839	0.251428	6326.340907	31332.610383	3714.254313	14349.084908
109.536000	0.157306	0.091413	0.169335	0.252300	6313.535125	31363.351082	3708.786307	14325.780301
110.036000	0.163075	0.091543	0.171137	0.252645	6358.428040	31349.234318	3712.134970	14316.572891
110.536500	0.159148	0.091076	0.171886	0.252965	6323.232819	31297.512676	3713.126501	14308.053396
111.037000	0.158287	0.091662	0.170187	0.253222	6314.026097	31319.133394	3708.627183	14301.208732
111.534000	0.158171	0.091421	0.171657	0.253270	6312.677642	31300.166553	3711.895303	14299.928139
112.037500	0.155665	0.089238	0.171309	0.254171	6284.761076	31098.294875	3709.023203	14275.946959
112.535000	0.160325	0.091371	0.171492	0.253464	6328.827684	31284.077289	3711.066512	14294.743050
113.035000	0.158846	0.090251	0.172572	0.252415	6325.277538	31279.449741	3715.978530	14322.728143
113.538000	0.159737	0.090660	0.169914	0.252955	6328.178852	31270.867654	3708.612689	14308.324637
114.035500	0.157609	0.090553	0.165954	0.256292	6283.318497	31045.770785	3692.009130	14219.708699
114.536000	0.159107	0.090356	0.169968	0.253389	6319.397587	31222.426791	3707.741293	14296.744644
115.036500	0.160692	0.090387	0.171928	0.253659	6330.245360	31206.798627	3711.622860	14289.562627
115.541500	0.157597	0.090313	0.170456	0.253269	6307.968275	31227.550705	3709.137864	14299.961530
116.037000	0.158143	0.090105	0.169188	0.255687	6292.622751	31055.957584	3700.708591	14235.720980
116.537000	0.161202	0.090795	0.174283	0.255228	6321.510835	31130.895024	3713.433715	14247.887239
117.037500	0.160123	0.090288	0.173105	0.253167	6329.609375	31232.515243	3715.470930	14302.655156
117.537500	0.159901	0.091382	0.169049	0.254165	6319.542254	31238.846013	3703.861603	14276.102385
118.035000	0.156968	0.090208	0.171068	0.253381	6301.886589	31213.287272	3710.285885	14296.970702
118.535500	0.158132	0.089901	0.172416	0.254720	6300.444998	31105.706415	3710.304820	14261.364023
119.036000	0.158475	0.090279	0.174774	0.253730	6311.383980	31195.046687	3718.030101	14287.668387
119.538500	0.160730	0.089123	0.169327	0.252388	6341.086859	31207.292796	3708.567675	14323.447432
120.036500	0.159257	0.089163	0.172220	0.252843	6325.138997	31180.126634	3714.177832	14311.306469
120.539500	0.158620	0.090380	0.168828	0.256600	6289.064503	31014.512077	3697.815903	14211.575347
121.037500	0.160415	0.090452	0.174364	0.254235	6323.209300	31173.350987	3715.913238	14274.248457
121.537500	0.159155	0.089979	0.166954	0.253738	6316.916739	31174.908164	3700.059958	14287.456168
122.034500	0.160805	0.090138	0.174133	0.254155	6327.082034	31158.068345	3715.563799	14276.363936
122.540500	0.160326	0.090264	0.170384	0.253817	6325.926469	31188.433383	3707.714319	14285.368964
123.035500	0.158998	0.090241	0.168083	0.254222	6311.639274	31160.399972	3701.528810	14274.579373
123.535500	0.161856	0.090829	0.171231	0.254987	6328.893792	31148.840075	3706.972457	14254.272964
124.036000	0.162043	0.092490	0.170774	0.256395	6318.823016	31165.416622	3702.710862	14216.988175
124.539000	0.160114	0.089865	0.172208	0.254668	6317.157852	31106.766787	3709.946963	14262.749116
125.036500	0.158450	0.088399	0.172622	0.253615	6312.134594	31079.866258	3713.323874	14290.746659
125.537000	0.160307	0.090116	0.170609	0.254877	6317.024301	31109.523514	3705.800992	14257.199598
126.037500	0.159378	0.090107	0.173734	0.258116	6282.868732	30898.375226	3705.540582	14171.560082
126.534500	0.157863	0.090088	0.174641	0.258861	6264.488343	30848.943755	3705.910161	14151.955663
127.035000	0.160713	0.089864	0.174157	0.255010	6319.275152	31084.366254	3713.644911	14253.660975
127.537500	0.161313	0.090501	0.171272	0.255240	6322.321183	31110.901484	3706.487856	14247.565015
128.035500	0.162611	0.089883	0.173967	0.254686	6337.623623	31106.732711	3713.954982	14262.261598
128.536000	0.158920	0.089767	0.173937	0.258651	6274.790648	30841.781314	3704.782126	14157.489540
129.036500	0.162140	0.090403	0.171298	0.255549	6326.590914	31084.337817	3705.838036	14239.366299
129.536500	0.160992	0.090892	0.172977	0.255691	6315.966812	31107.029765	3709.364001	14235.617139
130.036500	0.157136	0.090109	0.172464	0.259039	6257.153757	30838.776897	3700.537279	14147.281135
130.537000	0.156602	0.088792	0.167257	0.258216	6259.495323	30806.863216	3690.607689	14168.930254
131.037500	0.156805	0.089457	0.172817	0.254516	6291.253346	31090.026340	3711.697551	14266.778295
131.540000	0.160851	0.090482	0.171839	0.255883	6313.224198	31067.764474	3706.312654	14230.529123
132.038000	0.158043	0.088705	0.172216	0.257646	6275.826447	30838.051538	3703.145062	14183.942654
132.535000	0.156777	0.087975	0.164886	0.258549	6258.214359	30732.710645	3684.533809	14160.153721
133.035500	0.160215	0.088486	0.172851	0.254743	6317.375200	31012.084759	3711.252317	14260.758887
133.538500	0.161300	0.089003	0.170439	0.255154	6322.931032	31018.960528	3704.779716	14249.851202
134.036500	0.158590	0.089648	0.174971	0.259129	6268.221300	30803.233692	3706.054034	14144.917608
134.536500	0.157150	0.089131	0.169757	0.260377	6246.451244	30689.499897	3691.371412	14112.159866
135.037000	0.161420	0.089201	0.171279	0.255724	6319.217147	30994.744308	3705.395504	14234.745524
135.537500	0.161294	0.089993	0.174234	0.255603	6319.174458	31054.133511	3712.457522	14237.943936
136.034500	0.160727	0.089430	0.173802	0.259592	6281.831649	30759.267244	3702.324310	14132.736700
136.538000	0.162186	0.088493	0.175426	0.255198	6329.880578	30982.931796	3716.141940	14248.682873
137.035000	0.161576	0.088984	0.171440	0.255919	6318.895004	30968.023370	3705.318421	14229.579598
137.535500	0.159466	0.088867	0.171079	0.255157	6307.809032	31009.876729	3706.237068	14249.769716
138.035500	0.160027	0.089100	0.172795	0.255966	6305.778937	30972.504543	3708.316509	14228.345357
138.536000	0.159578	0.088693	0.174939	0.254707	6312.428327	31027.853164	3716.151339	14261.717531
139.036500	0.160864	0.088749	0.172013	0.255493	6316.533181	30980.345359	3707.605907	14240.849756
139.536500	0.160049	0.089796	0.174636	0.256349	6302.810873	30992.815370	3711.663967	14218.199794
140.037000	0.159115	0.090359	0.167264	0.259998	6265.422410	30793.002802	3686.617020	14122.107920
140.537000	0.160212	0.087634	0.169786	0.255113	6314.303279	30932.732321	3703.380598	14250.935219
141.037500	0.160718	0.090110	0.178022	0.256540	6306.735534	31000.771103	3719.046264	14213.147966
141.540000	0.160254	0.089214	0.174330	0.256111	6306.444173	30970.440380	3711.507460	14224.486527
142.035000	0.157369	0.087775	0.170094	0.258862	6260.477514	30699.780318	3695.558540	14151.940113
142.535500	0.159657	0.088344	0.172377	0.255799	6304.099593	30934.205726	3707.738591	14232.742846
143.035500	0.161299	0.090186	0.171098	0.256240	6313.971254	31025.210622	3703.802026	14221.079173
143.535500	0.160094	0.089015	0.173012	0.255672	6308.736626	30986.091030	3709.488577	14236.130647
144.036500	0.156609	0.087221	0.171889	0.259065	6252.684911	30651.120551	3699.170540	14146.595749
144.536500	0.158015	0.087581	0.171766	0.261318	6245.839419	30529.900344	3693.784214	14087.537308
145.036500	0.159896	0.089028	0.171562	0.256165	6303.063449	30954.928708	3705.035168	14223.073008
145.537000	0.161065	0.088975	0.175535	0.255979	6314.194827	30963.481993	3714.590153	14227.987159
146.037500	0.158068	0.088246	0.173615	0.259828	6258.315103	30667.930687	3701.360132	14126.555794
146.535000	0.157848	0.087514	0.171047	0.262204	6237.351047	30469.025212	3690.162076	14064.389273
147.035500	0.161807	0.088852	0.175212	0.256695	6314.414695	30909.123539	3712.195529	14209.063498
147.535500	0.160198	0.088146	0.180174	0.256183	6305.395231	30896.549670	3724.881440	14222.598184
148.036000	0.160776	0.088010	0.172798	0.255719	6313.953516	30917.764696	3708.887593	14234.870659
148.536000	0.158424	0.087594	0.169362	0.262061	6243.147449	30483.227358	3686.694861	14068.115360
149.036500	0.161479	0.089344	0.175309	0.257050	6308.791371	30917.964008	3711.600328	14199.668745
149.536500	0.161079	0.088542	0.172087	0.256878	6306.918494	30877.192115	3704.604515	14204.222140
150.037500	0.159532	0.088111	0.168358	0.260341	6266.020895	30626.329192	3688.302988	14113.096094
150.540500	0.156332	0.087630	0.170811	0.261865	6227.890465	30498.058056	3690.393635	14073.239081
151.035000	0.162034	0.088772	0.173850	0.256734	6315.951150	30901.371586	3708.972646	14208.010643
151.535500	0.159907	0.087826	0.171885	0.256561	6299.904865	30851.389329	3704.867093	14212.590992
152.035500	0.162159	0.088433	0.174284	0.256414	6319.617108	30900.179743	3710.706021	14216.477469
152.536000	0.159313	0.088425	0.170048	0.256430	6296.115978	30898.594020	3700.975990	14216.051557
153.036500	0.160235	0.087419	0.171033	0.255858	6308.362901	30870.491432	3704.526363	14231.187496
153.536500	0.161778	0.088422	0.172882	0.256627	6314.730810	30885.665125	3706.998382	14210.846495
154.036500	0.162561	0.087905	0.173052	0.256303	6323.848745	30873.191671	3708.129430	14219.412283
154.536500	0.157491	0.086299	0.164362	0.260353	6249.393024	30509.601858	3679.333668	14112.778835
155.037000	0.161100	0.087688	0.176051	0.256112	6313.383441	30871.471914	3715.474167	14224.465111
155.538000	0.161412	0.087599	0.177469	0.255898	6317.716958	30879.575287	3719.250695	14230.121411
156.034500	0.160689	0.088721	0.176091	0.261347	6267.248546	30600.947168	3703.542063	14086.770070
156.535500	0.156525	0.086646	0.166721	0.262256	6226.295709	30410.409159	3680.350210	14063.025779
157.035500	0.163848	0.087602	0.171972	0.256272	6334.741530	30855.592070	3705.728797	14220.234658
157.536000	0.163679	0.088088	0.171926	0.256740	6329.470142	30856.704846	3704.551548	14207.855637
158.036000	0.157748	0.085877	0.169950	0.259452	6258.767586	30540.218045	3693.896465	14136.426150
158.537000	0.155929	0.085921	0.166328	0.261861	6224.687365	30389.366216	3680.354496	14073.327822
159.036500	0.160972	0.086843	0.173465	0.256123	6312.247986	30816.185439	3709.492485	14224.174920
159.537000	0.162589	0.088325	0.176285	0.257259	6316.202787	30838.504306	3713.367442	14194.162035
160.037500	0.158590	0.087121	0.171021	0.259971	6261.379811	30586.620215	3695.146443	14122.804258
160.535000	0.158636	0.086766	0.171707	0.262378	6242.302268	30410.283347	3691.257956	14059.856514
161.035500	0.159185	0.087931	0.175184	0.256792	6292.107026	30843.235932	3711.906939	14206.486912
161.535500	0.163432	0.086776	0.176451	0.256574	6328.804610	30782.748675	3715.329984	14212.244793
162.036000	0.161371	0.086543	0.170411	0.256097	6315.741163	30798.503439	3702.562032	14224.862681
162.536000	0.159021	0.086758	0.169133	0.262770	6242.239619	30384.840568	3684.593180	14049.630572
163.036500	0.161201	0.087727	0.171220	0.256782	6308.713948	30830.706265	3702.844079	14206.751289
163.536000	0.163641	0.087109	0.173970	0.256605	6330.271547	30802.191320	3709.543730	14211.418447
164.037000	0.156127	0.085551	0.167122	0.260086	6240.545600	30478.879616	3686.100263	14119.786118
164.537500	0.162759	0.087309	0.171720	0.256849	6320.983894	30799.378396	3703.833355	14204.984231
165.035000	0.161927	0.087477	0.172244	0.256442	6317.483404	30836.522908	3705.962078	14215.745547
165.535000	0.162563	0.087717	0.174799	0.256912	6318.843273	30821.654069	3710.743668	14203.314637
166.042000	0.159860	0.086938	0.169767	0.261798	6256.868868	30458.185821	3688.195626	14074.985716
166.535500	0.156168	0.085327	0.170494	0.262073	6224.904367	30338.170201	3689.212547	14067.796986
167.036000	0.161255	0.085951	0.176564	0.256076	6314.964265	30761.709120	3716.745335	14225.433074
167.536000	0.163690	0.086517	0.175294	0.256883	6328.382217	30746.144402	3711.950594	14204.079225
168.036000	0.158126	0.084996	0.170133	0.260568	6252.788817	30412.782956	3691.788846	14107.149097
168.536500	0.159581	0.086435	0.170132	0.263097	6244.120302	30343.590290	3686.098903	14041.118477
169.040000	0.161411	0.086248	0.173284	0.256254	6314.774586	30769.308417	3708.774671	14220.707496
169.537500	0.161443	0.086423	0.173888	0.256977	6309.095331	30734.062925	3708.502004	14201.606809
170.035000	0.160041	0.086047	0.173841	0.262024	6256.506013	30387.047700	3696.882451	14069.089128
170.535500	0.159330	0.085849	0.172253	0.260241	6265.201703	30488.036933	3697.325517	14115.734827
171.035500	0.161014	0.086106	0.172473	0.256431	6310.064132	30748.767041	3706.511972	14216.039314
171.536000	0.162914	0.087061	0.175541	0.257643	6315.722882	30732.268387	3710.770263	14184.038217
172.036000	0.160660	0.086343	0.174081	0.256692	6305.009549	30747.225281	3709.600071	14209.123026
172.536500	0.157800	0.085505	0.171319	0.260648	6249.510517	30440.109061	3694.287304	14105.049650
173.036500	0.162277	0.086508	0.173263	0.257142	6314.599186	30728.838998	3706.691994	14197.238771
173.540000	0.162572	0.086660	0.173372	0.257278	6315.907571	30729.892723	3706.628354	14193.647656
174.037000	0.164617	0.085524	0.173302	0.256813	6336.626857	30686.761719	3707.534608	14205.928616
174.535000	0.159684	0.085070	0.172320	0.261644	6256.696532	30349.119822	3694.298648	14079.009571
175.035000	0.162753	0.085090	0.176923	0.257138	6318.549490	30638.050260	3715.119391	14197.361500
175.535500	0.162191	0.087011	0.169862	0.257810	6308.402180	30718.303217	3697.415975	14179.630593
176.035500	0.162422	0.086273	0.174301	0.257462	6313.156163	30693.188181	3708.338370	14188.803350
176.536000	0.159402	0.085335	0.165620	0.260673	6262.274400	30427.756806	3681.427310	14104.411129
177.036000	0.161268	0.085791	0.175083	0.257087	6306.754853	30686.324277	3710.994989	14198.695604
177.536500	0.160896	0.086502	0.171352	0.257317	6301.813909	30717.200639	3701.926706	14192.626810
178.037000	0.162095	0.085642	0.178623	0.257005	6314.229561	30682.004714	3719.361070	14200.871038
178.537000	0.158602	0.084678	0.175421	0.260427	6257.783715	30401.538533	3704.113595	14110.846697
179.037500	0.162135	0.084256	0.172170	0.255976	6323.034938	30659.067568	3706.857280	14228.064705
179.535000	0.162380	0.084725	0.178235	0.256058	6324.380380	30683.900657	3720.658162	14225.899352
180.037500	0.162949	0.085486	0.168159	0.257081	6320.628055	30667.065013	3695.206777	14198.843514
180.535500	0.160807	0.085553	0.177028	0.257005	6303.643603	30676.278068	3715.668458	14200.853501
181.035500	0.163460	0.084943	0.174551	0.257220	6323.703731	30623.306337	3709.467766	14195.187303
181.536000	0.161402	0.085767	0.170598	0.257334	6305.826765	30668.848730	3700.169283	14192.175089
182.036500	0.159780	0.084877	0.171839	0.262058	6254.117855	30310.611678	3692.275926	14068.192516
182.536500	0.163843	0.085388	0.175171	0.257804	6322.045682	30614.436718	3709.550409	14179.787767
183.037000	0.160146	0.084514	0.171595	0.256948	6298.690899	30613.263736	3703.321090	14202.363095
183.534500	0.162524	0.084958	0.173980	0.257283	6315.474308	30620.243363	3708.012445	14193.530701
184.037500	0.160855	0.084759	0.173686	0.256744	6306.183049	30642.097946	3708.575421	14207.768377
184.537500	0.159510	0.084175	0.174972	0.260528	6264.329347	30363.184620	3702.860157	14108.215151
185.035000	0.162375	0.085691	0.170714	0.257884	6309.302254	30628.723734	3699.182865	14177.669126
185.573000	0.160685	0.084399	0.172732	0.256787	6304.434089	30616.204559	3706.289054	14206.629132
186.036000	0.161109	0.084587	0.171929	0.262381	6262.269657	30271.770151	3691.752249	14059.780832
186.544500	0.161391	0.084072	0.169577	0.258098	6299.473431	30511.377536	3696.116628	14172.041131
187.036000	0.161675	0.084477	0.173518	0.256860	6311.972139	30616.550704	3707.924086	14204.705625
187.536500	0.163499	0.085357	0.173489	0.257895	6318.459369	30606.570304	3705.484844	14177.374397
188.036500	0.159558	0.084452	0.174223	0.262278	6250.546365	30269.707307	3697.171488	14062.445763
188.534500	0.160901	0.085144	0.175600	0.260069	6279.373726	30454.040027	3705.342985	14120.245330
