sample name	sample
index	1448
start time	 05-10-2021  01:19:38 PM
880	0.291030
Peak Time (s)	92.537
Peak Height 	0.291
calc peak height	90,93
Baseline Time (s)	11.037
Baseline Value 	-0.003559
subtract baseline	10,4
Abs	0.183407
Peak Time (s)	92.537
Peak Height 	0.1834
calc peak height	90,93
Baseline Time (s)	9.536
Baseline Value 	0.002175
subtract baseline	10,3
PK_550	0.102529
Peak Time (s)	90.036
Peak Height 	0.1025
calc peak height	90,93
Baseline Time (s)	8.536
Baseline Value 	8.5617E-4
subtract baseline	10,2
PK_880	0.170641
Peak Time (s)	92.537
Peak Height 	0.1706
calc peak height	90,93
Baseline Time (s)	10.537
Baseline Value 	0.001138
subtract baseline	10,1


Time (s)	A880-A510	A880-A775	A880-A975	A880	I510	I775	I975	I880	
0.039000	0.000812	-0.001342	-0.002557	0.002674	6496.690380	43860.845716	3938.441664	22604.438788
0.536500	-0.002260	-0.000882	-0.000018	0.006063	6442.848359	43585.754360	3936.246581	22450.939722
1.036500	0.000158	-0.000345	0.000106	0.004457	6476.293484	43786.851001	3940.721782	22523.553905
1.537000	-0.001982	-0.000710	-0.003028	0.001932	6479.502019	43990.449412	3939.143400	22638.197465
2.037500	-0.000529	-0.000334	0.001319	0.001947	6491.543452	44024.620122	3950.411103	22637.531028
2.535000	-0.000097	-0.000005	-0.000136	0.003016	6486.209809	43954.655515	3943.833550	22588.899047
3.038000	0.000946	-0.000894	0.002309	-0.002136	6538.445512	44359.271904	3963.749245	22824.355702
3.535500	0.001706	-0.000095	-0.003945	0.000695	6520.893901	44165.909510	3939.972329	22694.615491
4.036000	-0.000046	-0.001497	0.000441	-0.000576	6516.838554	44153.554344	3954.719950	22752.771270
4.539000	-0.001462	-0.000867	-0.001700	-0.000135	6501.188920	44171.398466	3947.964941	22732.566954
5.036500	0.000375	0.000854	-0.001807	0.000561	6510.798667	44268.892904	3945.871746	22700.761081
5.536500	-0.001095	-0.000757	-0.000762	-0.000723	6509.224909	44237.715587	3951.950944	22759.483038
6.037000	0.001046	-0.001487	-0.005279	-0.000992	6529.590381	44194.021584	3940.888876	22771.850327
6.537000	-0.000624	-0.000729	-0.001374	-0.000563	6511.851561	44225.217084	3949.933180	22752.185479
7.034500	-0.000346	-0.000592	0.000866	-0.000685	6515.218747	44249.818359	3956.119981	22757.742873
7.535000	-0.002126	-0.001087	0.003437	-0.000822	6501.378550	44215.775311	3963.256741	22764.020883
8.035500	0.000601	-0.000191	0.002029	0.000152	6516.150145	44208.460139	3956.977915	22719.467621
8.535500	0.001054	0.000000	-0.002606	-0.000291	6523.719422	44268.665577	3946.009009	22739.710439
9.038500	0.000534	-0.000275	-0.001077	-0.000378	6520.057860	44250.777839	3950.224248	22743.694045
9.536000	0.000166	0.000121	0.000000	0.001270	6503.063724	44131.927619	3948.734895	22668.398327
10.036500	-0.001135	0.000097	0.002308	0.000522	6498.413104	44200.629065	3956.736888	22702.532348
10.537000	0.000000	-0.000553	0.001447	-0.000238	6514.371935	44211.115884	3956.472502	22737.304019
11.037000	-0.000056	0.000120	0.003958	0.000000	6511.893015	44252.442096	3962.462067	22726.397535
11.535000	-0.001705	-0.001202	-0.002906	0.000732	6491.869053	44057.424454	3942.568768	22692.920350
12.035000	-0.001964	-0.001038	0.002121	-0.000792	6502.493896	44217.585962	3959.702976	22762.654076
12.535000	0.000328	0.000186	0.000208	-0.000102	6515.987295	44268.341569	3952.864255	22731.048662
13.035500	-0.000584	-0.000113	0.004062	0.000204	6505.720318	44210.841846	3962.195271	22717.048087
13.538500	-0.001160	-0.001464	-0.002710	0.001061	6493.688915	44001.615154	3942.225405	22677.933704
14.038500	-0.002256	-0.000414	-0.001610	0.001900	6477.479682	44021.534261	3942.902956	22639.651953
14.536000	-0.003073	0.000192	-0.000302	0.002766	6463.450498	43996.932015	3944.050082	22600.245308
15.036500	0.002490	0.000276	0.001954	0.000998	6524.959524	44172.384111	3954.557298	22680.773254
15.537000	-0.001114	0.000414	0.001051	0.002374	6483.067037	44055.000962	3948.595291	22618.097348
16.037000	-0.001571	-0.000592	0.002757	0.000209	6497.382493	44164.832934	3958.740450	22716.824886
16.535000	0.000048	-0.000242	0.001811	0.000906	6505.127861	44131.949409	3954.424459	22684.980542
17.035000	-0.000484	-0.000873	-0.002032	-0.003854	6540.893701	44525.488992	3956.832683	22903.512303
17.535000	0.000856	-0.000405	-0.001213	0.000938	6511.671665	44113.443392	3946.435841	22683.528040
18.035500	-0.001240	-0.000224	0.000628	0.001135	6492.385668	44111.983647	3950.726064	22674.537119
18.536000	-0.000378	-0.000889	-0.002746	0.000843	6502.080545	44076.601465	3942.697992	22687.888800
19.036500	0.000236	-0.000278	0.003077	0.001482	6501.867595	44073.975091	3956.235159	22658.706165
19.536500	-0.000812	-0.000567	-0.000337	0.001342	6494.251875	44059.842196	3947.668089	22665.119056
20.038000	0.000836	-0.000489	0.001628	0.001035	6510.684583	44096.318788	3953.605669	22679.095236
20.538000	-0.000028	-0.000365	0.000434	0.000987	6503.811274	44112.588613	3950.605171	22681.288748
21.037500	-0.000841	-0.000648	0.003493	0.001086	6496.144910	44076.384942	3958.371318	22676.758754
21.535000	-0.002707	-0.000034	-0.004220	0.001672	6475.627260	44079.055975	3936.736071	22650.057416
22.035000	0.000107	-0.000265	-0.000625	0.001327	6502.081533	44089.838420	3946.954027	22665.763230
22.538000	-0.001450	-0.000117	-0.003316	0.001600	6486.736504	44078.072948	3939.257751	22653.342912
23.036000	-0.000344	-0.000332	0.001579	0.001341	6498.179451	44082.130594	3952.676883	22665.130757
23.539000	-0.001722	-0.000176	0.000707	0.001776	6482.979188	44055.769553	3949.257815	22645.299263
24.036500	-0.000331	0.000060	-0.000024	0.001423	6497.603893	44111.590095	3948.273291	22661.415981
24.536500	-0.001152	-0.000558	0.000461	0.000855	6495.479131	44106.853782	3951.021555	22687.320697
25.037000	-0.002229	-0.000311	0.000906	0.001549	6480.648839	44064.550860	3950.370978	22655.671000
25.537000	-0.002254	-0.001690	-0.002385	0.000828	6486.466042	44002.290397	3943.675321	22688.569343
26.035000	0.000111	-0.000018	0.002292	0.001759	6498.496802	44072.412129	3953.450590	22646.109723
26.535500	-0.001909	0.000449	-0.000130	0.002017	6479.401572	44092.066188	3946.446962	22634.320191
27.038000	0.001187	0.000140	-0.000239	-0.000575	6527.249952	44309.017460	3952.934057	22752.711858
27.535500	-0.000829	-0.001069	0.002639	-0.001439	6517.507050	44276.158618	3962.776649	22792.322962
28.035500	0.001794	0.000159	-0.002688	0.000826	6520.539148	44177.653375	3942.893265	22688.657536
28.536000	-0.001912	-0.000743	0.001270	0.000105	6495.395483	44160.428227	3955.107416	22721.596908
29.036500	0.000393	-0.000347	0.001476	0.000640	6510.283188	44147.310659	3954.244145	22697.161030
29.537000	0.000599	-0.000757	0.001093	0.000243	6515.361883	44145.982310	3954.279003	22715.272758
30.037000	-0.002438	-0.001125	0.001513	0.002057	6474.655742	43939.525090	3950.631009	22632.526454
30.537500	-0.000734	-0.000109	0.000162	0.003247	6478.948249	43923.127694	3944.007856	22578.429963
31.040500	-0.000797	-0.000541	-0.000475	0.002462	6484.988679	43956.447050	3944.392980	22614.103662
31.534500	0.000666	-0.000348	-0.001148	0.000469	6514.028695	44163.418965	3947.829468	22704.962833
32.035000	-0.000109	-0.000066	0.002086	0.003295	6483.774961	43922.630431	3948.894777	22576.239856
32.538500	-0.000044	-0.000059	-0.000199	0.001403	6500.184694	44102.265529	3947.869370	22662.332870
33.036000	-0.001724	0.000103	-0.000816	0.000801	6491.134597	44174.739853	3947.829623	22689.807939
33.538500	0.000832	-0.000138	0.003470	-0.001985	6536.193919	44416.995567	3966.420580	22817.404518
34.036500	-0.000774	0.000340	0.002473	0.003245	6478.627440	43965.592391	3950.033640	22578.491598
34.536500	-0.002546	0.000085	0.000254	0.001944	6474.696257	44064.556408	3947.637655	22637.668345
35.037000	-0.002069	-0.000839	-0.003471	0.001418	6483.075140	44026.924100	3939.328224	22661.620226
35.540000	-0.001501	-0.000005	-0.000016	0.002214	6481.164268	44030.480290	3946.231480	22625.351655
36.035000	-0.000320	0.000417	-0.001034	0.003169	6483.058341	43980.023806	3941.104358	22581.929694
36.535000	-0.002060	-0.000665	-0.000572	0.001855	6479.499252	44002.095535	3945.720351	22641.736362
37.035500	-0.000668	0.000180	0.003178	0.002478	6485.935691	44023.016309	3953.888922	22613.365759
37.536000	-0.002153	-0.000149	0.001158	0.002203	6475.810319	44017.884338	3949.319578	22625.852195
38.036500	-0.000321	-0.000378	-0.000224	0.001892	6493.751614	44025.739784	3946.529002	22640.042854
38.536000	0.000324	-0.000703	-0.000572	0.001786	6500.053860	44004.965513	3945.899770	22644.875154
39.036500	-0.001144	-0.000309	0.005662	0.001845	6487.250055	44036.651502	3962.089028	22642.190786
39.537000	-0.001281	-0.000296	0.000286	0.001788	6486.582201	44043.296813	3948.129935	22644.790506
40.040000	-0.003229	-0.001252	0.001518	0.001371	6473.775827	43992.252849	3952.438937	22663.775535
40.534500	-0.000742	-0.000071	0.003348	0.001776	6491.193047	44065.770516	3956.176253	22645.336047
41.035500	0.000519	-0.000431	-0.000831	0.001540	6503.761964	44053.913015	3945.861831	22656.048391
41.535500	-0.001648	-0.000071	0.002382	0.002230	6479.807858	44022.712773	3952.451934	22624.646954
42.035500	-0.000087	-0.000464	-0.001317	0.001722	6497.141182	44033.627054	3944.125512	22647.761391
42.535500	-0.001504	-0.000258	-0.004459	0.001933	6483.499706	44033.149126	3935.444694	22638.165310
43.036000	0.000422	0.000178	0.002860	0.002335	6496.262354	44036.368565	3953.426095	22619.842204
43.536500	0.000212	0.000030	0.002325	0.001450	6501.935729	44106.131133	3954.344363	22660.158789
44.036500	-0.003538	-0.000446	-0.001361	0.005063	6440.555362	43720.405431	3935.363704	22496.136409
44.537000	-0.001506	-0.000678	0.004234	-0.000150	6500.952106	44190.814853	3963.586953	22733.278178
45.037500	-0.001806	-0.001409	-0.002056	-0.000557	6501.842594	44160.029970	3948.136992	22751.886809
45.535000	-0.000823	-0.000932	-0.003241	0.003111	6479.346580	43858.328822	3935.549423	22584.597969
46.035500	-0.002416	-0.000485	0.000349	0.003856	6459.855934	43830.196534	3942.910616	22550.766887
46.535500	-0.000999	-0.000756	0.002766	0.000272	6501.657905	44143.297782	3958.598902	22713.938471
47.036000	0.000645	-0.000264	0.001772	0.001111	6508.436399	44110.455291	3953.787033	22675.656117
47.536000	-0.001519	0.000073	0.003611	0.003697	6468.643425	43897.737540	3951.828175	22557.966715
48.036500	-0.002761	-0.000405	-0.005631	0.004904	6448.298655	43739.141283	3924.807273	22503.297881
48.537000	-0.001781	0.000379	0.001677	0.001225	6487.102422	44160.601061	3953.235866	22670.419833
49.036500	-0.002336	-0.000491	-0.000161	0.000812	6485.920276	44117.310278	3949.511236	22689.302977
49.537500	-0.001256	-0.000378	-0.000087	0.001482	6489.343293	44064.443450	3947.953373	22658.702796
50.035000	-0.002833	-0.000211	-0.006271	0.004758	6448.912357	43771.092044	3923.546847	22509.916821
50.535000	0.001962	-0.001162	0.002256	0.000274	6526.620884	44104.640791	3957.251322	22713.845132
51.035500	-0.004763	-0.016018	0.012211	0.021595	6296.719651	40814.610117	3927.755476	21762.640060
51.535500	0.003006	-0.021853	0.022485	0.167517	5357.673333	29644.913926	3629.309644	16367.811842
52.035500	-0.016304	-0.043265	-0.030134	-0.171134	8080.920367	58380.787795	4388.087826	32322.215993
52.536000	-0.027131	-0.016725	-0.039293	-0.121309	7399.147812	55486.518230	4188.343201	29128.602186
53.037000	-0.013283	-0.084741	-0.031893	-0.261043	9328.893129	64921.547448	4742.030403	39099.164954
53.536500	-0.005242	-0.061537	-0.011280	-0.226725	8948.542468	63355.396616	4682.179262	36345.647811
54.037000	0.001070	-0.027305	-0.008193	-0.132811	7834.598185	55598.276943	4329.863834	29833.657598
54.534500	-0.002992	-0.027818	-0.004562	-0.153359	8027.437348	58084.395956	4416.577045	31140.614221
55.035000	-0.006039	-0.031063	-0.006616	-0.173772	8238.644547	60307.879215	4485.721022	32501.687125
55.535000	0.004412	-0.028439	0.007565	-0.168650	8305.163937	59978.991782	4520.934990	32154.158112
56.035500	0.017436	-0.012310	0.027736	-0.093218	7575.041357	52698.658993	4317.141257	27483.200505
56.536000	0.023675	-0.006125	0.039791	-0.021570	6914.454553	45736.214651	4124.568560	23738.102962
57.036000	0.035968	0.003979	0.055847	0.025635	6600.533902	42232.042499	4033.950492	21587.600734
57.539000	0.054467	0.016977	0.068553	0.057673	6485.424215	40546.642751	3980.892765	20255.653397
58.036500	0.066082	0.028441	0.070770	0.074798	6439.602817	40059.652991	3941.558836	19583.011874
58.537000	0.073356	0.035532	0.084804	0.096464	6322.606912	38834.536274	3921.937807	18769.118524
59.037500	0.084024	0.041350	0.097598	0.118208	6235.173123	37542.068468	3899.365133	17992.103719
59.537000	0.093612	0.046701	0.104686	0.147942	6081.747428	35652.983681	3844.285889	16990.672212
60.035000	0.101623	0.052478	0.111398	0.154959	6089.148518	35559.623061	3843.560708	16764.143728
60.535500	0.110984	0.056419	0.119045	0.153643	6169.760384	35956.936292	3865.005502	16806.357798
61.035500	0.120348	0.059977	0.129021	0.181750	6029.550067	34142.340627	3822.082261	15932.245135
61.536000	0.121501	0.062754	0.134473	0.211820	5824.764633	32241.843105	3766.596773	15057.646971
62.041500	0.124524	0.067079	0.143098	0.250201	5592.202112	30031.848920	3703.600211	14025.806385
62.536500	0.129121	0.072304	0.141714	0.245501	5651.526445	30658.109938	3710.407672	14147.306614
63.039500	0.132447	0.075724	0.145479	0.245768	5671.330736	30860.087158	3717.647078	14140.369719
63.536000	0.136089	0.077047	0.147050	0.246564	5689.875902	30893.975005	3719.259647	14119.715370
64.043000	0.136431	0.078511	0.153701	0.251945	5657.123138	30642.994857	3721.905661	13981.043851
64.534500	0.141086	0.079570	0.157384	0.246178	5725.288422	31081.857361	3741.851566	14129.725388
65.035000	0.142173	0.082092	0.157426	0.247959	5720.699958	31129.894968	3738.147816	14083.590761
65.535500	0.143290	0.083919	0.157333	0.249096	5720.566308	31174.719509	3735.536144	14054.239318
66.036000	0.142592	0.083936	0.153957	0.253694	5685.780979	30878.496915	3718.796235	13936.346480
66.538500	0.149042	0.085664	0.154328	0.248672	5761.673053	31316.062382	3730.084818	14065.182617
67.036500	0.146582	0.085757	0.158290	0.247617	5752.274775	31391.231745	3740.715027	14092.440813
67.536500	0.150437	0.088968	0.160023	0.251081	5754.887544	31374.623209	3737.033156	14003.191501
68.036500	0.148525	0.089508	0.154030	0.255329	5713.975319	31132.892865	3715.551628	13894.705385
68.536500	0.151291	0.090429	0.159641	0.250283	5765.956815	31522.948402	3737.915207	14023.687415
69.037500	0.154523	0.091980	0.162388	0.251638	5778.587098	31535.803121	3740.878523	13988.911742
69.535000	0.156814	0.093042	0.163676	0.253579	5780.945018	31478.045876	3739.487737	13939.279247
70.035500	0.151666	0.093165	0.164518	0.259360	5708.119677	31108.666959	3729.038531	13792.765353
70.538500	0.155658	0.093645	0.162157	0.254649	5765.965017	31447.359138	3733.994943	13912.004362
71.036000	0.157733	0.094354	0.166470	0.257670	5759.617069	31296.011365	3736.733223	13835.389152
71.536000	0.154087	0.096392	0.170055	0.262182	5705.480919	31134.891385	3734.767979	13721.935313
72.036500	0.156487	0.096888	0.164278	0.261920	5723.030011	31184.172799	3723.163609	13728.477877
72.537000	0.157591	0.096455	0.168492	0.263753	5718.218764	31037.230044	3728.155878	13682.718356
73.037000	0.161181	0.098071	0.167837	0.267185	5719.262963	30919.970822	3719.606228	13597.510948
73.537000	0.162286	0.098139	0.170777	0.268310	5719.129560	30851.914553	3723.392311	13569.720775
74.035000	0.162482	0.099045	0.171269	0.270743	5704.388054	30753.943287	3719.343874	13509.886259
74.535000	0.163549	0.100186	0.171695	0.273103	5695.902053	30675.958491	3715.325629	13452.152299
75.035500	0.160829	0.100736	0.177445	0.274421	5669.572536	30626.979276	3724.558217	13420.061864
75.535500	0.165535	0.100391	0.175201	0.275699	5691.912815	30523.726752	3717.213704	13389.030777
76.035500	0.166191	0.101836	0.167000	0.277234	5686.169725	30517.979323	3697.218379	13351.868870
76.536000	0.164385	0.101603	0.174619	0.277287	5674.059911	30499.893097	3712.718293	13350.598686
77.036500	0.164769	0.102139	0.176188	0.278127	5671.093823	30480.585420	3714.226736	13330.313754
77.537000	0.164231	0.102093	0.178767	0.278054	5668.074324	30482.303603	3719.733507	13332.082736
78.037000	0.159581	0.101350	0.173902	0.282744	5608.119786	30139.843818	3700.049820	13219.566539
78.537500	0.163402	0.102986	0.176989	0.279617	5652.594705	30439.834584	3712.801694	13294.451688
79.034500	0.163368	0.101984	0.166574	0.278455	5659.884626	30449.943123	3693.879561	13322.401678
79.535500	0.163793	0.103119	0.170393	0.279199	5657.825035	30474.742556	3700.124424	13304.503041
80.035500	0.160648	0.101357	0.168818	0.282622	5615.684862	30148.000109	3689.998287	13222.493952
80.536000	0.166798	0.102533	0.173956	0.278562	5681.459420	30477.951503	3708.721170	13319.817302
81.035500	0.164920	0.101508	0.172331	0.277193	5678.143915	30499.738463	3708.195840	13352.849106
81.536000	0.165592	0.103694	0.171844	0.278796	5672.088662	30536.797812	3703.908028	13314.192041
82.037000	0.165236	0.103249	0.172603	0.282613	5645.110214	30267.327046	3697.674509	13222.707798
82.536500	0.165107	0.103852	0.176081	0.279267	5665.886024	30516.933362	3711.647511	13302.858262
83.037000	0.167680	0.103326	0.178121	0.279299	5682.406925	30481.486819	3715.802726	13302.091176
83.534500	0.164028	0.103199	0.178704	0.279984	5654.267824	30430.052104	3715.590015	13285.621706
84.037500	0.163730	0.102592	0.176013	0.282539	5635.911546	30230.660700	3704.781145	13224.472748
84.535000	0.164655	0.101822	0.170437	0.279397	5662.115022	30380.133570	3699.809171	13299.735050
85.035500	0.166318	0.103536	0.177202	0.280418	5666.273682	30423.921634	3711.585903	13275.209201
85.536000	0.165092	0.101748	0.177146	0.279522	5664.136026	30367.527125	3713.321619	13296.719499
86.036500	0.163989	0.102913	0.175887	0.285019	5621.695944	30095.281468	3699.458234	13165.436601
86.536000	0.167702	0.102888	0.175004	0.282423	5662.256133	30256.535849	3702.954970	13227.242000
87.036500	0.165095	0.101833	0.172015	0.282005	5648.115977	30216.555582	3697.715529	13237.228319
87.537000	0.166422	0.101424	0.175152	0.284484	5640.702585	30035.721080	3699.051989	13178.134264
88.034000	0.163127	0.101740	0.175878	0.286476	5606.940752	29931.349499	3696.480045	13130.919019
88.537000	0.169127	0.101457	0.175553	0.284532	5657.825875	30034.819132	3699.771766	13177.006934
89.035500	0.166387	0.102137	0.177908	0.285666	5632.895753	30006.524318	3702.262167	13150.102306
89.535500	0.166981	0.102134	0.179661	0.287658	5623.954701	29882.431990	3701.774037	13102.997608
90.036000	0.169867	0.102529	0.176779	0.288128	5639.428637	29877.811528	3694.957109	13091.920537
90.536000	0.167954	0.100405	0.181259	0.286855	5635.320621	29825.066246	3706.689136	13121.966843
91.036500	0.166512	0.100197	0.179291	0.287515	5621.871344	29771.378824	3701.311452	13106.381499
91.536500	0.168148	0.100568	0.176789	0.288892	5623.521784	29709.294089	3693.430488	13073.928712
92.037000	0.168425	0.101682	0.183074	0.290081	5617.702901	29704.626403	3703.795106	13045.991300
92.537000	0.170641	0.101568	0.183407	0.291030	5625.792152	29639.224469	3702.537760	13023.766349
93.037500	0.168391	0.101407	0.173275	0.291086	5611.093681	29625.940383	3681.964965	13022.458442
93.537500	0.167318	0.100750	0.180532	0.292324	5596.444668	29509.716611	3694.060031	12993.522441
94.035500	0.171781	0.101124	0.181352	0.292963	5620.733023	29493.544071	3694.427424	12978.623506
94.536000	0.169040	0.101602	0.183637	0.293699	5598.636624	29477.735949	3697.567371	12961.483354
95.036000	0.170602	0.100937	0.180827	0.293959	5606.885316	29421.227804	3691.353234	12955.430110
95.536500	0.166795	0.099722	0.184155	0.294159	5581.573415	29335.119971	3697.685474	12950.780908
96.036500	0.170085	0.101948	0.183251	0.295456	5594.133044	29391.600961	3693.224784	12920.680336
