sample name	sample
index	200
start time	 02-18-2021  12:24:28 PM
880	0.456940
Peak Time (s)	90.537
Peak Height 	0.4569
calc peak height	90,93
Baseline Time (s)	8.536
Baseline Value 	-0.002869
subtract baseline	10,4
Abs	0.324006
Peak Time (s)	90.537
Peak Height 	0.324
calc peak height	90,93
Baseline Time (s)	11.035
Baseline Value 	0.001403
subtract baseline	10,3
PK_550	0.156485
Peak Time (s)	90.537
Peak Height 	0.1565
calc peak height	90,93
Baseline Time (s)	11.535
Baseline Value 	2.266E-4
subtract baseline	10,2
PK_880	0.310686
Peak Time (s)	92.535
Peak Height 	0.3107
calc peak height	90,93
Baseline Time (s)	10.037
Baseline Value 	0.001251
subtract baseline	10,1


Time (s)	A880-A510	A880-A775	A880-A975	A880	I510	I775	I975	I880	
0.036500	-0.000973	-0.000026	0.001990	0.003137	6672.566336	43262.214139	3915.513748	22838.016638
0.537000	-0.000582	-0.000138	-0.001258	0.004120	6667.447324	43160.662183	3905.497520	22792.956970
1.037500	-0.003403	-0.000096	-0.005358	0.004603	6638.971948	43119.825817	3894.755595	22770.834476
1.535500	-0.003860	-0.000510	0.000720	0.003275	6646.457675	43204.535777	3912.171471	22831.687584
2.035500	0.000665	0.000335	0.002603	0.001087	6704.652382	43486.712596	3921.869141	22932.339439
2.535500	0.000595	-0.000167	0.000955	0.000347	6710.515634	43508.881884	3919.697280	22966.502192
3.038500	0.001368	0.000372	-0.002481	-0.001357	6732.260294	43719.116084	3915.569796	23045.413664
3.536500	-0.002028	-0.000193	-0.004997	0.004739	6649.619519	43098.235788	3895.280391	22764.596112
4.036500	0.000040	0.000439	0.001204	0.000943	6700.453405	43509.830066	3918.869246	22938.978114
4.536500	0.000885	0.001390	0.006370	0.001380	6704.022276	43557.911600	3930.220350	22918.847378
5.037000	-0.001206	-0.000253	-0.001161	0.000197	6696.092269	43514.870959	3915.010659	22973.421276
5.534500	0.000045	0.000034	-0.001725	0.000277	6706.317052	43534.228513	3913.482628	22969.745062
6.040500	0.000350	0.000726	0.004203	0.000847	6704.003748	43545.681385	3926.283630	22943.433985
6.535500	-0.000321	-0.000196	0.000674	0.000001	6705.529333	43538.516032	3919.852204	22982.495248
7.036000	-0.000565	-0.000958	-0.001869	-0.000142	6704.656928	43480.742308	3914.135734	22989.135818
7.536000	-0.000902	0.000054	-0.005503	0.000300	6697.848493	43534.050662	3904.496833	22968.701356
8.036000	-0.002043	-0.000764	0.003421	-0.000264	6692.816983	43510.253226	3927.075377	22994.759300
8.536000	0.000540	-0.000501	-0.002037	0.000000	6713.074349	43510.172439	3913.398693	22982.545573
9.036500	-0.000022	0.000831	-0.000878	0.000648	6702.493035	43574.078647	3914.611936	22952.595194
9.536500	0.000016	-0.000046	-0.000704	0.000062	6707.943627	43546.872202	3916.419399	22979.656569
10.037000	0.000000	-0.000013	0.003069	-0.000406	6711.898527	43593.766069	3926.568535	23001.326234
10.534500	0.000590	0.000576	0.003266	-0.000136	6714.699295	43623.642669	3926.393694	22988.840066
11.035000	-0.001164	0.000004	0.000000	0.004496	6659.159945	43138.942752	3907.576892	22775.712678
11.535000	-0.000025	0.000000	0.000906	-0.000195	6709.830932	43575.195251	3920.875511	22991.548462
12.035500	-0.000228	0.000218	0.001258	-0.000284	6708.831399	43603.985277	3921.932402	22995.678023
12.535500	-0.000115	0.000214	0.000994	0.000026	6707.114158	43574.595869	3920.559276	22981.343554
13.035500	-0.005085	-0.000884	0.000240	0.004016	6629.579056	43101.247968	3909.280677	22797.721744
13.536500	0.000242	0.000297	-0.001461	-0.000284	6712.954781	43611.425052	3915.444704	22995.703830
14.036000	-0.001147	0.000344	0.001541	0.002547	6676.179625	43351.504642	3915.851552	22865.129300
14.537000	-0.002159	-0.000110	0.001491	0.002144	6670.896330	43346.681500	3916.689880	22883.639116
15.042500	-0.000188	0.000136	0.000062	0.004484	6667.700443	43152.356001	3907.753230	22776.275037
15.537500	-0.002179	-0.000093	-0.002779	0.005185	6644.479311	43066.231872	3899.422833	22744.203344
16.035500	0.001291	0.000165	0.001442	-0.000555	6724.525845	43624.392033	3923.021895	23008.238070
16.535000	-0.000126	-0.000503	0.001934	-0.000776	6714.037963	43582.531314	3924.733495	23018.476132
17.036000	-0.004509	0.000717	0.000343	0.005127	6624.997212	43146.604177	3906.898825	22746.872124
17.536000	-0.002620	-0.000591	0.002430	0.002578	6663.158868	43261.700469	3917.894998	22863.702636
18.036500	0.000135	0.000208	-0.003234	0.000863	6701.980867	43495.727035	3908.518227	22942.667442
18.536500	0.000258	0.000550	0.004300	0.001565	6696.931620	43462.148601	3924.791419	22910.307848
19.037000	0.000423	0.000115	-0.001570	0.001715	6697.061021	43407.601475	3910.441780	22903.409035
19.540000	-0.000172	-0.000454	-0.001700	0.000962	6698.444359	43424.748326	3911.916105	22938.126021
20.037500	0.000037	0.000481	0.000885	0.001423	6696.243360	43468.892095	3916.962907	22916.836909
20.535000	-0.001633	-0.000212	0.006299	0.000913	6686.145705	43451.893651	3931.175662	22940.385950
21.035500	0.001700	-0.000363	-0.000406	0.001412	6710.869448	43391.260256	3913.919736	22917.361636
21.535500	-0.001202	-0.001179	0.003915	0.000554	6693.012294	43395.150507	3926.295644	22956.928611
22.036000	-0.001359	0.000761	-0.000875	0.001546	6683.016174	43483.560046	3912.485984	22911.166830
22.536500	-0.001905	0.000379	-0.000020	0.001333	6680.130770	43467.835422	3915.025842	22921.019047
23.036500	-0.001357	0.000456	-0.000001	0.002970	6670.681947	43322.473227	3911.182729	22845.660518
23.537000	-0.000378	-0.000281	0.000992	0.000591	6699.880267	43475.477896	3919.201937	22955.221173
24.037000	0.001269	0.000322	0.007275	0.001137	6709.504688	43480.828331	3932.992214	22930.057314
24.537500	0.001020	0.000098	0.003154	0.001172	6707.020727	43456.646444	3922.985385	22928.432087
25.034500	0.000375	0.000386	0.003123	0.001338	6699.935753	43468.088201	3922.514451	22920.792331
25.535000	-0.000377	0.000042	0.004857	0.001061	6695.792113	43461.815987	3927.341949	22933.551331
26.035500	-0.000799	-0.000234	0.000572	0.000783	6694.533482	43461.971922	3917.743379	22946.369677
26.535500	0.000525	-0.000084	-0.000930	0.000881	6705.228287	43466.839431	3913.936416	22941.838063
27.036000	-0.002312	0.000435	0.001444	0.001336	6676.574646	43472.808547	3918.504624	22920.857725
27.536000	0.004400	0.000810	0.002612	-0.001413	6759.535340	43765.516937	3927.892222	23047.999965
28.036500	0.001556	-0.000141	-0.000517	-0.000294	6724.562012	43571.269185	3917.714305	22996.151884
28.537000	0.001614	-0.000497	0.002288	-0.000675	6728.418836	43573.669294	3925.339368	23013.797541
29.037000	0.000412	0.000834	0.005516	0.000056	6711.457161	43629.763013	3931.352895	22979.935297
29.537500	-0.003194	-0.000638	0.003045	0.002932	6655.142593	43224.423828	3918.515296	22847.406427
30.035000	0.000515	0.000334	0.003664	-0.000168	6714.324581	43603.936333	3927.428277	22990.319131
30.535000	-0.001035	-0.000427	0.001517	-0.000848	6706.715976	43596.429064	3923.904704	23021.813457
31.035500	-0.000881	0.000703	0.006149	0.003035	6674.252745	43339.408151	3925.701941	22842.700042
31.535500	-0.001761	0.000182	-0.000330	0.003808	6659.943415	43219.198711	3908.420849	22807.213266
32.039000	0.001360	0.000976	0.007281	-0.000012	6720.367284	43649.531771	3935.790003	22983.101103
32.536000	0.001560	0.000617	0.002991	-0.000013	6722.130227	43615.991040	3925.437332	22983.159852
33.036500	-0.004665	-0.000982	0.002234	0.004555	6628.560352	43042.359032	3912.724980	22773.019259
33.536500	-0.003095	0.000182	0.001133	0.005289	6635.721416	43082.157785	3908.382239	22739.479934
34.037000	0.000606	0.000588	0.000326	0.001429	6701.148434	43478.399932	3915.618856	22916.561793
34.537500	-0.000408	0.000206	0.001526	0.002010	6687.258680	43388.629909	3917.094317	22889.831242
35.035000	-0.000687	0.000312	-0.000491	0.002428	6681.197004	43359.579780	3911.306772	22870.584815
35.535500	-0.000971	0.000209	0.003283	0.002961	6674.115242	43300.420285	3919.015752	22846.094099
36.038500	-0.000746	0.000545	0.000559	0.002529	6679.810801	43371.884574	3913.559555	22865.951285
36.538000	-0.001545	-0.000152	0.000940	0.001930	6678.075032	43362.624626	3915.886857	22893.478639
37.036500	-0.001942	0.000089	0.002648	0.002453	6670.100409	43336.475329	3918.711241	22869.432633
37.536500	-0.001505	0.000884	0.004404	0.002698	6671.765968	43387.678852	3922.325117	22858.192467
38.037000	-0.001262	-0.000093	0.004159	0.001947	6680.386162	43366.596999	3923.537758	22892.720459
38.537000	-0.002054	-0.000497	-0.001125	0.001752	6675.205488	43347.170157	3911.406629	22901.689025
39.037500	-0.002483	0.000003	0.002798	0.002727	6663.049379	43302.913558	3918.415594	22856.823741
39.537500	-0.000700	-0.000008	0.000021	0.002019	6684.643639	43367.884606	3913.491785	22889.424225
40.035500	-0.000641	-0.000158	0.000607	0.001685	6688.055886	43384.972918	3915.680016	22904.789644
40.535500	-0.000715	0.000556	-0.003733	0.002019	6684.517302	43420.422850	3904.616520	22889.423201
41.035500	-0.001779	-0.000289	-0.001239	0.001861	6676.638087	43356.295649	3910.876342	22896.654550
41.536000	-0.002274	0.000167	-0.001936	0.001697	6673.767900	43414.129873	3909.616518	22904.217845
42.036500	0.000546	0.000827	0.007218	0.002426	6691.935585	43407.636723	3929.740171	22870.664735
42.537000	-0.000774	0.000763	-0.001953	0.002268	6681.836152	43416.416730	3908.227625	22877.945544
43.036500	-0.000326	-0.000266	0.004138	0.002007	6687.998770	43345.008746	3923.344069	22889.972982
43.537000	0.000011	0.000251	0.002992	0.001735	6693.303360	43418.457821	3921.249669	22902.490465
44.037500	0.002317	0.000390	0.004015	-0.002427	6750.063147	43821.300071	3933.728516	23095.083308
44.535000	0.002456	0.001044	0.009872	0.000067	6729.294205	43648.424909	3941.901355	22979.444320
45.035500	-0.004914	-0.000439	-0.001035	0.004735	6624.886488	43075.898958	3904.576016	22764.810256
45.535000	0.000496	0.000089	0.000633	-0.000038	6713.016640	43568.906888	3919.850104	22984.308933
46.036000	0.000597	-0.000292	0.006094	-0.000269	6715.925020	43554.814660	3933.536479	22994.988817
46.536500	0.001994	0.000544	0.002326	0.000428	6722.067923	43567.889528	3922.784328	22962.778090
47.036500	-0.003805	-0.000526	0.001350	0.005486	6627.956680	42998.507410	3908.429353	22730.486638
47.537000	-0.001557	-0.000283	0.001103	0.002814	6670.304763	43268.310240	3914.173536	22852.829305
48.036500	-0.000867	0.000322	-0.000147	0.002353	6680.293521	43367.523739	3912.301831	22874.054163
48.541000	0.000593	0.001175	0.007283	0.000440	6709.690167	43625.859598	3934.700801	22962.224996
49.035000	-0.003029	-0.000803	-0.002460	0.005070	6638.164071	43011.368263	3900.439306	22749.473982
49.534500	-0.001902	-0.000357	-0.001926	0.003263	6663.441385	43219.800858	3905.940878	22832.217605
50.035500	0.001383	-0.000966	0.006322	-0.003212	6748.748141	43767.633432	3941.239521	23131.615751
50.536000	0.002917	0.000230	0.005521	0.000427	6730.187313	43538.517241	3930.469416	22962.802752
51.035500	-0.009124	-0.005951	0.002564	-0.009997	6715.992808	43937.237262	3948.647587	23450.181420
51.535500	-0.023788	-0.014315	-0.001546	0.280044	4796.939528	23560.212243	3423.976070	13438.770480
52.036000	-0.029046	-0.023011	-0.006475	-0.075290	7135.123867	48753.487005	4096.119088	26783.947372
52.539500	-0.014638	-0.031518	0.007772	-0.176500	8423.892150	59656.014119	4465.777906	33051.793680
53.037000	0.003690	-0.019560	0.024758	-0.137173	8163.615441	56191.840710	4386.380650	30441.466073
53.534500	0.024523	-0.000185	0.041056	-0.046326	7381.409980	48110.401825	4149.136465	25243.074795
54.037500	0.044100	0.010903	0.061526	-0.004809	7161.126794	45053.491778	4089.204868	23206.130490
54.535500	0.071728	0.029632	0.084545	0.044578	6953.381645	42182.807831	4018.109916	21023.540323
55.035500	0.100624	0.046318	0.115805	0.081482	6879.507708	40397.561858	4003.444714	19547.180373
55.535500	0.131100	0.064619	0.139633	0.132335	6697.561430	37692.156283	3935.802173	17707.772239
56.036000	0.159785	0.078635	0.162875	0.170952	6611.924131	35778.047464	3899.157466	16447.995155
56.536500	0.180723	0.090379	0.182891	0.213414	6432.924276	33535.204307	3847.936207	15186.132945
57.036500	0.193494	0.103163	0.203611	0.271020	6087.367591	30534.592931	3769.308234	13660.036751
57.536500	0.187978	0.098185	0.211781	0.309440	5781.648643	27909.873581	3709.625392	12749.097427
58.037000	0.216054	0.114559	0.225251	0.306971	5990.892795	29017.393976	3740.554990	12805.250229
58.537500	0.230962	0.124054	0.237113	0.316571	6028.780926	29011.074412	3745.035304	12588.718619
59.035000	0.242889	0.134815	0.248409	0.324896	6054.754949	29157.725349	3750.958459	12404.767459
59.535500	0.251995	0.139494	0.261201	0.381735	5727.425634	26190.004218	3667.175273	11238.877609
60.035500	0.263598	0.144475	0.271285	0.384914	5782.613936	26286.755793	3679.754785	11178.080661
60.535500	0.267571	0.148574	0.277191	0.386768	5796.668911	26407.798697	3687.230709	11142.817110
61.035500	0.269300	0.150120	0.278223	0.386304	5811.273556	26516.643614	3690.006102	11151.613677
61.536000	0.272910	0.152708	0.288477	0.389847	5811.725940	26464.853379	3702.585546	11084.580021
62.037000	0.270037	0.150393	0.286914	0.388770	5799.746020	26397.844628	3701.668103	11104.900598
62.537000	0.280443	0.156619	0.290710	0.392326	5845.692323	26542.580964	3702.123253	11038.012891
63.034500	0.276843	0.158353	0.292616	0.382975	5884.827770	27152.933555	3723.649863	11215.115355
63.534500	0.283230	0.160938	0.297312	0.382908	5929.361584	27301.209565	3732.927087	11216.388701
64.043500	0.282945	0.162126	0.291998	0.385663	5908.305579	27213.469829	3717.269081	11163.809898
64.535500	0.285682	0.164824	0.294655	0.391472	5887.171855	27040.181579	3711.230903	11054.022734
65.038000	0.289229	0.164918	0.300132	0.395533	5883.645673	26820.992980	3713.938457	10978.129494
65.535500	0.288857	0.166447	0.295426	0.400454	5847.627406	26635.155836	3695.706407	10887.132554
66.036000	0.292515	0.167406	0.298397	0.404556	5844.620555	26464.236566	3693.588872	10812.044237
66.536500	0.293410	0.166916	0.297041	0.408459	5824.366104	26227.407698	3683.824344	10741.263681
67.036500	0.287536	0.165552	0.296781	0.416515	5732.368801	25727.661328	3668.623742	10597.175156
67.537000	0.291472	0.167760	0.303640	0.415507	5764.684795	25897.091683	3682.997360	10615.063353
68.037500	0.293217	0.167878	0.301011	0.419691	5748.694935	25683.085245	3670.533678	10541.092322
68.535000	0.293675	0.165719	0.300424	0.421249	5741.514108	25489.248037	3666.649564	10513.733781
69.038000	0.289815	0.165761	0.302457	0.430229	5659.025166	25029.753500	3654.202270	10357.934658
69.535500	0.293205	0.168008	0.300537	0.431722	5671.056964	25068.160735	3648.160340	10332.339593
70.036000	0.294544	0.166429	0.301198	0.431762	5679.332237	24985.817339	3649.255841	10331.661395
70.536000	0.296851	0.169499	0.304187	0.436893	5661.388125	24881.422009	3645.483513	10244.391688
71.036500	0.295512	0.167942	0.305076	0.438600	5642.156231	24717.142210	3644.047574	10215.585214
71.536500	0.299166	0.166340	0.304552	0.440510	5653.148673	24541.683210	3639.789817	10183.481275
72.037000	0.297345	0.166415	0.304358	0.441874	5633.097389	24477.586387	3637.076101	10160.635308
72.537000	0.296467	0.166129	0.307960	0.444316	5612.365405	24342.736022	3639.094915	10119.935016
73.035500	0.295309	0.165207	0.300303	0.450681	5565.954415	23986.525285	3615.050308	10014.906188
73.535000	0.296410	0.163988	0.312880	0.447992	5589.237210	24057.898881	3641.267447	10059.091623
74.035500	0.298215	0.166253	0.310177	0.451023	5581.683596	24020.638060	3631.311330	10009.297172
74.535500	0.299151	0.165221	0.314996	0.452451	5578.653425	23901.558701	3637.182861	9985.964504
75.036000	0.294857	0.163835	0.303536	0.455357	5534.784352	23695.407306	3612.620981	9938.723688
75.536000	0.296386	0.164727	0.309583	0.455863	5540.969500	23713.832975	3621.998646	9930.524583
76.036500	0.298617	0.164431	0.310415	0.456156	5552.731429	23685.671408	3622.915262	9925.772716
76.537000	0.297873	0.163416	0.313649	0.456658	5545.166501	23613.321084	3627.590539	9917.669654
77.037000	0.295292	0.162983	0.306428	0.463195	5490.411461	23284.093951	3604.347905	9812.831026
77.540000	0.299692	0.162168	0.309960	0.459408	5539.521635	23423.845095	3616.621322	9873.379270
78.034500	0.299165	0.163103	0.316186	0.460201	5531.544492	23430.563374	3625.865943	9860.659948
78.535000	0.301018	0.161434	0.314957	0.459978	5544.101057	23362.390173	3624.145186	9864.221856
79.036000	0.299714	0.163090	0.314831	0.467562	5490.740818	23085.471650	3611.090900	9743.684718
79.536000	0.302743	0.162201	0.317061	0.463213	5534.957826	23246.648650	3622.213973	9812.543576
80.036000	0.302397	0.160459	0.313692	0.461986	5540.287812	23222.565512	3618.574328	9832.098450
80.536500	0.300840	0.160077	0.316007	0.461624	5533.064098	23221.604494	3623.127508	9837.881001
81.036500	0.298734	0.159932	0.306943	0.467180	5487.189289	22957.049267	3598.602207	9749.696481
81.539500	0.299837	0.158694	0.311284	0.461187	5529.646960	23177.529428	3615.853331	9844.876643
82.037500	0.302417	0.160072	0.319842	0.462865	5535.094885	23163.505169	3627.565373	9818.090956
82.534500	0.300727	0.159551	0.316896	0.462365	5527.914453	23162.573320	3623.380189	9826.066263
83.035000	0.296595	0.157884	0.313451	0.461477	5508.430428	23126.291096	3619.030682	9840.240135
83.535000	0.300453	0.158027	0.315949	0.462400	5526.049383	23090.062045	3621.706528	9825.499994
84.035500	0.301898	0.157719	0.319543	0.461318	5541.316693	23126.025573	3629.710553	9842.778609
84.536000	0.299698	0.157261	0.319528	0.460385	5533.651120	23148.096514	3631.291569	9857.707323
85.036000	0.300647	0.157524	0.316868	0.460851	5536.569776	23138.656370	3625.920494	9850.245402
85.539000	0.302366	0.157151	0.318377	0.461706	5541.801933	23081.604233	3627.041093	9836.576974
86.037000	0.301643	0.157439	0.324717	0.460752	5543.198315	23139.311361	3639.653742	9851.824033
86.537000	0.300852	0.157450	0.316955	0.460340	5540.904775	23159.016544	3626.945075	9858.426941
87.034000	0.298639	0.155502	0.317119	0.463562	5508.183879	22919.676422	3621.721332	9807.005132
87.535000	0.304469	0.156203	0.315304	0.458964	5571.323978	23165.019554	3626.474295	9880.507327
88.035500	0.303330	0.156007	0.318232	0.458348	5568.125917	23184.577043	3632.571757	9890.416758
88.535500	0.303297	0.155463	0.315400	0.458143	5569.171350	23168.758686	3628.045620	9893.708539
89.035500	0.303017	0.155427	0.321477	0.462732	5539.527366	22954.435381	3630.607183	9820.213325
89.536500	0.303405	0.154725	0.305842	0.456871	5577.637093	23193.698984	3613.952775	9914.229665
90.036500	0.307607	0.156087	0.315552	0.456745	5604.353182	23263.214815	3630.711619	9916.254241
90.536500	0.305993	0.156485	0.324006	0.456940	5593.154608	23272.698080	3645.080573	9913.103626
91.037000	0.304633	0.155244	0.317797	0.456176	5589.477582	23250.371302	3635.577883	9925.457503
91.536500	0.307987	0.153023	0.322676	0.455048	5617.275815	23199.358485	3646.070364	9943.729827
92.034000	0.309083	0.153796	0.322599	0.454628	5626.734420	23255.049589	3646.671814	9950.532170
92.535000	0.310686	0.154014	0.316465	0.454349	5638.540768	23278.354670	3636.437401	9955.077653
93.035500	0.307845	0.152857	0.320424	0.453399	5626.681751	23268.622453	3645.010633	9970.517500
93.535500	0.309288	0.153896	0.320944	0.453915	5632.493272	23293.175992	3645.017691	9962.131411
94.038500	0.310188	0.154129	0.319718	0.453002	5643.880339	23346.973516	3644.467418	9976.989798
94.536000	0.310204	0.154470	0.323872	0.453014	5643.905093	23362.439722	3651.772856	9976.792587
95.036000	0.309963	0.154181	0.318536	0.453904	5636.792202	23307.023809	3640.818685	9962.298538
95.536500	0.311220	0.153258	0.327084	0.452430	5653.993804	23332.882515	3658.526455	9986.305226
96.037000	0.311109	0.153543	0.324521	0.452490	5652.911957	23343.436516	3653.852830	9985.331154
96.537000	0.312413	0.153916	0.327727	0.452431	5661.536103	23363.787187	3659.676730	9986.301614
