sample name	sample
index	1513
start time	 05-18-2021  03:06:30 PM
880	0.444722
Peak Time (s)	91.038
Peak Height 	0.4447
calc peak height	90,93
Baseline Time (s)	11.036
Baseline Value 	-0.003323
subtract baseline	10,4
Abs	0.294209
Peak Time (s)	92.035
Peak Height 	0.2942
calc peak height	90,93
Baseline Time (s)	9.535
Baseline Value 	0.003441
subtract baseline	10,3
PK_550	0.168021
Peak Time (s)	90.037
Peak Height 	0.168
calc peak height	90,93
Baseline Time (s)	10.535
Baseline Value 	4.7407E-4
subtract baseline	10,2
PK_880	0.286926
Peak Time (s)	92.536
Peak Height 	0.2869
calc peak height	90,93
Baseline Time (s)	11.036
Baseline Value 	0.00172
subtract baseline	10,1


Time (s)	A880-A510	A880-A775	A880-A975	A880	I510	I775	I975	I880	
0.037000	0.001928	-0.000368	-0.001045	0.001261	6623.938389	44091.407059	4007.575794	22853.305298
0.537000	-0.001885	-0.000474	-0.007056	0.003120	6577.199278	43906.215073	3989.413030	22768.598400
1.035500	-0.004097	-0.001425	-0.006290	0.001893	6569.146244	43932.169855	3993.981771	22824.473619
1.537000	-0.004663	-0.001043	-0.004899	0.004688	6541.791996	43705.591030	3990.761884	22697.403961
2.036000	-0.000431	-0.000790	0.000088	-0.000345	6617.692469	44203.346681	4013.973860	22926.768358
2.536500	-0.001136	-0.001146	-0.001836	-0.000573	6613.752738	44191.286902	4010.006568	22937.237230
3.036500	-0.000167	-0.000114	0.002422	-0.002471	6637.547997	44469.778020	4024.480784	23024.502728
3.537000	-0.002668	-0.000684	0.000549	0.001141	6587.002607	44072.946746	4011.575104	22858.804760
4.037500	-0.001745	-0.001049	-0.000719	0.000903	6596.546047	44060.924613	4009.169738	22869.678365
4.537000	0.000587	-0.000343	-0.000611	-0.000016	6623.414067	44214.606467	4011.569165	22911.734390
5.035000	-0.001235	-0.000319	-0.003477	-0.000168	6609.582368	44231.203174	4005.241280	22918.655643
5.535000	-0.001342	-0.000305	0.001915	0.001269	6596.851144	44096.644627	4014.474695	22852.958046
6.038000	0.000510	-0.000786	-0.004362	0.001190	6612.781170	44058.647076	4000.044512	22856.545373
6.535500	-0.000659	-0.000431	-0.005826	-0.000447	6616.660771	44247.161443	4000.445111	22931.468397
7.036000	0.000785	-0.000261	0.001106	-0.000354	6627.856282	44254.461764	4016.382617	22927.201160
7.540000	0.000001	-0.000710	0.000187	-0.000565	6623.100768	44231.851335	4014.721506	22936.872052
8.036500	-0.000093	-0.000021	-0.001804	0.001243	6607.364670	44125.822546	4005.850614	22854.110435
8.536500	-0.001446	-0.001234	0.000907	-0.000502	6610.601862	44176.301315	4016.262930	22933.994445
9.037500	0.000071	0.000384	-0.002543	0.000195	6617.386087	44263.544428	4006.569254	22902.040998
9.535000	-0.001099	-0.000747	0.000000	-0.000495	6613.411573	44221.661845	4014.118645	22933.656013
10.035000	-0.000316	-0.000276	-0.000226	0.001456	6603.765116	44081.650836	4009.029910	22844.387203
10.535000	0.000497	0.000000	0.002651	-0.000139	6623.686307	44258.807108	4019.513544	22917.352098
11.035500	0.000000	0.000180	-0.004371	0.000000	6618.411708	44262.726929	4002.777611	22910.980151
11.535500	0.000801	0.000281	0.003344	0.000047	6624.661729	44267.753540	4020.708076	22908.820931
12.036000	-0.001151	-0.001074	0.003504	0.000198	6607.253945	44125.136079	4020.727459	22901.896432
12.536500	-0.001084	-0.000727	-0.000904	-0.000705	6615.275951	44243.597507	4012.496006	22943.319504
13.037000	0.000005	-0.000015	-0.002686	-0.001209	6628.481694	44359.011178	4009.507834	22966.425816
13.537000	0.000625	0.000328	0.002647	-0.000325	6626.294184	44307.630517	4019.941340	22925.892864
14.037000	-0.000504	0.000220	-0.002349	0.001939	6598.231369	44082.879172	4002.969493	22822.360485
14.538000	-0.002133	-0.000760	-0.001772	0.001394	6589.317591	44041.817493	4005.572766	22847.218694
15.034500	-0.000478	-0.000676	-0.002415	-0.000712	6620.354103	44249.012598	4008.980783	22943.624429
15.538000	0.000850	-0.000879	-0.003940	-0.001074	6634.386893	44264.089555	4006.272471	22960.241059
16.036000	-0.001574	0.000300	-0.003303	0.001738	6591.087747	44109.487132	4001.226719	22831.542385
16.536000	-0.001175	-0.000954	0.000641	-0.000992	6616.898722	44249.164924	4016.790136	22956.461096
17.036500	0.001432	0.000687	0.004930	-0.002967	6655.027719	44593.609824	4031.616941	23047.343517
17.536500	0.001462	-0.000481	-0.005279	-0.000273	6632.817533	44225.935228	4001.307418	22923.507800
18.037000	-0.001780	-0.000199	-0.001858	0.000628	6598.527227	44167.247362	4007.155503	22882.241689
18.537000	0.001998	-0.000155	-0.003399	0.000519	6630.677307	44181.768261	4003.827514	22887.215101
19.034500	0.000054	-0.000072	-0.003958	0.000660	6613.397145	44176.312594	4002.206682	22880.784674
19.535000	-0.001185	0.000489	0.001085	0.000989	6600.451785	44198.222035	4013.185194	22865.747879
20.035000	-0.001291	0.000079	0.000861	0.000829	6600.896115	44174.617685	4013.034935	22873.061019
20.535500	0.000875	-0.000202	-0.001422	0.000232	6623.738680	44204.491446	4009.094531	22900.350049
21.035500	-0.000352	-0.000145	-0.003932	0.000695	6609.753717	44165.999105	4002.184442	22879.175814
21.536000	-0.002664	-0.000316	-0.006399	0.000758	6590.183029	44143.924868	3996.341004	22876.293906
22.036000	-0.000804	-0.001099	0.003321	-0.000367	6614.795355	44176.243856	4021.631079	22927.810895
22.537000	-0.000773	-0.000061	0.000828	0.000622	6606.879182	44180.974657	4013.442901	22882.531369
23.036500	-0.000574	-0.001125	-0.003140	-0.000249	6615.716922	44162.554830	4006.214031	22922.378003
23.537500	0.000942	-0.000047	0.003262	0.000270	6623.978756	44215.503745	4019.988833	22898.607355
24.037000	-0.001448	-0.000522	-0.005696	0.000480	6602.474617	44150.621724	3998.601740	22888.988834
24.535000	-0.000609	0.000998	0.000325	0.001475	6601.194147	44200.429241	4010.270886	22843.526747
25.037500	-0.000363	-0.000339	-0.004354	0.000346	6612.549593	44180.764524	4002.016298	22895.153648
25.535500	-0.002079	-0.000485	-0.002004	0.000086	6600.527775	44191.516793	4008.079642	22907.050658
26.035500	-0.002049	-0.000779	0.001369	0.000526	6597.146804	44122.073343	4014.935335	22886.913422
26.536500	-0.000775	-0.000737	-0.005305	0.000036	6611.705005	44172.374974	4000.532040	22909.348516
27.036500	0.000397	0.000428	0.000499	-0.000688	6627.411655	44351.613023	4015.743763	22942.531690
27.536500	0.000575	-0.000546	0.003694	-0.002344	6642.667355	44416.510700	4027.193966	23018.644435
28.037500	-0.000211	-0.000679	-0.000684	0.001700	6602.622002	44020.646889	4007.393828	22833.286309
28.537000	0.000804	0.000364	0.004523	-0.000151	6626.324373	44294.396200	4023.960411	22917.875802
29.035000	-0.000249	-0.001038	0.001071	-0.001192	6626.225259	44260.201558	4018.270245	22965.647510
29.538000	-0.000621	-0.000654	-0.003359	-0.000452	6617.014091	44226.400430	4006.174955	22931.682151
30.035000	0.001835	-0.000166	-0.000292	-0.000983	6641.829832	44323.186409	4014.580559	22956.077267
30.536000	-0.000342	-0.000681	-0.001688	0.001062	6606.804180	44080.708532	4006.543932	22862.415275
31.036500	-0.000623	-0.000749	-0.004645	0.001508	6600.809058	44032.177178	3998.657185	22842.048437
31.536000	-0.001897	-0.000613	-0.001613	-0.000027	6602.958424	44190.087754	4009.253207	22912.219502
32.036500	-0.001278	-0.000347	-0.000867	0.000247	6605.806574	44189.360106	4010.354803	22899.680389
32.537000	0.001211	0.000176	0.002944	-0.000733	6634.547471	44331.948600	4021.603949	22944.583792
33.037000	0.000657	0.000458	-0.002871	-0.000659	6629.331915	44351.686614	4007.795184	22941.202757
33.537000	0.000946	-0.000254	0.002316	-0.001872	6641.832006	44399.411969	4022.812907	22996.933259
34.035500	-0.002422	0.000313	0.001518	0.001094	6589.404846	44171.606530	4013.952825	22860.917803
34.535500	0.001252	0.000138	-0.002175	0.001527	6616.137783	44114.052662	4004.329467	22841.167972
35.035500	0.000055	0.000254	0.004361	0.001386	6607.407655	44138.445671	4019.948776	22847.601981
35.536000	-0.000503	-0.000256	0.000212	0.000975	6606.189984	44129.030119	4011.176158	22866.381077
36.036000	-0.001258	0.000233	0.002823	0.001696	6594.031651	44107.105590	4015.603264	22833.459003
36.536500	-0.000627	-0.000110	-0.001531	0.001140	6603.804692	44127.189622	4006.725899	22858.822205
37.037000	-0.000435	-0.000230	0.001334	0.000974	6606.756155	44131.548643	4013.801808	22866.400148
37.537000	0.000573	-0.000878	0.002253	0.000479	6619.191028	44117.062809	4017.121467	22889.038556
38.037500	-0.000448	-0.000759	0.000904	0.000651	6609.321590	44112.093493	4013.551624	22881.180326
38.534500	-0.001003	-0.000082	-0.000998	0.001436	6598.263386	44101.866539	4007.276619	22845.311341
39.038000	-0.000535	-0.000389	-0.001725	0.001349	6602.844735	44081.125778	4005.788919	22849.290463
39.535500	0.001288	-0.000040	-0.000575	0.001211	6619.050806	44127.109146	4008.786559	22855.592059
40.035500	0.001513	-0.000361	-0.002339	0.000917	6623.352701	44124.563541	4005.364875	22869.011234
40.536000	-0.002485	-0.001157	0.000204	0.000350	6595.005294	44102.901441	4012.616899	22894.956078
41.036500	0.000892	-0.000860	0.000018	0.000615	6620.707620	44105.965861	4011.563313	22882.845650
41.536500	-0.000902	-0.000405	-0.001895	0.000766	6604.624477	44134.675045	4006.748966	22875.933692
42.037000	-0.000174	-0.000438	-0.001933	0.000830	6610.108173	44125.566691	4006.511398	22872.998184
42.534000	0.000218	-0.000345	-0.002867	0.000688	6614.519557	44147.723180	4004.670644	22879.474453
43.034500	-0.001268	-0.000694	-0.005383	0.000276	6605.646046	44153.763543	3999.798751	22898.362232
43.538000	0.000571	0.000105	-0.002504	0.000133	6622.042785	44243.036267	4006.804790	22904.907684
44.035000	-0.002344	-0.000459	-0.001916	0.000831	6592.205860	44123.378290	4006.547237	22872.931584
44.535500	0.001077	-0.000008	-0.003608	-0.000913	6634.930238	44331.542487	4006.668956	22952.823926
45.035500	0.001923	-0.000005	0.003237	-0.000402	6637.717221	44283.220735	4021.515075	22929.388081
45.536500	-0.001513	-0.000750	0.001431	-0.001234	6616.095983	44291.535523	4019.217898	22967.574897
46.036500	-0.000868	-0.000180	0.006414	0.000378	6608.107822	44192.718889	4027.191332	22893.687941
46.536500	-0.000069	-0.000137	0.005158	-0.000537	6622.288937	44283.595866	4026.379531	22935.589082
47.037000	-0.001899	0.000231	0.005266	0.000642	6597.431348	44206.731850	4023.845010	22881.616434
47.537000	-0.003061	-0.000443	-0.003278	0.001482	6580.977394	44063.391538	4001.875644	22843.204736
48.035000	-0.002502	0.000567	-0.000566	0.003408	6569.791469	43976.967131	4003.696861	22755.468989
48.538000	-0.000738	-0.000235	-0.000332	-0.000431	6615.873843	44264.251422	4013.192406	22930.745739
49.035000	-0.000826	-0.000687	-0.000699	-0.000154	6612.850787	44195.102481	4011.683671	22918.032282
49.535500	0.000016	-0.000090	0.006118	-0.002564	6639.842229	44480.877495	4033.489403	23028.766864
50.036000	0.000273	0.000058	-0.000672	0.001535	6607.980200	44105.801285	4007.807957	22840.816304
50.536000	0.002623	-0.001044	0.006826	0.002594	6618.659294	43902.011417	4022.917119	22792.538610
51.037000	0.001910	-0.003877	0.007274	0.137749	5652.292820	32783.130764	3749.110268	17504.106929
51.537000	-0.007995	-0.014973	-0.010993	0.175153	5380.766349	29641.812867	3658.527952	16308.713634
52.036500	-0.015291	-0.032539	-0.026285	-0.128707	7691.828461	54455.518672	4283.381181	29773.042181
52.534500	-0.001421	-0.084728	-0.004333	-0.260699	9556.002834	64824.398771	4830.980458	39275.493018
53.035000	-0.005063	-0.085771	-0.000438	-0.262864	9533.804160	64983.990030	4856.758371	39456.637959
53.534500	0.006284	-0.076867	0.008365	-0.252673	9551.178346	64800.882422	4850.823114	38611.591274
54.035500	0.004660	-0.053372	0.011821	-0.217851	9025.547517	63211.247082	4721.595697	35869.052423
54.535500	0.004225	-0.032609	0.015480	-0.175561	8463.009316	60302.093370	4574.751551	32820.985441
55.036000	0.017821	-0.013812	0.021615	-0.121329	7976.944677	55816.622829	4409.264153	29322.398193
55.539000	0.029278	-0.010917	0.037773	-0.127293	8179.764446	56903.845673	4483.106784	29686.106911
56.036500	0.045667	-0.002165	0.050933	-0.099434	8045.322516	54586.189093	4433.623342	28029.145369
56.537000	0.062238	0.011330	0.070859	-0.058317	7769.240487	51410.628414	4365.169602	25769.847378
57.036500	0.085458	0.027368	0.094798	0.026363	7142.715031	44341.039303	4186.488332	21739.330550
57.537500	0.103758	0.041309	0.115795	0.094796	6693.408946	39472.459380	4063.328010	19010.053913
58.035000	0.123640	0.056388	0.136631	0.147931	6422.745147	36417.081553	3986.845372	17168.445024
58.535500	0.144819	0.068729	0.153499	0.185979	6293.166541	34499.547685	3939.692313	15981.504478
59.035500	0.161327	0.079301	0.168497	0.218471	6174.942688	32951.796539	3902.443608	15047.046679
59.535500	0.180596	0.092300	0.187781	0.251655	6075.501212	31593.980852	3873.896757	14162.157057
60.036500	0.197083	0.104686	0.203285	0.283420	5969.924837	30348.454704	3841.640770	13376.156150
60.536500	0.208382	0.112373	0.212212	0.310646	5863.750767	29147.691940	3806.757840	12746.745243
61.036500	0.215209	0.115487	0.224897	0.358973	5604.724585	26567.794420	3742.894548	11722.248392
61.537000	0.224057	0.123344	0.231520	0.363142	5632.706865	26768.314385	3747.125641	11639.088029
62.034500	0.232495	0.130395	0.243205	0.351074	5758.957861	27835.649561	3789.340001	11882.002725
62.537500	0.238280	0.137253	0.238682	0.359803	5740.465364	27729.104979	3765.503819	11705.632754
63.035000	0.238513	0.140526	0.240976	0.363054	5721.636989	27730.329194	3763.809949	11640.834207
63.544000	0.248357	0.145487	0.250790	0.361417	5793.967801	28108.080632	3784.318297	11673.397632
64.036000	0.250156	0.146416	0.251396	0.362258	5800.092621	28113.180394	3783.893496	11656.652858
64.535500	0.253111	0.148291	0.253635	0.364896	5802.122073	28069.200562	3783.168917	11604.338675
65.036500	0.254307	0.150877	0.256275	0.370326	5775.144515	27905.916863	3778.130980	11497.659745
65.536500	0.256775	0.152242	0.258845	0.374579	5763.846037	27741.210004	3775.104713	11415.016167
66.037000	0.258568	0.153872	0.264371	0.377991	5753.648873	27640.105340	3778.906271	11349.314904
66.537500	0.261474	0.155384	0.267518	0.380994	5753.038531	27555.853185	3779.165854	11291.909637
67.034500	0.262731	0.155710	0.271699	0.386252	5727.983604	27279.198774	3777.226758	11192.340227
67.535000	0.266065	0.157675	0.267574	0.382617	5771.772833	27593.591017	3776.346583	11261.049800
68.035500	0.266697	0.158984	0.277359	0.384306	5765.083521	27572.111328	3791.025074	11229.045273
68.535500	0.268444	0.160291	0.268968	0.387063	5758.711461	27490.362407	3770.883466	11177.089533
69.036000	0.264047	0.159164	0.267665	0.393451	5691.568982	27071.194649	3757.284692	11057.962064
69.535500	0.273326	0.162850	0.274924	0.393893	5746.459450	27251.250490	3769.324759	11049.779502
70.036500	0.272513	0.160663	0.274674	0.394906	5735.022035	27073.642165	3767.080772	11031.068931
70.536500	0.273954	0.164721	0.275519	0.399382	5716.127848	27050.549085	3760.663479	10948.915246
71.037000	0.270420	0.163929	0.283133	0.406541	5650.588376	26615.160831	3761.462060	10819.238802
71.537000	0.278662	0.166109	0.282210	0.404037	5716.457155	26870.701839	3764.255270	10864.361581
72.037500	0.278994	0.167791	0.281676	0.405650	5708.517909	26874.483947	3760.467982	10835.273583
72.535000	0.277518	0.166719	0.281353	0.404836	5704.420169	26860.267902	3761.329755	10849.925135
73.035500	0.273738	0.166793	0.279177	0.410574	5646.263062	26551.832471	3747.516101	10747.140953
73.536000	0.276937	0.168224	0.280281	0.405906	5694.241287	26884.124336	3757.566068	10830.657650
74.036000	0.279696	0.169708	0.280394	0.409905	5686.621269	26746.543318	3750.784824	10759.051046
74.536000	0.280614	0.170535	0.286371	0.408055	5703.667432	26893.039073	3764.506883	10792.096300
75.036500	0.277848	0.170204	0.280041	0.414890	5645.014658	26502.894308	3741.565680	10670.702257
75.536500	0.285917	0.171112	0.279115	0.410477	5721.513518	26791.945634	3747.575764	10748.858046
76.037000	0.280738	0.172179	0.289239	0.411937	5680.556529	26770.498025	3762.715274	10722.916783
76.540500	0.284378	0.172671	0.280468	0.414022	5690.093793	26683.683071	3743.793142	10686.024126
77.038000	0.284066	0.172863	0.286580	0.415487	5679.196512	26614.514794	3751.834726	10660.192807
77.535500	0.284486	0.172812	0.284925	0.416982	5672.626769	26530.816097	3746.373193	10633.933322
78.035500	0.283717	0.172274	0.288544	0.417446	5665.112584	26476.741752	3751.843660	10625.807821
78.536000	0.286732	0.173847	0.286733	0.419981	5668.032277	26424.893913	3744.319366	10581.523723
79.036000	0.282529	0.171609	0.280079	0.420083	5641.930978	26299.284380	3732.772610	10579.753389
79.536500	0.285158	0.170794	0.284265	0.420847	5653.207271	26214.910477	3738.598473	10566.454652
80.036500	0.286179	0.171828	0.283361	0.422360	5650.222853	26189.394583	3734.479029	10540.206387
80.537000	0.285906	0.170229	0.279702	0.421936	5651.142048	26126.910052	3728.999679	10547.556798
81.034000	0.284120	0.172615	0.284845	0.425345	5619.868869	26072.567218	3731.930083	10488.675505
81.540500	0.285413	0.170161	0.285128	0.424910	5630.227203	25965.823452	3733.147303	10496.161248
82.035000	0.283623	0.171564	0.294182	0.429843	5590.158084	25780.396393	3740.175272	10411.712775
82.535000	0.284411	0.171899	0.294827	0.428486	5602.873794	25869.038717	3743.612362	10434.843573
83.035500	0.281000	0.170205	0.285519	0.428404	5583.161057	25784.557715	3727.901320	10436.250746
83.536000	0.284166	0.170043	0.292760	0.429471	5595.571373	25720.333321	3738.377655	10418.045587
84.036000	0.283277	0.169087	0.291139	0.429164	5592.126863	25686.512052	3736.135923	10423.284070
84.536500	0.285708	0.168598	0.291710	0.430043	5601.329780	25615.289702	3735.612177	10408.308309
85.034000	0.282626	0.167891	0.293767	0.437080	5541.911275	25216.585812	3727.180717	10289.525985
85.537000	0.285351	0.170432	0.288727	0.433469	5578.956694	25532.755234	3724.780911	10350.242829
86.034500	0.284749	0.169279	0.292103	0.434097	5571.719394	25440.761947	3729.404272	10339.639138
86.535000	0.285645	0.169530	0.295746	0.434836	5572.640170	25415.576194	3734.322900	10327.192227
87.035000	0.279663	0.168684	0.283871	0.441401	5499.996553	25037.288381	3703.640784	10217.545297
87.535000	0.284921	0.168708	0.288970	0.436242	5560.165128	25301.198047	3720.547271	10303.572254
88.036000	0.284006	0.167716	0.291486	0.435958	5556.472341	25264.912471	3725.232687	10308.328245
88.536500	0.284950	0.169186	0.291452	0.438257	5548.582651	25222.580179	3721.327451	10269.851872
89.035500	0.282303	0.168545	0.293282	0.444169	5499.259527	24890.598845	3714.544468	10171.800487
89.536500	0.286167	0.168161	0.294134	0.438151	5556.287652	25175.715719	3725.997081	10271.620312
90.037000	0.285000	0.168021	0.294180	0.438645	5546.617578	25143.476126	3725.245460	10263.377589
90.537000	0.285312	0.167232	0.288907	0.438344	5550.180273	25118.638496	3716.945789	10268.398797
91.037500	0.283465	0.166830	0.291437	0.444722	5502.735511	24776.840972	3710.587091	10162.692252
91.535000	0.286278	0.166951	0.292575	0.438694	5553.766190	25086.567471	3722.473216	10262.546279
92.035500	0.284477	0.167912	0.294209	0.442166	5523.206074	24959.578521	3719.405327	10204.864659
92.536000	0.286926	0.166517	0.289961	0.438872	5556.510929	25055.589099	3717.818906	10259.587368
93.036500	0.281807	0.166255	0.293237	0.445194	5490.597287	24724.546480	3712.775099	10154.929255
93.553000	0.285508	0.167289	0.292545	0.440327	5539.792591	25020.993709	3719.697066	10235.358928
94.036000	0.284074	0.165670	0.289034	0.440545	5530.229931	24928.262427	3713.511401	10231.736529
94.536000	0.282092	0.165090	0.286245	0.439288	5526.051162	24962.416017	3710.986347	10252.648610
95.037000	0.286108	0.166870	0.291698	0.441571	5536.064179	24937.062173	3716.221812	10214.718442
95.540000	0.286535	0.166742	0.299158	0.440679	5543.711867	24975.560924	3730.202629	10229.516246
96.037500	0.282910	0.165754	0.284371	0.441856	5515.975098	24866.532315	3703.711257	10209.992114
