sample name	sample
index	398
start time	 03-08-2021  10:15:59 AM


Wavelength (nm)	Absorbance
494.344910	-0.091964
494.563924	-0.091964
494.782919	-0.091964
495.001897	-0.014646
495.220856	-0.042544
495.439797	-0.033010
495.658719	-0.015470
495.877624	0.005179
496.096510	0.002921
496.315378	-0.010553
496.534227	-0.002626
496.753059	-0.017542
496.971872	0.002482
497.190667	0.091723
497.409444	0.131672
497.628203	0.141370
497.846943	0.148188
498.065665	0.154386
498.284369	0.156940
498.503055	0.158555
498.721723	0.160503
498.940372	0.160686
499.159003	0.161599
499.377616	0.162643
499.596210	0.162595
499.814787	0.161289
500.033345	0.159764
500.251885	0.161068
500.470406	0.162152
500.688910	0.162432
500.907395	0.163575
501.125862	0.163948
501.344311	0.162991
501.562742	0.163876
501.781154	0.165278
501.999548	0.166744
502.217924	0.167055
502.436282	0.166524
502.654621	0.167468
502.872942	0.166946
503.091245	0.167275
503.309530	0.167816
503.527797	0.168804
503.746045	0.169078
503.964275	0.169289
504.182487	0.168885
504.400681	0.169841
504.618856	0.169660
504.837013	0.170800
505.055152	0.170841
505.273273	0.170494
505.491376	0.169825
505.709460	0.169385
505.927526	0.168739
506.145574	0.169105
506.363604	0.168769
506.581615	0.169152
506.799608	0.168351
507.017583	0.168904
507.235540	0.169074
507.453478	0.169772
507.671399	0.169965
507.889301	0.169607
508.107185	0.169599
508.325050	0.170137
508.542898	0.169735
508.760727	0.170633
508.978538	0.169410
509.196330	0.169411
509.414105	0.168718
509.631861	0.169102
509.849599	0.170352
510.067319	0.171311
510.285021	0.171299
510.502704	0.172214
510.720369	0.172374
510.938016	0.173524
511.155645	0.173645
511.373255	0.175188
511.590848	0.175722
511.808422	0.176342
512.025977	0.176154
512.243515	0.176195
512.461034	0.176237
512.678536	0.176446
512.896018	0.175901
513.113483	0.176795
513.330930	0.175855
513.548358	0.175699
513.765768	0.176341
513.983160	0.176535
514.200533	0.177030
514.417889	0.176854
514.635226	0.177428
514.852545	0.178764
515.069845	0.179052
515.287128	0.180767
515.504392	0.180711
515.721638	0.180278
515.938866	0.180516
516.156075	0.180539
516.373267	0.181095
516.590440	0.181421
516.807594	0.181629
517.024731	0.181592
517.241850	0.179793
517.458950	0.180874
517.676032	0.181266
517.893095	0.181749
518.110141	0.182326
518.327168	0.183060
518.544177	0.182687
518.761168	0.182824
518.978141	0.183879
519.195095	0.185162
519.412031	0.185579
519.628949	0.185165
519.845849	0.185845
520.062731	0.186671
520.279594	0.186338
520.496439	0.187380
520.713266	0.187323
520.930074	0.186443
521.146865	0.186921
521.363637	0.187056
521.580391	0.188252
521.797127	0.187628
522.013844	0.187163
522.230543	0.187651
522.447224	0.187163
522.663887	0.187938
522.880532	0.188644
523.097158	0.189130
523.313766	0.189411
523.530356	0.189038
523.746928	0.189774
523.963481	0.190392
524.180017	0.190541
524.396534	0.191371
524.613032	0.191386
524.829513	0.191973
525.045975	0.191945
525.262420	0.191880
525.478845	0.192884
525.695253	0.193321
525.911643	0.193266
526.128014	0.193511
526.344367	0.193654
526.560702	0.194714
526.777018	0.195344
526.993316	0.195855
527.209597	0.196184
527.425858	0.196543
527.642102	0.196497
527.858328	0.197598
528.074535	0.198414
528.290724	0.199126
528.506894	0.198906
528.723047	0.198802
528.939181	0.198312
529.155297	0.198217
529.371395	0.197987
529.587475	0.198701
529.803536	0.198798
530.019579	0.198847
530.235604	0.198945
530.451611	0.199254
530.667600	0.199790
530.883570	0.201301
531.099522	0.201993
531.315456	0.202426
531.531372	0.203423
531.747269	0.203574
531.963148	0.203829
532.179009	0.203715
532.394852	0.204273
532.610676	0.205011
532.826482	0.204806
533.042271	0.205622
533.258040	0.205869
533.473792	0.206045
533.689525	0.206000
533.905240	0.206176
534.120937	0.207052
534.336616	0.207366
534.552277	0.207767
534.767919	0.207915
534.983543	0.208211
535.199149	0.208594
535.414736	0.208341
535.630306	0.209517
535.845857	0.210077
536.061390	0.210219
536.276904	0.210514
536.492401	0.210773
536.707879	0.211307
536.923339	0.211606
537.138781	0.211771
537.354204	0.212167
537.569610	0.211717
537.784997	0.212023
538.000366	0.212388
538.215716	0.212772
538.431049	0.212592
538.646363	0.212951
538.861659	0.213508
539.076937	0.213902
539.292196	0.214150
539.507438	0.214336
539.722661	0.214634
539.937866	0.214662
540.153052	0.214722
540.368221	0.214627
540.583371	0.215014
540.798503	0.214851
541.013617	0.215391
541.228712	0.215447
541.443789	0.215945
541.658848	0.216387
541.873889	0.217318
542.088912	0.217560
542.303916	0.218113
542.518902	0.218772
542.733870	0.218668
542.948820	0.218946
543.163752	0.219695
543.378665	0.220285
543.593560	0.220421
543.808437	0.220092
544.023295	0.220429
544.238136	0.221192
544.452958	0.221109
544.667762	0.222169
544.882548	0.222410
545.097315	0.222335
545.312064	0.222616
545.526795	0.222812
545.741508	0.223175
545.956203	0.223080
546.170879	0.223082
546.385537	0.223344
546.600177	0.223341
546.814799	0.223568
547.029402	0.223647
547.243988	0.224111
547.458555	0.224515
547.673103	0.224580
547.887634	0.224752
548.102146	0.224945
548.316640	0.224970
548.531116	0.225132
548.745574	0.225564
548.960013	0.226349
549.174435	0.226250
549.388838	0.226297
549.603222	0.226755
549.817589	0.227596
550.031937	0.227763
550.246267	0.228524
550.460579	0.228967
550.674873	0.229406
550.889148	0.229827
551.103405	0.230070
551.317644	0.230277
551.531865	0.230673
551.746068	0.230658
551.960252	0.231236
552.174418	0.231145
552.388566	0.230957
552.602696	0.231164
552.816807	0.231283
553.030900	0.231235
553.244975	0.231675
553.459032	0.231731
553.673070	0.232145
553.887091	0.231886
554.101093	0.232189
554.315077	0.232887
554.529042	0.232963
554.742990	0.232476
554.956919	0.232907
555.170830	0.233085
555.384722	0.233592
555.598597	0.233814
555.812453	0.234657
556.026291	0.234923
556.240111	0.234915
556.453913	0.234801
556.667696	0.235761
556.881461	0.236202
557.095208	0.236562
557.308937	0.237059
557.522647	0.237343
557.736339	0.237106
557.950013	0.237397
558.163669	0.237489
558.377307	0.237831
558.590926	0.238058
558.804527	0.238159
559.018110	0.238214
559.231675	0.238013
559.445221	0.237999
559.658749	0.238282
559.872259	0.238379
560.085751	0.238883
560.299225	0.239164
560.512680	0.239147
560.726117	0.239514
560.939536	0.239590
561.152937	0.239825
561.366319	0.240611
561.579683	0.240254
561.793029	0.240194
562.006357	0.240482
562.219667	0.241028
562.432958	0.240934
562.646231	0.240974
562.859486	0.241497
563.072723	0.241590
563.285941	0.241225
563.499141	0.242037
563.712323	0.242388
563.925487	0.242709
564.138632	0.242861
564.351760	0.243482
564.564869	0.243422
564.777960	0.243315
564.991032	0.243197
565.204087	0.243903
565.417123	0.244231
565.630141	0.244683
565.843140	0.244741
566.056122	0.244657
566.269085	0.244404
566.482030	0.244810
566.694957	0.244931
566.907866	0.245591
567.120756	0.245386
567.333628	0.245179
567.546482	0.245473
567.759318	0.245175
567.972135	0.245222
568.184935	0.245349
568.397716	0.245471
568.610478	0.246199
568.823223	0.246060
569.035949	0.246109
569.248657	0.246598
569.461347	0.246640
569.674019	0.246865
569.886672	0.247201
570.099308	0.247586
570.311925	0.247770
570.524523	0.247590
570.737104	0.247650
570.949666	0.248027
571.162210	0.248419
571.374736	0.248187
571.587244	0.248754
571.799733	0.248847
572.012205	0.249192
572.224658	0.249794
572.437092	0.250432
572.649509	0.251056
572.861907	0.251030
573.074287	0.251008
573.286649	0.251188
573.498993	0.251240
573.711318	0.251354
573.923625	0.251360
574.135914	0.250832
574.348185	0.250548
574.560438	0.250808
574.772672	0.251003
574.984888	0.250886
575.197086	0.251146
575.409266	0.251369
575.621427	0.251818
575.833570	0.252197
576.045695	0.252641
576.257802	0.252786
576.469890	0.252766
576.681961	0.252953
576.894013	0.252985
577.106046	0.253269
577.318062	0.253141
577.530059	0.253365
577.742039	0.253413
577.954000	0.253721
578.165942	0.254404
578.377867	0.254408
578.589773	0.254795
578.801661	0.255464
579.013531	0.255624
579.225382	0.255836
579.437216	0.255686
579.649031	0.255990
579.860828	0.256177
580.072606	0.255797
580.284367	0.255982
580.496109	0.255836
580.707833	0.255661
580.919539	0.255767
581.131227	0.255911
581.342896	0.256121
581.554547	0.256037
581.766180	0.256086
581.977795	0.256270
582.189391	0.256575
582.400969	0.257177
582.612529	0.257523
582.824071	0.257830
583.035595	0.258068
583.247100	0.257974
583.458587	0.257953
583.670056	0.258254
583.881506	0.258556
584.092939	0.258914
584.304353	0.258869
584.515749	0.258945
584.727127	0.258818
584.938486	0.259065
585.149828	0.259851
585.361151	0.260328
585.572456	0.260328
585.783742	0.260505
585.995011	0.260560
586.206261	0.260912
586.417493	0.261168
586.628706	0.261474
586.839902	0.261851
587.051079	0.261755
587.262238	0.262126
587.473379	0.262194
587.684502	0.262343
587.895606	0.262256
588.106692	0.262230
588.317760	0.262594
588.528810	0.262854
588.739841	0.262977
588.950855	0.263214
589.161850	0.263070
589.372827	0.263534
589.583785	0.263828
589.794726	0.263959
590.005648	0.264077
590.216552	0.263995
590.427437	0.264493
590.638305	0.264676
590.849154	0.264581
591.059985	0.264755
591.270798	0.264821
591.481592	0.264555
591.692369	0.265066
591.903127	0.265346
592.113867	0.265308
592.324588	0.265019
592.535292	0.265268
592.745977	0.265279
592.956644	0.265709
593.167293	0.265918
593.377923	0.266379
593.588536	0.266795
593.799130	0.267135
594.009706	0.267623
594.220263	0.267688
594.430803	0.267793
594.641324	0.268226
594.851827	0.268248
595.062312	0.268474
595.272778	0.268550
595.483227	0.268205
595.693657	0.268044
595.904069	0.267982
596.114462	0.268338
596.324838	0.268138
596.535195	0.268571
596.745534	0.268846
596.955855	0.268639
597.166157	0.269005
597.376441	0.269483
597.586707	0.269731
597.796955	0.270241
598.007185	0.270681
598.217396	0.271558
598.427589	0.271823
598.637764	0.271822
598.847921	0.272417
599.058060	0.272369
599.268180	0.272362
599.478282	0.272421
599.688366	0.272524
599.898431	0.272313
600.108479	0.271942
600.318508	0.271987
600.528519	0.272003
600.738511	0.272005
600.948486	0.272271
601.158442	0.272286
601.368380	0.272688
601.578300	0.272612
601.788202	0.272897
601.998085	0.273213
602.207950	0.272930
602.417797	0.273480
602.627626	0.273593
602.837436	0.273702
603.047228	0.274132
603.257002	0.274301
603.466758	0.274717
603.676496	0.274963
603.886215	0.275182
604.095916	0.275584
604.305599	0.275641
604.515264	0.275915
604.724910	0.275879
604.934538	0.275771
605.144148	0.275658
605.353740	0.275667
605.563314	0.275645
605.772869	0.275577
605.982406	0.276029
606.191925	0.275921
606.401425	0.275960
606.610908	0.276233
606.820372	0.276571
607.029818	0.276933
607.239246	0.277266
607.448655	0.277775
607.658047	0.277824
607.867420	0.277843
608.076775	0.278501
608.286111	0.278579
608.495430	0.279371
608.704730	0.279507
608.914012	0.279438
609.123275	0.279397
609.332521	0.279290
609.541748	0.279848
609.750957	0.279903
609.960148	0.279776
610.169321	0.279947
610.378475	0.279266
610.587611	0.279173
610.796729	0.279302
611.005829	0.279341
611.214910	0.279386
611.423974	0.279470
611.633019	0.279523
611.842045	0.279519
612.051054	0.279697
612.260044	0.280075
612.469017	0.280320
612.677970	0.280569
612.886906	0.280706
613.095824	0.281083
613.304723	0.280978
613.513604	0.281151
613.722467	0.281238
613.931311	0.281328
614.140138	0.281492
614.348946	0.281683
614.557736	0.281657
614.766507	0.281895
614.975261	0.281803
615.183996	0.281956
615.392713	0.281879
615.601412	0.281701
615.810092	0.281745
616.018754	0.281690
616.227399	0.281867
616.436024	0.282300
616.644632	0.282234
616.853222	0.282471
617.061793	0.282567
617.270346	0.282831
617.478880	0.283637
617.687397	0.283795
617.895895	0.284076
618.104375	0.283937
618.312837	0.283868
618.521281	0.284023
618.729706	0.284031
618.938113	0.283904
619.146502	0.284080
619.354873	0.284154
619.563226	0.284291
619.771560	0.284573
619.979876	0.285026
620.188174	0.285248
620.396453	0.285319
620.604715	0.285476
620.812958	0.285994
621.021183	0.286349
621.229390	0.286187
621.437578	0.286347
621.645748	0.286310
621.853900	0.286305
622.062034	0.286157
622.270150	0.286507
622.478247	0.286614
622.686326	0.286442
622.894387	0.286420
623.102430	0.286488
623.310454	0.286506
623.518461	0.286624
623.726449	0.286757
623.934418	0.287158
624.142370	0.287339
624.350303	0.287451
624.558218	0.287943
624.766115	0.288017
624.973994	0.288214
625.181855	0.288497
625.389697	0.288627
625.597521	0.288701
625.805327	0.288935
626.013114	0.288714
626.220883	0.288872
626.428634	0.289050
626.636367	0.289175
626.844082	0.289274
627.051778	0.289558
627.259457	0.289805
627.467117	0.290172
627.674758	0.290193
627.882382	0.290617
628.089987	0.291063
628.297574	0.291170
628.505143	0.291406
628.712694	0.291702
628.920226	0.291783
629.127740	0.291954
629.335236	0.291969
629.542714	0.292153
629.750174	0.292433
629.957615	0.292411
630.165038	0.292352
630.372443	0.292425
630.579829	0.292512
630.787198	0.292703
630.994548	0.292798
631.201880	0.293033
631.409194	0.293224
631.616489	0.293357
631.823766	0.293262
632.031025	0.293460
632.238266	0.293404
632.445489	0.293707
632.652693	0.293819
632.859879	0.293882
633.067047	0.293806
633.274197	0.293833
633.481329	0.293978
633.688442	0.294469
633.895537	0.294556
634.102614	0.294865
634.309672	0.294731
634.516713	0.294851
634.723735	0.294976
634.930739	0.295071
635.137724	0.295347
635.344692	0.295617
635.551641	0.295545
635.758572	0.295710
635.965485	0.295777
636.172379	0.296061
636.379256	0.296127
636.586114	0.296154
636.792954	0.296258
636.999775	0.296310
637.206579	0.296084
637.413364	0.296366
637.620131	0.296538
637.826880	0.297009
638.033610	0.296971
638.240323	0.296827
638.447017	0.297200
638.653692	0.297552
638.860350	0.297770
639.066990	0.297941
639.273611	0.298142
639.480214	0.298510
639.686798	0.298408
639.893365	0.298904
640.099913	0.299476
640.306443	0.299534
640.512955	0.299794
640.719449	0.299898
640.925924	0.300137
641.132381	0.300172
641.338820	0.299961
641.545241	0.300032
641.751644	0.299941
641.958028	0.300109
642.164394	0.300205
642.370742	0.300370
642.577071	0.300456
642.783383	0.300834
642.989676	0.300946
643.195951	0.301282
643.402207	0.301649
643.608446	0.302144
643.814666	0.302269
644.020868	0.302672
644.227052	0.302908
644.433218	0.303411
644.639365	0.303603
644.845494	0.303949
645.051605	0.304202
645.257698	0.304282
645.463772	0.304171
645.669828	0.304277
645.875866	0.304568
646.081886	0.304651
646.287888	0.304865
646.493871	0.304741
646.699836	0.304845
646.905783	0.304884
647.111712	0.305182
647.317622	0.305501
647.523514	0.305743
647.729388	0.305691
647.935244	0.306036
648.141082	0.306005
648.346901	0.306371
648.552702	0.306608
648.758485	0.306664
648.964250	0.306953
649.169996	0.307040
649.375724	0.307221
649.581434	0.307511
649.787126	0.307381
649.992800	0.307457
650.198455	0.307467
650.404092	0.307402
650.609711	0.307669
650.815311	0.307472
651.020894	0.307862
651.226458	0.308093
651.432004	0.308160
651.637532	0.308521
651.843041	0.308739
652.048532	0.308916
652.254006	0.309136
652.459460	0.309390
652.664897	0.309342
652.870315	0.309433
653.075716	0.309517
653.281097	0.309489
653.486461	0.309582
653.691807	0.309757
653.897134	0.309920
654.102443	0.310249
654.307734	0.310346
654.513006	0.310966
654.718261	0.310945
654.923497	0.311243
655.128715	0.311756
655.333915	0.312004
655.539096	0.312381
655.744259	0.312772
655.949404	0.312934
656.154531	0.313244
656.359640	0.313292
656.564730	0.313623
656.769802	0.313864
656.974856	0.314063
657.179892	0.314151
657.384909	0.314402
657.589908	0.314649
657.794889	0.314684
657.999852	0.315032
658.204797	0.315428
658.409723	0.315611
658.614631	0.315826
658.819521	0.315773
659.024393	0.316088
659.229246	0.316119
659.434081	0.316097
659.638898	0.316317
659.843697	0.316358
660.048478	0.316450
660.253240	0.316821
660.457984	0.316751
660.662710	0.317064
660.867417	0.317437
661.072107	0.317425
661.276778	0.317634
661.481431	0.317869
661.686066	0.318110
661.890682	0.318041
662.095281	0.318040
662.299861	0.318231
662.504422	0.318480
662.708966	0.318599
662.913491	0.318909
663.117999	0.319359
663.322488	0.319610
663.526958	0.319870
663.731411	0.320227
663.935845	0.320546
664.140261	0.320731
664.344659	0.320592
664.549038	0.320715
664.753400	0.320738
664.957743	0.320939
665.162068	0.320979
665.366375	0.320807
665.570663	0.321061
665.774933	0.321355
665.979185	0.321742
666.183419	0.322100
666.387635	0.322427
666.591832	0.322728
666.796011	0.322911
667.000172	0.323174
667.204315	0.323880
667.408439	0.324417
667.612545	0.324533
667.816634	0.324481
668.020703	0.324753
668.224755	0.324819
668.428788	0.325360
668.632803	0.325671
668.836800	0.326131
669.040779	0.326260
669.244739	0.326192
669.448681	0.326308
669.652605	0.326822
669.856511	0.327289
670.060399	0.327478
670.264268	0.327259
670.468119	0.327052
670.671952	0.327001
670.875767	0.326999
671.079563	0.327068
671.283341	0.327316
671.487101	0.327464
671.690843	0.327430
671.894567	0.327622
672.098272	0.328278
672.301959	0.328608
672.505628	0.328873
672.709278	0.329173
672.912911	0.329298
673.116525	0.329382
673.320121	0.329427
673.523699	0.329781
673.727258	0.329839
673.930799	0.329668
674.134322	0.330060
674.337827	0.330126
674.541314	0.330233
674.744782	0.330691
674.948232	0.330981
675.151664	0.331482
675.355078	0.331762
675.558474	0.331973
675.761851	0.332414
675.965210	0.332836
676.168551	0.333285
676.371873	0.333451
676.575178	0.333654
676.778464	0.333777
676.981732	0.333876
677.184981	0.333907
677.388213	0.334157
677.591426	0.334112
677.794621	0.334053
677.997798	0.334113
678.200956	0.334426
678.404097	0.334626
678.607219	0.334933
678.810323	0.334867
679.013408	0.335057
679.216476	0.335281
679.419525	0.335376
679.622556	0.335395
679.825569	0.335784
680.028563	0.335964
680.231540	0.336073
680.434498	0.336086
680.637438	0.336655
680.840359	0.336715
681.043263	0.337023
681.246148	0.337164
681.449015	0.337232
681.651864	0.337277
681.854694	0.337334
682.057506	0.337368
682.260301	0.337694
682.463076	0.337410
682.665834	0.337477
682.868573	0.337493
683.071295	0.337855
683.273998	0.338370
683.476682	0.338484
683.679349	0.338692
683.881997	0.338830
684.084627	0.339173
684.287239	0.339552
684.489833	0.339932
684.692408	0.340149
684.894965	0.340405
685.097504	0.340585
685.300025	0.340882
685.502527	0.341114
685.705012	0.341275
685.907478	0.341221
686.109925	0.341516
686.312355	0.341832
686.514766	0.342031
686.717159	0.342074
686.919534	0.342103
687.121891	0.342314
687.324230	0.342573
687.526550	0.342801
687.728852	0.342823
687.931136	0.342996
688.133401	0.343121
688.335649	0.343289
688.537878	0.343630
688.740089	0.343773
688.942281	0.344010
689.144456	0.344241
689.346612	0.344500
689.548750	0.344690
689.750870	0.344826
689.952971	0.344901
690.155055	0.345279
690.357120	0.345337
690.559167	0.345681
690.761195	0.345625
690.963206	0.345528
691.165198	0.345849
691.367172	0.346134
691.569128	0.345955
691.771065	0.346376
691.972984	0.346314
692.174885	0.346365
692.376768	0.346315
692.578633	0.346422
692.780479	0.346846
692.982308	0.347106
693.184118	0.347198
693.385909	0.347725
693.587683	0.347766
693.789438	0.348145
693.991175	0.348324
694.192894	0.348573
694.394595	0.348730
694.596277	0.348614
694.797941	0.348552
694.999587	0.348854
695.201215	0.348956
695.402824	0.349039
695.604416	0.348997
695.805989	0.349461
696.007543	0.349576
696.209080	0.349717
696.410598	0.349978
696.612099	0.350139
696.813580	0.350225
697.015044	0.350237
697.216490	0.350278
697.417917	0.350363
697.619326	0.350300
697.820717	0.350455
698.022089	0.350725
698.223444	0.350817
698.424780	0.350887
698.626098	0.350768
698.827397	0.350933
699.028679	0.351229
699.229942	0.351124
699.431187	0.351199
699.632414	0.351028
699.833622	0.350796
700.034813	0.351020
700.235985	0.351117
700.437139	0.351395
700.638274	0.351519
700.839392	0.351641
701.040491	0.352168
701.241572	0.352496
701.442635	0.352904
701.643679	0.353364
701.844706	0.353516
702.045714	0.353372
702.246704	0.353638
702.447675	0.353962
702.648629	0.353702
702.849564	0.353432
703.050481	0.353295
703.251380	0.353344
703.452260	0.353307
703.653122	0.353301
703.853966	0.353544
704.054792	0.353264
704.255600	0.353018
704.456389	0.353225
704.657160	0.353377
704.857913	0.353383
705.058648	0.353448
705.259365	0.353471
705.460063	0.353202
705.660743	0.353575
705.861405	0.353967
706.062048	0.353954
706.262674	0.354064
706.463281	0.354159
706.663870	0.354449
706.864441	0.354440
707.064993	0.354511
707.265527	0.354936
707.466043	0.355035
707.666541	0.355106
707.867021	0.355422
708.067482	0.355371
708.267925	0.355280
708.468350	0.355174
708.668757	0.355220
708.869145	0.355456
709.069516	0.355399
709.269868	0.355427
709.470201	0.355343
709.670517	0.355346
709.870814	0.355415
710.071093	0.355464
710.271354	0.355302
710.471597	0.355240
710.671821	0.355321
710.872028	0.355293
711.072216	0.354916
711.272385	0.354695
711.472537	0.354722
711.672670	0.354632
711.872785	0.354749
712.072882	0.354733
712.272961	0.354786
712.473021	0.354733
712.673063	0.354900
712.873087	0.354783
713.073093	0.355034
713.273081	0.354807
713.473050	0.354812
713.673001	0.354682
713.872934	0.354982
714.072849	0.355178
714.272745	0.355016
714.472623	0.354742
714.672483	0.355029
714.872325	0.354944
715.072148	0.355209
715.271954	0.355397
715.471741	0.355423
715.671509	0.355245
715.871260	0.354613
716.070992	0.354760
716.270707	0.354633
716.470403	0.354509
716.670080	0.354452
716.869740	0.354160
717.069381	0.354140
717.269004	0.354241
717.468609	0.353985
717.668195	0.354308
717.867764	0.354102
718.067314	0.354143
718.266846	0.354093
718.466360	0.354130
718.665855	0.354146
718.865332	0.353833
719.064791	0.353650
719.264232	0.353648
719.463655	0.353522
719.663059	0.353402
719.862445	0.353492
720.061813	0.353448
720.261163	0.353315
720.460494	0.353166
720.659807	0.353178
720.859102	0.353156
721.058379	0.353255
721.257638	0.353266
721.456878	0.353408
721.656100	0.353252
721.855304	0.353181
722.054490	0.353242
722.253657	0.353271
722.452806	0.353148
722.651937	0.352871
722.851050	0.352431
723.050145	0.352384
723.249221	0.352113
723.448279	0.352109
723.647319	0.352151
723.846340	0.352007
724.045344	0.351961
724.244329	0.351962
724.443296	0.351926
724.642245	0.352116
724.841175	0.352013
725.040088	0.352110
725.238982	0.351899
725.437857	0.351741
725.636715	0.351671
725.835554	0.351516
726.034376	0.351616
726.233179	0.351835
726.431963	0.351872
726.630730	0.351912
726.829478	0.351824
727.028208	0.351960
727.226920	0.351640
727.425614	0.351506
727.624289	0.351337
727.822946	0.350969
728.021585	0.351062
728.220206	0.350996
728.418808	0.350913
728.617392	0.350831
728.815958	0.350476
729.014506	0.350719
729.213036	0.350566
729.411547	0.350614
729.610040	0.350729
729.808515	0.350491
730.006972	0.350251
730.205410	0.349893
730.403831	0.349532
730.602233	0.349582
730.800616	0.349427
730.998982	0.349337
731.197329	0.349157
731.395658	0.348955
731.593969	0.348688
731.792262	0.348807
731.990536	0.348769
732.188793	0.348769
732.387031	0.348318
732.585250	0.348069
732.783452	0.347700
732.981635	0.347608
733.179800	0.347484
733.377947	0.347238
733.576076	0.346758
733.774186	0.346503
733.972278	0.346118
734.170352	0.346334
734.368408	0.346151
734.566446	0.346152
734.764465	0.345900
734.962466	0.345720
735.160449	0.345411
735.358413	0.345305
735.556360	0.345343
735.754288	0.345124
735.952198	0.344636
736.150090	0.344359
736.347963	0.344012
736.545818	0.343754
736.743655	0.343236
736.941474	0.343067
737.139275	0.342707
737.337057	0.342303
737.534821	0.342146
737.732567	0.342142
737.930295	0.341997
738.128005	0.341780
738.325696	0.341546
738.523369	0.341660
738.721024	0.341547
738.918660	0.341589
739.116279	0.341031
739.313879	0.341058
739.511461	0.340761
739.709024	0.340729
739.906570	0.341052
740.104097	0.340966
740.301606	0.340662
740.499097	0.340523
740.696569	0.340395
740.894024	0.340775
741.091460	0.340509
741.288878	0.340543
741.486277	0.340092
741.683659	0.339674
741.881022	0.339713
742.078367	0.339347
742.275694	0.339123
742.473002	0.338934
742.670293	0.338641
742.867565	0.338384
743.064819	0.337978
743.262054	0.337900
743.459272	0.337710
743.656471	0.337372
743.853652	0.337514
744.050815	0.337332
744.247959	0.337097
744.445085	0.336915
744.642194	0.336901
744.839283	0.336816
745.036355	0.336580
745.233408	0.336364
745.430444	0.336129
745.627461	0.335851
745.824459	0.335513
746.021440	0.335116
746.218402	0.334813
746.415346	0.334686
746.612272	0.334818
746.809180	0.334752
747.006069	0.334428
747.202940	0.334332
747.399793	0.333859
747.596628	0.333850
747.793444	0.333736
747.990243	0.333751
748.187023	0.333401
748.383784	0.332871
748.580528	0.332583
748.777253	0.332655
748.973960	0.332423
749.170649	0.332498
749.367320	0.332244
749.563973	0.332187
749.760607	0.331927
749.957223	0.331922
750.153821	0.331839
750.350400	0.331549
750.546962	0.331031
750.743505	0.330792
750.940030	0.330805
751.136536	0.330649
751.333025	0.330410
751.529495	0.329850
751.725947	0.329581
751.922381	0.329425
752.118796	0.329385
752.315194	0.329138
752.511573	0.329013
752.707934	0.328383
752.904276	0.328025
753.100601	0.327682
753.296907	0.327795
753.493195	0.327539
753.689465	0.326911
753.885716	0.326713
754.081949	0.326843
754.278164	0.326652
754.474361	0.326808
754.670540	0.326715
754.866700	0.326767
755.062843	0.326493
755.258967	0.326293
755.455072	0.326123
755.651160	0.326027
755.847229	0.325780
756.043280	0.325432
756.239313	0.325157
756.435328	0.325069
756.631324	0.324602
756.827302	0.324480
757.023262	0.324402
757.219204	0.324532
757.415127	0.324092
757.611033	0.323757
757.806920	0.323546
758.002788	0.323417
758.198639	0.323264
758.394471	0.323493
758.590286	0.323225
758.786081	0.322950
758.981859	0.322875
759.177619	0.322847
759.373360	0.322754
759.569083	0.322792
759.764788	0.322505
759.960474	0.322378
760.156143	0.322034
760.351793	0.321885
760.547425	0.321768
760.743038	0.321349
760.938634	0.321190
761.134211	0.320742
761.329770	0.320523
761.525311	0.320350
761.720833	0.320141
761.916338	0.319916
762.111824	0.319845
762.307292	0.319679
762.502741	0.319804
762.698173	0.319993
762.893586	0.320168
763.088981	0.319947
763.284358	0.319874
763.479716	0.319749
763.675057	0.319399
763.870379	0.319228
764.065683	0.318983
764.260968	0.318488
764.456236	0.317966
764.651485	0.317735
764.846716	0.317673
765.041929	0.317787
765.237123	0.317705
765.432299	0.317846
765.627457	0.317780
765.822597	0.317811
766.017719	0.317655
766.212822	0.317667
766.407907	0.317693
766.602974	0.317718
766.798023	0.317508
766.993054	0.317413
767.188066	0.317421
767.383060	0.317576
767.578036	0.317522
767.772993	0.317588
767.967933	0.317431
768.162854	0.317445
768.357757	0.317147
768.552642	0.317153
768.747508	0.317180
768.942356	0.317043
769.137186	0.316655
769.331998	0.316510
769.526792	0.316711
769.721567	0.316904
769.916324	0.316582
770.111063	0.316602
770.305784	0.316136
770.500486	0.315923
770.695171	0.315777
770.889837	0.316009
771.084484	0.315868
771.279114	0.315688
771.473725	0.315470
771.668318	0.315699
771.862893	0.315694
772.057450	0.315952
772.251988	0.315786
772.446509	0.315905
772.641011	0.315551
772.835494	0.315401
773.029960	0.315257
773.224407	0.315434
773.418836	0.315131
773.613247	0.314914
773.807640	0.314708
774.002014	0.314798
774.196370	0.314673
774.390708	0.314657
774.585028	0.314757
774.779330	0.314732
774.973613	0.314357
775.167878	0.314458
775.362125	0.314516
775.556354	0.314531
775.750564	0.314433
775.944756	0.314096
776.138930	0.314085
776.333086	0.313828
776.527223	0.313726
776.721343	0.313728
776.915444	0.313666
777.109526	0.313654
777.303591	0.313618
777.497637	0.313615
777.691666	0.313791
777.885676	0.313585
778.079667	0.313614
778.273641	0.313887
778.467596	0.313765
778.661533	0.313587
778.855452	0.313437
779.049352	0.313387
779.243235	0.313220
779.437099	0.313048
779.630945	0.312953
779.824773	0.313198
780.018582	0.313061
780.212373	0.313231
780.406146	0.313142
780.599901	0.313325
780.793638	0.313458
780.987356	0.313468
781.181056	0.313858
781.374738	0.314229
781.568402	0.314209
781.762047	0.314254
781.955674	0.314236
782.149283	0.314427
782.342874	0.314074
782.536447	0.314077
782.730001	0.314123
782.923537	0.313698
783.117055	0.313755
783.310555	0.313574
783.504036	0.313310
783.697499	0.313268
783.890944	0.313259
784.084371	0.313655
784.277780	0.313476
784.471170	0.313652
784.664542	0.313496
784.857896	0.313453
785.051231	0.313354
785.244549	0.313442
785.437848	0.313344
785.631129	0.313497
785.824392	0.313331
786.017636	0.313533
786.210863	0.313453
786.404071	0.313842
786.597260	0.313805
786.790432	0.314282
786.983585	0.314513
787.176721	0.314814
787.369838	0.314790
787.562936	0.314774
787.756017	0.314556
787.949079	0.314948
788.142123	0.315014
788.335149	0.315115
788.528156	0.314872
788.721146	0.314985
788.914117	0.314966
789.107070	0.315102
789.300005	0.315306
789.492921	0.315471
789.685819	0.315262
789.878699	0.315421
790.071561	0.315327
790.264405	0.315637
790.457230	0.315436
790.650037	0.315337
790.842826	0.315354
791.035597	0.315484
791.228349	0.315796
791.421084	0.315832
791.613800	0.315920
791.806497	0.316000
791.999177	0.315964
792.191838	0.316060
792.384481	0.316155
792.577106	0.316282
792.769713	0.316260
792.962301	0.316054
793.154871	0.316094
793.347423	0.316289
793.539957	0.316599
793.732473	0.316636
793.924970	0.316724
794.117449	0.316998
794.309910	0.317101
794.502353	0.317225
794.694777	0.317515
794.887183	0.317701
795.079571	0.317677
795.271941	0.317703
795.464293	0.318108
795.656626	0.318433
795.848941	0.318810
796.041238	0.319126
796.233516	0.319359
796.425777	0.319665
796.618019	0.319709
796.810243	0.319990
797.002449	0.320227
797.194636	0.320204
797.386805	0.320494
797.578956	0.320441
797.771089	0.320565
797.963204	0.320811
798.155300	0.320775
798.347378	0.321099
798.539438	0.321431
798.731480	0.321550
798.923503	0.321671
799.115509	0.321871
799.307496	0.321992
799.499465	0.321913
799.691415	0.322036
799.883348	0.322110
800.075262	0.322280
800.267158	0.322202
800.459035	0.322404
800.650895	0.322508
800.842736	0.322457
801.034559	0.322689
801.226364	0.322856
801.418150	0.322922
801.609919	0.323203
801.801669	0.323406
801.993401	0.323569
802.185114	0.323696
802.376810	0.323961
802.568487	0.324077
802.760146	0.324178
802.951787	0.324245
803.143409	0.324358
803.335014	0.324655
803.526600	0.324707
803.718168	0.324900
803.909717	0.325005
804.101249	0.325087
804.292762	0.325455
804.484257	0.325576
804.675734	0.325820
804.867192	0.326172
805.058632	0.326366
805.250054	0.326797
805.441458	0.327249
805.632844	0.327623
805.824211	0.328098
806.015561	0.328154
806.206891	0.328274
806.398204	0.328761
806.589499	0.329132
806.780775	0.329351
806.972033	0.329732
807.163273	0.329911
807.354495	0.330162
807.545698	0.330367
807.736883	0.330635
807.928050	0.330930
808.119199	0.331088
808.310329	0.331197
808.501441	0.331385
808.692535	0.331456
808.883611	0.331458
809.074669	0.331684
809.265708	0.331986
809.456729	0.332639
809.647732	0.333440
809.838717	0.333625
810.029683	0.333796
810.220632	0.333952
810.411562	0.334409
810.602474	0.334643
810.793367	0.335060
810.984242	0.335060
811.175100	0.334982
811.365938	0.334955
811.556759	0.335490
811.747562	0.335966
811.938346	0.336382
812.129112	0.336273
812.319860	0.336542
812.510589	0.336793
812.701300	0.337257
812.891994	0.337559
813.082668	0.338035
813.273325	0.338197
813.463964	0.338394
813.654584	0.338701
813.845186	0.338989
814.035769	0.339726
814.226335	0.340013
814.416882	0.340331
814.607411	0.340717
814.797922	0.340857
814.988415	0.341086
815.178889	0.341289
815.369345	0.341580
815.559783	0.342191
815.750203	0.342196
815.940605	0.342633
816.130988	0.342937
816.321353	0.343057
816.511700	0.343376
816.702028	0.343488
816.892339	0.344083
817.082631	0.344178
817.272905	0.344357
817.463161	0.344601
817.653398	0.344720
817.843617	0.345036
818.033819	0.345688
818.224001	0.346069
818.414166	0.346803
818.604312	0.346893
818.794440	0.347438
818.984550	0.347834
819.174642	0.347918
819.364716	0.348303
819.554771	0.348658
819.744808	0.348747
819.934827	0.349096
820.124827	0.349127
820.314810	0.349701
820.504774	0.349859
820.694720	0.350201
820.884647	0.350963
821.074557	0.350958
821.264448	0.351327
821.454321	0.351688
821.644176	0.351837
821.834012	0.352296
822.023831	0.352451
822.213631	0.352926
822.403413	0.353117
822.593176	0.353384
822.782922	0.354071
822.972649	0.354330
823.162358	0.354557
823.352049	0.355006
823.541721	0.355330
823.731376	0.355717
823.921012	0.356085
824.110629	0.356383
824.300229	0.356745
824.489811	0.357145
824.679374	0.357214
824.868919	0.357648
825.058445	0.357801
825.247954	0.358273
825.437444	0.358446
825.626916	0.358644
825.816370	0.359203
826.005806	0.359656
826.195223	0.359798
826.384622	0.360374
826.574003	0.360904
826.763366	0.361484
826.952711	0.362018
827.142037	0.362605
827.331345	0.363342
827.520635	0.363373
827.709906	0.363714
827.899160	0.364237
828.088395	0.364752
828.277612	0.364646
828.466810	0.364875
828.655991	0.364992
828.845153	0.365228
829.034297	0.365529
829.223423	0.365948
829.412531	0.366032
829.601620	0.366688
829.790691	0.367213
829.979744	0.367885
830.168779	0.368406
830.357795	0.368694
830.546793	0.369159
830.735773	0.369730
830.924735	0.370557
831.113679	0.371067
831.302604	0.371344
831.491511	0.371489
831.680400	0.372218
831.869271	0.372390
832.058123	0.372526
832.246957	0.373136
832.435773	0.373406
832.624571	0.373699
832.813351	0.374212
833.002112	0.374362
833.190855	0.374907
833.379580	0.374973
833.568287	0.375562
833.756975	0.376361
833.945645	0.376664
834.134297	0.377023
834.322931	0.377450
834.511547	0.377867
834.700144	0.378204
834.888723	0.378723
835.077284	0.379279
835.265826	0.379724
835.454351	0.380041
835.642857	0.380451
835.831345	0.380963
836.019815	0.381121
836.208266	0.381604
836.396699	0.382209
836.585114	0.382394
836.773511	0.382721
836.961890	0.383230
837.150250	0.383590
837.338592	0.383727
837.526916	0.384087
837.715222	0.384820
837.903510	0.385192
838.091779	0.385615
838.280030	0.385848
838.468263	0.386482
838.656477	0.386778
838.844674	0.387611
839.032852	0.388497
839.221012	0.388993
839.409153	0.389181
839.597277	0.389546
839.785382	0.389983
839.973469	0.390689
840.161538	0.390939
840.349589	0.391200
840.537621	0.391248
840.725635	0.391728
840.913631	0.392016
841.101609	0.392580
841.289568	0.393070
841.477509	0.393300
841.665432	0.393573
841.853337	0.393803
842.041224	0.394782
842.229092	0.395570
842.416942	0.395496
842.604774	0.395803
842.792588	0.395883
842.980383	0.396295
843.168160	0.396632
843.355919	0.396971
843.543660	0.397653
843.731382	0.397861
843.919087	0.398245
844.106773	0.399075
844.294441	0.399986
844.482090	0.400781
844.669722	0.401293
844.857335	0.402030
845.044930	0.402928
845.232507	0.403375
845.420065	0.403750
845.607605	0.403979
845.795127	0.404417
845.982631	0.404736
846.170117	0.405538
846.357584	0.406186
846.545033	0.406615
846.732464	0.406833
846.919877	0.407332
847.107272	0.407764
847.294648	0.408558
847.482006	0.409016
847.669346	0.409223
847.856667	0.409145
848.043971	0.409257
848.231256	0.409976
848.418523	0.410556
848.605771	0.411323
848.793002	0.411660
848.980214	0.411924
849.167408	0.412267
849.354584	0.412869
849.541742	0.413480
849.728881	0.414329
849.916002	0.414443
850.103105	0.414776
850.290190	0.414963
850.477256	0.415779
850.664304	0.416166
850.851334	0.416779
851.038346	0.417135
851.225340	0.418159
851.412315	0.418393
851.599272	0.418914
851.786211	0.419666
851.973132	0.420105
852.160034	0.420507
852.346918	0.421192
852.533784	0.421799
852.720632	0.422402
852.907462	0.422202
853.094273	0.422990
853.281066	0.423501
853.467841	0.423792
853.654598	0.424215
853.841336	0.424891
854.028056	0.425328
854.214758	0.425123
854.401442	0.425324
854.588107	0.425776
854.774755	0.425687
854.961384	0.426001
855.147995	0.426554
855.334587	0.427076
855.521162	0.427039
855.707718	0.427197
855.894256	0.428069
856.080775	0.428884
856.267277	0.429333
856.453760	0.430091
856.640225	0.430692
856.826672	0.430800
857.013101	0.431107
857.199511	0.430944
857.385903	0.431154
857.572277	0.431394
857.758633	0.431494
857.944970	0.432011
858.131290	0.432206
858.317591	0.432612
858.503873	0.433531
858.690138	0.434102
858.876384	0.435493
859.062612	0.436707
859.248822	0.437079
859.435014	0.437927
859.621188	0.438344
859.807343	0.438926
859.993480	0.439331
860.179599	0.439063
860.365699	0.439382
860.551781	0.439796
860.737846	0.439872
860.923891	0.440668
861.109919	0.440459
861.295929	0.440558
861.481920	0.441015
861.667893	0.441246
861.853848	0.442093
862.039784	0.442594
862.225702	0.442356
862.411603	0.442570
862.597484	0.442920
862.783348	0.443507
862.969193	0.443860
863.155021	0.444397
863.340830	0.444747
863.526620	0.444903
863.712393	0.445033
863.898147	0.445618
864.083883	0.446313
864.269601	0.446020
864.455301	0.446537
864.640982	0.447172
864.826645	0.447714
865.012290	0.448456
865.197917	0.448855
865.383526	0.449116
865.569116	0.449373
865.754688	0.449013
865.940242	0.450022
866.125777	0.450058
866.311295	0.450148
866.496794	0.450021
866.682275	0.450286
866.867737	0.450935
867.053182	0.451439
867.238608	0.451777
867.424016	0.452271
867.609406	0.452348
867.794778	0.452836
867.980131	0.453210
868.165466	0.453297
868.350783	0.453306
868.536082	0.452707
868.721362	0.452585
868.906625	0.453012
869.091869	0.453439
869.277094	0.453143
869.462302	0.453251
869.647491	0.453608
869.832662	0.454061
870.017815	0.454162
870.202950	0.454809
870.388066	0.455465
870.573165	0.455755
870.758245	0.456209
870.943306	0.457058
871.128350	0.457378
871.313375	0.457957
871.498382	0.458176
871.683371	0.458519
871.868342	0.458986
872.053294	0.459730
872.238229	0.459886
872.423144	0.460200
872.608042	0.460162
872.792922	0.460729
872.977783	0.461318
873.162626	0.461791
873.347451	0.461673
873.532258	0.461919
873.717046	0.461976
873.901816	0.462069
874.086568	0.461938
874.271302	0.462690
874.456017	0.462700
874.640715	0.462834
874.825394	0.462597
875.010055	0.463199
875.194697	0.463003
875.379322	0.463037
875.563928	0.463957
875.748516	0.463949
875.933085	0.463832
876.117637	0.463722
876.302170	0.463295
876.486685	0.464029
876.671182	0.464318
876.855661	0.464818
877.040121	0.464876
877.224563	0.464408
877.408987	0.464552
877.593393	0.464190
877.777780	0.464455
877.962150	0.464483
878.146501	0.463971
878.330833	0.464178
878.515148	0.463871
878.699444	0.464348
878.883722	0.464088
879.067982	0.465090
879.252224	0.466214
879.436447	0.466383
879.620653	0.466546
879.804840	0.467087
879.989008	0.466970
880.173159	0.467465
880.357291	0.467077
880.541405	0.468025
880.725501	0.467824
880.909579	0.467374
881.093638	0.467427
881.277680	0.467720
881.461703	0.468004
881.645707	0.468169
881.829694	0.468479
882.013662	0.469345
882.197612	0.469330
882.381544	0.469431
882.565458	0.469680
882.749353	0.470301
882.933230	0.470340
883.117089	0.470191
883.300930	0.470231
883.484753	0.470207
883.668557	0.469422
883.852343	0.468959
884.036111	0.468908
884.219861	0.468598
884.403592	0.468589
884.587305	0.468648
884.771000	0.468494
884.954677	0.468712
885.138335	0.468975
885.321976	0.469524
885.505598	0.469502
885.689201	0.469192
885.872787	0.469416
886.056354	0.469179
886.239904	0.469504
886.423434	0.469983
886.606947	0.470133
886.790442	0.470188
886.973918	0.470446
887.157376	0.471264
887.340816	0.472154
887.524237	0.472787
887.707641	0.473025
887.891026	0.473117
888.074393	0.472949
888.257741	0.472789
888.441072	0.472754
888.624384	0.472380
888.807678	0.472070
888.990954	0.471198
889.174211	0.470835
889.357451	0.471024
889.540672	0.470068
889.723875	0.469771
889.907059	0.469989
890.090226	0.469554
890.273374	0.469596
890.456504	0.469700
890.639616	0.470566
890.822709	0.470421
891.005785	0.470226
891.188842	0.470816
891.371881	0.470621
891.554901	0.471016
891.737904	0.471139
891.920888	0.470753
892.103854	0.469914
892.286802	0.469537
892.469731	0.469668
892.652643	0.469388
892.835536	0.469140
893.018410	0.469347
893.201267	0.468454
893.384106	0.468666
893.566926	0.468840
893.749728	0.469134
893.932511	0.468790
894.115277	0.468312
894.298024	0.468011
894.480753	0.468027
894.663464	0.467918
894.846157	0.467813
895.028831	0.467788
895.211487	0.467822
895.394125	0.468033
895.576745	0.467648
895.759346	0.467587
895.941930	0.467073
896.124495	0.466920
896.307041	0.467095
896.489570	0.466976
896.672080	0.466246
896.854573	0.465615
897.037046	0.465204
897.219502	0.464904
897.401940	0.464857
897.584359	0.465259
897.766760	0.465026
897.949143	0.464454
898.131507	0.464254
898.313854	0.464108
898.496182	0.464286
898.678492	0.464379
898.860783	0.464884
899.043057	0.464329
899.225312	0.463813
899.407549	0.463895
899.589768	0.463618
899.771968	0.463449
899.954151	0.462571
900.136315	0.462438
900.318461	0.461897
900.500588	0.461151
900.682698	0.461292
900.864789	0.460760
901.046862	0.460020
901.228917	0.459969
901.410953	0.459612
901.592971	0.460156
901.774972	0.459648
901.956953	0.459007
902.138917	0.458293
902.320862	0.457734
902.502790	0.457941
902.684699	0.457352
902.866589	0.456461
903.048462	0.456253
903.230316	0.455382
903.412152	0.454767
903.593970	0.454749
903.775770	0.454617
903.957551	0.454539
904.139314	0.453509
904.321059	0.453543
904.502786	0.453321
904.684494	0.453146
904.866185	0.453023
905.047857	0.452694
905.229510	0.451777
905.411146	0.451332
905.592763	0.450824
905.774363	0.451514
905.955943	0.450817
906.137506	0.450782
906.319051	0.450252
906.500577	0.450220
906.682085	0.449806
906.863575	0.449660
907.045046	0.449476
907.226500	0.449044
907.407935	0.447773
907.589352	0.447475
907.770750	0.446930
907.952131	0.446278
908.133493	0.445212
908.314837	0.444508
908.496163	0.443768
908.677470	0.443190
908.858760	0.442574
909.040031	0.442051
909.221284	0.441596
909.402518	0.440946
909.583735	0.441306
909.764933	0.441194
909.946113	0.440461
910.127275	0.440587
910.308418	0.439985
910.489544	0.439205
910.670651	0.439077
910.851740	0.438672
911.032810	0.438353
911.213863	0.436705
911.394897	0.435923
911.575913	0.435599
911.756911	0.434919
911.937890	0.434690
912.118851	0.433766
912.299794	0.433487
912.480719	0.432848
912.661626	0.432264
912.842514	0.431626
913.023384	0.431093
913.204236	0.430867
913.385070	0.429821
913.565886	0.428865
913.746683	0.428722
913.927462	0.427276
914.108223	0.426352
914.288965	0.424688
914.469690	0.423944
914.650396	0.422793
914.831084	0.421987
915.011754	0.421611
915.192405	0.420963
915.373038	0.420052
915.553653	0.419455
915.734250	0.418934
915.914829	0.418341
916.095389	0.417734
916.275931	0.417473
916.456455	0.416139
916.636961	0.415684
916.817448	0.415075
916.997917	0.414775
917.178368	0.414555
917.358801	0.413857
917.539216	0.414016
917.719612	0.413388
917.899990	0.412506
918.080350	0.412544
918.260692	0.412013
918.441015	0.411924
918.621320	0.410749
918.801607	0.409669
918.981876	0.409052
919.162127	0.407891
919.342359	0.407247
919.522573	0.406529
919.702769	0.405972
919.882947	0.404638
920.063106	0.403739
920.243247	0.403275
920.423370	0.402006
920.603475	0.401418
920.783562	0.400908
920.963630	0.400423
921.143680	0.399808
921.323712	0.398804
921.503725	0.397782
921.683721	0.395996
921.863698	0.395164
922.043657	0.395485
922.223598	0.393944
922.403520	0.392746
922.583424	0.391602
922.763311	0.390794
922.943178	0.389936
923.123028	0.389876
923.302859	0.389130
923.482673	0.387645
923.662467	0.386407
923.842244	0.385927
924.022003	0.385477
924.201743	0.384770
924.381465	0.383730
924.561169	0.382658
924.740854	0.381317
924.920522	0.380786
925.100171	0.381105
925.279802	0.380316
925.459414	0.379389
925.639009	0.378550
925.818585	0.377493
925.998143	0.376994
926.177683	0.375834
926.357205	0.375026
926.536708	0.373820
926.716193	0.372407
926.895660	0.371137
927.075109	0.369675
927.254539	0.368268
927.433951	0.367158
927.613345	0.365688
927.792721	0.365185
927.972079	0.364323
928.151418	0.363296
928.330739	0.362335
928.510042	0.361749
928.689327	0.361400
928.868593	0.359974
929.047841	0.358918
929.227071	0.358014
929.406283	0.356320
929.585476	0.355142
929.764652	0.354725
929.943809	0.353628
930.122948	0.352263
930.302068	0.351567
930.481171	0.351426
930.660255	0.350838
930.839321	0.349310
931.018369	0.348022
931.197398	0.346842
931.376409	0.344929
931.555402	0.344535
931.734377	0.343860
931.913334	0.342764
932.092272	0.341287
932.271192	0.340075
932.450094	0.340420
932.628978	0.339667
932.807844	0.338901
932.986691	0.339328
933.165520	0.336923
933.344331	0.336136
933.523123	0.334740
933.701898	0.333644
933.880654	0.332567
934.059392	0.331102
934.238111	0.331066
934.416813	0.330179
934.595496	0.328193
934.774161	0.327587
934.952808	0.325424
935.131437	0.323342
935.310047	0.322360
935.488639	0.321432
935.667213	0.320929
935.845769	0.320329
936.024306	0.318836
936.202825	0.317826
936.381326	0.316325
936.559809	0.315678
936.738274	0.315176
936.916720	0.314936
937.095148	0.313360
937.273558	0.310860
937.451950	0.308580
937.630323	0.307168
937.808678	0.306153
937.987015	0.305361
938.165334	0.303952
938.343635	0.302556
938.521917	0.300538
938.700181	0.299606
938.878427	0.299089
939.056655	0.297916
939.234864	0.297743
939.413055	0.296661
939.591228	0.295354
939.769383	0.294959
939.947519	0.293644
940.125638	0.292656
940.303738	0.290168
940.481820	0.288484
940.659883	0.287497
940.837929	0.285169
941.015956	0.283490
941.193965	0.283068
941.371955	0.280787
941.549928	0.278522
941.727882	0.277706
941.905818	0.277922
942.083736	0.276959
942.261636	0.274710
942.439517	0.273866
942.617380	0.272897
942.795225	0.270718
942.973052	0.269758
943.150860	0.270465
943.328651	0.268816
943.506423	0.267616
943.684176	0.267084
943.861912	0.265796
944.039629	0.263521
944.217328	0.261233
944.395009	0.259932
944.572672	0.258446
944.750317	0.257397
944.927943	0.256266
945.105551	0.253671
945.283141	0.251536
945.460712	0.251488
945.638265	0.252109
945.815801	0.250125
945.993317	0.249459
946.170816	0.247823
946.348297	0.245762
946.525759	0.244178
946.703203	0.242461
946.880629	0.240488
947.058036	0.238797
947.235425	0.236359
947.412797	0.237354
947.590149	0.237288
947.767484	0.236546
947.944800	0.236048
948.122099	0.234755
948.299379	0.235411
948.476640	0.235784
948.653884	0.233786
948.831109	0.230984
949.008316	0.228990
949.185505	0.226791
949.362676	0.224658
949.539828	0.220730
949.716962	0.218880
949.894078	0.217421
950.071176	0.215583
950.248256	0.214292
950.425317	0.215317
950.602360	0.214319
950.779385	0.212896
950.956391	0.212406
951.133380	0.214593
951.310350	0.212850
951.487302	0.211317
951.664235	0.209734
951.841151	0.208514
952.018048	0.206462
952.194927	0.203771
952.371788	0.201023
952.548631	0.199514
952.725455	0.196087
952.902261	0.195736
953.079049	0.194581
953.255819	0.192751
953.432570	0.190582
953.609303	0.189401
953.786018	0.189450
953.962715	0.189361
954.139394	0.188752
954.316054	0.188092
954.492696	0.187427
954.669320	0.186773
954.845926	0.184997
955.022513	0.186740
955.199083	0.185323
955.375634	0.184927
955.552166	0.183375
955.728681	0.180971
955.905177	0.179126
956.081655	0.177896
956.258115	0.176778
956.434557	0.177620
956.610980	0.175904
956.787385	0.175438
956.963772	0.174178
957.140141	0.172112
957.316492	0.172686
957.492824	0.173654
957.669138	0.172637
957.845434	0.170978
958.021712	0.168591
958.197971	0.168079
958.374212	0.165807
958.550435	0.162949
958.726640	0.163106
958.902826	0.160327
959.078995	0.159314
959.255145	0.158237
959.431277	0.158921
959.607390	0.160096
959.783486	0.158660
959.959563	0.160491
960.135622	0.161331
960.311662	0.159711
960.487685	0.160724
960.663689	0.160216
960.839675	0.159703
961.015643	0.157494
961.191593	0.155348
961.367524	0.156171
961.543437	0.154066
961.719332	0.152861
961.895209	0.154377
962.071067	0.155350
962.246907	0.155086
962.422730	0.155491
962.598533	0.155195
962.774319	0.155593
962.950086	0.152099
963.125835	0.151975
963.301566	0.153159
963.477279	0.152700
963.652973	0.150857
963.828650	0.149680
964.004308	0.147938
964.179947	0.149393
964.355569	0.148985
964.531172	0.150455
964.706757	0.150796
964.882324	0.148153
965.057873	0.146802
965.233403	0.147299
965.408916	0.146182
965.584410	0.148842
965.759885	0.145212
965.935343	0.146379
966.110782	0.145723
966.286203	0.145709
966.461606	0.146809
966.636991	0.146867
966.812357	0.144321
966.987705	0.146925
967.163035	0.145301
967.338347	0.146751
967.513641	0.145860
967.688916	0.145205
967.864173	0.144426
968.039412	0.143784
968.214632	0.145848
968.389835	0.147390
968.565019	0.146923
968.740185	0.145838
968.915333	0.147004
969.090462	0.147210
969.265573	0.147296
969.440667	0.149789
969.615741	0.149515
969.790798	0.148646
969.965836	0.147273
970.140856	0.147642
970.315858	0.150040
970.490842	0.149021
970.665808	0.149703
970.840755	0.151335
971.015684	0.148034
971.190595	0.148588
971.365487	0.147581
971.540362	0.150066
971.715218	0.149686
971.890056	0.147670
972.064875	0.147536
972.239677	0.144391
972.414460	0.143292
972.589225	0.143009
972.763972	0.142444
972.938700	0.142202
973.113411	0.141802
973.288103	0.142160
973.462777	0.139951
973.637432	0.140411
973.812070	0.142296
973.986689	0.142684
974.161290	0.143043
974.335873	0.143612
974.510437	0.144975
974.684984	0.143449
974.859512	0.143189
975.034022	0.145995
975.208513	0.144806
975.382987	0.144442
975.557442	0.144856
975.731879	0.146256
975.906298	0.146044
976.080698	0.145168
976.255080	0.146219
976.429445	0.146410
976.603790	0.147393
976.778118	0.149646
976.952427	0.148848
977.126719	0.147283
977.300992	0.146457
977.475246	0.147268
977.649483	0.146941
977.823701	0.147765
977.997901	0.146495
978.172083	0.144169
978.346247	0.143040
978.520392	0.143629
978.694519	0.146382
978.868628	0.145656
979.042719	0.144186
979.216791	0.146161
979.390845	0.144884
979.564882	0.145618
979.738899	0.146934
979.912899	0.147105
980.086880	0.149334
980.260843	0.147137
980.434788	0.149075
980.608715	0.150035
980.782623	0.149530
980.956514	0.149939
981.130386	0.148913
981.304240	0.149051
981.478075	0.149894
981.651892	0.148793
981.825692	0.150983
981.999472	0.150688
982.173235	0.150167
982.346980	0.149448
982.520706	0.148119
982.694414	0.149141
982.868104	0.148653
983.041775	0.146400
983.215428	0.144995
983.389064	0.145562
983.562680	0.144336
983.736279	0.145274
983.909860	0.144453
984.083422	0.144752
984.256966	0.146120
984.430491	0.147366
984.603999	0.149964
984.777488	0.150840
984.950959	0.149392
985.124412	0.150066
985.297847	0.151191
985.471263	0.152307
985.644661	0.152595
985.818041	0.152004
985.991403	0.150590
986.164747	0.147889
986.338072	0.148167
986.511379	0.149785
986.684668	0.149478
986.857938	0.146636
987.031191	0.145388
987.204425	0.145293
987.377641	0.143815
987.550839	0.144384
987.724018	0.145946
987.897179	0.145519
988.070322	0.143229
988.243447	0.142758
988.416554	0.144909
988.589642	0.146332
988.762712	0.147245
988.935764	0.148180
989.108798	0.148690
989.281813	0.148889
989.454811	0.148335
989.627790	0.150858
989.800751	0.151152
989.973693	0.151536
990.146617	0.150371
990.319524	0.149378
990.492412	0.148157
990.665281	0.146903
990.838133	0.148237
991.010966	0.149508
991.183781	0.148394
991.356578	0.149313
991.529356	0.148782
991.702117	0.148475
991.874859	0.148033
992.047583	0.147633
992.220288	0.148708
992.392976	0.146732
992.565645	0.146551
992.738296	0.145460
992.910929	0.145144
993.083543	0.144641
993.256139	0.147846
993.428718	0.148226
993.601277	0.149938
993.773819	0.149577
993.946342	0.150189
994.118848	0.150329
994.291335	0.151630
994.463803	0.153312
994.636254	0.153752
994.808686	0.152188
994.981100	0.153405
995.153496	0.154064
995.325874	0.154887
995.498233	0.156361
995.670574	0.156851
995.842897	0.157089
996.015202	0.155723
996.187488	0.155337
996.359757	0.155472
996.532007	0.155029
996.704239	0.154054
996.876452	0.152527
997.048648	0.151779
997.220825	0.149261
997.392984	0.147803
997.565124	0.146930
997.737247	0.147386
997.909351	0.147565
998.081437	0.148287
998.253505	0.146635
998.425554	0.147472
998.597586	0.145431
998.769599	0.146493
998.941594	0.146849
999.113571	0.148825
999.285529	0.149364
999.457469	0.147917
999.629391	0.147520
999.801295	0.149652
999.973181	0.150081
1000.145048	0.152015
1000.316897	0.153619
1000.488728	0.154110
1000.660541	0.153666
1000.832335	0.152893
1001.004111	0.153256
1001.175869	0.155284
1001.347609	0.153763
1001.519331	0.152593
1001.691034	0.152396
1001.862719	0.151733
1002.034386	0.151458
1002.206035	0.150639
1002.377665	0.150827
1002.549277	0.151426
1002.720871	0.149229
1002.892447	0.150196
1003.064004	0.149398
1003.235544	0.148284
1003.407065	0.148503
1003.578568	0.149216
1003.750052	0.150221
1003.921519	0.150983
1004.092967	0.149502
1004.264397	0.151353
1004.435809	0.150714
1004.607202	0.152528
1004.778577	0.153199
1004.949934	0.152650
1005.121273	0.152703
1005.292594	0.152123
1005.463896	0.152414
1005.635180	0.153966
1005.806446	0.152917
1005.977694	0.154276
1006.148923	0.154382
1006.320135	0.154573
1006.491328	0.154745
1006.662503	0.154214
1006.833659	0.152643
1007.004798	0.151666
1007.175918	0.151359
1007.347020	0.151587
1007.518103	0.151911
1007.689169	0.152536
1007.860216	0.152639
1008.031245	0.153151
1008.202256	0.153447
1008.373248	0.154355
1008.544223	0.153175
1008.715179	0.153911
1008.886117	0.151772
1009.057036	0.153267
1009.227938	0.152895
1009.398821	0.152886
1009.569686	0.153411
1009.740533	0.153133
1009.911361	0.153119
1010.082172	0.154729
1010.252964	0.154616
1010.423738	0.156555
1010.594493	0.156023
1010.765231	0.155908
1010.935950	0.155298
1011.106651	0.154054
1011.277334	0.154671
1011.447998	0.154435
1011.618645	0.153042
1011.789273	0.152306
1011.959882	0.152359
1012.130474	0.148404
1012.301048	0.148479
1012.471603	0.149277
1012.642140	0.149396
1012.812658	0.147746
1012.983159	0.149128
1013.153641	0.151452
1013.324105	0.151589
1013.494551	0.150477
1013.664979	0.152359
1013.835388	0.151208
1014.005779	0.151370
1014.176152	0.152688
1014.346507	0.153329
1014.516843	0.153472
1014.687162	0.152620
1014.857462	0.153362
1015.027744	0.153691
1015.198007	0.154097
1015.368252	0.156035
1015.538480	0.155473
1015.708689	0.155022
1015.878879	0.155110
1016.049052	0.153936
1016.219206	0.154295
1016.389342	0.153666
1016.559460	0.155361
1016.729559	0.156200
1016.899641	0.155613
1017.069704	0.158331
1017.239749	0.156479
1017.409775	0.158257
1017.579784	0.159000
1017.749774	0.158929
1017.919746	0.157950
1018.089700	0.157944
1018.259635	0.155947
1018.429553	0.155564
1018.599452	0.153328
1018.769333	0.155142
1018.939195	0.152933
1019.109040	0.153379
1019.278866	0.152040
1019.448674	0.154437
1019.618464	0.153011
1019.788235	0.154900
1019.957989	0.155652
1020.127724	0.154619
1020.297441	0.152337
1020.467139	0.152565
1020.636820	0.152098
1020.806482	0.154018
1020.976126	0.153541
1021.145752	0.153255
1021.315359	0.151040
1021.484948	0.149312
1021.654519	0.150915
1021.824072	0.152221
1021.993607	0.152145
1022.163123	0.150324
1022.332621	0.149493
1022.502101	0.147678
1022.671563	0.148796
1022.841007	0.151206
1023.010432	0.151964
1023.179839	0.152338
1023.349228	0.152929
1023.518598	0.152844
1023.687951	0.154166
1023.857285	0.153163
1024.026601	0.152982
1024.195899	0.152681
1024.365178	0.151802
1024.534439	0.152415
1024.703682	0.152447
1024.872907	0.150392
1025.042114	0.151548
1025.211302	0.150597
1025.380472	0.150959
1025.549624	0.150970
1025.718758	0.150886
1025.887873	0.152062
1026.056970	0.151444
1026.226049	0.151358
1026.395110	0.153380
1026.564153	0.152399
1026.733177	0.154430
1026.902183	0.155176
1027.071171	0.155949
1027.240141	0.156493
1027.409092	0.155123
1027.578026	0.154705
1027.746940	0.153747
1027.915837	0.153489
1028.084716	0.153649
1028.253576	0.152296
1028.422418	0.151355
1028.591242	0.151654
1028.760048	0.150310
1028.928835	0.149319
1029.097604	0.149341
1029.266355	0.148854
1029.435088	0.146313
1029.603803	0.147268
1029.772499	0.147411
1029.941177	0.148758
1030.109837	0.149960
1030.278478	0.151353
1030.447102	0.152554
1030.615707	0.153894
1030.784294	0.155223
1030.952863	0.158156
1031.121413	0.158817
1031.289945	0.158612
1031.458460	0.157390
1031.626955	0.156835
1031.795433	0.154885
1031.963892	0.155030
1032.132334	0.153223
1032.300756	0.152614
1032.469161	0.152752
1032.637548	0.150873
1032.805916	0.150792
1032.974266	0.149853
1033.142598	0.147632
1033.310911	0.148981
1033.479207	0.149032
1033.647484	0.147936
1033.815743	0.148545
1033.983983	0.147385
1034.152206	0.146335
1034.320410	0.146952
1034.488596	0.149282
1034.656764	0.151227
1034.824914	0.150266
1034.993045	0.148744
1035.161158	0.150340
1035.329253	0.149243
1035.497330	0.150382
1035.665388	0.153076
1035.833428	0.153713
1036.001450	0.151844
1036.169454	0.151103
1036.337440	0.150619
1036.505407	0.151743
1036.673356	0.151505
1036.841287	0.152273
1037.009200	0.152208
1037.177094	0.149908
1037.344970	0.148971
1037.512828	0.150580
1037.680668	0.151382
1037.848489	0.151556
1038.016293	0.151015
1038.184078	0.152555
1038.351845	0.152176
1038.519593	0.150739
1038.687324	0.152368
1038.855036	0.151920
1039.022730	0.151762
1039.190406	0.151420
1039.358063	0.154071
1039.525702	0.152870
1039.693323	0.152498
1039.860926	0.152500
1040.028511	0.152174
1040.196077	0.151683
1040.363625	0.153404
1040.531155	0.151140
1040.698667	0.152247
1040.866161	0.150421
1041.033636	0.151412
1041.201093	0.151536
1041.368532	0.151585
1041.535952	0.152457
1041.703355	0.152041
1041.870739	0.149753
1042.038105	0.151571
1042.205452	0.149923
1042.372782	0.148201
1042.540093	0.149412
1042.707386	0.148646
1042.874661	0.148939
1043.041918	0.150218
1043.209156	0.151267
1043.376376	0.153753
1043.543578	0.153191
1043.710762	0.152751
1043.877927	0.154017
1044.045074	0.151827
1044.212203	0.150646
1044.379314	0.150136
1044.546407	0.147545
1044.713481	0.147512
1044.880537	0.145777
1045.047575	0.145293
1045.214595	0.147086
1045.381596	0.147514
1045.548579	0.147860
1045.715544	0.147699
1045.882491	0.148419
1046.049420	0.149021
1046.216330	0.148350
1046.383222	0.149450
1046.550096	0.151253
1046.716951	0.149511
1046.883789	0.149308
1047.050608	0.151057
1047.217409	0.152064
1047.384192	0.150916
1047.550956	0.151390
1047.717703	0.151652
1047.884431	0.151324
1048.051140	0.150501
1048.217832	0.150846
1048.384505	0.151487
1048.551161	0.152095
1048.717798	0.153011
1048.884416	0.154219
1049.051017	0.156458
1049.217599	0.158064
1049.384163	0.157613
1049.550709	0.156343
1049.717237	0.155309
1049.883746	0.155099
1050.050237	0.153754
1050.216710	0.154232
1050.383165	0.155263
1050.549601	0.153942
1050.716019	0.153081
1050.882420	0.153298
1051.048801	0.153899
1051.215165	0.156472
1051.381510	0.157548
1051.547837	0.157167
1051.714146	0.156178
1051.880437	0.152488
1052.046709	0.152076
1052.212964	0.152192
1052.379200	0.151653
1052.545417	0.151510
1052.711617	0.150106
1052.877798	0.148468
1053.043961	0.149240
1053.210106	0.149819
1053.376233	0.151961
1053.542341	0.150140
1053.708432	0.148222
1053.874504	0.148130
1054.040557	0.148191
1054.206593	0.148439
1054.372610	0.148549
1054.538609	0.146962
1054.704590	0.147123
1054.870553	0.146531
1055.036497	0.147467
1055.202424	0.147803
1055.368331	0.148697
1055.534221	0.150644
1055.700093	0.150527
1055.865946	0.150426
1056.031781	0.152875
1056.197598	0.152326
1056.363397	0.152488
1056.529177	0.153055
1056.694939	0.152180
1056.860683	0.151438
1057.026409	0.149636
1057.192116	0.150089
1057.357806	0.150146
1057.523477	0.149109
1057.689130	0.149827
1057.854764	0.148473
1058.020381	0.148055
1058.185979	0.149553
1058.351559	0.150626
1058.517120	0.150557
1058.682664	0.149621
1058.848189	0.149656
1059.013696	0.149106
1059.179185	0.147784
1059.344656	0.150293
1059.510108	0.150019
1059.675542	0.150055
1059.840958	0.149206
1060.006356	0.150059
1060.171735	0.151089
1060.337096	0.152543
1060.502439	0.151569
1060.667764	0.151674
1060.833071	0.150211
1060.998359	0.151931
1061.163629	0.150303
1061.328881	0.150035
1061.494115	0.151019
1061.659330	0.152096
1061.824527	0.151002
1061.989706	0.153033
1062.154867	0.151962
1062.320010	0.151713
1062.485134	0.152632
1062.650240	0.155682
1062.815328	0.155438
1062.980398	0.154280
1063.145449	0.156058
1063.310482	0.155554
1063.475497	0.155347
1063.640494	0.156521
1063.805473	0.159206
1063.970433	0.157716
1064.135375	0.157602
1064.300299	0.156810
1064.465204	0.155613
1064.630092	0.152657
1064.794961	0.154178
1064.959812	0.155417
1065.124645	0.155750
1065.289459	0.155718
1065.454256	0.157277
1065.619034	0.155724
1065.783793	0.157540
1065.948535	0.159019
1066.113258	0.159441
1066.277964	0.157578
1066.442651	0.156105
1066.607319	0.157005
1066.771970	0.156791
1066.936602	0.155253
1067.101216	0.154157
1067.265812	0.153159
1067.430389	0.153513
1067.594949	0.153972
1067.759490	0.154518
1067.924013	0.153934
1068.088518	0.153495
1068.253004	0.151415
1068.417472	0.151850
1068.581922	0.152244
1068.746354	0.153209
1068.910768	0.151313
1069.075163	0.150297
1069.239540	0.151082
1069.403899	0.151607
1069.568240	0.150944
1069.732562	0.153340
1069.896866	0.153532
1070.061152	0.154459
1070.225420	0.155190
1070.389670	0.156095
1070.553901	0.156079
1070.718114	0.155401
1070.882309	0.153921
1071.046486	0.155152
1071.210644	0.151792
1071.374784	0.150314
1071.538906	0.149543
1071.703010	0.149724
1071.867096	0.150750
1072.031163	0.150979
1072.195212	0.149852
1072.359243	0.152665
1072.523256	0.152113
1072.687250	0.153883
1072.851226	0.155605
1073.015184	0.156352
1073.179124	0.156437
1073.343045	0.153030
1073.506949	0.152092
1073.670834	0.153575
1073.834701	0.152454
1073.998549	0.152044
1074.162380	0.152128
1074.326192	0.151281
1074.489986	0.151458
1074.653761	0.149939
1074.817519	0.153672
1074.981258	0.154681
1075.144979	0.155291
1075.308682	0.156348
1075.472367	0.156373
1075.636033	0.157487
1075.799681	0.156840
1075.963311	0.156907
1076.126923	0.158034
1076.290516	0.159244
1076.454092	0.158902
1076.617649	0.159195
1076.781187	0.158922
1076.944708	0.156377
1077.108210	0.157130
1077.271695	0.157194
1077.435160	0.157431
1077.598608	0.156708
1077.762038	0.153387
1077.925449	0.154987
1078.088842	0.152452
1078.252217	0.153132
1078.415573	0.155093
1078.578912	0.152271
1078.742232	0.151948
1078.905534	0.153283
1079.068817	0.155205
1079.232083	0.155369
1079.395330	0.156349
1079.558559	0.159983
1079.721770	0.159227
1079.884962	0.158833
1080.048136	0.160465
1080.211293	0.162343
1080.374430	0.163651
1080.537550	0.163377
1080.700651	0.166222
1080.863735	0.164619
1081.026800	0.163393
1081.189846	0.164247
1081.352875	0.164158
1081.515885	0.162175
1081.678877	0.161113
1081.841851	0.158889
1082.004807	0.156446
1082.167744	0.156365
1082.330663	0.155136
1082.493564	0.153604
1082.656447	0.153323
1082.819312	0.155503
1082.982158	0.155703
1083.144986	0.157407
1083.307796	0.156978
1083.470587	0.157419
1083.633361	0.155849
1083.796116	0.156794
1083.958853	0.158411
1084.121571	0.156914
1084.284272	0.155478
1084.446954	0.154913
1084.609618	0.154707
1084.772264	0.154426
1084.934892	0.154488
1085.097501	0.154264
1085.260092	0.153738
1085.422665	0.153792
1085.585220	0.154743
1085.747756	0.153447
1085.910274	0.156160
1086.072774	0.154664
1086.235256	0.155802
1086.397720	0.157535
1086.560165	0.155299
1086.722592	0.154796
1086.885001	0.154973
1087.047392	0.156708
1087.209764	0.158950
1087.372119	0.158535
1087.534455	0.159923
1087.696772	0.160980
1087.859072	0.161376
1088.021353	0.162888
1088.183616	0.162996
1088.345861	0.162315
1088.508088	0.160170
1088.670296	0.162088
1088.832486	0.159746
1088.994658	0.161101
1089.156812	0.161944
1089.318948	0.161600
1089.481065	0.163651
1089.643164	0.163442
1089.805245	0.163461
1089.967308	0.164317
1090.129352	0.161584
1090.291378	0.162344
1090.453386	0.159319
1090.615376	0.157025
1090.777347	0.156178
1090.939301	0.155067
1091.101236	0.158274
1091.263153	0.158426
1091.425051	0.158396
1091.586932	0.158047
1091.748794	0.158685
1091.910638	0.161476
1092.072463	0.161492
1092.234271	0.160899
1092.396060	0.160664
1092.557831	0.159596
1092.719584	0.160344
1092.881319	0.158234
1093.043035	0.159293
1093.204733	0.159406
1093.366413	0.156820
1093.528075	0.155125
1093.689718	0.155655
1093.851343	0.155371
1094.012950	0.155966
1094.174539	0.156402
1094.336110	0.159002
1094.497662	0.159632
1094.659196	0.159717
1094.820712	0.163456
1094.982210	0.162338
1095.143689	0.164386
1095.305151	0.166549
1095.466594	0.164711
1095.628018	0.164344
1095.789425	0.162875
1095.950813	0.162470
1096.112183	0.164045
1096.273535	0.159483
1096.434869	0.162485
1096.596184	0.160407
1096.757482	0.157337
1096.918761	0.156666
1097.080021	0.153401
1097.241264	0.153389
1097.402488	0.152787
1097.563694	0.150297
1097.724882	0.152635
1097.886052	0.152125
1098.047203	0.147075
1098.208336	0.149397
1098.369451	0.149605
1098.530548	0.149825
1098.691627	0.149382
1098.852687	0.148807
1099.013729	0.150578
1099.174753	0.152145
1099.335758	0.151475
1099.496746	0.156808
1099.657715	0.157016
1099.818666	0.158098
1099.979599	0.160292
1100.140513	0.161192
1100.301409	0.161651
1100.462287	0.160727
1100.623147	0.155794
1100.783989	0.156557
1100.944812	0.155352
1101.105617	0.151979
1101.266404	0.150969
1101.427173	0.153217
1101.587923	0.154258
1101.748656	0.152965
1101.909370	0.153823
1102.070066	0.158167
1102.230743	0.160275
1102.391403	0.160688
1102.552044	0.165154
1102.712667	0.165769
1102.873271	0.160829
1103.033858	0.159392
1103.194426	0.160553
1103.354976	0.160982
1103.515508	0.156628
1103.676021	0.152555
1103.836517	0.153906
1103.996994	0.153184
1104.157453	0.152261
1104.317893	0.155378
1104.478316	0.157487
1104.638720	0.155576
1104.799106	0.156282
1104.959474	0.158036
1105.119823	0.158251
1105.280155	0.157179
1105.440468	0.157374
1105.600763	0.157303
1105.761039	0.156614
1105.921298	0.157841
1106.081538	0.162197
1106.241760	0.159350
1106.401964	0.159132
1106.562149	0.163181
1106.722316	0.164656
1106.882465	0.164477
1107.042596	0.168225
1107.202709	0.167583
1107.362803	0.162932
1107.522879	0.165057
1107.682937	0.167087
1107.842977	0.166489
1108.002999	0.164124
1108.163002	0.163760
1108.322987	0.164966
1108.482954	0.163356
1108.642902	0.164382
1108.802833	0.164839
1108.962745	0.162693
1109.122639	0.160500
1109.282515	0.162759
1109.442372	0.163292
1109.602211	0.161717
1109.762032	0.159671
1109.921835	0.158674
1110.081620	0.156501
1110.241386	0.157954
1110.401134	0.158103
1110.560864	0.160482
1110.720576	0.160858
1110.880269	0.158231
1111.039945	0.157085
1111.199602	0.154906
1111.359240	0.157365
1111.518861	0.159445
1111.678463	0.159644
1111.838047	0.156787
1111.997613	0.155932
1112.157161	0.154770
1112.316690	0.159375
1112.476202	0.165958
1112.635695	0.169144
1112.795169	0.165904
1112.954626	0.165036
1113.114064	0.164130
1113.273484	0.162641
1113.432886	0.165145
1113.592270	0.165089
1113.751635	0.163275
1113.910983	0.157514
1114.070312	0.153146
1114.229622	0.154165
1114.388915	0.158327
1114.548189	0.161481
1114.707445	0.164976
1114.866683	0.163360
1115.025903	0.163149
1115.185104	0.156429
1115.344287	0.157641
1115.503452	0.156621
1115.662599	0.156072
1115.821727	0.152253
1115.980838	0.148757
1116.139930	0.149939
1116.299004	0.148622
1116.458059	0.149133
1116.617097	0.154996
1116.776116	0.154186
1116.935117	0.159495
1117.094099	0.164676
1117.253064	0.165148
1117.412010	0.163024
1117.570938	0.158133
1117.729848	0.159456
1117.888740	0.159142
1118.047613	0.160832
1118.206468	0.163934
1118.365305	0.166685
1118.524124	0.163137
1118.682924	0.163201
1118.841707	0.167139
1119.000471	0.174656
1119.159216	0.170336
1119.317944	0.172341
1119.476653	0.171327
1119.635344	0.167082
1119.794017	0.161736
1119.952672	0.160961
1120.111308	0.162943
1120.269927	0.164535
1120.428527	0.160694
1120.587108	0.163728
1120.745672	0.163883
1120.904217	0.158370
1121.062744	0.159800
1121.221253	0.164825
1121.379744	0.163290
1121.538216	0.161253
1121.696671	0.158758
1121.855107	0.158695
1122.013524	0.159333
1122.171924	0.157819
1122.330305	0.163548
1122.488668	0.166255
1122.647013	0.164131
1122.805340	0.159914
1122.963648	0.161367
1123.121938	0.163219
1123.280210	0.164335
1123.438464	0.163409
1123.596700	0.161270
1123.754917	0.160880
1123.913116	0.162262
1124.071297	0.162516
1124.229459	0.171686
1124.387604	0.172293
1124.545730	0.171376
1124.703838	0.172237
1124.861928	0.169734
1125.019999	0.170293
1125.178052	0.168659
1125.336088	0.164823
1125.494104	0.162504
1125.652103	0.161193
1125.810083	0.160109
1125.968045	0.160507
1126.125989	0.160438
1126.283915	0.161649
1126.441823	0.156030
1126.599712	0.159324
1126.757583	0.158986
1126.915436	0.160487
1127.073270	0.156283
1127.231087	0.152045
1127.388885	0.153191
1127.546665	0.153870
1127.704426	0.156945
1127.862170	0.162073
1128.019895	0.162809
1128.177602	0.163416
1128.335291	0.165480
1128.492961	0.165680
1128.650614	0.169839
1128.808248	0.167415
1128.965864	0.161449
1129.123461	0.164062
1129.281041	0.166103
1129.438602	0.162639
1129.596145	0.165103
1129.753670	0.164686
1129.911176	0.163625
1130.068665	0.159090
1130.226135	0.159321
1130.383587	0.161277
1130.541020	0.156244
1130.698436	0.154753
1130.855833	0.154985
1131.013212	0.148600
1131.170573	0.143790
1131.327915	0.141819
1131.485239	0.146981
1131.642545	0.152121
1131.799833	0.148407
1131.957103	0.151262
1132.114354	0.153360
1132.271588	0.154708
1132.428803	0.163021
1132.585999	0.165204
1132.743178	0.165865
1132.900338	0.163049
1133.057480	0.154054
1133.214604	0.161436
1133.371710	0.156477
1133.528797	0.154666
1133.685866	0.154582
1133.842917	0.147199
1133.999950	0.142939
1134.156964	0.145646
1134.313960	0.145568
1134.470938	0.143933
1134.627898	0.142780
1134.784840	0.149319
1134.941763	0.153372
1135.098668	0.153756
1135.255555	0.155676
1135.412424	0.164609
1135.569274	0.165472
1135.726107	0.166687
1135.882921	0.175879
1136.039716	0.173363
1136.196494	0.165705
1136.353253	0.160263
1136.509995	0.159066
1136.666717	0.159443
1136.823422	0.156152
1136.980109	0.161059
1137.136777	0.162735
1137.293427	0.157925
1137.450059	0.156219
1137.606672	0.161524
1137.763267	0.163716
1137.919844	0.159958
1138.076403	0.162418
1138.232944	0.165619
1138.389466	0.158199
1138.545971	0.163487
1138.702457	0.163502
1138.858924	0.158461
1139.015374	0.158294
1139.171805	0.158617
1139.328218	0.159718
1139.484613	0.159581
1139.640990	0.147268
1139.797348	0.144198
1139.953688	0.139096
1140.110010	0.140768
1140.266314	0.150383
1140.422600	0.140719
1140.578867	0.136693
1140.735116	0.139748
1140.891347	0.140903
1141.047559	0.146553
1141.203754	0.155136
1141.359930	0.149567
1141.516088	0.149643
1141.672228	0.148835
1141.828349	0.153179
1141.984452	0.153484
1142.140537	0.154233
1142.296604	0.147664
1142.452653	0.148346
1142.608683	0.147656
1142.764695	0.154621
1142.920689	0.153362
1143.076665	0.150122
1143.232622	0.149438
1143.388562	0.153101
1143.544483	0.150381
1143.700385	0.151649
1143.856270	0.150196
1144.012136	0.148883
1144.167985	0.140551
1144.323814	0.142611
1144.479626	0.141157
1144.635420	0.142465
1144.791195	0.142547
1144.946952	0.144809
1145.102691	0.143521
1145.258411	0.144082
1145.414113	0.141496
1145.569798	0.144723
1145.725463	0.137479
1145.881111	0.142151
1146.036741	0.145070
1146.192352	0.142544
1146.347945	0.137609
1146.503519	0.144937
1146.659076	0.145091
1146.814614	0.141887
1146.970134	0.139794
1147.125636	0.149189
1147.281120	0.146761
1147.436585	0.148499
1147.592032	0.148611
1147.747461	0.152622
1147.902872	0.150766
1148.058265	0.147458
1148.213639	0.152234
1148.368995	0.151720
1148.524333	0.144757
1148.679653	0.144602
1148.834954	0.137294
1148.990237	0.137598
1149.145502	0.135366
1149.300749	0.131383
1149.455977	0.141697
1149.611188	0.141466
1149.766380	0.145549
1149.921553	0.149657
1150.076709	0.149979
1150.231846	0.155888
1150.386966	0.151179
1150.542066	0.155244
1150.697149	0.151651
1150.852214	0.151073
1151.007260	0.151163
1151.162288	0.151868
1151.317298	0.154556
1151.472289	0.152412
1151.627263	0.153373
1151.782218	0.159925
1151.937155	0.158583
1152.092073	0.162195
1152.246974	0.149388
1152.401856	0.150166
1152.556720	0.152101
1152.711566	0.146900
1152.866393	0.142555
1153.021203	0.138485
1153.175994	0.134128
1153.330767	0.135227
1153.485521	0.134246
1153.640258	0.137626
1153.794976	0.138292
1153.949676	0.136848
1154.104358	0.138354
1154.259021	0.142135
1154.413667	0.148211
1154.568294	0.150888
1154.722903	0.150460
1154.877493	0.153399
1155.032066	0.157188
1155.186620	0.159353
1155.341156	0.158951
1155.495674	0.155607
1155.650173	0.158660
1155.804654	0.155222
1155.959118	0.155186
1156.113562	0.146196
1156.267989	0.144409
1156.422397	0.143372
1156.576788	0.135101
1156.731160	0.128768
1156.885513	0.133754
1157.039849	0.135472
1157.194166	0.137395
1157.348465	0.136294
1157.502746	0.141752
1157.657009	0.138764
1157.811253	0.141862
1157.965479	0.145250
1158.119687	0.150970
1158.273877	0.147026
1158.428048	0.153201
1158.582201	0.149356
1158.736337	0.147558
1158.890453	0.150208
1159.044552	0.160244
1159.198632	0.153679
1159.352694	0.160197
1159.506738	0.157014
1159.660764	0.157912
1159.814771	0.150447
1159.968761	0.148502
1160.122732	0.156203
1160.276685	0.149648
1160.430619	0.145658
1160.584535	0.144646
1160.738434	0.142139
1160.892313	0.147592
1161.046175	0.150401
1161.200019	0.147430
1161.353844	0.144680
1161.507651	0.141331
1161.661440	0.143718
1161.815210	0.138559
1161.968962	0.143731
1162.122697	0.135088
1162.276412	0.130431
1162.430110	0.125890
1162.583789	0.131762
1162.737451	0.132421
1162.891094	0.128543
1163.044718	0.128226
1163.198325	0.126792
1163.351913	0.120048
1163.505483	0.118329
1163.659035	0.118700
1163.812569	0.117472
1163.966084	0.109390
1164.119581	0.113420
1164.273060	0.112526
1164.426521	0.116767
1164.579964	0.124330
1164.733388	0.129508
1164.886794	0.136303
1165.040182	0.133277
1165.193551	0.129586
1165.346903	0.128870
1165.500236	0.118075
1165.653551	0.121116
1165.806848	0.113146
1165.960126	0.109703
1166.113386	0.107873
1166.266628	0.113448
1166.419852	0.113452
1166.573058	0.118290
1166.726245	0.119633
1166.879414	0.129343
1167.032565	0.126652
1167.185698	0.130273
1167.338812	0.119178
1167.491909	0.125110
1167.644987	0.121905
1167.798046	0.126085
1167.951088	0.130160
1168.104111	0.132488
1168.257117	0.140736
1168.410103	0.141746
1168.563072	0.138426
1168.716023	0.150645
1168.868955	0.141289
1169.021869	0.133125
1169.174765	0.127604
1169.327642	0.122773
1169.480501	0.128261
1169.633343	0.123740
1169.786165	0.124733
1169.938970	0.127047
1170.091757	0.113490
1170.244525	0.115584
1170.397275	0.118271
1170.550007	0.124910
1170.702720	0.126190
1170.855415	0.119038
1171.008092	0.110024
1171.160751	0.104616
1171.313392	0.100757
1171.466014	0.133327
1171.618619	0.075343
1171.771205	0.075343
1171.923772	0.075343
