sample name	sample
index	873
start time	 04-08-2021  01:33:38 PM
880	0.467017
Peak Time (s)	101.538
Peak Height 	0.467
calc peak height	100,103
Baseline Time (s)	9.536
Baseline Value 	-0.001915
subtract baseline	10,4
Abs	0.350063
Peak Time (s)	102.035
Peak Height 	0.3501
calc peak height	100,103
Baseline Time (s)	10.037
Baseline Value 	0.001247
subtract baseline	10,3
PK_550	0.171169
Peak Time (s)	102.035
Peak Height 	0.1712
calc peak height	100,103
Baseline Time (s)	8.536
Baseline Value 	1.6955E-4
subtract baseline	10,2
PK_880	0.312875
Peak Time (s)	102.535
Peak Height 	0.3129
calc peak height	100,103
Baseline Time (s)	10.537
Baseline Value 	8.3195E-4
subtract baseline	10,1


Time (s)	A880-A510	A880-A775	A880-A975	A880	I510	I775	I975	I880	
0.035500	-0.002835	-0.000861	-0.004266	0.005555	6818.145326	42032.100456	3897.236099	22550.123943
0.536500	-0.001788	-0.000103	-0.003479	0.004010	6842.809334	42241.223107	3903.849560	22620.954946
1.037000	-0.001261	0.000197	0.001247	0.003545	6852.288987	42310.852409	3918.691255	22642.308313
1.537000	0.001006	-0.000188	0.000836	0.001012	6898.457035	42507.151744	3924.807721	22759.037092
2.037500	-0.003382	0.000268	-0.003142	0.006011	6808.647588	42093.182407	3899.128237	22529.302583
2.534500	0.001171	0.000155	0.001744	0.000487	6905.137108	42586.825461	3928.958649	22783.326023
3.035500	0.002434	0.000714	-0.000248	-0.001406	6935.810467	42812.495820	3928.669234	22871.112697
3.535500	-0.000978	0.000113	-0.001574	0.000003	6889.025555	42627.310335	3920.764309	22805.702856
4.036000	-0.001108	0.000459	-0.001316	0.005789	6832.336718	42130.580393	3904.939072	22539.448420
4.536000	-0.002018	0.000183	0.000966	0.000458	6874.635887	42591.977189	3926.786185	22784.655589
5.036500	0.000582	0.000613	0.001955	0.000287	6901.360375	42647.212449	3930.149877	22792.567366
5.536500	-0.000327	0.000689	-0.001144	0.000139	6894.008842	42667.790429	3921.611813	22799.422110
6.037000	-0.002285	0.000501	-0.004685	0.000081	6875.685569	42655.798747	3911.608357	22802.087881
6.537500	0.000600	0.000194	-0.000132	0.000074	6903.595910	42628.241598	3924.720344	22802.419132
7.035000	-0.000029	0.000521	0.001210	0.000080	6897.453599	42657.770972	3928.588554	22802.136074
7.535000	-0.000729	0.000332	0.002053	-0.000295	6894.315372	42674.896089	3932.125036	22819.532393
8.035500	-0.000345	0.000372	0.000730	0.000291	6892.357908	42624.679969	3926.584457	22792.366489
8.535500	-0.001578	0.000000	-0.001467	0.000071	6882.590450	42610.752867	3920.877163	22802.590109
9.036000	-0.000436	-0.000072	-0.001096	-0.000237	6896.578625	42632.342182	3922.835350	22816.826670
9.536000	0.000607	0.000513	0.001821	0.000000	6904.387433	42664.431390	3930.594284	22805.862911
10.036500	-0.000533	-0.000023	0.000000	-0.000247	6895.743276	42637.823704	3926.030880	22817.304052
10.537000	0.000000	-0.000190	-0.001063	-0.000113	6899.600693	42610.137262	3922.572375	22811.091015
11.037000	0.001310	0.000941	0.005521	0.000044	6910.770066	42699.752981	3941.254393	22803.814184
11.535000	0.001667	0.000874	0.001150	0.000252	6912.212299	42674.371360	3927.914686	22794.175264
12.035000	-0.000650	0.000107	0.002084	-0.000626	6898.279313	42684.634312	3933.177193	22834.897758
12.535000	-0.000391	0.000151	0.001683	-0.000134	6896.033205	42643.445046	3930.582717	22812.093904
13.035500	0.003898	0.000814	0.004107	-0.000716	6943.369565	42758.028510	3939.340171	22839.062719
13.538500	0.001244	0.000123	-0.003050	-0.000299	6913.466829	42656.035724	3917.387485	22819.736401
14.036000	-0.001530	-0.000056	-0.000894	0.001589	6868.445502	42466.421361	3918.157060	22732.363999
14.536500	-0.001261	0.000777	-0.001549	0.001838	6868.643086	42519.892607	3915.561758	22720.898134
15.039500	0.000965	0.000472	-0.000330	-0.000253	6910.309678	42683.950482	3925.094123	22817.590990
15.537000	0.000152	-0.000099	0.000777	-0.000619	6905.972456	42664.972324	3929.357372	22834.543586
16.040000	-0.000345	0.000773	0.000018	0.000753	6887.901414	42619.052164	3923.191468	22770.990231
16.536000	0.001279	0.000765	0.000744	0.000219	6908.769469	42667.428482	3926.836002	22795.715843
17.038000	0.001480	0.000907	0.003762	-0.002703	6939.156655	42950.260714	3944.148355	22931.469146
17.535500	0.001094	0.001241	0.000978	0.001578	6893.826920	42586.245598	3923.582083	22732.881113
18.038500	-0.002256	0.000521	0.002971	0.001706	6860.366824	42508.538705	3928.979082	22726.976796
18.536000	0.000167	0.000386	-0.002336	0.000819	6892.211263	42577.516880	3916.226313	22767.965110
19.036500	-0.001357	0.000032	-0.004249	0.000972	6876.052229	42531.039617	3910.312470	22760.896405
19.536500	-0.003843	0.000082	0.001219	0.000884	6853.038365	42543.620207	3926.286263	22764.954462
20.036000	0.000047	0.000799	0.004852	0.001897	6880.661544	42516.514708	3933.892305	22718.182063
20.537000	0.000300	0.000890	0.000276	0.001361	6888.262935	42574.068632	3922.184841	22742.920100
21.037500	-0.001105	0.000432	0.001025	0.000983	6878.368992	42566.683037	3925.437039	22760.375320
21.535000	-0.000287	-0.000224	-0.004774	0.000593	6890.012390	42542.280927	3909.892334	22778.414551
22.035000	0.000781	0.000364	0.001485	0.001161	6894.840534	42544.081417	3926.254263	22752.162376
22.538000	-0.000440	0.000775	0.003933	0.001968	6875.285805	42507.812870	3931.012097	22714.885737
23.036000	0.000240	0.000553	0.003689	0.001469	6886.641894	42533.139962	3931.752978	22737.914564
23.536000	-0.001015	0.000537	0.004285	0.001497	6874.288348	42529.113243	3933.403262	22736.627715
24.036000	-0.001752	0.000507	-0.000565	0.001370	6868.425244	42538.032026	3919.733342	22742.489559
24.536500	-0.000266	0.001119	0.001684	0.001911	6877.500984	42544.522869	3924.658512	22717.497639
25.039500	-0.001892	0.001306	0.002742	0.002176	6859.353754	42537.371871	3926.954037	22705.306650
25.537500	-0.002301	0.001182	0.002205	0.002061	6856.532877	42536.603024	3925.734717	22710.607883
26.035000	-0.002031	0.000258	-0.008402	0.001308	6866.336057	42520.833447	3897.549252	22745.332568
26.535000	-0.000661	0.000773	0.007057	0.001820	6874.577881	42521.091682	3940.550781	22721.697588
27.035500	0.000298	-0.000204	0.005177	-0.001828	6919.121577	42766.672725	3945.736429	22890.723073
27.536000	0.000928	0.000511	-0.002625	-0.000875	6915.982263	42744.726901	3920.267090	22846.427963
28.036000	-0.001283	0.000133	0.005385	0.003479	6852.707032	42311.066534	3930.839890	22645.313157
28.536000	0.000485	0.000667	0.005540	0.000432	6899.020242	42638.844085	3940.174212	22785.862335
29.036000	-0.000088	0.000319	0.001674	-0.000349	6901.034773	42678.649577	3931.178589	22822.027943
29.534000	0.001085	0.000340	0.001985	-0.000089	6909.872018	42656.609874	3931.325853	22809.969940
30.037500	-0.000754	-0.000084	-0.000900	0.002422	6867.905023	42387.724171	3915.749216	22693.966048
30.534500	0.001240	0.001341	-0.000102	0.003283	6878.801908	42439.204699	3915.565597	22654.336293
31.035500	-0.000125	0.000352	0.000133	0.001520	6882.630026	42510.075484	3921.313532	22735.567375
31.535500	0.000174	0.000616	0.000322	-0.000513	6905.158452	42721.090525	3927.734285	22829.635422
32.036500	0.000626	0.000637	0.002439	0.001025	6894.653672	42581.578738	3929.409959	22758.418001
32.535000	0.000450	0.000829	0.003787	-0.000311	6905.883620	42722.109679	3937.224736	22820.295927
33.036000	0.000331	0.001382	0.002787	-0.000320	6904.811456	42773.878124	3934.333632	22820.686377
33.536500	0.002174	0.001356	0.006174	-0.001507	6934.259141	42881.119208	3947.725497	22875.801272
34.037000	-0.001490	0.000852	0.002939	0.002243	6862.557842	42489.604694	3927.330898	22702.192466
34.537000	-0.000805	0.000907	0.002869	0.002182	6869.720882	42500.216520	3927.305129	22705.006658
35.037000	0.000722	0.000513	0.002134	0.001735	6888.724954	42505.185947	3926.473119	22725.652078
35.537500	-0.000244	0.000515	0.003043	0.002005	6876.812724	42480.647385	3928.322497	22713.195177
36.035000	0.000401	0.000403	0.001508	0.001732	6885.658616	42495.282049	3924.667980	22725.766926
36.538000	-0.000012	0.000766	-0.002148	0.002267	6876.532282	42479.662197	3912.615363	22701.125145
37.035500	-0.001100	0.000153	-0.001083	0.001758	6870.959700	42470.089393	3917.129777	22724.593328
37.536000	0.000802	0.001163	0.003088	0.002097	6886.002845	42531.559695	3928.186664	22708.956368
38.036000	0.001730	0.000421	-0.000153	0.001656	6899.220594	42503.885321	3920.095933	22729.268131
38.536500	-0.001918	0.000159	0.002372	0.001438	6866.174640	42499.911922	3928.019414	22739.330672
39.036500	-0.001152	0.000302	0.000748	0.001771	6870.335968	42482.533825	3922.362006	22723.991115
39.537000	-0.000711	0.000024	-0.004520	0.001540	6876.795085	42478.258666	3907.915143	22734.642542
40.037500	-0.001653	0.000574	0.001306	0.002116	6862.216232	42475.831439	3922.977639	22708.059694
40.535000	-0.000082	0.000405	0.000281	0.002231	6876.201986	42449.887881	3919.691496	22702.773652
41.034500	0.000519	0.000843	0.003211	0.002259	6881.717798	42487.355576	3928.073741	22701.483617
41.535500	-0.001182	0.000106	0.004981	0.002050	6867.366026	42439.022562	3933.818527	22711.093171
42.036000	-0.001017	-0.000186	0.000381	0.001833	6871.032775	42432.246531	3921.125782	22721.123620
42.536000	-0.000930	0.000150	0.003365	0.001994	6870.326976	42448.156625	3929.288104	22713.691898
43.036500	-0.001086	0.000306	0.001011	0.002228	6866.578949	42441.088684	3921.803402	22702.893859
43.536500	-0.001396	0.000201	0.004487	0.001924	6866.524847	42459.248208	3932.749913	22716.909564
44.037000	-0.002864	0.000084	-0.001552	0.005709	6816.407532	42103.858906	3904.496006	22543.091060
44.537000	0.001302	0.000965	0.001042	-0.000040	6911.511045	42709.697694	3928.450378	22807.726950
45.037500	0.000357	0.001061	-0.002668	0.000104	6900.952162	42705.232141	3917.325274	22801.025799
45.535500	0.001391	0.000681	0.000850	-0.000269	6914.586770	42704.580427	3928.554814	22818.306423
46.035000	-0.002266	0.000832	0.000990	0.005887	6820.389853	42155.559619	3911.235920	22534.944959
46.535500	0.000520	-0.000120	0.001922	-0.000158	6905.064675	42620.729111	3931.344478	22813.172384
47.036000	-0.000139	0.000459	-0.000414	-0.000108	6898.215675	42669.418358	3924.433339	22810.875068
47.536000	-0.000870	0.000926	0.003378	0.002395	6867.049515	42482.493047	3928.160895	22695.202146
48.036500	-0.003003	0.000105	-0.003410	0.006030	6812.053115	42076.666084	3898.315230	22528.435780
48.537000	-0.002297	0.001074	-0.001642	0.000094	6875.451768	42707.397983	3920.309539	22801.527722
49.037500	0.000325	0.000476	0.002498	-0.000255	6904.118947	42684.428939	3933.302441	22817.669139
49.534500	0.000047	0.000597	0.004341	-0.002201	6920.313210	42875.165710	3944.378641	22908.114007
50.037500	0.000313	0.000368	0.001242	0.003534	6867.473143	42327.492385	3918.705612	22642.797695
50.535000	0.001548	0.000129	0.006405	0.010073	6816.867179	41714.204684	3914.757393	22344.571551
51.035500	-0.029496	-0.010894	0.013083	0.049558	6199.500912	37433.065366	3824.153663	20635.992822
51.536000	-0.028532	-0.012959	0.005644	0.022680	6431.310744	39474.005992	3877.008301	21782.051751
52.036500	-0.028832	-0.012358	-0.000562	-0.049439	7102.606484	46173.354889	4074.907351	25231.840129
52.536500	-0.031005	-0.013187	-0.006165	-0.056755	7155.066205	46827.202958	4080.459429	25614.853153
53.036500	-0.022337	-0.012493	-0.012508	-0.102348	7748.187842	51787.750295	4213.917355	28152.994895
53.537000	-0.012383	-0.008283	-0.014651	-0.107734	7929.743696	52883.895236	4225.494458	28470.800727
54.037000	-0.005807	-0.008936	-0.010092	-0.107514	8006.868856	52783.241711	4241.119105	28457.771125
54.534500	-0.000925	-0.007047	-0.009612	-0.098043	7951.069866	51916.754975	4208.912847	27901.764858
55.038000	-0.000634	-0.004206	-0.000040	-0.036459	7259.670914	45692.888181	4035.164406	24567.927319
55.535500	-0.000925	-0.004400	0.001776	-0.017017	7057.056289	43793.273966	3980.850987	23609.899596
56.035500	0.006787	-0.001499	0.006391	-0.014595	7110.475077	43838.632629	3987.487979	23493.539273
56.536000	0.008731	0.000129	0.004707	-0.008192	7065.400092	43388.953770	3963.173806	23188.977790
57.036500	0.008690	-0.000082	0.010786	-0.005416	7037.170770	43110.297545	3973.051256	23058.371884
57.536500	0.011139	-0.000861	0.010057	0.002419	6983.696941	42317.130464	3947.599871	22694.119580
58.037000	0.013352	0.000461	0.017737	0.018289	6851.032827	41012.639940	3923.722582	21976.117160
58.537000	0.018628	0.002546	0.026644	0.046869	6634.075472	38746.434499	3868.175864	20747.490220
59.037000	0.020121	0.003743	0.026795	0.058140	6546.452893	37920.423170	3837.874225	20284.752163
59.540500	0.022642	0.005696	0.030565	0.057467	6574.851932	38133.809041	3849.885598	20312.027171
60.035000	0.023193	0.004846	0.029482	0.062662	6533.622160	37644.320844	3832.948074	20102.439192
60.535500	0.025324	0.006874	0.030583	0.067923	6506.089251	37385.332814	3821.858138	19892.733600
61.035500	0.029300	0.007567	0.037526	0.071585	6508.835026	37149.126546	3830.594022	19748.223341
61.536000	0.031907	0.010795	0.043527	0.076106	6492.078200	37046.788036	3834.558251	19571.520231
62.036000	0.034055	0.012262	0.047660	0.081857	6460.736047	36709.876937	3830.225579	19349.384722
62.536500	0.042648	0.013480	0.051663	0.084525	6512.419511	36596.567620	3833.800156	19247.322114
63.037000	0.045774	0.016138	0.058626	0.090858	6484.360303	36311.176343	3835.491168	19007.566336
63.537000	0.052150	0.018800	0.061742	0.080138	6636.363775	37362.256581	3873.232220	19415.468493
64.040500	0.052438	0.020200	0.059888	0.080950	6631.625999	37409.219003	3865.869977	19384.241852
64.535000	0.060976	0.024124	0.075410	0.113639	6418.856405	35186.084728	3819.500178	18173.412602
65.035000	0.071625	0.027720	0.087570	0.131446	6358.040135	34141.022642	3804.645195	17551.217043
65.535500	0.078985	0.032828	0.093979	0.137223	6371.401366	34092.632463	3806.296528	17354.755380
66.036000	0.086510	0.037268	0.103144	0.147315	6349.759031	33686.984597	3803.872004	17017.794742
66.536000	0.095412	0.041960	0.109109	0.161768	6303.381886	32998.824770	3781.920212	16548.674237
67.036500	0.103781	0.047554	0.122104	0.170070	6303.943117	32810.552104	3794.004090	16286.167213
67.536500	0.112275	0.052940	0.129559	0.180549	6287.502603	32459.782201	3786.203067	15961.918741
68.036500	0.121991	0.058939	0.138247	0.190712	6283.809864	32176.046557	3782.417295	15654.837405
68.537000	0.130820	0.064827	0.151525	0.203259	6253.236803	31727.801058	3784.289894	15285.472531
69.037500	0.140505	0.069119	0.165672	0.227193	6138.499903	30445.146586	3759.448962	14609.843433
69.535000	0.145595	0.072578	0.167725	0.222820	6214.279721	30949.671127	3775.696832	14730.542643
70.035500	0.151572	0.077446	0.176665	0.209123	6377.224547	32182.510117	3834.884779	15116.492199
70.535500	0.158159	0.082201	0.181366	0.232229	6239.911146	30963.562340	3786.529148	14472.366661
71.036000	0.166671	0.087025	0.190917	0.232856	6304.804800	31237.821476	3809.717989	14455.367194
71.537000	0.170658	0.090805	0.194151	0.248681	6207.821839	30457.810983	3777.135318	14034.187601
72.037000	0.177733	0.094119	0.197950	0.259467	6177.964410	29984.690098	3759.459411	13755.796442
72.537000	0.182811	0.096762	0.198230	0.268876	6143.435067	29563.192691	3736.788153	13518.529867
73.042000	0.187642	0.100001	0.208984	0.273839	6142.389485	29456.824495	3751.114812	13395.420595
73.537500	0.191671	0.102178	0.213111	0.279738	6127.592197	29228.685417	3746.709481	13250.931789
74.037500	0.195102	0.104444	0.219709	0.284562	6116.608352	29073.036777	3751.117807	13134.206829
74.535500	0.200661	0.106602	0.220158	0.288592	6128.667622	28959.695051	3742.238342	13037.698520
75.035500	0.199833	0.107731	0.226014	0.292406	6092.190300	28797.949065	3747.292133	12947.175083
75.535500	0.205273	0.109850	0.229829	0.297192	6097.309016	28638.332281	3744.885269	12834.709569
76.036000	0.208520	0.111795	0.229032	0.300804	6094.458346	28539.040759	3734.024172	12750.648623
76.536500	0.210706	0.113265	0.233545	0.304531	6082.426054	28405.220353	3735.954025	12664.637491
77.036500	0.215807	0.114984	0.238157	0.308865	6088.410603	28251.052314	3736.637360	12565.548503
77.537000	0.218420	0.116792	0.245288	0.314819	6062.432083	28008.505423	3739.533198	12431.011814
78.039500	0.220971	0.119154	0.242116	0.319519	6045.820912	27872.701201	3720.310220	12326.096359
78.535000	0.225258	0.120243	0.247567	0.322766	6053.851318	27748.034595	3725.659365	12254.293690
79.035000	0.227014	0.123136	0.253561	0.327372	6031.899933	27649.482019	3729.036879	12153.326708
79.535000	0.227770	0.123451	0.250145	0.332331	5999.790368	27384.318567	3708.802092	12045.825433
80.038500	0.231027	0.125833	0.257549	0.337136	5988.046473	27247.132034	3715.040121	11942.835050
80.536000	0.232941	0.126327	0.259959	0.339718	5982.987986	27129.495447	3714.627197	11887.958779
81.036000	0.235433	0.128314	0.266439	0.343948	5969.872562	27003.750543	3720.053718	11798.749504
81.536500	0.237481	0.127664	0.268107	0.348673	5949.769202	26705.064029	3712.685243	11700.136844
82.036500	0.241002	0.129343	0.266521	0.350642	5961.417047	26689.126652	3704.182863	11659.370854
82.540000	0.242020	0.131280	0.270079	0.353969	5944.111588	26612.539200	3704.732757	11590.882199
83.034500	0.245816	0.131639	0.276083	0.357390	5946.908749	26444.628539	3710.906096	11520.986341
83.535000	0.247575	0.133945	0.272813	0.364122	5909.919556	26204.072331	3687.197796	11385.074633
84.038000	0.249540	0.134742	0.279550	0.364911	5918.626066	26204.506148	3701.232337	11369.284379
84.535500	0.250479	0.134724	0.278211	0.367264	5908.166544	26076.668260	3692.498621	11322.376922
85.038500	0.252547	0.136214	0.280226	0.370576	5898.985960	25978.898942	3689.448393	11256.746163
85.536000	0.251894	0.138027	0.281021	0.377461	5843.916287	25708.871075	3675.247652	11121.938024
86.036000	0.257289	0.139880	0.286429	0.378142	5878.245329	25770.979101	3686.253069	11108.718192
86.536500	0.258824	0.140929	0.291747	0.380849	5869.671530	25683.153763	3692.383444	11056.364241
87.037500	0.262671	0.141357	0.289203	0.384053	5874.372151	25536.828170	3678.934790	10994.841328
87.534000	0.261422	0.143320	0.291313	0.390678	5817.303956	25293.256486	3668.495345	10869.041372
88.037500	0.265040	0.142981	0.291024	0.390047	5847.967879	25308.399875	3669.280551	10880.923190
88.535000	0.267132	0.145202	0.298609	0.394098	5833.788246	25213.428410	3677.450240	10804.832739
89.038000	0.269306	0.147218	0.301908	0.398139	5820.341835	25108.787168	3675.729707	10729.626535
89.535500	0.270718	0.146797	0.302064	0.399604	5819.963910	25011.792776	3672.700737	10702.542842
90.036000	0.273355	0.147753	0.301568	0.403126	5813.602621	24880.470714	3663.461832	10637.780634
90.536000	0.276153	0.148671	0.307606	0.405534	5816.405167	24804.583536	3671.806654	10593.819722
91.036500	0.276136	0.151004	0.308384	0.409000	5791.496439	24747.039977	3665.620921	10530.944078
91.536500	0.273591	0.151114	0.309240	0.411187	5757.982192	24641.966913	3662.573016	10491.535210
92.037000	0.278321	0.152063	0.309740	0.413496	5775.085817	24573.449325	3658.446738	10450.146371
92.534500	0.282828	0.153778	0.313849	0.417117	5781.364545	24477.739977	3659.557422	10385.665509
93.034500	0.283768	0.155039	0.316772	0.420267	5765.722076	24383.313273	3659.041181	10330.015684
93.534000	0.284568	0.156531	0.319158	0.427922	5717.679570	24078.046065	3647.107649	10196.438083
94.035000	0.286592	0.156319	0.321978	0.425947	5745.611403	24164.914231	3657.960173	10230.678320
94.538000	0.287606	0.157366	0.319473	0.427842	5739.432827	24123.111282	3647.996620	10197.820318
95.036000	0.290742	0.156652	0.322877	0.429043	5753.016050	24028.948325	3652.972346	10177.077258
95.536500	0.288949	0.157984	0.324295	0.436804	5686.551405	23715.869324	3638.714749	10044.386256
96.037000	0.293392	0.160459	0.327694	0.436238	5721.216276	23863.355558	3647.602476	10053.976532
96.540000	0.296539	0.162014	0.331672	0.438670	5726.197488	23820.705282	3651.090278	10012.825178
97.037000	0.298207	0.163080	0.330777	0.441141	5720.602277	23752.559987	3643.513311	9971.249720
97.534500	0.295365	0.161272	0.330964	0.444808	5675.643304	23489.083222	3635.739194	9909.993200
98.040500	0.300639	0.164096	0.339853	0.446231	5702.157312	23556.169922	3652.491651	9886.348382
98.535500	0.303727	0.166025	0.339531	0.448460	5708.109498	23541.844325	3646.736795	9849.493538
99.041000	0.302477	0.166608	0.333223	0.450813	5683.244448	23457.124130	3627.441554	9810.776610
99.536000	0.304268	0.166665	0.337626	0.456894	5653.898644	23171.455043	3623.747359	9711.689096
100.036000	0.308057	0.168506	0.344889	0.456436	5682.951308	23280.019697	3640.862855	9719.108995
100.536000	0.309899	0.168487	0.344647	0.457385	5689.086948	23234.256496	3638.201813	9703.748563
101.039500	0.310025	0.169621	0.342309	0.459908	5672.625435	23168.719812	3627.421638	9663.094113
101.537500	0.309258	0.169325	0.346307	0.467017	5619.171024	22823.053480	3620.582245	9549.793714
102.034500	0.312537	0.171169	0.350063	0.465213	5653.561728	22992.654454	3632.838622	9578.380989
102.535000	0.312875	0.169475	0.348928	0.464980	5657.450222	22924.516905	3630.839346	9582.072784
103.035000	0.315735	0.172170	0.357325	0.468488	5653.044273	22886.782588	3641.723423	9526.595171
103.535000	0.318260	0.172180	0.352766	0.469792	5661.360407	22826.770072	3628.686798	9506.081446
104.035500	0.318767	0.174883	0.353585	0.473200	5641.633094	22794.179042	3622.985667	9452.765672
104.536000	0.319653	0.174281	0.353283	0.474873	5636.301576	22689.265336	3618.658624	9426.741656
105.035500	0.319350	0.175268	0.360182	0.477172	5618.748582	22629.038604	3628.764105	9391.138285
105.539500	0.323511	0.176868	0.362636	0.479487	5631.193088	22596.305519	3629.074332	9355.499481
106.036500	0.324331	0.177442	0.357523	0.481229	5624.975578	22542.919638	3614.045110	9328.792966
106.534500	0.326623	0.177480	0.363092	0.483101	5627.807177	22459.416078	3622.121862	9300.219049
107.037500	0.325597	0.176824	0.359933	0.483524	5618.045351	22410.395609	3614.295157	9293.769551
107.535000	0.327291	0.178751	0.364375	0.487389	5603.486904	22322.754897	3615.551590	9235.219563
108.038000	0.327156	0.179177	0.362119	0.488428	5595.641286	22295.104015	3608.400629	9219.567168
108.535500	0.329752	0.179682	0.367880	0.490340	5600.210234	22231.767232	3616.758671	9190.858699
109.036000	0.331241	0.181498	0.369440	0.492983	5592.509729	22194.683842	3614.399662	9151.389998
109.535500	0.329635	0.181634	0.369284	0.495082	5567.922255	22106.805018	3609.505753	9120.203394
110.036500	0.330153	0.182079	0.368803	0.496116	5564.517321	22080.563326	3606.234172	9104.909081
110.537000	0.331639	0.180967	0.370958	0.496737	5570.237683	22003.500583	3609.549028	9095.740745
111.036000	0.335996	0.182635	0.372909	0.499367	5581.674703	21960.826430	3608.079661	9057.035159
111.534500	0.334223	0.182860	0.370794	0.506583	5522.611543	21653.557921	3588.128574	8952.030305
112.037000	0.336448	0.186242	0.378818	0.504603	5550.086891	21888.737399	3609.532951	8980.661168
112.535000	0.337997	0.184458	0.377232	0.504377	5561.768778	21820.163726	3606.596918	8983.950123
113.082500	0.337642	0.185185	0.379331	0.506962	5542.451754	21738.590660	3605.548513	8946.567993
113.535500	0.337152	0.185708	0.376651	0.512849	5500.993813	21505.168933	3587.263807	8862.256296
114.039000	0.339504	0.185636	0.382640	0.509398	5538.686583	21651.862663	3607.429239	8911.531884
114.536000	0.343057	0.186311	0.380080	0.509551	5561.012730	21674.635159	3601.588727	8909.339517
115.036500	0.344453	0.188474	0.377212	0.513058	5547.135032	21616.101652	3588.009197	8859.288090
115.536500	0.337119	0.186274	0.379349	0.517494	5470.966024	21329.590475	3583.159837	8796.546547
