sample name	sample
index	1149
start time	 04-22-2021  03:26:39 PM
880	0.552492
Peak Time (s)	102.536
Peak Height 	0.5525
calc peak height	100,103
Baseline Time (s)	10.035
Baseline Value 	-0.003805
subtract baseline	10,4
Abs	0.371095
Peak Time (s)	102.038
Peak Height 	0.3711
calc peak height	100,103
Baseline Time (s)	8.534
Baseline Value 	0.004636
subtract baseline	10,3
PK_550	0.216923
Peak Time (s)	101.535
Peak Height 	0.2169
calc peak height	100,103
Baseline Time (s)	11.036
Baseline Value 	2.6122E-4
subtract baseline	10,2
PK_880	0.354530
Peak Time (s)	101.535
Peak Height 	0.3545
calc peak height	100,103
Baseline Time (s)	11.036
Baseline Value 	0.002459
subtract baseline	10,1


Time (s)	A880-A510	A880-A775	A880-A975	A880	I510	I775	I975	I880	
0.035000	-0.001636	-0.000412	-0.001552	0.001148	6274.716782	43168.243335	3917.711000	22735.001648
0.535500	-0.002772	-0.000260	-0.006687	0.003587	6247.459720	42957.309483	3900.517818	22624.198754
1.035500	-0.002935	-0.001023	-0.004949	0.002959	6250.998996	42944.943915	3905.857185	22652.691788
1.535500	-0.002985	-0.000012	0.000356	0.000858	6266.621257	43232.136799	3922.756304	22748.229332
2.036500	-0.000579	-0.000726	-0.002140	0.000533	6287.536299	43196.112444	3917.772832	22763.047322
2.536500	-0.000613	-0.000447	-0.002553	0.000838	6284.935488	43193.756061	3916.130139	22749.157082
3.036500	0.000444	0.001205	-0.000379	-0.000446	6302.959987	43466.291081	3924.066840	22807.774205
3.537000	-0.002402	-0.000185	-0.002770	0.000072	6277.089574	43288.953461	3917.386503	22784.104091
4.037000	0.001373	0.000950	-0.005137	0.000672	6301.496509	43338.579684	3910.617516	22756.711623
4.535000	-0.003697	-0.000574	0.000513	0.000808	6261.568847	43184.661897	3923.231215	22750.485533
5.035000	0.000632	0.000969	-0.003747	0.001475	6289.605229	43265.853698	3911.952839	22720.109991
5.535500	-0.002130	0.000335	-0.004681	0.000234	6277.926602	43322.138983	3912.650221	22776.667412
6.038500	-0.001950	-0.000273	-0.005455	-0.000098	6281.858823	43296.583300	3911.645780	22791.862428
6.536000	-0.001687	0.001036	-0.002766	0.000689	6277.842559	43344.948522	3915.983857	22755.930607
7.036500	-0.000805	0.000524	0.003705	-0.000140	6290.971323	43374.421592	3932.809111	22793.747579
7.536500	0.001054	0.001268	-0.003545	0.001097	6295.761176	43328.682543	3913.273893	22737.337740
8.037500	-0.000763	0.000584	-0.000124	0.000498	6286.392691	43320.727010	3922.480867	22764.635485
8.534500	-0.001982	-0.000017	0.000000	0.000027	6280.656073	43308.721083	3923.851066	22786.163203
9.035000	-0.002855	0.000825	0.003280	0.000219	6272.496317	43369.076375	3930.990993	22777.391147
9.535000	-0.000024	-0.000221	0.001207	-0.000190	6297.365370	43309.854862	3927.134885	22796.034132
10.035000	0.001579	0.000399	-0.002436	0.000000	6308.276090	43349.855601	3918.314842	22787.373585
10.535000	0.000468	-0.000022	-0.002876	-0.000551	6303.948206	43361.922430	3918.568866	22812.556187
11.036000	0.000000	0.000000	-0.001817	-0.000047	6296.455859	43317.161446	3919.843183	22789.533073
11.536000	0.001551	0.001384	0.002308	0.000722	6302.483344	43374.252639	3927.573199	22754.434846
12.036500	-0.000543	0.000201	0.004587	0.000060	6291.454686	43325.939804	3934.398992	22784.652373
12.537000	-0.005752	-0.000289	0.002312	0.002227	6235.183696	43079.937213	3924.107258	22685.893217
13.036500	0.000912	-0.000266	0.001164	-0.000952	6310.482918	43376.539863	3928.801626	22830.925853
13.535500	-0.001589	-0.000241	-0.002797	-0.000416	6287.064794	43329.007136	3918.440089	22806.378405
14.037500	-0.003545	0.000394	-0.002703	0.001800	6255.177815	43182.527202	3913.592382	22705.346632
14.537000	-0.004216	-0.000585	0.000136	0.002604	6243.968173	43017.859948	3918.240530	22668.786968
15.035500	-0.000824	0.000778	-0.000233	0.000606	6285.094731	43328.768530	3921.980411	22759.726029
15.538500	0.000203	0.000847	0.003122	0.000822	6291.322963	43315.082231	3929.224464	22749.857927
16.036000	-0.001541	0.000642	-0.001442	0.000386	6281.279756	43336.507226	3919.709226	22769.757586
16.536500	-0.004036	0.000110	-0.004998	0.005436	6223.919755	42821.540124	3900.159582	22540.646261
17.036500	0.000505	0.000257	0.005449	-0.002550	6319.702733	43574.135228	3942.511894	22904.178557
17.536500	-0.001518	0.000620	0.005521	0.001163	6275.506626	43262.429857	3934.005606	22734.336563
18.037000	-0.001542	0.000475	-0.000856	0.001159	6275.351187	43249.407028	3919.281275	22734.519003
18.537500	-0.002328	0.000464	0.005367	0.001454	6267.087920	43220.974518	3932.969974	22721.077717
19.035000	-0.001476	0.000871	-0.001526	0.001280	6274.925237	43274.817946	3917.467270	22728.972951
19.535500	0.000489	0.000619	0.003121	0.001502	6288.295065	43230.882170	3927.648492	22718.877560
20.038000	-0.000701	0.000815	0.000191	0.001584	6278.534326	43241.417236	3920.705783	22715.135800
20.536000	-0.000652	0.001086	0.000992	0.002025	6275.533751	43225.688639	3921.534574	22695.098793
21.039500	-0.001890	0.000572	0.002285	0.001763	6268.072136	43202.394892	3925.114040	22707.000225
21.536500	0.000550	0.000263	0.000501	0.001003	6292.602494	43244.128902	3922.756683	22741.605159
22.036500	0.001020	0.000872	0.000893	0.001144	6295.141199	43287.534530	3923.335651	22735.209956
22.537000	0.000019	0.000715	-0.002282	0.001304	6286.203358	43258.134959	3915.682495	22727.893685
23.035000	-0.001367	0.000115	0.000057	0.001058	6277.466659	43225.425698	3921.608955	22739.121822
23.534500	0.001018	0.000281	0.002726	0.001465	6292.654619	43203.071472	3926.822335	22720.577475
24.035500	-0.000732	0.000680	-0.005852	0.001462	6279.236915	43240.237718	3907.201753	22720.712210
24.535500	-0.001813	0.000373	0.000398	0.002080	6266.234438	43154.652838	3920.043793	22692.596537
25.036000	-0.002626	0.000309	0.000362	0.001668	6263.181490	43186.880145	3920.907287	22711.336047
25.535500	-0.000787	0.000031	0.004049	0.001163	6281.106481	43207.882951	3930.583233	22734.321134
26.036000	-0.001310	0.000524	0.001673	0.001371	6275.506231	43234.222019	3924.609074	22724.857528
26.536500	-0.001969	0.000238	-0.000802	0.003541	6253.913650	43007.392906	3913.956109	22626.303044
27.036500	0.000664	0.001040	-0.003371	0.001671	6288.341212	43254.227973	3912.362992	22711.201885
27.537000	-0.000820	0.000164	0.005238	-0.000821	6296.100513	43404.300371	3937.970350	22824.926271
28.034500	-0.001470	-0.000776	-0.002139	-0.000955	6292.126641	43329.356192	3921.186787	22831.029633
28.538000	-0.000324	0.000819	0.000123	0.000516	6289.627463	43340.894465	3923.006197	22763.808810
29.035000	-0.001222	0.000325	-0.000626	0.000201	6285.146511	43324.263315	3922.006404	22778.175288
29.535000	-0.002010	0.000151	0.001948	-0.000308	6283.005396	43355.365742	3929.124986	22801.456225
30.035500	-0.001492	0.000555	0.004860	-0.000061	6285.093249	43370.016977	3935.315763	22790.176467
30.536000	-0.004385	0.000129	-0.004105	0.006092	6216.346428	42763.121753	3900.690696	22511.048458
31.036500	-0.000704	0.000475	0.000472	0.002564	6271.012532	43119.379751	3919.104111	22670.604770
31.536500	0.000885	0.000776	0.000688	0.000630	6298.061485	43326.323505	3924.045960	22758.635459
32.036500	0.001123	0.000824	-0.003896	0.000551	6300.503399	43338.103844	3913.718679	22762.235687
32.537000	-0.004510	-0.000417	-0.003059	0.003298	6236.486943	42969.540338	3909.372254	22637.314241
33.035000	0.000737	0.000645	-0.000763	0.000560	6297.454749	43320.622438	3920.868746	22761.811248
33.535500	-0.001411	0.001266	0.005583	0.001681	6272.357183	43274.297759	3932.942776	22710.729169
34.035500	-0.001513	0.001086	0.001224	0.002622	6264.392442	43170.567307	3920.697520	22667.995487
34.535500	-0.003396	0.000676	0.000437	0.004282	6237.469825	42979.575176	3915.092252	22592.768257
35.036500	-0.003021	-0.000467	-0.002520	0.001248	6263.369192	43153.947804	3915.268366	22730.470302
35.536000	-0.003160	0.001236	-0.004629	0.002760	6250.794297	43171.597686	3907.030682	22661.691066
36.037000	-0.000714	0.000554	-0.000371	0.002153	6274.078227	43164.625090	3918.113716	22689.282102
36.536500	-0.002443	0.000009	0.001013	0.004026	6246.628670	42941.684248	3916.992136	22604.317143
37.037000	-0.002217	0.000135	-0.004041	0.002121	6262.843338	43128.874753	3909.814562	22690.732710
37.535000	0.001001	0.000542	-0.002723	0.002095	6287.679683	43168.912608	3912.873742	22691.933231
38.034500	-0.003316	-0.000053	-0.006699	0.002239	6253.573572	43100.673123	3903.529126	22685.390569
38.535000	-0.003205	0.000117	-0.001555	0.001802	6257.745028	43156.664192	3916.208117	22705.238674
39.038000	-0.001177	0.000570	0.000217	0.002210	6270.099711	43160.804859	3919.329663	22686.665687
39.536000	-0.000544	0.000643	0.000365	0.002593	6272.011719	43132.184830	3918.791939	22669.272469
40.036000	-0.000252	0.000926	0.002362	0.002457	6275.292984	43170.920887	3923.693955	22675.475785
40.536500	-0.002113	-0.000200	0.000595	0.002150	6263.419639	43095.305677	3920.335532	22689.426942
41.036500	-0.001982	0.000144	-0.001710	0.001427	6269.935279	43193.867591	3916.710759	22722.308705
41.537000	-0.001283	0.000644	-0.000431	0.001621	6273.801886	43222.198440	3919.196824	22713.483200
42.035000	0.001260	0.000955	0.003905	0.001796	6291.967200	43234.851980	3928.783293	22705.514569
42.535000	-0.001144	-0.000094	-0.003736	0.001690	6274.335794	43147.548295	3911.488446	22710.334181
43.035500	0.000623	0.000003	-0.003874	0.001215	6291.532307	43200.410124	3912.254872	22731.936795
43.535500	-0.001911	0.000982	-0.001473	-0.000465	6284.971605	43447.253304	3921.591070	22808.613244
44.036000	0.002293	0.001137	-0.000972	-0.000958	6321.230294	43507.631997	3923.879158	22831.172724
44.536000	-0.003214	0.000047	0.000100	0.005503	6229.614079	42809.537346	3911.540363	22537.589436
45.036500	0.000179	0.000154	0.000659	0.000211	6295.850111	43307.558373	3924.945517	22777.755485
45.536500	-0.002820	-0.000102	0.001565	-0.000394	6277.450997	43339.868994	3928.435506	22805.358612
46.037000	-0.000146	0.000281	0.001853	0.000015	6294.846033	43337.425122	3928.154508	22786.673008
46.537000	-0.004217	0.000431	0.001045	0.006267	6216.296031	42774.783165	3911.951187	22503.173197
47.035000	-0.001751	0.000611	-0.001172	0.002227	6265.585063	43163.036547	3916.109930	22685.910394
47.535000	-0.002129	0.000283	-0.000194	0.002109	6263.602351	43143.625543	3918.619956	22691.265412
48.035000	-0.000688	0.000228	0.002504	0.000295	6288.530002	43306.600707	3929.014474	22773.911632
48.538000	-0.005849	-0.000501	-0.000038	0.005378	6210.720534	42770.892622	3911.510239	22543.245018
49.035500	-0.001987	0.000561	-0.001514	0.000230	6279.053955	43343.503718	3919.901797	22776.850631
49.541000	-0.000099	0.000324	0.001619	-0.002350	6313.478553	43561.631671	3933.097476	22894.993319
50.036500	0.000349	0.001075	0.004103	-0.000694	6304.136749	43477.292356	3935.026211	22819.113850
50.536500	-0.006049	0.002017	0.000635	0.026843	6052.077900	41073.501156	3865.312268	21598.416498
51.036500	0.021363	-0.009218	0.004386	0.436117	4238.038580	17464.144316	3293.558923	10217.762420
51.537500	-0.009919	-0.012095	-0.041909	0.094396	5581.764132	34548.617428	3654.362151	18912.195645
52.034500	-0.022189	-0.040577	-0.038960	-0.191243	7888.138518	60026.787798	4344.167942	33762.046869
52.534500	-0.015888	-0.038371	-0.020334	-0.196217	8017.988031	60977.073592	4423.518016	34116.910566
53.038000	-0.003521	-0.036408	0.000837	-0.205324	8274.852593	62473.740197	4531.845594	34777.406406
53.535000	0.015554	-0.022936	0.015479	-0.176505	8156.728101	60409.103740	4480.182475	32733.982640
54.106000	0.021004	-0.005913	0.019512	-0.101659	7387.911737	53253.647270	4245.937583	28019.114896
54.535500	0.021338	-0.000322	0.023626	-0.067039	7051.078509	50005.067633	4156.215232	26098.353554
55.036500	0.033453	0.009578	0.037443	-0.060077	7100.020495	50324.137393	4175.833181	25730.263921
55.536500	0.054270	0.014213	0.049202	-0.043951	7145.080806	49088.636214	4163.300541	24899.940079
56.037500	0.069117	0.024643	0.063847	-0.000464	6877.408689	45711.412178	4083.623268	22808.593211
56.554000	0.079762	0.035713	0.078687	0.042602	6594.941606	42678.530960	4010.607845	20933.928568
57.037500	0.089136	0.044088	0.089888	0.084646	6330.858075	39719.322629	3936.064167	19274.596403
57.835500	0.123186	0.062598	0.121332	0.148138	6109.299953	36107.415534	3864.015021	17054.377509
58.226500	0.126174	0.063790	0.121883	0.153679	6090.789867	35777.620899	3853.269032	16875.577596
58.536000	0.134017	0.068741	0.130655	0.206136	5784.230927	32382.292967	3764.270969	15291.261368
59.036000	0.147052	0.076893	0.150540	0.238014	5663.924854	30820.717680	3741.365380	14417.923642
59.536500	0.163723	0.086151	0.164313	0.260159	5629.933865	30007.596115	3725.746139	13847.856249
60.036500	0.175667	0.093804	0.175791	0.298250	5473.390596	28180.199034	3678.046491	12932.823644
60.537000	0.185985	0.102797	0.185035	0.332470	5338.297166	26759.702873	3635.863838	12176.482717
61.036500	0.202747	0.111783	0.205276	0.349090	5339.082958	26345.895439	3641.830114	11830.100890
61.537500	0.212463	0.117794	0.219843	0.363612	5312.797760	25893.031053	3641.905097	11538.111691
62.034500	0.224587	0.124255	0.232482	0.383628	5270.262864	25189.862732	3629.801011	11151.325715
62.538000	0.234330	0.132269	0.244249	0.401867	5225.323258	24673.713895	3619.349774	10814.060182
63.036000	0.247998	0.138543	0.254453	0.443180	5085.044807	22994.528314	3571.232313	10100.538875
63.535500	0.252853	0.143431	0.263904	0.429416	5178.542990	23871.559603	3606.812022	10330.765142
64.038500	0.266326	0.148544	0.276097	0.401645	5400.488079	25512.501555	3672.697054	10818.088308
64.536500	0.277757	0.153104	0.284963	0.412589	5403.233311	25184.166628	3669.120738	10622.313688
65.036500	0.282022	0.161802	0.287267	0.470119	5120.148919	22825.866751	3580.057158	9670.520389
65.537500	0.282691	0.158585	0.290829	0.473324	5107.523775	22535.029841	3580.598342	9621.123156
66.034500	0.289426	0.168040	0.303501	0.468048	5168.005057	23208.702827	3608.332479	9702.653266
66.537500	0.289631	0.171633	0.301140	0.465743	5180.852835	23484.865797	3608.243071	9738.575463
67.035000	0.290414	0.173510	0.308980	0.462244	5202.951803	23739.901064	3626.363473	9793.479619
67.535500	0.296219	0.175781	0.308802	0.462487	5231.980158	23836.887949	3625.681119	9789.651768
68.038500	0.297068	0.174797	0.306210	0.462079	5238.594665	23809.356123	3622.159578	9796.088420
68.536000	0.299686	0.178865	0.313515	0.464791	5238.101371	23874.352970	3629.589505	9753.472412
69.036500	0.302866	0.180389	0.316219	0.467074	5242.826054	23837.935429	3630.274045	9717.802173
69.536500	0.300169	0.182953	0.318773	0.470194	5212.333085	23811.282699	3629.353367	9669.368871
70.036500	0.307337	0.186598	0.321140	0.474647	5226.517164	23772.613988	3625.970000	9600.834764
70.537000	0.305763	0.186784	0.322801	0.478638	5197.537328	23591.465623	3622.209394	9539.994228
71.037500	0.308989	0.186996	0.319996	0.476400	5225.984492	23707.910405	3621.298183	9574.041408
71.535000	0.312246	0.190231	0.327913	0.480982	5219.052288	23643.832241	3626.678192	9504.525859
72.037500	0.310178	0.189577	0.331150	0.481350	5206.369682	23595.331355	3631.342280	9498.982359
72.535000	0.310419	0.190927	0.322249	0.488986	5168.285203	23299.555927	3604.886679	9384.861029
73.035500	0.313842	0.192754	0.329614	0.487122	5195.443151	23472.698333	3619.524907	9412.523898
73.536000	0.315711	0.192715	0.326981	0.488015	5200.493189	23428.850136	3613.896125	9399.256025
74.036000	0.318683	0.194651	0.336661	0.490513	5202.954866	23402.439930	3625.412291	9362.279232
74.536500	0.314476	0.195069	0.333636	0.495851	5153.989757	23172.690703	3612.020668	9283.951565
75.037000	0.319228	0.195350	0.329355	0.492525	5195.358020	23340.855552	3610.507870	9332.642294
75.537500	0.321853	0.197049	0.336675	0.495962	5191.162897	23259.659376	3616.679488	9282.336986
76.035000	0.321516	0.198583	0.342252	0.498757	5175.063746	23200.957685	3621.135892	9241.721250
76.535500	0.318198	0.198309	0.332627	0.504598	5128.646333	22918.636760	3596.720966	9157.675915
77.035500	0.324647	0.198764	0.342599	0.500494	5182.215471	23128.752985	3618.906416	9216.606814
77.536000	0.324566	0.200694	0.340047	0.503110	5168.400176	23096.966178	3610.677666	9178.978294
78.035500	0.322288	0.200008	0.338499	0.504166	5151.439490	23016.582428	3606.567242	9163.853575
78.536000	0.326613	0.200671	0.344369	0.506444	5161.841599	22942.297635	3612.243207	9131.350433
79.036500	0.326290	0.199174	0.338793	0.504678	5169.196838	22954.660218	3606.225015	9156.529033
79.536500	0.326917	0.202474	0.346988	0.507957	5155.690000	22955.623781	3614.000027	9109.855899
80.037000	0.326849	0.201276	0.347157	0.508055	5154.849167	22896.200429	3614.113036	9108.467889
80.537500	0.324814	0.201957	0.344499	0.510932	5130.058624	22795.902626	3605.364068	9067.811094
81.035000	0.333421	0.202971	0.349470	0.510599	5175.389199	22857.356357	3613.744730	9072.502196
81.537500	0.333332	0.205244	0.343678	0.511621	5169.700063	22914.606708	3602.995436	9058.106902
82.035500	0.332847	0.203814	0.348697	0.511614	5167.264572	22849.494246	3610.909226	9058.214050
82.536000	0.329549	0.203887	0.349998	0.514543	5135.705022	22719.428883	3608.334132	9017.156851
83.036000	0.332625	0.205248	0.351012	0.514565	5151.126191	22780.300097	3609.901102	9016.848162
83.536500	0.340545	0.205385	0.351516	0.516110	5183.665708	22716.309073	3608.258099	8995.313140
84.036500	0.335814	0.206032	0.356472	0.517312	5153.368544	22691.173621	3614.204991	8978.609937
84.537000	0.338248	0.206020	0.351444	0.521182	5146.097250	22515.992339	3600.192243	8925.129771
85.034500	0.338898	0.206970	0.350678	0.520020	5155.274771	22611.120305	3600.809305	8941.138500
85.537500	0.337968	0.206399	0.349864	0.520149	5149.908766	22579.549692	3599.341142	8939.358481
86.038000	0.342874	0.206859	0.357585	0.522013	5165.363582	22516.397481	3608.519937	8913.712909
86.535500	0.342339	0.208238	0.359043	0.522806	5158.599516	22542.680263	3609.569461	8902.827152
87.035500	0.342056	0.208011	0.355787	0.524511	5148.520834	22456.032979	3601.774688	8879.516137
87.536000	0.337002	0.206876	0.355882	0.523687	5127.218132	22442.118731	3603.213397	8890.776672
88.036000	0.344498	0.208747	0.359868	0.526773	5149.428566	22387.794922	3604.622585	8848.709244
88.536500	0.342993	0.207214	0.352679	0.526135	5145.046184	22347.917505	3594.422204	8857.381760
89.036500	0.344826	0.209285	0.361579	0.528443	5142.649183	22337.360959	3604.687119	8826.078566
89.534500	0.346463	0.208834	0.359578	0.529343	5146.368255	22277.313085	3600.148967	8813.909329
90.034500	0.347154	0.211988	0.363796	0.531895	5136.979760	22304.055172	3602.751551	8779.561370
90.535000	0.345853	0.210922	0.357661	0.533031	5124.748599	22206.449990	3591.471076	8764.335942
91.035500	0.347367	0.210527	0.357633	0.531897	5138.043722	22239.156982	3593.174258	8779.537037
91.535500	0.348928	0.212756	0.363347	0.535250	5129.034486	22189.455557	3596.825246	8734.704145
92.036000	0.346394	0.210921	0.362742	0.533902	5123.092230	22167.935474	3597.978758	8752.684329
92.536000	0.346230	0.210651	0.371695	0.534635	5118.614046	22123.780244	3610.871579	8742.909810
93.036000	0.346449	0.211065	0.364628	0.535553	5115.130108	22101.626758	3598.344809	8730.678516
93.536500	0.347367	0.212267	0.366262	0.537364	5110.683149	22074.838767	3598.070043	8706.626949
94.036500	0.348067	0.213904	0.370772	0.539233	5104.877113	22064.669804	3602.186561	8681.911892
94.537000	0.349095	0.211819	0.364396	0.538871	5111.781647	21989.200127	3592.848556	8686.686619
95.037500	0.349761	0.213016	0.370783	0.539755	5110.694761	22002.888439	3601.387154	8675.019457
95.537500	0.348725	0.212793	0.362771	0.539737	5105.639782	21993.912581	3589.019198	8675.257606
96.035500	0.351353	0.213615	0.366318	0.540690	5113.964760	21988.214793	3593.008369	8662.714467
96.535500	0.348013	0.214845	0.368995	0.546151	5070.566797	21804.193811	3588.727614	8591.336054
97.036000	0.348774	0.213883	0.364546	0.541497	5097.166529	21964.661107	3589.042196	8652.107676
97.536500	0.349635	0.215794	0.364267	0.542812	5094.925411	21990.718210	3586.602935	8634.876139
98.036500	0.349213	0.213908	0.368600	0.542502	5094.372876	21921.969303	3593.733619	8638.936572
98.536500	0.351453	0.215382	0.369918	0.544416	5095.981417	21902.817579	3592.814301	8613.919087
99.037000	0.352070	0.215017	0.373874	0.543760	5102.272843	21915.454492	3599.960304	8622.472182
99.535000	0.353005	0.216152	0.369429	0.546064	5095.505367	21864.671528	3589.527176	8592.473312
100.035000	0.354058	0.215510	0.367858	0.545918	5101.438828	21843.136449	3587.345245	8594.371279
100.535500	0.348986	0.213940	0.361142	0.549078	5061.052310	21639.103673	3572.414228	8553.456393
101.036000	0.350549	0.216869	0.367816	0.548278	5072.563936	21799.765667	3583.680881	8563.782319
101.535500	0.354530	0.216923	0.364605	0.549249	5087.321302	21760.137532	3577.352170	8551.245344
102.038500	0.353188	0.216003	0.371095	0.548896	5082.459707	21735.667177	3587.739612	8555.797357
102.536000	0.350767	0.214964	0.369204	0.552492	5053.135939	21536.888979	3579.398921	8509.589302
103.039000	0.351333	0.215451	0.365092	0.550141	5067.297884	21658.317250	3576.743439	8539.754336
103.536500	0.354078	0.217654	0.370141	0.552210	5070.598023	21664.098810	3581.242757	8513.199427
104.039500	0.355963	0.216526	0.371265	0.552459	5078.598486	21605.039475	3582.569905	8510.003629
104.534500	0.355120	0.217833	0.368030	0.554215	5065.897945	21585.817566	3575.035747	8487.567725
105.040500	0.354280	0.216785	0.372616	0.552983	5067.815092	21593.716023	3583.826940	8503.304134
105.534500	0.353506	0.215914	0.367968	0.552473	5066.527606	21578.259174	3577.563142	8509.832744
106.038500	0.353287	0.215708	0.369439	0.553529	5060.325215	21524.388627	3578.188311	8496.328166
106.535500	0.355868	0.217477	0.362384	0.556087	5060.433815	21490.771192	3563.849121	8463.755330
107.038500	0.351539	0.217669	0.371498	0.555933	5040.249375	21505.500631	3577.667268	8465.710839
107.537500	0.354529	0.217027	0.361137	0.556331	5052.758854	21461.257198	3561.655019	8460.667130
108.036500	0.349687	0.216191	0.370932	0.555416	5033.840556	21464.619808	3577.594316	8472.287397
108.536500	0.352493	0.216401	0.366612	0.558059	5034.618294	21361.528619	3567.187025	8438.786269
109.034500	0.351679	0.215379	0.365572	0.555679	5042.146413	21418.983609	3569.176163	8468.938220
109.537500	0.354997	0.217525	0.365841	0.558673	5043.704064	21383.054579	3565.135385	8431.025289
110.035500	0.353023	0.215356	0.369018	0.557335	5040.646323	21347.994062	3571.845020	8447.945821
