sample name	sample
index	838
start time	 04-05-2021  10:55:02 AM


Wavelength (nm)	Absorbance
494.344910	-0.026666
494.563924	-0.026666
494.782919	-0.026666
495.001897	-0.051715
495.220856	-0.006632
495.439797	-0.002542
495.658719	-0.003704
495.877624	-0.001184
496.096510	0.001065
496.315378	-0.009675
496.534227	-0.005061
496.753059	-0.012773
496.971872	-0.017511
497.190667	0.055834
497.409444	0.082670
497.628203	0.095464
497.846943	0.099340
498.065665	0.101760
498.284369	0.103373
498.503055	0.104346
498.721723	0.105240
498.940372	0.106117
499.159003	0.106456
499.377616	0.106417
499.596210	0.105635
499.814787	0.106396
500.033345	0.106573
500.251885	0.107392
500.470406	0.107623
500.688910	0.107231
500.907395	0.107451
501.125862	0.106942
501.344311	0.105634
501.562742	0.107323
501.781154	0.106648
501.999548	0.107551
502.217924	0.106148
502.436282	0.106939
502.654621	0.107465
502.872942	0.107360
503.091245	0.107418
503.309530	0.109456
503.527797	0.108803
503.746045	0.109156
503.964275	0.108937
504.182487	0.109825
504.400681	0.109238
504.618856	0.108593
504.837013	0.109036
505.055152	0.109042
505.273273	0.107834
505.491376	0.106001
505.709460	0.106971
505.927526	0.107076
506.145574	0.107992
506.363604	0.109037
506.581615	0.110139
506.799608	0.110085
507.017583	0.111085
507.235540	0.112197
507.453478	0.112849
507.671399	0.111916
507.889301	0.111606
508.107185	0.111221
508.325050	0.111012
508.542898	0.111349
508.760727	0.112014
508.978538	0.112430
509.196330	0.112470
509.414105	0.113299
509.631861	0.113677
509.849599	0.113958
510.067319	0.113487
510.285021	0.113573
510.502704	0.113064
510.720369	0.112554
510.938016	0.112125
511.155645	0.112394
511.373255	0.112702
511.590848	0.113127
511.808422	0.113231
512.025977	0.114207
512.243515	0.114362
512.461034	0.114307
512.678536	0.114543
512.896018	0.115024
513.113483	0.114830
513.330930	0.114736
513.548358	0.114905
513.765768	0.115284
513.983160	0.115298
514.200533	0.115694
514.417889	0.116314
514.635226	0.116202
514.852545	0.115990
515.069845	0.116312
515.287128	0.117175
515.504392	0.116829
515.721638	0.117229
515.938866	0.116959
516.156075	0.117609
516.373267	0.118339
516.590440	0.119017
516.807594	0.119270
517.024731	0.119440
517.241850	0.119310
517.458950	0.119586
517.676032	0.120054
517.893095	0.120425
518.110141	0.119883
518.327168	0.119436
518.544177	0.119738
518.761168	0.119694
518.978141	0.120370
519.195095	0.120387
519.412031	0.120583
519.628949	0.121254
519.845849	0.121330
520.062731	0.121885
520.279594	0.122616
520.496439	0.122294
520.713266	0.122424
520.930074	0.122157
521.146865	0.122841
521.363637	0.123363
521.580391	0.122716
521.797127	0.123062
522.013844	0.123106
522.230543	0.122751
522.447224	0.123045
522.663887	0.123141
522.880532	0.123733
523.097158	0.123339
523.313766	0.123648
523.530356	0.124355
523.746928	0.124864
523.963481	0.124590
524.180017	0.124796
524.396534	0.125378
524.613032	0.126215
524.829513	0.126402
525.045975	0.126818
525.262420	0.126539
525.478845	0.126680
525.695253	0.126610
525.911643	0.127598
526.128014	0.128204
526.344367	0.128973
526.560702	0.129387
526.777018	0.129636
526.993316	0.129681
527.209597	0.130225
527.425858	0.129880
527.642102	0.130666
527.858328	0.130097
528.074535	0.129590
528.290724	0.129084
528.506894	0.129206
528.723047	0.129050
528.939181	0.129638
529.155297	0.130608
529.371395	0.130748
529.587475	0.130264
529.803536	0.131052
530.019579	0.132317
530.235604	0.133324
530.451611	0.134128
530.667600	0.134988
530.883570	0.135428
531.099522	0.135406
531.315456	0.136324
531.531372	0.137182
531.747269	0.137612
531.963148	0.137270
532.179009	0.137193
532.394852	0.137289
532.610676	0.137498
532.826482	0.137257
533.042271	0.137321
533.258040	0.137734
533.473792	0.138117
533.689525	0.138173
533.905240	0.139015
534.120937	0.139383
534.336616	0.138907
534.552277	0.138964
534.767919	0.139698
534.983543	0.139963
535.199149	0.140519
535.414736	0.140752
535.630306	0.141138
535.845857	0.140907
536.061390	0.141539
536.276904	0.142360
536.492401	0.142577
536.707879	0.142963
536.923339	0.143165
537.138781	0.142437
537.354204	0.143069
537.569610	0.143800
537.784997	0.144100
538.000366	0.143880
538.215716	0.143926
538.431049	0.143770
538.646363	0.143551
538.861659	0.144034
539.076937	0.144570
539.292196	0.144460
539.507438	0.144464
539.722661	0.144946
539.937866	0.145310
540.153052	0.146308
540.368221	0.147580
540.583371	0.147978
540.798503	0.147868
541.013617	0.148113
541.228712	0.148752
541.443789	0.149224
541.658848	0.149643
541.873889	0.150237
542.088912	0.150339
542.303916	0.150334
542.518902	0.150195
542.733870	0.150876
542.948820	0.151355
543.163752	0.151186
543.378665	0.150910
543.593560	0.151057
543.808437	0.151369
544.023295	0.151206
544.238136	0.151088
544.452958	0.151838
544.667762	0.152272
544.882548	0.152472
545.097315	0.152778
545.312064	0.153007
545.526795	0.153143
545.741508	0.153156
545.956203	0.153545
546.170879	0.154292
546.385537	0.154877
546.600177	0.154204
546.814799	0.153856
547.029402	0.154210
547.243988	0.154847
547.458555	0.155181
547.673103	0.155383
547.887634	0.155917
548.102146	0.155546
548.316640	0.155755
548.531116	0.156622
548.745574	0.157114
548.960013	0.157095
549.174435	0.156948
549.388838	0.157403
549.603222	0.157551
549.817589	0.157454
550.031937	0.157907
550.246267	0.157854
550.460579	0.157816
550.674873	0.158551
550.889148	0.158813
551.103405	0.159136
551.317644	0.159226
551.531865	0.159084
551.746068	0.159292
551.960252	0.159607
552.174418	0.159523
552.388566	0.159819
552.602696	0.160145
552.816807	0.160327
553.030900	0.161004
553.244975	0.161495
553.459032	0.161837
553.673070	0.161840
553.887091	0.161887
554.101093	0.162265
554.315077	0.162662
554.529042	0.162780
554.742990	0.162946
554.956919	0.162779
555.170830	0.162701
555.384722	0.163249
555.598597	0.163577
555.812453	0.163666
556.026291	0.164406
556.240111	0.164280
556.453913	0.164528
556.667696	0.164650
556.881461	0.165102
557.095208	0.165020
557.308937	0.164878
557.522647	0.164761
557.736339	0.164853
557.950013	0.164656
558.163669	0.165243
558.377307	0.165144
558.590926	0.165328
558.804527	0.165328
559.018110	0.165624
559.231675	0.166044
559.445221	0.166438
559.658749	0.166745
559.872259	0.166687
560.085751	0.166621
560.299225	0.166878
560.512680	0.167491
560.726117	0.167944
560.939536	0.167942
561.152937	0.167916
561.366319	0.168271
561.579683	0.168928
561.793029	0.169166
562.006357	0.169022
562.219667	0.169048
562.432958	0.168932
562.646231	0.168851
562.859486	0.169314
563.072723	0.169399
563.285941	0.169118
563.499141	0.169222
563.712323	0.169607
563.925487	0.170256
564.138632	0.170276
564.351760	0.170239
564.564869	0.170374
564.777960	0.170138
564.991032	0.170607
565.204087	0.171493
565.417123	0.171389
565.630141	0.171231
565.843140	0.171273
566.056122	0.171771
566.269085	0.172132
566.482030	0.172104
566.694957	0.172427
566.907866	0.172570
567.120756	0.172227
567.333628	0.172558
567.546482	0.172772
567.759318	0.172980
567.972135	0.172750
568.184935	0.173118
568.397716	0.173359
568.610478	0.173440
568.823223	0.173431
569.035949	0.173537
569.248657	0.173601
569.461347	0.173934
569.674019	0.174095
569.886672	0.174352
570.099308	0.174381
570.311925	0.174419
570.524523	0.174555
570.737104	0.174826
570.949666	0.175330
571.162210	0.175441
571.374736	0.175535
571.587244	0.175896
571.799733	0.176121
572.012205	0.175962
572.224658	0.175990
572.437092	0.176442
572.649509	0.176734
572.861907	0.176417
573.074287	0.176618
573.286649	0.176781
573.498993	0.176537
573.711318	0.176833
573.923625	0.177342
574.135914	0.177873
574.348185	0.178072
574.560438	0.177994
574.772672	0.178323
574.984888	0.178393
575.197086	0.178169
575.409266	0.178217
575.621427	0.178029
575.833570	0.178192
576.045695	0.178118
576.257802	0.178143
576.469890	0.178190
576.681961	0.178159
576.894013	0.178171
577.106046	0.178881
577.318062	0.179099
577.530059	0.179534
577.742039	0.179477
577.954000	0.179737
578.165942	0.179846
578.377867	0.180438
578.589773	0.180947
578.801661	0.181014
579.013531	0.180663
579.225382	0.181034
579.437216	0.181242
579.649031	0.181305
579.860828	0.181070
580.072606	0.181252
580.284367	0.181153
580.496109	0.181259
580.707833	0.181553
580.919539	0.181863
581.131227	0.182120
581.342896	0.182117
581.554547	0.182229
581.766180	0.182791
581.977795	0.182848
582.189391	0.182952
582.400969	0.182993
582.612529	0.183200
582.824071	0.183323
583.035595	0.182982
583.247100	0.182981
583.458587	0.183030
583.670056	0.183029
583.881506	0.183257
584.092939	0.182746
584.304353	0.182676
584.515749	0.182613
584.727127	0.182701
584.938486	0.183416
585.149828	0.183327
585.361151	0.183789
585.572456	0.184005
585.783742	0.183911
585.995011	0.184490
586.206261	0.184555
586.417493	0.184866
586.628706	0.184750
586.839902	0.184540
587.051079	0.184707
587.262238	0.184768
587.473379	0.184710
587.684502	0.185162
587.895606	0.185385
588.106692	0.185739
588.317760	0.185946
588.528810	0.186594
588.739841	0.186772
588.950855	0.187027
589.161850	0.187504
589.372827	0.187720
589.583785	0.187738
589.794726	0.188130
590.005648	0.188343
590.216552	0.188739
590.427437	0.188491
590.638305	0.188652
590.849154	0.189092
591.059985	0.188890
591.270798	0.188882
591.481592	0.189147
591.692369	0.188951
591.903127	0.189115
592.113867	0.189113
592.324588	0.189369
592.535292	0.189537
592.745977	0.189748
592.956644	0.189931
593.167293	0.190191
593.377923	0.190198
593.588536	0.190351
593.799130	0.190138
594.009706	0.190173
594.220263	0.190540
594.430803	0.190620
594.641324	0.190398
594.851827	0.190096
595.062312	0.189946
595.272778	0.190022
595.483227	0.190111
595.693657	0.190044
595.904069	0.190130
596.114462	0.190327
596.324838	0.190679
596.535195	0.190961
596.745534	0.191481
596.955855	0.191859
597.166157	0.192072
597.376441	0.192165
597.586707	0.192629
597.796955	0.192430
598.007185	0.192602
598.217396	0.192634
598.427589	0.192647
598.637764	0.192641
598.847921	0.192888
599.058060	0.192899
599.268180	0.192847
599.478282	0.192719
599.688366	0.193178
599.898431	0.193041
600.108479	0.193193
600.318508	0.193621
600.528519	0.193703
600.738511	0.194023
600.948486	0.194242
601.158442	0.194384
601.368380	0.194809
601.578300	0.195220
601.788202	0.195532
601.998085	0.195622
602.207950	0.195560
602.417797	0.195798
602.627626	0.195639
602.837436	0.195611
603.047228	0.195941
603.257002	0.196292
603.466758	0.195950
603.676496	0.196053
603.886215	0.195820
604.095916	0.196205
604.305599	0.196152
604.515264	0.196469
604.724910	0.196870
604.934538	0.197046
605.144148	0.197309
605.353740	0.197472
605.563314	0.197299
605.772869	0.197657
605.982406	0.197389
606.191925	0.197713
606.401425	0.197684
606.610908	0.197573
606.820372	0.197501
607.029818	0.197317
607.239246	0.197663
607.448655	0.197809
607.658047	0.197952
607.867420	0.198205
608.076775	0.198363
608.286111	0.198589
608.495430	0.198709
608.704730	0.198997
608.914012	0.199051
609.123275	0.198935
609.332521	0.199013
609.541748	0.199049
609.750957	0.199292
609.960148	0.199516
610.169321	0.199508
610.378475	0.199525
610.587611	0.199345
610.796729	0.199524
611.005829	0.199702
611.214910	0.200215
611.423974	0.200306
611.633019	0.200530
611.842045	0.200731
612.051054	0.200887
612.260044	0.201317
612.469017	0.202000
612.677970	0.202298
612.886906	0.202375
613.095824	0.202333
613.304723	0.202369
613.513604	0.202287
613.722467	0.202125
613.931311	0.201982
614.140138	0.202159
614.348946	0.202066
614.557736	0.202257
614.766507	0.202508
614.975261	0.202591
615.183996	0.203035
615.392713	0.203211
615.601412	0.203416
615.810092	0.203822
616.018754	0.203674
616.227399	0.204002
616.436024	0.203853
616.644632	0.204045
616.853222	0.204125
617.061793	0.203947
617.270346	0.204174
617.478880	0.204277
617.687397	0.204254
617.895895	0.204757
618.104375	0.204776
618.312837	0.204864
618.521281	0.204841
618.729706	0.205128
618.938113	0.205346
619.146502	0.205467
619.354873	0.205521
619.563226	0.205906
619.771560	0.205648
619.979876	0.205747
620.188174	0.205984
620.396453	0.206282
620.604715	0.206240
620.812958	0.206252
621.021183	0.205964
621.229390	0.206206
621.437578	0.206008
621.645748	0.206237
621.853900	0.206208
622.062034	0.206447
622.270150	0.206144
622.478247	0.206512
622.686326	0.207064
622.894387	0.207687
623.102430	0.207610
623.310454	0.207854
623.518461	0.207866
623.726449	0.207925
623.934418	0.208091
624.142370	0.208840
624.350303	0.208912
624.558218	0.208568
624.766115	0.208374
624.973994	0.208594
625.181855	0.208870
625.389697	0.209096
625.597521	0.209275
625.805327	0.209222
626.013114	0.209115
626.220883	0.209164
626.428634	0.209650
626.636367	0.209875
626.844082	0.210000
627.051778	0.210087
627.259457	0.210321
627.467117	0.210453
627.674758	0.210789
627.882382	0.210837
628.089987	0.211112
628.297574	0.210903
628.505143	0.210959
628.712694	0.210927
628.920226	0.211144
629.127740	0.211305
629.335236	0.211384
629.542714	0.211645
629.750174	0.211951
629.957615	0.211895
630.165038	0.212431
630.372443	0.212676
630.579829	0.213107
630.787198	0.213015
630.994548	0.212950
631.201880	0.213222
631.409194	0.213262
631.616489	0.213072
631.823766	0.213341
632.031025	0.213548
632.238266	0.213682
632.445489	0.213653
632.652693	0.213829
632.859879	0.214137
633.067047	0.214332
633.274197	0.214351
633.481329	0.214589
633.688442	0.214707
633.895537	0.214625
634.102614	0.215044
634.309672	0.215313
634.516713	0.215659
634.723735	0.215871
634.930739	0.216174
635.137724	0.216250
635.344692	0.216471
635.551641	0.216498
635.758572	0.216850
635.965485	0.216662
636.172379	0.216815
636.379256	0.216802
636.586114	0.216752
636.792954	0.216814
636.999775	0.216810
637.206579	0.217023
637.413364	0.217144
637.620131	0.216916
637.826880	0.216853
638.033610	0.216926
638.240323	0.217201
638.447017	0.217392
638.653692	0.217623
638.860350	0.217842
639.066990	0.217946
639.273611	0.218047
639.480214	0.218458
639.686798	0.218736
639.893365	0.218927
640.099913	0.219070
640.306443	0.219093
640.512955	0.218971
640.719449	0.219074
640.925924	0.219180
641.132381	0.219627
641.338820	0.219544
641.545241	0.219816
641.751644	0.219963
641.958028	0.220077
642.164394	0.220491
642.370742	0.220752
642.577071	0.220837
642.783383	0.221173
642.989676	0.221066
643.195951	0.221183
643.402207	0.221382
643.608446	0.221475
643.814666	0.221418
644.020868	0.221526
644.227052	0.221902
644.433218	0.222465
644.639365	0.222495
644.845494	0.222580
645.051605	0.223050
645.257698	0.223408
645.463772	0.223732
645.669828	0.223971
645.875866	0.224281
646.081886	0.224203
646.287888	0.224340
646.493871	0.224515
646.699836	0.224939
646.905783	0.224850
647.111712	0.224884
647.317622	0.224734
647.523514	0.224854
647.729388	0.225257
647.935244	0.225459
648.141082	0.225452
648.346901	0.225751
648.552702	0.225735
648.758485	0.226073
648.964250	0.226155
649.169996	0.226557
649.375724	0.226932
649.581434	0.226537
649.787126	0.226900
649.992800	0.226939
650.198455	0.226965
650.404092	0.227234
650.609711	0.227179
650.815311	0.227412
651.020894	0.227676
651.226458	0.227869
651.432004	0.228088
651.637532	0.228305
651.843041	0.228748
652.048532	0.228933
652.254006	0.229001
652.459460	0.229189
652.664897	0.229530
652.870315	0.229521
653.075716	0.229922
653.281097	0.230164
653.486461	0.230312
653.691807	0.230470
653.897134	0.230648
654.102443	0.231053
654.307734	0.231477
654.513006	0.231298
654.718261	0.231562
654.923497	0.231392
655.128715	0.231584
655.333915	0.231522
655.539096	0.231666
655.744259	0.231865
655.949404	0.231926
656.154531	0.231755
656.359640	0.231954
656.564730	0.232095
656.769802	0.232349
656.974856	0.232592
657.179892	0.232943
657.384909	0.233045
657.589908	0.233258
657.794889	0.233468
657.999852	0.233971
658.204797	0.234199
658.409723	0.234541
658.614631	0.234650
658.819521	0.234542
659.024393	0.234666
659.229246	0.234884
659.434081	0.235151
659.638898	0.235275
659.843697	0.235448
660.048478	0.235753
660.253240	0.235833
660.457984	0.236061
660.662710	0.236585
660.867417	0.236902
661.072107	0.237029
661.276778	0.237131
661.481431	0.237402
661.686066	0.237584
661.890682	0.237794
662.095281	0.238241
662.299861	0.238546
662.504422	0.238577
662.708966	0.238440
662.913491	0.238666
663.117999	0.239023
663.322488	0.239239
663.526958	0.239249
663.731411	0.239494
663.935845	0.239482
664.140261	0.239314
664.344659	0.239464
664.549038	0.239893
664.753400	0.240384
664.957743	0.240437
665.162068	0.240571
665.366375	0.240832
665.570663	0.240972
665.774933	0.241175
665.979185	0.241957
666.183419	0.242284
666.387635	0.242444
666.591832	0.242677
666.796011	0.242869
667.000172	0.243042
667.204315	0.243319
667.408439	0.243489
667.612545	0.243807
667.816634	0.243764
668.020703	0.243931
668.224755	0.244068
668.428788	0.243901
668.632803	0.244184
668.836800	0.244337
669.040779	0.244819
669.244739	0.245020
669.448681	0.245226
669.652605	0.245571
669.856511	0.245893
670.060399	0.246230
670.264268	0.246571
670.468119	0.246715
670.671952	0.247263
670.875767	0.247252
671.079563	0.247449
671.283341	0.247626
671.487101	0.247674
671.690843	0.248058
671.894567	0.248427
672.098272	0.248626
672.301959	0.248888
672.505628	0.249050
672.709278	0.249216
672.912911	0.249440
673.116525	0.249731
673.320121	0.249846
673.523699	0.249723
673.727258	0.249839
673.930799	0.249926
674.134322	0.250198
674.337827	0.250211
674.541314	0.250250
674.744782	0.250474
674.948232	0.250436
675.151664	0.250820
675.355078	0.250960
675.558474	0.251126
675.761851	0.251271
675.965210	0.251228
676.168551	0.251232
676.371873	0.251844
676.575178	0.251914
676.778464	0.252066
676.981732	0.252389
677.184981	0.252649
677.388213	0.252825
677.591426	0.253180
677.794621	0.253515
677.997798	0.254074
678.200956	0.253963
678.404097	0.254273
678.607219	0.254693
678.810323	0.254699
679.013408	0.255051
679.216476	0.255298
679.419525	0.255299
679.622556	0.255465
679.825569	0.255439
680.028563	0.255918
680.231540	0.256052
680.434498	0.256167
680.637438	0.256563
680.840359	0.256812
681.043263	0.257042
681.246148	0.257442
681.449015	0.257379
681.651864	0.257708
681.854694	0.257933
682.057506	0.258228
682.260301	0.258505
682.463076	0.258474
682.665834	0.258695
682.868573	0.259002
683.071295	0.259275
683.273998	0.259736
683.476682	0.259836
683.679349	0.259756
683.881997	0.260016
684.084627	0.260287
684.287239	0.260337
684.489833	0.260222
684.692408	0.260303
684.894965	0.260226
685.097504	0.260238
685.300025	0.260569
685.502527	0.260796
685.705012	0.260732
685.907478	0.260769
686.109925	0.261069
686.312355	0.261455
686.514766	0.261583
686.717159	0.261818
686.919534	0.261999
687.121891	0.262069
687.324230	0.262466
687.526550	0.262874
687.728852	0.262957
687.931136	0.263197
688.133401	0.263238
688.335649	0.263422
688.537878	0.263648
688.740089	0.264196
688.942281	0.264330
689.144456	0.264084
689.346612	0.264182
689.548750	0.264476
689.750870	0.264509
689.952971	0.264926
690.155055	0.265006
690.357120	0.265178
690.559167	0.265029
690.761195	0.265377
690.963206	0.265685
691.165198	0.265846
691.367172	0.265960
691.569128	0.266332
691.771065	0.266326
691.972984	0.266586
692.174885	0.266939
692.376768	0.267135
692.578633	0.267325
692.780479	0.267623
692.982308	0.267963
693.184118	0.268303
693.385909	0.268503
693.587683	0.268602
693.789438	0.268635
693.991175	0.268498
694.192894	0.268732
694.394595	0.268714
694.596277	0.268575
694.797941	0.268664
694.999587	0.268605
695.201215	0.268831
695.402824	0.269098
695.604416	0.269266
695.805989	0.269473
696.007543	0.269608
696.209080	0.269640
696.410598	0.269784
696.612099	0.269812
696.813580	0.269999
697.015044	0.269894
697.216490	0.270034
697.417917	0.270225
697.619326	0.270500
697.820717	0.270493
698.022089	0.270648
698.223444	0.270904
698.424780	0.271031
698.626098	0.271039
698.827397	0.270874
699.028679	0.270973
699.229942	0.270937
699.431187	0.270927
699.632414	0.271087
699.833622	0.271431
700.034813	0.271744
700.235985	0.271872
700.437139	0.271954
700.638274	0.272469
700.839392	0.272646
701.040491	0.272759
701.241572	0.272879
701.442635	0.273016
701.643679	0.272937
701.844706	0.272990
702.045714	0.272927
702.246704	0.273058
702.447675	0.272971
702.648629	0.273009
702.849564	0.273150
703.050481	0.273437
703.251380	0.273437
703.452260	0.273785
703.653122	0.273735
703.853966	0.273920
704.054792	0.274143
704.255600	0.274127
704.456389	0.273980
704.657160	0.274141
704.857913	0.274043
705.058648	0.274165
705.259365	0.273944
705.460063	0.273955
705.660743	0.274004
705.861405	0.273973
706.062048	0.274010
706.262674	0.274019
706.463281	0.273663
706.663870	0.273619
706.864441	0.273787
707.064993	0.273829
707.265527	0.273696
707.466043	0.273769
707.666541	0.273802
707.867021	0.274061
708.067482	0.274079
708.267925	0.274462
708.468350	0.274651
708.668757	0.274640
708.869145	0.274678
709.069516	0.275003
709.269868	0.274958
709.470201	0.275003
709.670517	0.274932
709.870814	0.275163
710.071093	0.275177
710.271354	0.275053
710.471597	0.274801
710.671821	0.274564
710.872028	0.274330
711.072216	0.274472
711.272385	0.274294
711.472537	0.274275
711.672670	0.274305
711.872785	0.274302
712.072882	0.274459
712.272961	0.274610
712.473021	0.274829
712.673063	0.275009
712.873087	0.274801
713.073093	0.274866
713.273081	0.274743
713.473050	0.274653
713.673001	0.274509
713.872934	0.274306
714.072849	0.274166
714.272745	0.274179
714.472623	0.274262
714.672483	0.274154
714.872325	0.274280
715.072148	0.274242
715.271954	0.274186
715.471741	0.273939
715.671509	0.273900
715.871260	0.274193
716.070992	0.273941
716.270707	0.273747
716.470403	0.273646
716.670080	0.273302
716.869740	0.273148
717.069381	0.272936
717.269004	0.273078
717.468609	0.273027
717.668195	0.272624
717.867764	0.272603
718.067314	0.272483
718.266846	0.272455
718.466360	0.272393
718.665855	0.272324
718.865332	0.272280
719.064791	0.272008
719.264232	0.271789
719.463655	0.271735
719.663059	0.271580
719.862445	0.271313
720.061813	0.271381
720.261163	0.271445
720.460494	0.271366
720.659807	0.271276
720.859102	0.271197
721.058379	0.270982
721.257638	0.270698
721.456878	0.270695
721.656100	0.270509
721.855304	0.270253
722.054490	0.269979
722.253657	0.269921
722.452806	0.269808
722.651937	0.269879
722.851050	0.269892
723.050145	0.270156
723.249221	0.269844
723.448279	0.269788
723.647319	0.269748
723.846340	0.269953
724.045344	0.269636
724.244329	0.269442
724.443296	0.269237
724.642245	0.269112
724.841175	0.268783
725.040088	0.268889
725.238982	0.269155
725.437857	0.269172
725.636715	0.268906
725.835554	0.269233
726.034376	0.269408
726.233179	0.269185
726.431963	0.269288
726.630730	0.269324
726.829478	0.269287
727.028208	0.268662
727.226920	0.268429
727.425614	0.268255
727.624289	0.267693
727.822946	0.267460
728.021585	0.267460
728.220206	0.267095
728.418808	0.266641
728.617392	0.266269
728.815958	0.266326
729.014506	0.266144
729.213036	0.265848
729.411547	0.265839
729.610040	0.265651
729.808515	0.265564
730.006972	0.265519
730.205410	0.265390
730.403831	0.265196
730.602233	0.265159
730.800616	0.264881
730.998982	0.264532
731.197329	0.264308
731.395658	0.264032
731.593969	0.263512
731.792262	0.263033
731.990536	0.263042
732.188793	0.262907
732.387031	0.262479
732.585250	0.262213
732.783452	0.262222
732.981635	0.261982
733.179800	0.261918
733.377947	0.261811
733.576076	0.261781
733.774186	0.261544
733.972278	0.261482
734.170352	0.261521
734.368408	0.261373
734.566446	0.261232
734.764465	0.261125
734.962466	0.260899
735.160449	0.260962
735.358413	0.260612
735.556360	0.260500
735.754288	0.260194
735.952198	0.260128
736.150090	0.259882
736.347963	0.259642
736.545818	0.259266
736.743655	0.258803
736.941474	0.258328
737.139275	0.258314
737.337057	0.258038
737.534821	0.257873
737.732567	0.257405
737.930295	0.257321
738.128005	0.257183
738.325696	0.257269
738.523369	0.257351
738.721024	0.257275
738.918660	0.257230
739.116279	0.257221
739.313879	0.257054
739.511461	0.256928
739.709024	0.256685
739.906570	0.256500
740.104097	0.256441
740.301606	0.255953
740.499097	0.255525
740.696569	0.255350
740.894024	0.255238
741.091460	0.254931
741.288878	0.254773
741.486277	0.254991
741.683659	0.254980
741.881022	0.254523
742.078367	0.254502
742.275694	0.254583
742.473002	0.254451
742.670293	0.253859
742.867565	0.253779
743.064819	0.253533
743.262054	0.252888
743.459272	0.252479
743.656471	0.252214
743.853652	0.252020
744.050815	0.251798
744.247959	0.251552
744.445085	0.251619
744.642194	0.251230
744.839283	0.251053
745.036355	0.250861
745.233408	0.250636
745.430444	0.250548
745.627461	0.250477
745.824459	0.250265
746.021440	0.249937
746.218402	0.249496
746.415346	0.249468
746.612272	0.249427
746.809180	0.249172
747.006069	0.249042
747.202940	0.249008
747.399793	0.248671
747.596628	0.248525
747.793444	0.248471
747.990243	0.248494
748.187023	0.248203
748.383784	0.247790
748.580528	0.247745
748.777253	0.247403
748.973960	0.247183
749.170649	0.247005
749.367320	0.246768
749.563973	0.246632
749.760607	0.246429
749.957223	0.246689
750.153821	0.246678
750.350400	0.246477
750.546962	0.246260
750.743505	0.245879
750.940030	0.245731
751.136536	0.245544
751.333025	0.245220
751.529495	0.244713
751.725947	0.244082
751.922381	0.243755
752.118796	0.243635
752.315194	0.243608
752.511573	0.243430
752.707934	0.243443
752.904276	0.243257
753.100601	0.243033
753.296907	0.243176
753.493195	0.242924
753.689465	0.242496
753.885716	0.242446
754.081949	0.242325
754.278164	0.242184
754.474361	0.241908
754.670540	0.241821
754.866700	0.241540
755.062843	0.241307
755.258967	0.241302
755.455072	0.241386
755.651160	0.241147
755.847229	0.240503
756.043280	0.240309
756.239313	0.240009
756.435328	0.239701
756.631324	0.239698
756.827302	0.239458
757.023262	0.239364
757.219204	0.239107
757.415127	0.238951
757.611033	0.239439
757.806920	0.239354
758.002788	0.239464
758.198639	0.239528
758.394471	0.239273
758.590286	0.239103
758.786081	0.238822
758.981859	0.238976
759.177619	0.238991
759.373360	0.238699
759.569083	0.238824
759.764788	0.238592
759.960474	0.238372
760.156143	0.238380
760.351793	0.238378
760.547425	0.238192
760.743038	0.237976
760.938634	0.237535
761.134211	0.237301
761.329770	0.236947
761.525311	0.236872
761.720833	0.236614
761.916338	0.236513
762.111824	0.236338
762.307292	0.236412
762.502741	0.235941
762.698173	0.235783
762.893586	0.235931
763.088981	0.235825
763.284358	0.235415
763.479716	0.235471
763.675057	0.235368
763.870379	0.235190
764.065683	0.235197
764.260968	0.235198
764.456236	0.235194
764.651485	0.234900
764.846716	0.234689
765.041929	0.234788
765.237123	0.234654
765.432299	0.234510
765.627457	0.234271
765.822597	0.234194
766.017719	0.234006
766.212822	0.233877
766.407907	0.233734
766.602974	0.233695
766.798023	0.233587
766.993054	0.233491
767.188066	0.233441
767.383060	0.233509
767.578036	0.233263
767.772993	0.233632
767.967933	0.233788
768.162854	0.233543
768.357757	0.233493
768.552642	0.233330
768.747508	0.233523
768.942356	0.233382
769.137186	0.233235
769.331998	0.233463
769.526792	0.233241
769.721567	0.232961
769.916324	0.232913
770.111063	0.232759
770.305784	0.232763
770.500486	0.232355
770.695171	0.232297
770.889837	0.232487
771.084484	0.231969
771.279114	0.231699
771.473725	0.231687
771.668318	0.231867
771.862893	0.232079
772.057450	0.231974
772.251988	0.232104
772.446509	0.232101
772.641011	0.231964
772.835494	0.232164
773.029960	0.232286
773.224407	0.232181
773.418836	0.231964
773.613247	0.231846
773.807640	0.231996
774.002014	0.231925
774.196370	0.232001
774.390708	0.231805
774.585028	0.231734
774.779330	0.231859
774.973613	0.231834
775.167878	0.231828
775.362125	0.231774
775.556354	0.231488
775.750564	0.231373
775.944756	0.231087
776.138930	0.230873
776.333086	0.230466
776.527223	0.230121
776.721343	0.229964
776.915444	0.229948
777.109526	0.229794
777.303591	0.229801
777.497637	0.229699
777.691666	0.229638
777.885676	0.229584
778.079667	0.229732
778.273641	0.229744
778.467596	0.229674
778.661533	0.229693
778.855452	0.229876
779.049352	0.229974
779.243235	0.230140
779.437099	0.230148
779.630945	0.230199
779.824773	0.230352
780.018582	0.230377
780.212373	0.230569
780.406146	0.230451
780.599901	0.230495
780.793638	0.230412
780.987356	0.230344
781.181056	0.230187
781.374738	0.230338
781.568402	0.230236
781.762047	0.230333
781.955674	0.230288
782.149283	0.230360
782.342874	0.230141
782.536447	0.230149
782.730001	0.230146
782.923537	0.230503
783.117055	0.230779
783.310555	0.230810
783.504036	0.230898
783.697499	0.230977
783.890944	0.231249
784.084371	0.231462
784.277780	0.231361
784.471170	0.231415
784.664542	0.231198
784.857896	0.231341
785.051231	0.231610
785.244549	0.231665
785.437848	0.231689
785.631129	0.231463
785.824392	0.231187
786.017636	0.231479
786.210863	0.231813
786.404071	0.232279
786.597260	0.232109
786.790432	0.232034
786.983585	0.232391
787.176721	0.232650
787.369838	0.232975
787.562936	0.233362
787.756017	0.233376
787.949079	0.233326
788.142123	0.233388
788.335149	0.233845
788.528156	0.233962
788.721146	0.233686
788.914117	0.233634
789.107070	0.233544
789.300005	0.233504
789.492921	0.233654
789.685819	0.233387
789.878699	0.233152
790.071561	0.233176
790.264405	0.233461
790.457230	0.233624
790.650037	0.233928
790.842826	0.234169
791.035597	0.234209
791.228349	0.234139
791.421084	0.234600
791.613800	0.235039
791.806497	0.235002
791.999177	0.235001
792.191838	0.235227
792.384481	0.235422
792.577106	0.235448
792.769713	0.235646
792.962301	0.235943
793.154871	0.236077
793.347423	0.236136
793.539957	0.236240
793.732473	0.236533
793.924970	0.236597
794.117449	0.236660
794.309910	0.236915
794.502353	0.237332
794.694777	0.237528
794.887183	0.237732
795.079571	0.237909
795.271941	0.237820
795.464293	0.237791
795.656626	0.237901
795.848941	0.238017
796.041238	0.238332
796.233516	0.238320
796.425777	0.238336
796.618019	0.238594
796.810243	0.238618
797.002449	0.238820
797.194636	0.238961
797.386805	0.239062
797.578956	0.238912
797.771089	0.238917
797.963204	0.239226
798.155300	0.239610
798.347378	0.239601
798.539438	0.239758
798.731480	0.239956
798.923503	0.240086
799.115509	0.240256
799.307496	0.240712
799.499465	0.240808
799.691415	0.241118
799.883348	0.241085
800.075262	0.241175
800.267158	0.241366
800.459035	0.241681
800.650895	0.242012
800.842736	0.242178
801.034559	0.242121
801.226364	0.242151
801.418150	0.242057
801.609919	0.242299
801.801669	0.242550
801.993401	0.242742
802.185114	0.242783
802.376810	0.242862
802.568487	0.243125
802.760146	0.243537
802.951787	0.243932
803.143409	0.243963
803.335014	0.244219
803.526600	0.244279
803.718168	0.244279
803.909717	0.244739
804.101249	0.244889
804.292762	0.245187
804.484257	0.245555
804.675734	0.245725
804.867192	0.246188
805.058632	0.246496
805.250054	0.246971
805.441458	0.247539
805.632844	0.247624
805.824211	0.248234
806.015561	0.248395
806.206891	0.248239
806.398204	0.248326
806.589499	0.248752
806.780775	0.249156
806.972033	0.249333
807.163273	0.249561
807.354495	0.249851
807.545698	0.249830
807.736883	0.250220
807.928050	0.250671
808.119199	0.251140
808.310329	0.251145
808.501441	0.251126
808.692535	0.251126
808.883611	0.251293
809.074669	0.251503
809.265708	0.251771
809.456729	0.251940
809.647732	0.252142
809.838717	0.252607
810.029683	0.253000
810.220632	0.253551
810.411562	0.254243
810.602474	0.254640
810.793367	0.255014
810.984242	0.255494
811.175100	0.255962
811.365938	0.256689
811.556759	0.256633
811.747562	0.257078
811.938346	0.257391
812.129112	0.257683
812.319860	0.258090
812.510589	0.258288
812.701300	0.258333
812.891994	0.258612
813.082668	0.258774
813.273325	0.259154
813.463964	0.259409
813.654584	0.259270
813.845186	0.259245
814.035769	0.259438
814.226335	0.259845
814.416882	0.260018
814.607411	0.260409
814.797922	0.260440
814.988415	0.260991
815.178889	0.261323
815.369345	0.261773
815.559783	0.262167
815.750203	0.262406
815.940605	0.262727
816.130988	0.263115
816.321353	0.263291
816.511700	0.263876
816.702028	0.264206
816.892339	0.264543
817.082631	0.265013
817.272905	0.265827
817.463161	0.266371
817.653398	0.266751
817.843617	0.267349
818.033819	0.267577
818.224001	0.267825
818.414166	0.268004
818.604312	0.268186
818.794440	0.268521
818.984550	0.268457
819.174642	0.268417
819.364716	0.268595
819.554771	0.268943
819.744808	0.269573
819.934827	0.269792
820.124827	0.270292
820.314810	0.270536
820.504774	0.270755
820.694720	0.271338
820.884647	0.271941
821.074557	0.272386
821.264448	0.272684
821.454321	0.272755
821.644176	0.273337
821.834012	0.273642
822.023831	0.273926
822.213631	0.274532
822.403413	0.274604
822.593176	0.275054
822.782922	0.275329
822.972649	0.275813
823.162358	0.276318
823.352049	0.276557
823.541721	0.276780
823.731376	0.277131
823.921012	0.277522
824.110629	0.277854
824.300229	0.278106
824.489811	0.278655
824.679374	0.278770
824.868919	0.279022
825.058445	0.279830
825.247954	0.280465
825.437444	0.280976
825.626916	0.281185
825.816370	0.281694
826.005806	0.281899
826.195223	0.282159
826.384622	0.282521
826.574003	0.282996
826.763366	0.282894
826.952711	0.283125
827.142037	0.283716
827.331345	0.284146
827.520635	0.284572
827.709906	0.285117
827.899160	0.285470
828.088395	0.285800
828.277612	0.285997
828.466810	0.286499
828.655991	0.286695
828.845153	0.286781
829.034297	0.287343
829.223423	0.287406
829.412531	0.287617
829.601620	0.288306
829.790691	0.288852
829.979744	0.289568
830.168779	0.289540
830.357795	0.289965
830.546793	0.290367
830.735773	0.290378
830.924735	0.291041
831.113679	0.291468
831.302604	0.291641
831.491511	0.292139
831.680400	0.292222
831.869271	0.292823
832.058123	0.293446
832.246957	0.294111
832.435773	0.294560
832.624571	0.294927
832.813351	0.295469
833.002112	0.295624
833.190855	0.295872
833.379580	0.296132
833.568287	0.296565
833.756975	0.296815
833.945645	0.297036
834.134297	0.297606
834.322931	0.297993
834.511547	0.298552
834.700144	0.299275
834.888723	0.299628
835.077284	0.300229
835.265826	0.300916
835.454351	0.301637
835.642857	0.301813
835.831345	0.302080
836.019815	0.302377
836.208266	0.302565
836.396699	0.303138
836.585114	0.303781
836.773511	0.304352
836.961890	0.304600
837.150250	0.304381
837.338592	0.304898
837.526916	0.305756
837.715222	0.306229
837.903510	0.306774
838.091779	0.306962
838.280030	0.307375
838.468263	0.307832
838.656477	0.308447
838.844674	0.309355
839.032852	0.310005
839.221012	0.310225
839.409153	0.310985
839.597277	0.311934
839.785382	0.312625
839.973469	0.313229
840.161538	0.313724
840.349589	0.314247
840.537621	0.314563
840.725635	0.315380
840.913631	0.316047
841.101609	0.316549
841.289568	0.316793
841.477509	0.317203
841.665432	0.317536
841.853337	0.317950
842.041224	0.318299
842.229092	0.318855
842.416942	0.319360
842.604774	0.319467
842.792588	0.319670
842.980383	0.320127
843.168160	0.320763
843.355919	0.321280
843.543660	0.321574
843.731382	0.322127
843.919087	0.322633
844.106773	0.322625
844.294441	0.323134
844.482090	0.323852
844.669722	0.324275
844.857335	0.324608
845.044930	0.325079
845.232507	0.325893
845.420065	0.326389
845.607605	0.327010
845.795127	0.327672
845.982631	0.328360
846.170117	0.328229
846.357584	0.328471
846.545033	0.328603
846.732464	0.328855
846.919877	0.329373
847.107272	0.329939
847.294648	0.330174
847.482006	0.330502
847.669346	0.331047
847.856667	0.331773
848.043971	0.332304
848.231256	0.332979
848.418523	0.333639
848.605771	0.333912
848.793002	0.334219
848.980214	0.335084
849.167408	0.335416
849.354584	0.335925
849.541742	0.336575
849.728881	0.337025
849.916002	0.337494
850.103105	0.338006
850.290190	0.338110
850.477256	0.338724
850.664304	0.338563
850.851334	0.339320
851.038346	0.339552
851.225340	0.340135
851.412315	0.340705
851.599272	0.341056
851.786211	0.341331
851.973132	0.341819
852.160034	0.342137
852.346918	0.342635
852.533784	0.343125
852.720632	0.343723
852.907462	0.343955
853.094273	0.344309
853.281066	0.344882
853.467841	0.345473
853.654598	0.346403
853.841336	0.346859
854.028056	0.347236
854.214758	0.347396
854.401442	0.347730
854.588107	0.348325
854.774755	0.348671
854.961384	0.349271
855.147995	0.349505
855.334587	0.349680
855.521162	0.349964
855.707718	0.350580
855.894256	0.350719
856.080775	0.351174
856.267277	0.351480
856.453760	0.351836
856.640225	0.352229
856.826672	0.352869
857.013101	0.353541
857.199511	0.354137
857.385903	0.354882
857.572277	0.355794
857.758633	0.356214
857.944970	0.356826
858.131290	0.357586
858.317591	0.357783
858.503873	0.358335
858.690138	0.358490
858.876384	0.359180
859.062612	0.359447
859.248822	0.360119
859.435014	0.360455
859.621188	0.360733
859.807343	0.361062
859.993480	0.361809
860.179599	0.362023
860.365699	0.362330
860.551781	0.362485
860.737846	0.362798
860.923891	0.362765
861.109919	0.363140
861.295929	0.363677
861.481920	0.363877
861.667893	0.364041
861.853848	0.364712
862.039784	0.364844
862.225702	0.365201
862.411603	0.365626
862.597484	0.366181
862.783348	0.366662
862.969193	0.366759
863.155021	0.367343
863.340830	0.367661
863.526620	0.367494
863.712393	0.368091
863.898147	0.368001
864.083883	0.368312
864.269601	0.368586
864.455301	0.368733
864.640982	0.369472
864.826645	0.369739
865.012290	0.370206
865.197917	0.371097
865.383526	0.371659
865.569116	0.372155
865.754688	0.373100
865.940242	0.373410
866.125777	0.374178
866.311295	0.373988
866.496794	0.374525
866.682275	0.375049
866.867737	0.375066
867.053182	0.374969
867.238608	0.375364
867.424016	0.375040
867.609406	0.375039
867.794778	0.374771
867.980131	0.375263
868.165466	0.375450
868.350783	0.375238
868.536082	0.375141
868.721362	0.375812
868.906625	0.376041
869.091869	0.376344
869.277094	0.377036
869.462302	0.377522
869.647491	0.378125
869.832662	0.378408
870.017815	0.379248
870.202950	0.379984
870.388066	0.380299
870.573165	0.380903
870.758245	0.381530
870.943306	0.381884
871.128350	0.382358
871.313375	0.382822
871.498382	0.383050
871.683371	0.383175
871.868342	0.384033
872.053294	0.384718
872.238229	0.385118
872.423144	0.385497
872.608042	0.385938
872.792922	0.386622
872.977783	0.386758
873.162626	0.387033
873.347451	0.387441
873.532258	0.387171
873.717046	0.387313
873.901816	0.387686
874.086568	0.387946
874.271302	0.388083
874.456017	0.388227
874.640715	0.388656
874.825394	0.389372
875.010055	0.389362
875.194697	0.389959
875.379322	0.390037
875.563928	0.390045
875.748516	0.390267
875.933085	0.390513
876.117637	0.390226
876.302170	0.390194
876.486685	0.390556
876.671182	0.390604
876.855661	0.390891
877.040121	0.390827
877.224563	0.390825
877.408987	0.390816
877.593393	0.390960
877.777780	0.391377
877.962150	0.391543
878.146501	0.391497
878.330833	0.392123
878.515148	0.392207
878.699444	0.392610
878.883722	0.392903
879.067982	0.393119
879.252224	0.393410
879.436447	0.393737
879.620653	0.393751
879.804840	0.393510
879.989008	0.393233
880.173159	0.393847
880.357291	0.394390
880.541405	0.394667
880.725501	0.395385
880.909579	0.395247
881.093638	0.395513
881.277680	0.396241
881.461703	0.396472
881.645707	0.396727
881.829694	0.395892
882.013662	0.396449
882.197612	0.396726
882.381544	0.396546
882.565458	0.396785
882.749353	0.396618
882.933230	0.396535
883.117089	0.396583
883.300930	0.397192
883.484753	0.397551
883.668557	0.397014
883.852343	0.397032
884.036111	0.396756
884.219861	0.397101
884.403592	0.397273
884.587305	0.397500
884.771000	0.397422
884.954677	0.397460
885.138335	0.397706
885.321976	0.397711
885.505598	0.397801
885.689201	0.397840
885.872787	0.397964
886.056354	0.398147
886.239904	0.398105
886.423434	0.398525
886.606947	0.398553
886.790442	0.398464
886.973918	0.398324
887.157376	0.398496
887.340816	0.398495
887.524237	0.398570
887.707641	0.398843
887.891026	0.398724
888.074393	0.398589
888.257741	0.398535
888.441072	0.399186
888.624384	0.399683
888.807678	0.399582
888.990954	0.400016
889.174211	0.400361
889.357451	0.400024
889.540672	0.399969
889.723875	0.400173
889.907059	0.399704
890.090226	0.398957
890.273374	0.398910
890.456504	0.399130
890.639616	0.399296
890.822709	0.398841
891.005785	0.398917
891.188842	0.399042
891.371881	0.398575
891.554901	0.399143
891.737904	0.399653
891.920888	0.399141
892.103854	0.398500
892.286802	0.397873
892.469731	0.397549
892.652643	0.397178
892.835536	0.396713
893.018410	0.397359
893.201267	0.396779
893.384106	0.396780
893.566926	0.397253
893.749728	0.397371
893.932511	0.397512
894.115277	0.397575
894.298024	0.397674
894.480753	0.397688
894.663464	0.397117
894.846157	0.397364
895.028831	0.396597
895.211487	0.396218
895.394125	0.396325
895.576745	0.396150
895.759346	0.396432
895.941930	0.396020
896.124495	0.396764
896.307041	0.396802
896.489570	0.396534
896.672080	0.396926
896.854573	0.396341
897.037046	0.396295
897.219502	0.396411
897.401940	0.395604
897.584359	0.395854
897.766760	0.395089
897.949143	0.394589
898.131507	0.394461
898.313854	0.393724
898.496182	0.394012
898.678492	0.393460
898.860783	0.393187
899.043057	0.393438
899.225312	0.392891
899.407549	0.392526
899.589768	0.392237
899.771968	0.392057
899.954151	0.391646
900.136315	0.391374
900.318461	0.391114
900.500588	0.390883
900.682698	0.390008
900.864789	0.389822
901.046862	0.389731
901.228917	0.389034
901.410953	0.388384
901.592971	0.388021
901.774972	0.387395
901.956953	0.386829
902.138917	0.386043
902.320862	0.386176
902.502790	0.385980
902.684699	0.385210
902.866589	0.385704
903.048462	0.385501
903.230316	0.385710
903.412152	0.385242
903.593970	0.385185
903.775770	0.385641
903.957551	0.385018
904.139314	0.385151
904.321059	0.385181
904.502786	0.384160
904.684494	0.384086
904.866185	0.383161
905.047857	0.382975
905.229510	0.382293
905.411146	0.381430
905.592763	0.381178
905.774363	0.380265
905.955943	0.380023
906.137506	0.379722
906.319051	0.379371
906.500577	0.379499
906.682085	0.379327
906.863575	0.378792
907.045046	0.378322
907.226500	0.378220
907.407935	0.377540
907.589352	0.376853
907.770750	0.376532
907.952131	0.376143
908.133493	0.375661
908.314837	0.375314
908.496163	0.375253
908.677470	0.374913
908.858760	0.374412
909.040031	0.374457
909.221284	0.374113
909.402518	0.373976
909.583735	0.373403
909.764933	0.373203
909.946113	0.372941
910.127275	0.372344
910.308418	0.372367
910.489544	0.371921
910.670651	0.370691
910.851740	0.370346
911.032810	0.369841
911.213863	0.368951
911.394897	0.367923
911.575913	0.366990
911.756911	0.366875
911.937890	0.364943
912.118851	0.364169
912.299794	0.363893
912.480719	0.363449
912.661626	0.362826
912.842514	0.362709
913.023384	0.361800
913.204236	0.361208
913.385070	0.360551
913.565886	0.360580
913.746683	0.360088
913.927462	0.359727
914.108223	0.358062
914.288965	0.356935
914.469690	0.355754
914.650396	0.355118
914.831084	0.354855
915.011754	0.354340
915.192405	0.353537
915.373038	0.352959
915.553653	0.352133
915.734250	0.352090
915.914829	0.352083
916.095389	0.350747
916.275931	0.350324
916.456455	0.349401
916.636961	0.348870
916.817448	0.348580
916.997917	0.347580
917.178368	0.346949
917.358801	0.345549
917.539216	0.344492
917.719612	0.344464
917.899990	0.343558
918.080350	0.343122
918.260692	0.341756
918.441015	0.340910
918.621320	0.340564
918.801607	0.339839
918.981876	0.339614
919.162127	0.339264
919.342359	0.339093
919.522573	0.338649
919.702769	0.337859
919.882947	0.337598
920.063106	0.336703
920.243247	0.335074
920.423370	0.334616
920.603475	0.334156
920.783562	0.333696
920.963630	0.332459
921.143680	0.331947
921.323712	0.331249
921.503725	0.330289
921.683721	0.330659
921.863698	0.331079
922.043657	0.329896
922.223598	0.329269
922.403520	0.327623
922.583424	0.326887
922.763311	0.326325
922.943178	0.324998
923.123028	0.324432
923.302859	0.322899
923.482673	0.321578
923.662467	0.320960
923.842244	0.320056
924.022003	0.319468
924.201743	0.318749
924.381465	0.317719
924.561169	0.317653
924.740854	0.315441
924.920522	0.313837
925.100171	0.313011
925.279802	0.312511
925.459414	0.311256
925.639009	0.311453
925.818585	0.311085
925.998143	0.310151
926.177683	0.309651
926.357205	0.310179
926.536708	0.310690
926.716193	0.309592
926.895660	0.308395
927.075109	0.307189
927.254539	0.304927
927.433951	0.303976
927.613345	0.303544
927.792721	0.302006
927.972079	0.301391
928.151418	0.299659
928.330739	0.299403
928.510042	0.298319
928.689327	0.298110
928.868593	0.298401
929.047841	0.297419
929.227071	0.296740
929.406283	0.296000
929.585476	0.294870
929.764652	0.293641
929.943809	0.292491
930.122948	0.291803
930.302068	0.290743
930.481171	0.288870
930.660255	0.287678
930.839321	0.285589
931.018369	0.284300
931.197398	0.283014
931.376409	0.282312
931.555402	0.280680
931.734377	0.279103
931.913334	0.277994
932.092272	0.277291
932.271192	0.276220
932.450094	0.275910
932.628978	0.274922
932.807844	0.273633
932.986691	0.273505
933.165520	0.273405
933.344331	0.273784
933.523123	0.272378
933.701898	0.271175
933.880654	0.270158
934.059392	0.269228
934.238111	0.268915
934.416813	0.268833
934.595496	0.267369
934.774161	0.265841
934.952808	0.264134
935.131437	0.262938
935.310047	0.262390
935.488639	0.260817
935.667213	0.259650
935.845769	0.257659
936.024306	0.255546
936.202825	0.254453
936.381326	0.253230
936.559809	0.252969
936.738274	0.253032
936.916720	0.251558
937.095148	0.250851
937.273558	0.248820
937.451950	0.247286
937.630323	0.247222
937.808678	0.245822
937.987015	0.244256
938.165334	0.242096
938.343635	0.240540
938.521917	0.239646
938.700181	0.239446
938.878427	0.239103
939.056655	0.239530
939.234864	0.237793
939.413055	0.237025
939.591228	0.236626
939.769383	0.236153
939.947519	0.235209
940.125638	0.233843
940.303738	0.233049
940.481820	0.231805
940.659883	0.229983
940.837929	0.228889
941.015956	0.227529
941.193965	0.226606
941.371955	0.226463
941.549928	0.225491
941.727882	0.224331
941.905818	0.222280
942.083736	0.221297
942.261636	0.219342
942.439517	0.217921
942.617380	0.217052
942.795225	0.216042
942.973052	0.214383
943.150860	0.213613
943.328651	0.212564
943.506423	0.211584
943.684176	0.210394
943.861912	0.211970
944.039629	0.211733
944.217328	0.208854
944.395009	0.206789
944.572672	0.204647
944.750317	0.203271
944.927943	0.202907
945.105551	0.200547
945.283141	0.199291
945.460712	0.195106
945.638265	0.193225
945.815801	0.193249
945.993317	0.192172
946.170816	0.190264
946.348297	0.189341
946.525759	0.186962
946.703203	0.187226
946.880629	0.184838
947.058036	0.184790
947.235425	0.183704
947.412797	0.182009
947.590149	0.182325
947.767484	0.182909
947.944800	0.180306
948.122099	0.179452
948.299379	0.178172
948.476640	0.177091
948.653884	0.175321
948.831109	0.173723
949.008316	0.172751
949.185505	0.171685
949.362676	0.168358
949.539828	0.167983
949.716962	0.166629
949.894078	0.165115
950.071176	0.164026
950.248256	0.163664
950.425317	0.163484
950.602360	0.162576
950.779385	0.160574
950.956391	0.159542
951.133380	0.158438
951.310350	0.157248
951.487302	0.157066
951.664235	0.157394
951.841151	0.154739
952.018048	0.151683
952.194927	0.152338
952.371788	0.151826
952.548631	0.151022
952.725455	0.150187
952.902261	0.149777
953.079049	0.146653
953.255819	0.144331
953.432570	0.143390
953.609303	0.145053
953.786018	0.141323
953.962715	0.139391
954.139394	0.139190
954.316054	0.137007
954.492696	0.136050
954.669320	0.135647
954.845926	0.135939
955.022513	0.135524
955.199083	0.132609
955.375634	0.133198
955.552166	0.132533
955.728681	0.130225
955.905177	0.128180
956.081655	0.127117
956.258115	0.126548
956.434557	0.124692
956.610980	0.124667
956.787385	0.124752
956.963772	0.122526
957.140141	0.119854
957.316492	0.119543
957.492824	0.121112
957.669138	0.119621
957.845434	0.118505
958.021712	0.115820
958.197971	0.114221
958.374212	0.113640
958.550435	0.113411
958.726640	0.114239
958.902826	0.115175
959.078995	0.113563
959.255145	0.113330
959.431277	0.113606
959.607390	0.116185
959.783486	0.114715
959.959563	0.113209
960.135622	0.113498
960.311662	0.111265
960.487685	0.110345
960.663689	0.111659
960.839675	0.112089
961.015643	0.111720
961.191593	0.110691
961.367524	0.109168
961.543437	0.107650
961.719332	0.106480
961.895209	0.106014
962.071067	0.104511
962.246907	0.101075
962.422730	0.099194
962.598533	0.098334
962.774319	0.097040
962.950086	0.097863
963.125835	0.098937
963.301566	0.098975
963.477279	0.098399
963.652973	0.096498
963.828650	0.096034
964.004308	0.096550
964.179947	0.096453
964.355569	0.097908
964.531172	0.098781
964.706757	0.099710
964.882324	0.099247
965.057873	0.100665
965.233403	0.102052
965.408916	0.105360
965.584410	0.105323
965.759885	0.102792
965.935343	0.102175
966.110782	0.100923
966.286203	0.098948
966.461606	0.096957
966.636991	0.095008
966.812357	0.093358
966.987705	0.090989
967.163035	0.089068
967.338347	0.090393
967.513641	0.089320
967.688916	0.089565
967.864173	0.090451
968.039412	0.088610
968.214632	0.090755
968.389835	0.090634
968.565019	0.091224
968.740185	0.092933
968.915333	0.092302
969.090462	0.091986
969.265573	0.093239
969.440667	0.091649
969.615741	0.095106
969.790798	0.094716
969.965836	0.096260
970.140856	0.095238
970.315858	0.094303
970.490842	0.093854
970.665808	0.095546
970.840755	0.095380
971.015684	0.096194
971.190595	0.097665
971.365487	0.097747
971.540362	0.097116
971.715218	0.097381
971.890056	0.096823
972.064875	0.096256
972.239677	0.094741
972.414460	0.091128
972.589225	0.092529
972.763972	0.089796
972.938700	0.088901
973.113411	0.090233
973.288103	0.089802
973.462777	0.090114
973.637432	0.093073
973.812070	0.093416
973.986689	0.095159
974.161290	0.093265
974.335873	0.094368
974.510437	0.094680
974.684984	0.094279
974.859512	0.094245
975.034022	0.092989
975.208513	0.091652
975.382987	0.091155
975.557442	0.092270
975.731879	0.092349
975.906298	0.090276
976.080698	0.089884
976.255080	0.088330
976.429445	0.086952
976.603790	0.088725
976.778118	0.087451
976.952427	0.086778
977.126719	0.087022
977.300992	0.085174
977.475246	0.086930
977.649483	0.085887
977.823701	0.086710
977.997901	0.087963
978.172083	0.090188
978.346247	0.091737
978.520392	0.092225
978.694519	0.091568
978.868628	0.093828
979.042719	0.092566
979.216791	0.092256
979.390845	0.091886
979.564882	0.091580
979.738899	0.090039
979.912899	0.088431
980.086880	0.088673
980.260843	0.088196
980.434788	0.088867
980.608715	0.088991
980.782623	0.091280
980.956514	0.091393
981.130386	0.091208
981.304240	0.089566
981.478075	0.090483
981.651892	0.089667
981.825692	0.090039
981.999472	0.088929
982.173235	0.089123
982.346980	0.089591
982.520706	0.089842
982.694414	0.087746
982.868104	0.088414
983.041775	0.087439
983.215428	0.087691
983.389064	0.088075
983.562680	0.087302
983.736279	0.087579
983.909860	0.086697
984.083422	0.087554
984.256966	0.091310
984.430491	0.088480
984.603999	0.089222
984.777488	0.088946
984.950959	0.088279
985.124412	0.087470
985.297847	0.089434
985.471263	0.089534
985.644661	0.087845
985.818041	0.086977
985.991403	0.089035
986.164747	0.089565
986.338072	0.090172
986.511379	0.090083
986.684668	0.091746
986.857938	0.089818
987.031191	0.088824
987.204425	0.089937
987.377641	0.090820
987.550839	0.092561
987.724018	0.093445
987.897179	0.095526
988.070322	0.098548
988.243447	0.099663
988.416554	0.100142
988.589642	0.099476
988.762712	0.100006
988.935764	0.098983
989.108798	0.098600
989.281813	0.097567
989.454811	0.096660
989.627790	0.092706
989.800751	0.090758
989.973693	0.092860
990.146617	0.094835
990.319524	0.094497
990.492412	0.093919
990.665281	0.094093
990.838133	0.094618
991.010966	0.093876
991.183781	0.092831
991.356578	0.094810
991.529356	0.091641
991.702117	0.092208
991.874859	0.090881
992.047583	0.091203
992.220288	0.091509
992.392976	0.090793
992.565645	0.090272
992.738296	0.092402
992.910929	0.090564
993.083543	0.089550
993.256139	0.089593
993.428718	0.091472
993.601277	0.091314
993.773819	0.090047
993.946342	0.092353
994.118848	0.091446
994.291335	0.090960
994.463803	0.090931
994.636254	0.093050
994.808686	0.092709
994.981100	0.091223
995.153496	0.091021
995.325874	0.090877
995.498233	0.088852
995.670574	0.091486
995.842897	0.092577
996.015202	0.093284
996.187488	0.091763
996.359757	0.092094
996.532007	0.092955
996.704239	0.094233
996.876452	0.096189
997.048648	0.095632
997.220825	0.094286
997.392984	0.095088
997.565124	0.095930
997.737247	0.098585
997.909351	0.097131
998.081437	0.097379
998.253505	0.096503
998.425554	0.096467
998.597586	0.096432
998.769599	0.096633
998.941594	0.095516
999.113571	0.094615
999.285529	0.092662
999.457469	0.092800
999.629391	0.092349
999.801295	0.093958
999.973181	0.093299
1000.145048	0.093617
1000.316897	0.094477
1000.488728	0.094072
1000.660541	0.094312
1000.832335	0.096879
1001.004111	0.096514
1001.175869	0.095676
1001.347609	0.095062
1001.519331	0.095272
1001.691034	0.095958
1001.862719	0.093823
1002.034386	0.092812
1002.206035	0.092594
1002.377665	0.090180
1002.549277	0.089827
1002.720871	0.088912
1002.892447	0.088336
1003.064004	0.087529
1003.235544	0.088976
1003.407065	0.089318
1003.578568	0.090208
1003.750052	0.089834
1003.921519	0.089660
1004.092967	0.090469
1004.264397	0.092591
1004.435809	0.093050
1004.607202	0.092326
1004.778577	0.090152
1004.949934	0.090066
1005.121273	0.089618
1005.292594	0.089658
1005.463896	0.091832
1005.635180	0.092790
1005.806446	0.093311
1005.977694	0.093011
1006.148923	0.093969
1006.320135	0.094022
1006.491328	0.094517
1006.662503	0.094725
1006.833659	0.094675
1007.004798	0.094912
1007.175918	0.095014
1007.347020	0.094688
1007.518103	0.096075
1007.689169	0.095424
1007.860216	0.095517
1008.031245	0.095417
1008.202256	0.095120
1008.373248	0.096874
1008.544223	0.095215
1008.715179	0.093879
1008.886117	0.092102
1009.057036	0.091933
1009.227938	0.090731
1009.398821	0.089522
1009.569686	0.088289
1009.740533	0.089183
1009.911361	0.087412
1010.082172	0.087169
1010.252964	0.086774
1010.423738	0.087236
1010.594493	0.086133
1010.765231	0.086235
1010.935950	0.086808
1011.106651	0.089537
1011.277334	0.088670
1011.447998	0.088892
1011.618645	0.088056
1011.789273	0.089521
1011.959882	0.089261
1012.130474	0.088435
1012.301048	0.090029
1012.471603	0.090803
1012.642140	0.089616
1012.812658	0.090097
1012.983159	0.089924
1013.153641	0.091041
1013.324105	0.090311
1013.494551	0.092617
1013.664979	0.092775
1013.835388	0.093791
1014.005779	0.093690
1014.176152	0.093006
1014.346507	0.093104
1014.516843	0.093163
1014.687162	0.094238
1014.857462	0.094363
1015.027744	0.091672
1015.198007	0.092234
1015.368252	0.089324
1015.538480	0.089425
1015.708689	0.089382
1015.878879	0.091594
1016.049052	0.090675
1016.219206	0.090298
1016.389342	0.089238
1016.559460	0.090973
1016.729559	0.092039
1016.899641	0.093942
1017.069704	0.092109
1017.239749	0.093113
1017.409775	0.089580
1017.579784	0.091090
1017.749774	0.091159
1017.919746	0.091732
1018.089700	0.090562
1018.259635	0.090017
1018.429553	0.089622
1018.599452	0.091877
1018.769333	0.090502
1018.939195	0.091788
1019.109040	0.091283
1019.278866	0.090201
1019.448674	0.089415
1019.618464	0.090300
1019.788235	0.089904
1019.957989	0.088371
1020.127724	0.089015
1020.297441	0.089646
1020.467139	0.089205
1020.636820	0.088627
1020.806482	0.089414
1020.976126	0.091187
1021.145752	0.091212
1021.315359	0.090508
1021.484948	0.091894
1021.654519	0.090012
1021.824072	0.090283
1021.993607	0.091054
1022.163123	0.091818
1022.332621	0.090630
1022.502101	0.090626
1022.671563	0.090695
1022.841007	0.091249
1023.010432	0.089618
1023.179839	0.090151
1023.349228	0.089579
1023.518598	0.089202
1023.687951	0.089924
1023.857285	0.088794
1024.026601	0.089479
1024.195899	0.088648
1024.365178	0.090418
1024.534439	0.090870
1024.703682	0.091123
1024.872907	0.091080
1025.042114	0.090923
1025.211302	0.090256
1025.380472	0.092521
1025.549624	0.091253
1025.718758	0.093399
1025.887873	0.091072
1026.056970	0.091779
1026.226049	0.091161
1026.395110	0.092078
1026.564153	0.090578
1026.733177	0.092252
1026.902183	0.091958
1027.071171	0.091621
1027.240141	0.088925
1027.409092	0.090027
1027.578026	0.090314
1027.746940	0.090997
1027.915837	0.091503
1028.084716	0.093779
1028.253576	0.092424
1028.422418	0.091837
1028.591242	0.091055
1028.760048	0.091561
1028.928835	0.092462
1029.097604	0.093657
1029.266355	0.095807
1029.435088	0.092783
1029.603803	0.093953
1029.772499	0.093531
1029.941177	0.094383
1030.109837	0.095547
1030.278478	0.096057
1030.447102	0.095448
1030.615707	0.094066
1030.784294	0.090596
1030.952863	0.093166
1031.121413	0.091341
1031.289945	0.090100
1031.458460	0.090777
1031.626955	0.090201
1031.795433	0.089735
1031.963892	0.087962
1032.132334	0.088424
1032.300756	0.090854
1032.469161	0.089484
1032.637548	0.090637
1032.805916	0.091412
1032.974266	0.088847
1033.142598	0.087147
1033.310911	0.089246
1033.479207	0.089220
1033.647484	0.088132
1033.815743	0.085942
1033.983983	0.086765
1034.152206	0.086111
1034.320410	0.086203
1034.488596	0.087197
1034.656764	0.091758
1034.824914	0.089341
1034.993045	0.090793
1035.161158	0.091700
1035.329253	0.091121
1035.497330	0.092168
1035.665388	0.092139
1035.833428	0.092119
1036.001450	0.092445
1036.169454	0.090136
1036.337440	0.090243
1036.505407	0.089881
1036.673356	0.089979
1036.841287	0.092893
1037.009200	0.090538
1037.177094	0.090273
1037.344970	0.090938
1037.512828	0.091274
1037.680668	0.090074
1037.848489	0.090725
1038.016293	0.090779
1038.184078	0.090864
1038.351845	0.088043
1038.519593	0.089224
1038.687324	0.089063
1038.855036	0.087213
1039.022730	0.087760
1039.190406	0.088987
1039.358063	0.087759
1039.525702	0.087594
1039.693323	0.086334
1039.860926	0.087071
1040.028511	0.085982
1040.196077	0.086572
1040.363625	0.088319
1040.531155	0.087717
1040.698667	0.088432
1040.866161	0.089714
1041.033636	0.089053
1041.201093	0.090128
1041.368532	0.091576
1041.535952	0.091352
1041.703355	0.089992
1041.870739	0.089229
1042.038105	0.087988
1042.205452	0.085513
1042.372782	0.083739
1042.540093	0.083319
1042.707386	0.083762
1042.874661	0.085243
1043.041918	0.087205
1043.209156	0.087597
1043.376376	0.087163
1043.543578	0.087053
1043.710762	0.089071
1043.877927	0.090894
1044.045074	0.091605
1044.212203	0.091599
1044.379314	0.088852
1044.546407	0.088981
1044.713481	0.088605
1044.880537	0.089584
1045.047575	0.089206
1045.214595	0.088454
1045.381596	0.088367
1045.548579	0.088899
1045.715544	0.088348
1045.882491	0.089157
1046.049420	0.089121
1046.216330	0.089843
1046.383222	0.089522
1046.550096	0.090799
1046.716951	0.091387
1046.883789	0.092743
1047.050608	0.092844
1047.217409	0.091927
1047.384192	0.090459
1047.550956	0.090919
1047.717703	0.091839
1047.884431	0.092288
1048.051140	0.092946
1048.217832	0.092545
1048.384505	0.090950
1048.551161	0.091153
1048.717798	0.092038
1048.884416	0.093385
1049.051017	0.092815
1049.217599	0.092296
1049.384163	0.092093
1049.550709	0.092202
1049.717237	0.092367
1049.883746	0.093456
1050.050237	0.091379
1050.216710	0.091558
1050.383165	0.093134
1050.549601	0.091566
1050.716019	0.089695
1050.882420	0.091201
1051.048801	0.091029
1051.215165	0.092031
1051.381510	0.091097
1051.547837	0.092091
1051.714146	0.090944
1051.880437	0.089684
1052.046709	0.091444
1052.212964	0.091442
1052.379200	0.090292
1052.545417	0.090470
1052.711617	0.089535
1052.877798	0.088410
1053.043961	0.087278
1053.210106	0.088515
1053.376233	0.088142
1053.542341	0.086518
1053.708432	0.086457
1053.874504	0.086897
1054.040557	0.085196
1054.206593	0.084491
1054.372610	0.086631
1054.538609	0.086923
1054.704590	0.085809
1054.870553	0.085793
1055.036497	0.086906
1055.202424	0.088515
1055.368331	0.089195
1055.534221	0.090094
1055.700093	0.091055
1055.865946	0.089982
1056.031781	0.089542
1056.197598	0.089758
1056.363397	0.090952
1056.529177	0.090735
1056.694939	0.089973
1056.860683	0.088500
1057.026409	0.087708
1057.192116	0.087209
1057.357806	0.087047
1057.523477	0.088334
1057.689130	0.089083
1057.854764	0.088580
1058.020381	0.089387
1058.185979	0.092523
1058.351559	0.092539
1058.517120	0.093450
1058.682664	0.092259
1058.848189	0.092755
1059.013696	0.093840
1059.179185	0.092531
1059.344656	0.091025
1059.510108	0.091046
1059.675542	0.089071
1059.840958	0.089419
1060.006356	0.090117
1060.171735	0.091391
1060.337096	0.091275
1060.502439	0.089756
1060.667764	0.091641
1060.833071	0.090787
1060.998359	0.091312
1061.163629	0.090549
1061.328881	0.089365
1061.494115	0.089760
1061.659330	0.090733
1061.824527	0.090336
1061.989706	0.088684
1062.154867	0.085738
1062.320010	0.086761
1062.485134	0.084570
1062.650240	0.085296
1062.815328	0.087194
1062.980398	0.085763
1063.145449	0.084139
1063.310482	0.084642
1063.475497	0.086586
1063.640494	0.088443
1063.805473	0.089051
1063.970433	0.088506
1064.135375	0.089013
1064.300299	0.088754
1064.465204	0.088735
1064.630092	0.089349
1064.794961	0.090717
1064.959812	0.091616
1065.124645	0.093032
1065.289459	0.092030
1065.454256	0.092799
1065.619034	0.093809
1065.783793	0.091744
1065.948535	0.093555
1066.113258	0.093825
1066.277964	0.090845
1066.442651	0.091772
1066.607319	0.089448
1066.771970	0.091110
1066.936602	0.090436
1067.101216	0.090386
1067.265812	0.091787
1067.430389	0.089321
1067.594949	0.090356
1067.759490	0.092880
1067.924013	0.091655
1068.088518	0.093706
1068.253004	0.092488
1068.417472	0.094934
1068.581922	0.093607
1068.746354	0.093973
1068.910768	0.096424
1069.075163	0.096140
1069.239540	0.096086
1069.403899	0.094807
1069.568240	0.095651
1069.732562	0.098077
1069.896866	0.097373
1070.061152	0.099196
1070.225420	0.099089
1070.389670	0.097130
1070.553901	0.095840
1070.718114	0.095798
1070.882309	0.098076
1071.046486	0.098947
1071.210644	0.095211
1071.374784	0.094975
1071.538906	0.093139
1071.703010	0.092152
1071.867096	0.094484
1072.031163	0.096153
1072.195212	0.095300
1072.359243	0.094627
1072.523256	0.090923
1072.687250	0.090610
1072.851226	0.090807
1073.015184	0.089912
1073.179124	0.091267
1073.343045	0.090378
1073.506949	0.088677
1073.670834	0.089935
1073.834701	0.090084
1073.998549	0.092350
1074.162380	0.091678
1074.326192	0.090616
1074.489986	0.091719
1074.653761	0.093013
1074.817519	0.093848
1074.981258	0.095179
1075.144979	0.091845
1075.308682	0.093243
1075.472367	0.092652
1075.636033	0.097555
1075.799681	0.096869
1075.963311	0.096181
1076.126923	0.093293
1076.290516	0.091813
1076.454092	0.090746
1076.617649	0.093476
1076.781187	0.092409
1076.944708	0.093806
1077.108210	0.089826
1077.271695	0.090757
1077.435160	0.091916
1077.598608	0.091237
1077.762038	0.090646
1077.925449	0.091101
1078.088842	0.090578
1078.252217	0.091196
1078.415573	0.091026
1078.578912	0.096746
1078.742232	0.097860
1078.905534	0.098040
1079.068817	0.099601
1079.232083	0.102068
1079.395330	0.100510
1079.558559	0.101389
1079.721770	0.099732
1079.884962	0.098447
1080.048136	0.095121
1080.211293	0.094139
1080.374430	0.094771
1080.537550	0.095536
1080.700651	0.096212
1080.863735	0.097092
1081.026800	0.095362
1081.189846	0.093607
1081.352875	0.096045
1081.515885	0.096597
1081.678877	0.098836
1081.841851	0.097745
1082.004807	0.098490
1082.167744	0.098389
1082.330663	0.100208
1082.493564	0.103100
1082.656447	0.105442
1082.819312	0.103839
1082.982158	0.103792
1083.144986	0.101644
1083.307796	0.101915
1083.470587	0.101441
1083.633361	0.100784
1083.796116	0.100717
1083.958853	0.098831
1084.121571	0.099081
1084.284272	0.098470
1084.446954	0.097577
1084.609618	0.097460
1084.772264	0.098372
1084.934892	0.099237
1085.097501	0.099469
1085.260092	0.096917
1085.422665	0.096645
1085.585220	0.096892
1085.747756	0.096829
1085.910274	0.097721
1086.072774	0.097993
1086.235256	0.096636
1086.397720	0.095450
1086.560165	0.096178
1086.722592	0.097261
1086.885001	0.097313
1087.047392	0.098986
1087.209764	0.098811
1087.372119	0.099895
1087.534455	0.099960
1087.696772	0.097965
1087.859072	0.098151
1088.021353	0.093203
1088.183616	0.094626
1088.345861	0.097543
1088.508088	0.098090
1088.670296	0.099705
1088.832486	0.097817
1088.994658	0.097607
1089.156812	0.100833
1089.318948	0.101387
1089.481065	0.102454
1089.643164	0.102343
1089.805245	0.099971
1089.967308	0.096795
1090.129352	0.095558
1090.291378	0.097084
1090.453386	0.096186
1090.615376	0.093952
1090.777347	0.094035
1090.939301	0.096251
1091.101236	0.095477
1091.263153	0.095553
1091.425051	0.095013
1091.586932	0.095135
1091.748794	0.096637
1091.910638	0.095807
1092.072463	0.096066
1092.234271	0.095418
1092.396060	0.095963
1092.557831	0.095754
1092.719584	0.094870
1092.881319	0.094223
1093.043035	0.095068
1093.204733	0.093847
1093.366413	0.098011
1093.528075	0.099995
1093.689718	0.101717
1093.851343	0.100243
1094.012950	0.099673
1094.174539	0.101851
1094.336110	0.104922
1094.497662	0.106922
1094.659196	0.108186
1094.820712	0.109444
1094.982210	0.108866
1095.143689	0.105104
1095.305151	0.106876
1095.466594	0.106917
1095.628018	0.106577
1095.789425	0.106503
1095.950813	0.104227
1096.112183	0.103110
1096.273535	0.101322
1096.434869	0.103951
1096.596184	0.105553
1096.757482	0.106716
1096.918761	0.111266
1097.080021	0.113747
1097.241264	0.113324
1097.402488	0.111224
1097.563694	0.109242
1097.724882	0.109301
1097.886052	0.108575
1098.047203	0.111097
1098.208336	0.104970
1098.369451	0.100475
1098.530548	0.096869
1098.691627	0.096514
1098.852687	0.100519
1099.013729	0.100973
1099.174753	0.100724
1099.335758	0.097849
1099.496746	0.096528
1099.657715	0.102187
1099.818666	0.104025
1099.979599	0.102379
1100.140513	0.100332
1100.301409	0.096151
1100.462287	0.095741
1100.623147	0.097110
1100.783989	0.095854
1100.944812	0.098130
1101.105617	0.095615
1101.266404	0.096685
1101.427173	0.096160
1101.587923	0.098777
1101.748656	0.098098
1101.909370	0.097922
1102.070066	0.096237
1102.230743	0.095591
1102.391403	0.091333
1102.552044	0.093988
1102.712667	0.094209
1102.873271	0.099865
1103.033858	0.098908
1103.194426	0.102264
1103.354976	0.103662
1103.515508	0.102259
1103.676021	0.105608
1103.836517	0.109380
1103.996994	0.105965
1104.157453	0.104928
1104.317893	0.103802
1104.478316	0.104323
1104.638720	0.103550
1104.799106	0.105178
1104.959474	0.108339
1105.119823	0.104676
1105.280155	0.101704
1105.440468	0.101590
1105.600763	0.103262
1105.761039	0.101416
1105.921298	0.102584
1106.081538	0.103858
1106.241760	0.100642
1106.401964	0.099351
1106.562149	0.103159
1106.722316	0.103912
1106.882465	0.109130
1107.042596	0.106693
1107.202709	0.107241
1107.362803	0.105820
1107.522879	0.103764
1107.682937	0.105419
1107.842977	0.105216
1108.002999	0.103824
1108.163002	0.102665
1108.322987	0.099227
1108.482954	0.102512
1108.642902	0.103097
1108.802833	0.101945
1108.962745	0.103388
1109.122639	0.104292
1109.282515	0.103688
1109.442372	0.106571
1109.602211	0.107922
1109.762032	0.106888
1109.921835	0.101706
1110.081620	0.098306
1110.241386	0.098678
1110.401134	0.100967
1110.560864	0.099665
1110.720576	0.099447
1110.880269	0.098536
1111.039945	0.099221
1111.199602	0.100312
1111.359240	0.102465
1111.518861	0.105730
1111.678463	0.106328
1111.838047	0.105207
1111.997613	0.104788
1112.157161	0.107195
1112.316690	0.109153
1112.476202	0.108327
1112.635695	0.107181
1112.795169	0.110217
1112.954626	0.109821
1113.114064	0.113315
1113.273484	0.110993
1113.432886	0.113580
1113.592270	0.112312
1113.751635	0.110241
1113.910983	0.109558
1114.070312	0.107742
1114.229622	0.104117
1114.388915	0.104695
1114.548189	0.097635
1114.707445	0.097762
1114.866683	0.096478
1115.025903	0.097536
1115.185104	0.095230
1115.344287	0.097037
1115.503452	0.104192
1115.662599	0.106780
1115.821727	0.107845
1115.980838	0.111316
1116.139930	0.112634
1116.299004	0.110260
1116.458059	0.111337
1116.617097	0.108636
1116.776116	0.108045
1116.935117	0.105949
1117.094099	0.104188
1117.253064	0.103710
1117.412010	0.103595
1117.570938	0.104849
1117.729848	0.107455
1117.888740	0.104302
1118.047613	0.109735
1118.206468	0.113024
1118.365305	0.109927
1118.524124	0.112080
1118.682924	0.110154
1118.841707	0.113776
1119.000471	0.110991
1119.159216	0.111286
1119.317944	0.116518
1119.476653	0.114586
1119.635344	0.111911
1119.794017	0.113249
1119.952672	0.111123
1120.111308	0.109802
1120.269927	0.110945
1120.428527	0.110832
1120.587108	0.107527
1120.745672	0.100586
1120.904217	0.102910
1121.062744	0.100238
1121.221253	0.099747
1121.379744	0.098765
1121.538216	0.102115
1121.696671	0.098436
1121.855107	0.099815
1122.013524	0.101456
1122.171924	0.104834
1122.330305	0.100545
1122.488668	0.104223
1122.647013	0.105545
1122.805340	0.107225
1122.963648	0.103060
1123.121938	0.105820
1123.280210	0.103866
1123.438464	0.104312
1123.596700	0.103479
1123.754917	0.108903
1123.913116	0.108485
1124.071297	0.106694
1124.229459	0.107262
1124.387604	0.113791
1124.545730	0.111048
1124.703838	0.115523
1124.861928	0.120901
1125.019999	0.121961
1125.178052	0.121163
1125.336088	0.116582
1125.494104	0.116364
1125.652103	0.115769
1125.810083	0.111799
1125.968045	0.117355
1126.125989	0.115820
1126.283915	0.108681
1126.441823	0.112741
1126.599712	0.113227
1126.757583	0.113546
1126.915436	0.112907
1127.073270	0.111222
1127.231087	0.114709
1127.388885	0.109128
1127.546665	0.107553
1127.704426	0.106365
1127.862170	0.102252
1128.019895	0.099468
1128.177602	0.104724
1128.335291	0.102854
1128.492961	0.102724
1128.650614	0.096459
1128.808248	0.092997
1128.965864	0.091044
1129.123461	0.092435
1129.281041	0.092198
1129.438602	0.094748
1129.596145	0.089157
1129.753670	0.089574
1129.911176	0.090172
1130.068665	0.094560
1130.226135	0.100889
1130.383587	0.101241
1130.541020	0.105154
1130.698436	0.104705
1130.855833	0.102039
1131.013212	0.106476
1131.170573	0.108659
1131.327915	0.106680
1131.485239	0.106424
1131.642545	0.104753
1131.799833	0.109277
1131.957103	0.103180
1132.114354	0.107258
1132.271588	0.108221
1132.428803	0.103855
1132.585999	0.106952
1132.743178	0.113886
1132.900338	0.114897
1133.057480	0.113215
1133.214604	0.109480
1133.371710	0.114372
1133.528797	0.107380
1133.685866	0.106397
1133.842917	0.108062
1133.999950	0.105629
1134.156964	0.103861
1134.313960	0.101664
1134.470938	0.104231
1134.627898	0.106976
1134.784840	0.105417
1134.941763	0.111945
1135.098668	0.112714
1135.255555	0.110986
1135.412424	0.105273
1135.569274	0.102100
1135.726107	0.105234
1135.882921	0.102710
1136.039716	0.100547
1136.196494	0.104927
1136.353253	0.099322
1136.509995	0.099080
1136.666717	0.104093
1136.823422	0.104741
1136.980109	0.099884
1137.136777	0.098584
1137.293427	0.103137
1137.450059	0.108060
1137.606672	0.102810
1137.763267	0.102988
1137.919844	0.102466
1138.076403	0.102277
1138.232944	0.108465
1138.389466	0.113394
1138.545971	0.108535
1138.702457	0.109727
1138.858924	0.110745
1139.015374	0.109870
1139.171805	0.110119
1139.328218	0.108964
1139.484613	0.112939
1139.640990	0.110814
1139.797348	0.109511
1139.953688	0.117297
1140.110010	0.108591
1140.266314	0.104618
1140.422600	0.108339
1140.578867	0.108128
1140.735116	0.109226
1140.891347	0.098962
1141.047559	0.098910
1141.203754	0.100853
1141.359930	0.097400
1141.516088	0.104800
1141.672228	0.101809
1141.828349	0.100196
1141.984452	0.106266
1142.140537	0.106106
1142.296604	0.110020
1142.452653	0.111130
1142.608683	0.107004
1142.764695	0.108502
1142.920689	0.108506
1143.076665	0.110761
1143.232622	0.108755
1143.388562	0.103079
1143.544483	0.106699
1143.700385	0.108498
1143.856270	0.107839
1144.012136	0.112380
1144.167985	0.110275
1144.323814	0.106202
1144.479626	0.105171
1144.635420	0.111109
1144.791195	0.110934
1144.946952	0.111011
1145.102691	0.108130
1145.258411	0.107541
1145.414113	0.106551
1145.569798	0.108367
1145.725463	0.113008
1145.881111	0.114496
1146.036741	0.110187
1146.192352	0.112704
1146.347945	0.108133
1146.503519	0.110893
1146.659076	0.113687
1146.814614	0.114685
1146.970134	0.111021
1147.125636	0.105975
1147.281120	0.103654
1147.436585	0.107212
1147.592032	0.110449
1147.747461	0.114992
1147.902872	0.113954
1148.058265	0.112201
1148.213639	0.113204
1148.368995	0.111480
1148.524333	0.111668
1148.679653	0.111959
1148.834954	0.108093
1148.990237	0.103615
1149.145502	0.102254
1149.300749	0.102968
1149.455977	0.102015
1149.611188	0.103086
1149.766380	0.104944
1149.921553	0.105178
1150.076709	0.109839
1150.231846	0.111257
1150.386966	0.115399
1150.542066	0.111219
1150.697149	0.106606
1150.852214	0.108102
1151.007260	0.098046
1151.162288	0.097814
1151.317298	0.098619
1151.472289	0.094668
1151.627263	0.094810
1151.782218	0.093684
1151.937155	0.095434
1152.092073	0.095759
1152.246974	0.095948
1152.401856	0.103248
1152.556720	0.099741
1152.711566	0.096555
1152.866393	0.094928
1153.021203	0.090473
1153.175994	0.091578
1153.330767	0.092779
1153.485521	0.096016
1153.640258	0.096086
1153.794976	0.095769
1153.949676	0.096244
1154.104358	0.095731
1154.259021	0.095518
1154.413667	0.097320
1154.568294	0.089215
1154.722903	0.089679
1154.877493	0.091915
1155.032066	0.089139
1155.186620	0.093140
1155.341156	0.092790
1155.495674	0.094353
1155.650173	0.093135
1155.804654	0.093295
1155.959118	0.098881
1156.113562	0.097535
1156.267989	0.098433
1156.422397	0.102168
1156.576788	0.101607
1156.731160	0.103842
1156.885513	0.109442
1157.039849	0.113853
1157.194166	0.113605
1157.348465	0.116328
1157.502746	0.116901
1157.657009	0.116301
1157.811253	0.121994
1157.965479	0.116302
1158.119687	0.113850
1158.273877	0.111425
1158.428048	0.107616
1158.582201	0.109324
1158.736337	0.105598
1158.890453	0.096239
1159.044552	0.091489
1159.198632	0.085922
1159.352694	0.091993
1159.506738	0.102374
1159.660764	0.094438
1159.814771	0.100487
1159.968761	0.101626
1160.122732	0.096121
1160.276685	0.107886
1160.430619	0.118220
1160.584535	0.117226
1160.738434	0.118779
1160.892313	0.113581
1161.046175	0.114845
1161.200019	0.106141
1161.353844	0.106396
1161.507651	0.109047
1161.661440	0.101948
1161.815210	0.094405
1161.968962	0.094701
1162.122697	0.087891
1162.276412	0.084359
1162.430110	0.088264
1162.583789	0.090444
1162.737451	0.084893
1162.891094	0.083421
1163.044718	0.087901
1163.198325	0.081772
1163.351913	0.069449
1163.505483	0.071598
1163.659035	0.078035
1163.812569	0.076674
1163.966084	0.080971
1164.119581	0.079627
1164.273060	0.086718
1164.426521	0.087679
1164.579964	0.090281
1164.733388	0.097672
1164.886794	0.098164
1165.040182	0.090438
1165.193551	0.092362
1165.346903	0.085703
1165.500236	0.096923
1165.653551	0.090097
1165.806848	0.089324
1165.960126	0.089277
1166.113386	0.088150
1166.266628	0.082652
1166.419852	0.082967
1166.573058	0.077586
1166.726245	0.083738
1166.879414	0.071459
1167.032565	0.074791
1167.185698	0.076563
1167.338812	0.076786
1167.491909	0.084075
1167.644987	0.081962
1167.798046	0.085232
1167.951088	0.087229
1168.104111	0.083965
1168.257117	0.095579
1168.410103	0.094196
1168.563072	0.086322
1168.716023	0.089005
1168.868955	0.090282
1169.021869	0.098752
1169.174765	0.094225
1169.327642	0.092670
1169.480501	0.094621
1169.633343	0.097672
1169.786165	0.097582
1169.938970	0.107515
1170.091757	0.105665
1170.244525	0.103100
1170.397275	0.092323
1170.550007	0.099192
1170.702720	0.104075
1170.855415	0.097419
1171.008092	0.081940
1171.160751	0.075798
1171.313392	0.064629
1171.466014	0.035075
1171.618619	0.036999
1171.771205	0.036999
1171.923772	0.036999
