sample name	sample
index	184
start time	 02-18-2021  11:27:42 AM


Wavelength (nm)	Absorbance
494.344910	NaN
494.563924	NaN
494.782919	NaN
495.001897	0.061887
495.220856	0.226968
495.439797	0.178770
495.658719	0.089735
495.877624	0.032757
496.096510	0.002139
496.315378	-0.007058
496.534227	-0.064596
496.753059	-0.052801
496.971872	0.043071
497.190667	0.148969
497.409444	0.150650
497.628203	0.159602
497.846943	0.162281
498.065665	0.164107
498.284369	0.165063
498.503055	0.166775
498.721723	0.167002
498.940372	0.166306
499.159003	0.167046
499.377616	0.168609
499.596210	0.168260
499.814787	0.167680
500.033345	0.167263
500.251885	0.167553
500.470406	0.166766
500.688910	0.166965
500.907395	0.167767
501.125862	0.167999
501.344311	0.167907
501.562742	0.167137
501.781154	0.167131
501.999548	0.167988
502.217924	0.168131
502.436282	0.168050
502.654621	0.169054
502.872942	0.169115
503.091245	0.168987
503.309530	0.167921
503.527797	0.169255
503.746045	0.169567
503.964275	0.168575
504.182487	0.168437
504.400681	0.169206
504.618856	0.168373
504.837013	0.168270
505.055152	0.168333
505.273273	0.170007
505.491376	0.170242
505.709460	0.171103
505.927526	0.171513
506.145574	0.172136
506.363604	0.171441
506.581615	0.171299
506.799608	0.170755
507.017583	0.169807
507.235540	0.169495
507.453478	0.168819
507.671399	0.168262
507.889301	0.168493
508.107185	0.168394
508.325050	0.170212
508.542898	0.171338
508.760727	0.171933
508.978538	0.172773
509.196330	0.172824
509.414105	0.172393
509.631861	0.171960
509.849599	0.172055
510.067319	0.172876
510.285021	0.172147
510.502704	0.171187
510.720369	0.170604
510.938016	0.170722
511.155645	0.171420
511.373255	0.172458
511.590848	0.173657
511.808422	0.173607
512.025977	0.172829
512.243515	0.173689
512.461034	0.174255
512.678536	0.175522
512.896018	0.176827
513.113483	0.176979
513.330930	0.178350
513.548358	0.178261
513.765768	0.179621
513.983160	0.180237
514.200533	0.179433
514.417889	0.179564
514.635226	0.179073
514.852545	0.178868
515.069845	0.178871
515.287128	0.178124
515.504392	0.178606
515.721638	0.179053
515.938866	0.179355
516.156075	0.180563
516.373267	0.181599
516.590440	0.182529
516.807594	0.182953
517.024731	0.183407
517.241850	0.183883
517.458950	0.183846
517.676032	0.183799
517.893095	0.183642
518.110141	0.183031
518.327168	0.182327
518.544177	0.182693
518.761168	0.182461
518.978141	0.182405
519.195095	0.181897
519.412031	0.182169
519.628949	0.182081
519.845849	0.182333
520.062731	0.182055
520.279594	0.182855
520.496439	0.183389
520.713266	0.183416
520.930074	0.183581
521.146865	0.183865
521.363637	0.183887
521.580391	0.184833
521.797127	0.185216
522.013844	0.186582
522.230543	0.186503
522.447224	0.186123
522.663887	0.186781
522.880532	0.187028
523.097158	0.187999
523.313766	0.188371
523.530356	0.188280
523.746928	0.188381
523.963481	0.188355
524.180017	0.188449
524.396534	0.188977
524.613032	0.189194
524.829513	0.189684
525.045975	0.189860
525.262420	0.190206
525.478845	0.190547
525.695253	0.190942
525.911643	0.191124
526.128014	0.191825
526.344367	0.191905
526.560702	0.191406
526.777018	0.191463
526.993316	0.191085
527.209597	0.191211
527.425858	0.191311
527.642102	0.192100
527.858328	0.192615
528.074535	0.193323
528.290724	0.193397
528.506894	0.194043
528.723047	0.194857
528.939181	0.195755
529.155297	0.196504
529.371395	0.196607
529.587475	0.196680
529.803536	0.197107
530.019579	0.197047
530.235604	0.197219
530.451611	0.198430
530.667600	0.198620
530.883570	0.198627
531.099522	0.199201
531.315456	0.199728
531.531372	0.199625
531.747269	0.199730
531.963148	0.199438
532.179009	0.200388
532.394852	0.200085
532.610676	0.199606
532.826482	0.200538
533.042271	0.200723
533.258040	0.200709
533.473792	0.201236
533.689525	0.202001
533.905240	0.202938
534.120937	0.203183
534.336616	0.203463
534.552277	0.204308
534.767919	0.203819
534.983543	0.204274
535.199149	0.205165
535.414736	0.205553
535.630306	0.205781
535.845857	0.205855
536.061390	0.205485
536.276904	0.205627
536.492401	0.206291
536.707879	0.206843
536.923339	0.206655
537.138781	0.206382
537.354204	0.206631
537.569610	0.206057
537.784997	0.205823
538.000366	0.206937
538.215716	0.207257
538.431049	0.206956
538.646363	0.206959
538.861659	0.207407
539.076937	0.207878
539.292196	0.207675
539.507438	0.208657
539.722661	0.209339
539.937866	0.209965
540.153052	0.210776
540.368221	0.210970
540.583371	0.212297
540.798503	0.212362
541.013617	0.212971
541.228712	0.213968
541.443789	0.214139
541.658848	0.214182
541.873889	0.213877
542.088912	0.214108
542.303916	0.214887
542.518902	0.213852
542.733870	0.214682
542.948820	0.214788
543.163752	0.214472
543.378665	0.215107
543.593560	0.215654
543.808437	0.215871
544.023295	0.215759
544.238136	0.215304
544.452958	0.216164
544.667762	0.216104
544.882548	0.216592
545.097315	0.216822
545.312064	0.216755
545.526795	0.217368
545.741508	0.217515
545.956203	0.218079
546.170879	0.218702
546.385537	0.219211
546.600177	0.219387
546.814799	0.219421
547.029402	0.220060
547.243988	0.220839
547.458555	0.221351
547.673103	0.222314
547.887634	0.222375
548.102146	0.222524
548.316640	0.222307
548.531116	0.222724
548.745574	0.223401
548.960013	0.223606
549.174435	0.223144
549.388838	0.222656
549.603222	0.222473
549.817589	0.222839
550.031937	0.223757
550.246267	0.224475
550.460579	0.224838
550.674873	0.225062
550.889148	0.224835
551.103405	0.224926
551.317644	0.225429
551.531865	0.225580
551.746068	0.225679
551.960252	0.225536
552.174418	0.225814
552.388566	0.225520
552.602696	0.225265
552.816807	0.226477
553.030900	0.226850
553.244975	0.226603
553.459032	0.227095
553.673070	0.227594
553.887091	0.227594
554.101093	0.227653
554.315077	0.227955
554.529042	0.228286
554.742990	0.227747
554.956919	0.228583
555.170830	0.229137
555.384722	0.229338
555.598597	0.229717
555.812453	0.230460
556.026291	0.230282
556.240111	0.230519
556.453913	0.231048
556.667696	0.231619
556.881461	0.231327
557.095208	0.231646
557.308937	0.231683
557.522647	0.231696
557.736339	0.231388
557.950013	0.232134
558.163669	0.232531
558.377307	0.232478
558.590926	0.232615
558.804527	0.232946
559.018110	0.233320
559.231675	0.233724
559.445221	0.233754
559.658749	0.234492
559.872259	0.234246
560.085751	0.234619
560.299225	0.234635
560.512680	0.234987
560.726117	0.235039
560.939536	0.234765
561.152937	0.234571
561.366319	0.234773
561.579683	0.234836
561.793029	0.235099
562.006357	0.235412
562.219667	0.235686
562.432958	0.235777
562.646231	0.235972
562.859486	0.236626
563.072723	0.236950
563.285941	0.237310
563.499141	0.237224
563.712323	0.237766
563.925487	0.238035
564.138632	0.238227
564.351760	0.238813
564.564869	0.239280
564.777960	0.239807
564.991032	0.240130
565.204087	0.240234
565.417123	0.240363
565.630141	0.240808
565.843140	0.240855
566.056122	0.240998
566.269085	0.241036
566.482030	0.241331
566.694957	0.241024
566.907866	0.241266
567.120756	0.241658
567.333628	0.241780
567.546482	0.241603
567.759318	0.241466
567.972135	0.242194
568.184935	0.242313
568.397716	0.242164
568.610478	0.242384
568.823223	0.242571
569.035949	0.242861
569.248657	0.243514
569.461347	0.244125
569.674019	0.244380
569.886672	0.244101
570.099308	0.244235
570.311925	0.244645
570.524523	0.245001
570.737104	0.244994
570.949666	0.245093
571.162210	0.245161
571.374736	0.245128
571.587244	0.245535
571.799733	0.246541
572.012205	0.246913
572.224658	0.246762
572.437092	0.246718
572.649509	0.247314
572.861907	0.247517
573.074287	0.247655
573.286649	0.247579
573.498993	0.247545
573.711318	0.246645
573.923625	0.247094
574.135914	0.247730
574.348185	0.248011
574.560438	0.247845
574.772672	0.247848
574.984888	0.247829
575.197086	0.248163
575.409266	0.248103
575.621427	0.248487
575.833570	0.248063
576.045695	0.247869
576.257802	0.248338
576.469890	0.248507
576.681961	0.248668
576.894013	0.248869
577.106046	0.248422
577.318062	0.248689
577.530059	0.249334
577.742039	0.249418
577.954000	0.249963
578.165942	0.249834
578.377867	0.250044
578.589773	0.250154
578.801661	0.250687
579.013531	0.251498
579.225382	0.252322
579.437216	0.251948
579.649031	0.252530
579.860828	0.252578
580.072606	0.252557
580.284367	0.252635
580.496109	0.253334
580.707833	0.253567
580.919539	0.253768
581.131227	0.253841
581.342896	0.254444
581.554547	0.254404
581.766180	0.254565
581.977795	0.254970
582.189391	0.255350
582.400969	0.254938
582.612529	0.254794
582.824071	0.254748
583.035595	0.254654
583.247100	0.254669
583.458587	0.255041
583.670056	0.255339
583.881506	0.255668
584.092939	0.255781
584.304353	0.256212
584.515749	0.256724
584.727127	0.256705
584.938486	0.256966
585.149828	0.257063
585.361151	0.257450
585.572456	0.257157
585.783742	0.257017
585.995011	0.257416
586.206261	0.257696
586.417493	0.257553
586.628706	0.257809
586.839902	0.257971
587.051079	0.258603
587.262238	0.258525
587.473379	0.259426
587.684502	0.259969
587.895606	0.259923
588.106692	0.259643
588.317760	0.260308
588.528810	0.260636
588.739841	0.260756
588.950855	0.260484
589.161850	0.260336
589.372827	0.260203
589.583785	0.260376
589.794726	0.260933
590.005648	0.261676
590.216552	0.261564
590.427437	0.262031
590.638305	0.262762
590.849154	0.262893
591.059985	0.263375
591.270798	0.263926
591.481592	0.264303
591.692369	0.263973
591.903127	0.264165
592.113867	0.264374
592.324588	0.264498
592.535292	0.264383
592.745977	0.264581
592.956644	0.264633
593.167293	0.264384
593.377923	0.264497
593.588536	0.265070
593.799130	0.265191
594.009706	0.265375
594.220263	0.265593
594.430803	0.265728
594.641324	0.265808
594.851827	0.266150
595.062312	0.266076
595.272778	0.266188
595.483227	0.266248
595.693657	0.265978
595.904069	0.266066
596.114462	0.266119
596.324838	0.266173
596.535195	0.266935
596.745534	0.267122
596.955855	0.267743
597.166157	0.267762
597.376441	0.268141
597.586707	0.268645
597.796955	0.269208
598.007185	0.269707
598.217396	0.270315
598.427589	0.270335
598.637764	0.270749
598.847921	0.271042
599.058060	0.271519
599.268180	0.271476
599.478282	0.271697
599.688366	0.271302
599.898431	0.271093
600.108479	0.270979
600.318508	0.271424
600.528519	0.271191
600.738511	0.270828
600.948486	0.271012
601.158442	0.271411
601.368380	0.271612
601.578300	0.272195
601.788202	0.272634
601.998085	0.272726
602.207950	0.272798
602.417797	0.273413
602.627626	0.274032
602.837436	0.274261
603.047228	0.274353
603.257002	0.274385
603.466758	0.274353
603.676496	0.274600
603.886215	0.274675
604.095916	0.274491
604.305599	0.274444
604.515264	0.274750
604.724910	0.274547
604.934538	0.274860
605.144148	0.275175
605.353740	0.275327
605.563314	0.275296
605.772869	0.275491
605.982406	0.275947
606.191925	0.276467
606.401425	0.276421
606.610908	0.276827
606.820372	0.277099
607.029818	0.277284
607.239246	0.277509
607.448655	0.277828
607.658047	0.277905
607.867420	0.277773
608.076775	0.277653
608.286111	0.277647
608.495430	0.277966
608.704730	0.277859
608.914012	0.278060
609.123275	0.278192
609.332521	0.278309
609.541748	0.278775
609.750957	0.279079
609.960148	0.279177
610.169321	0.279104
610.378475	0.279150
610.587611	0.279114
610.796729	0.279226
611.005829	0.279373
611.214910	0.279343
611.423974	0.279470
611.633019	0.279772
611.842045	0.279711
612.051054	0.280337
612.260044	0.280209
612.469017	0.280553
612.677970	0.280580
612.886906	0.281146
613.095824	0.281389
613.304723	0.281292
613.513604	0.281367
613.722467	0.281586
613.931311	0.281506
614.140138	0.281818
614.348946	0.281955
614.557736	0.282280
614.766507	0.282407
614.975261	0.282674
615.183996	0.282894
615.392713	0.283212
615.601412	0.283741
615.810092	0.284216
616.018754	0.284353
616.227399	0.284496
616.436024	0.284762
616.644632	0.284591
616.853222	0.284852
617.061793	0.285108
617.270346	0.284796
617.478880	0.284846
617.687397	0.284861
617.895895	0.284812
618.104375	0.284676
618.312837	0.284600
618.521281	0.284851
618.729706	0.284728
618.938113	0.284863
619.146502	0.285379
619.354873	0.285266
619.563226	0.285466
619.771560	0.285879
619.979876	0.285963
620.188174	0.286217
620.396453	0.286334
620.604715	0.286407
620.812958	0.286672
621.021183	0.286587
621.229390	0.286954
621.437578	0.287143
621.645748	0.287380
621.853900	0.287935
622.062034	0.287958
622.270150	0.288110
622.478247	0.288562
622.686326	0.288348
622.894387	0.288642
623.102430	0.288888
623.310454	0.289087
623.518461	0.288925
623.726449	0.289096
623.934418	0.289430
624.142370	0.289694
624.350303	0.289526
624.558218	0.290084
624.766115	0.290199
624.973994	0.290071
625.181855	0.290552
625.389697	0.290977
625.597521	0.291028
625.805327	0.290997
626.013114	0.291101
626.220883	0.291701
626.428634	0.291936
626.636367	0.292138
626.844082	0.292559
627.051778	0.292064
627.259457	0.292254
627.467117	0.292328
627.674758	0.292675
627.882382	0.292852
628.089987	0.292815
628.297574	0.292609
628.505143	0.292844
628.712694	0.292830
628.920226	0.293121
629.127740	0.293165
629.335236	0.293634
629.542714	0.293928
629.750174	0.294034
629.957615	0.294096
630.165038	0.294645
630.372443	0.294822
630.579829	0.295270
630.787198	0.295554
630.994548	0.295931
631.201880	0.296133
631.409194	0.296123
631.616489	0.296396
631.823766	0.296917
632.031025	0.297026
632.238266	0.297414
632.445489	0.297351
632.652693	0.297524
632.859879	0.297582
633.067047	0.297887
633.274197	0.297947
633.481329	0.298107
633.688442	0.298089
633.895537	0.298264
634.102614	0.298293
634.309672	0.298639
634.516713	0.298690
634.723735	0.298892
634.930739	0.298786
635.137724	0.299231
635.344692	0.299307
635.551641	0.299272
635.758572	0.299065
635.965485	0.298833
636.172379	0.298867
636.379256	0.298952
636.586114	0.299212
636.792954	0.299314
636.999775	0.299357
637.206579	0.299644
637.413364	0.299998
637.620131	0.300452
637.826880	0.301072
638.033610	0.301430
638.240323	0.301778
638.447017	0.301739
638.653692	0.302053
638.860350	0.302093
639.066990	0.302212
639.273611	0.302437
639.480214	0.302697
639.686798	0.302862
639.893365	0.302799
640.099913	0.302918
640.306443	0.303521
640.512955	0.303483
640.719449	0.303827
640.925924	0.303926
641.132381	0.304110
641.338820	0.304233
641.545241	0.304101
641.751644	0.304277
641.958028	0.304412
642.164394	0.304128
642.370742	0.304565
642.577071	0.304518
642.783383	0.304672
642.989676	0.305014
643.195951	0.305304
643.402207	0.305821
643.608446	0.306150
643.814666	0.306476
644.020868	0.306629
644.227052	0.306721
644.433218	0.307318
644.639365	0.307703
644.845494	0.307844
645.051605	0.307757
645.257698	0.307821
645.463772	0.308155
645.669828	0.308222
645.875866	0.308636
646.081886	0.308904
646.287888	0.309003
646.493871	0.309013
646.699836	0.309154
646.905783	0.309603
647.111712	0.309724
647.317622	0.309970
647.523514	0.310492
647.729388	0.310628
647.935244	0.310725
648.141082	0.310930
648.346901	0.311077
648.552702	0.311432
648.758485	0.311762
648.964250	0.311863
649.169996	0.311821
649.375724	0.311799
649.581434	0.312324
649.787126	0.312716
649.992800	0.312626
650.198455	0.313059
650.404092	0.313175
650.609711	0.313127
650.815311	0.313565
651.020894	0.313706
651.226458	0.314048
651.432004	0.313903
651.637532	0.313847
651.843041	0.314267
652.048532	0.314406
652.254006	0.314461
652.459460	0.314651
652.664897	0.314711
652.870315	0.315093
653.075716	0.315082
653.281097	0.315379
653.486461	0.315778
653.691807	0.316149
653.897134	0.316465
654.102443	0.316495
654.307734	0.316994
654.513006	0.317239
654.718261	0.317233
654.923497	0.317285
655.128715	0.317630
655.333915	0.317451
655.539096	0.317519
655.744259	0.317669
655.949404	0.318280
656.154531	0.318156
656.359640	0.318494
656.564730	0.318860
656.769802	0.319483
656.974856	0.319667
657.179892	0.320215
657.384909	0.320483
657.589908	0.320639
657.794889	0.320652
657.999852	0.320931
658.204797	0.321255
658.409723	0.321726
658.614631	0.322105
658.819521	0.322344
659.024393	0.322580
659.229246	0.322652
659.434081	0.322800
659.638898	0.323091
659.843697	0.323222
660.048478	0.323261
660.253240	0.323294
660.457984	0.323445
660.662710	0.323443
660.867417	0.323797
661.072107	0.324213
661.276778	0.324631
661.481431	0.324782
661.686066	0.325134
661.890682	0.325418
662.095281	0.325746
662.299861	0.325799
662.504422	0.326182
662.708966	0.326044
662.913491	0.326135
663.117999	0.326389
663.322488	0.326685
663.526958	0.327226
663.731411	0.327523
663.935845	0.327527
664.140261	0.327616
664.344659	0.327827
664.549038	0.328344
664.753400	0.328490
664.957743	0.328627
665.162068	0.328777
665.366375	0.328807
665.570663	0.328740
665.774933	0.328929
665.979185	0.329389
666.183419	0.329599
666.387635	0.329521
666.591832	0.329886
666.796011	0.330109
667.000172	0.330107
667.204315	0.330220
667.408439	0.330822
667.612545	0.330975
667.816634	0.330989
668.020703	0.330984
668.224755	0.331334
668.428788	0.331507
668.632803	0.331863
668.836800	0.332105
669.040779	0.332318
669.244739	0.332349
669.448681	0.332661
669.652605	0.332910
669.856511	0.333333
670.060399	0.333547
670.264268	0.333643
670.468119	0.333635
670.671952	0.333965
670.875767	0.334101
671.079563	0.334136
671.283341	0.334470
671.487101	0.334750
671.690843	0.335222
671.894567	0.335591
672.098272	0.336080
672.301959	0.336397
672.505628	0.336637
672.709278	0.337005
672.912911	0.337428
673.116525	0.337880
673.320121	0.338130
673.523699	0.338153
673.727258	0.338169
673.930799	0.338164
674.134322	0.338365
674.337827	0.338650
674.541314	0.338852
674.744782	0.339278
674.948232	0.339402
675.151664	0.339838
675.355078	0.340000
675.558474	0.340317
675.761851	0.340786
675.965210	0.341278
676.168551	0.341739
676.371873	0.341755
676.575178	0.341792
676.778464	0.341649
676.981732	0.341877
677.184981	0.342048
677.388213	0.342528
677.591426	0.342632
677.794621	0.342793
677.997798	0.342832
678.200956	0.343190
678.404097	0.343697
678.607219	0.344198
678.810323	0.344257
679.013408	0.344661
679.216476	0.344813
679.419525	0.345193
679.622556	0.345511
679.825569	0.345798
680.028563	0.346039
680.231540	0.346030
680.434498	0.346387
680.637438	0.346581
680.840359	0.346829
681.043263	0.346880
681.246148	0.346940
681.449015	0.346925
681.651864	0.347050
681.854694	0.347248
682.057506	0.347645
682.260301	0.347671
682.463076	0.347681
682.665834	0.348026
682.868573	0.348509
683.071295	0.348915
683.273998	0.349399
683.476682	0.349866
683.679349	0.350336
683.881997	0.350403
684.084627	0.350770
684.287239	0.351050
684.489833	0.351324
684.692408	0.351087
684.894965	0.351126
685.097504	0.351240
685.300025	0.351433
685.502527	0.351499
685.705012	0.351609
685.907478	0.351755
686.109925	0.351986
686.312355	0.352039
686.514766	0.352560
686.717159	0.352882
686.919534	0.352925
687.121891	0.353005
687.324230	0.353389
687.526550	0.353618
687.728852	0.353850
687.931136	0.354248
688.133401	0.354548
688.335649	0.354650
688.537878	0.355034
688.740089	0.355455
688.942281	0.355677
689.144456	0.355660
689.346612	0.355806
689.548750	0.355993
689.750870	0.356151
689.952971	0.355977
690.155055	0.356435
690.357120	0.356417
690.559167	0.356275
690.761195	0.356446
690.963206	0.356491
691.165198	0.357004
691.367172	0.357040
691.569128	0.357109
691.771065	0.357625
691.972984	0.357669
692.174885	0.358007
692.376768	0.358286
692.578633	0.358410
692.780479	0.358843
692.982308	0.358782
693.184118	0.359194
693.385909	0.359426
693.587683	0.359611
693.789438	0.360010
693.991175	0.360007
694.192894	0.360328
694.394595	0.360650
694.596277	0.360590
694.797941	0.360942
694.999587	0.360893
695.201215	0.361275
695.402824	0.361196
695.604416	0.361419
695.805989	0.361510
696.007543	0.361693
696.209080	0.361442
696.410598	0.361973
696.612099	0.362120
696.813580	0.362328
697.015044	0.362375
697.216490	0.362871
697.417917	0.362715
697.619326	0.362938
697.820717	0.363167
698.022089	0.363375
698.223444	0.363422
698.424780	0.363536
698.626098	0.363730
698.827397	0.364085
699.028679	0.364030
699.229942	0.364163
699.431187	0.364429
699.632414	0.364337
699.833622	0.364883
700.034813	0.365078
700.235985	0.364977
700.437139	0.365215
700.638274	0.365287
700.839392	0.365553
701.040491	0.365825
701.241572	0.365957
701.442635	0.366344
701.643679	0.366435
701.844706	0.366424
702.045714	0.366372
702.246704	0.366373
702.447675	0.366414
702.648629	0.366446
702.849564	0.366323
703.050481	0.366126
703.251380	0.365727
703.452260	0.365551
703.653122	0.365699
703.853966	0.366111
704.054792	0.366204
704.255600	0.366004
704.456389	0.366006
704.657160	0.366349
704.857913	0.366642
705.058648	0.367175
705.259365	0.367259
705.460063	0.367032
705.660743	0.367066
705.861405	0.367143
706.062048	0.367352
706.262674	0.367441
706.463281	0.367362
706.663870	0.367446
706.864441	0.367412
707.064993	0.367621
707.265527	0.367904
707.466043	0.367789
707.666541	0.368067
707.867021	0.368268
708.067482	0.368363
708.267925	0.368418
708.468350	0.368352
708.668757	0.368294
708.869145	0.368069
709.069516	0.368145
709.269868	0.368388
709.470201	0.368092
709.670517	0.367979
709.870814	0.367911
710.071093	0.367964
710.271354	0.368098
710.471597	0.368061
710.671821	0.368315
710.872028	0.368165
711.072216	0.368253
711.272385	0.368416
711.472537	0.368452
711.672670	0.368507
711.872785	0.368719
712.072882	0.368900
712.272961	0.368929
712.473021	0.368750
712.673063	0.368873
712.873087	0.369056
713.073093	0.369099
713.273081	0.369126
713.473050	0.369126
713.673001	0.368630
713.872934	0.368575
714.072849	0.368662
714.272745	0.368689
714.472623	0.368699
714.672483	0.368422
714.872325	0.368225
715.072148	0.368226
715.271954	0.368536
715.471741	0.368817
715.671509	0.368578
715.871260	0.368606
716.070992	0.368740
716.270707	0.368768
716.470403	0.368652
716.670080	0.368699
716.869740	0.368620
717.069381	0.368208
717.269004	0.368131
717.468609	0.368157
717.668195	0.368050
717.867764	0.368085
718.067314	0.367975
718.266846	0.367938
718.466360	0.367857
718.665855	0.367741
718.865332	0.367789
719.064791	0.367935
719.264232	0.367652
719.463655	0.367747
719.663059	0.367599
719.862445	0.367621
720.061813	0.367499
720.261163	0.367301
720.460494	0.367228
720.659807	0.367021
720.859102	0.366776
721.058379	0.366871
721.257638	0.366807
721.456878	0.366861
721.656100	0.366627
721.855304	0.366489
722.054490	0.366778
722.253657	0.366697
722.452806	0.366770
722.651937	0.366753
722.851050	0.366607
723.050145	0.366432
723.249221	0.366165
723.448279	0.366071
723.647319	0.366188
723.846340	0.365806
724.045344	0.365801
724.244329	0.365619
724.443296	0.365439
724.642245	0.365310
724.841175	0.365247
725.040088	0.365127
725.238982	0.365364
725.437857	0.365152
725.636715	0.365123
725.835554	0.364914
726.034376	0.364705
726.233179	0.364723
726.431963	0.364605
726.630730	0.364614
726.829478	0.364652
727.028208	0.364339
727.226920	0.364334
727.425614	0.364144
727.624289	0.364141
727.822946	0.364163
728.021585	0.363645
728.220206	0.363571
728.418808	0.363137
728.617392	0.362852
728.815958	0.362483
729.014506	0.362432
729.213036	0.362213
729.411547	0.362127
729.610040	0.362011
729.808515	0.362156
730.006972	0.361991
730.205410	0.362013
730.403831	0.362084
730.602233	0.362225
730.800616	0.362216
730.998982	0.362126
731.197329	0.361793
731.395658	0.361573
731.593969	0.361384
731.792262	0.361087
731.990536	0.360896
732.188793	0.360870
732.387031	0.360773
732.585250	0.360303
732.783452	0.360201
732.981635	0.360218
733.179800	0.360116
733.377947	0.360082
733.576076	0.360152
733.774186	0.359994
733.972278	0.359702
734.170352	0.359284
734.368408	0.359073
734.566446	0.358974
734.764465	0.358759
734.962466	0.358376
735.160449	0.357921
735.358413	0.357891
735.556360	0.357460
735.754288	0.357055
735.952198	0.356892
736.150090	0.356802
736.347963	0.356558
736.545818	0.356212
736.743655	0.356087
736.941474	0.356114
737.139275	0.355774
737.337057	0.355769
737.534821	0.355553
737.732567	0.355393
737.930295	0.355501
738.128005	0.355631
738.325696	0.355419
738.523369	0.355337
738.721024	0.355203
738.918660	0.355034
739.116279	0.355029
739.313879	0.355259
739.511461	0.355179
739.709024	0.354559
739.906570	0.354110
740.104097	0.354151
740.301606	0.353929
740.499097	0.353854
740.696569	0.353861
740.894024	0.353611
741.091460	0.353262
741.288878	0.353116
741.486277	0.353024
741.683659	0.353106
741.881022	0.352788
742.078367	0.352349
742.275694	0.352135
742.473002	0.351741
742.670293	0.351690
742.867565	0.351581
743.064819	0.351381
743.262054	0.351220
743.459272	0.350982
743.656471	0.351180
743.853652	0.351454
744.050815	0.350862
744.247959	0.350840
744.445085	0.350358
744.642194	0.349974
744.839283	0.349742
745.036355	0.349793
745.233408	0.349379
745.430444	0.348791
745.627461	0.348508
745.824459	0.348522
746.021440	0.348321
746.218402	0.347974
746.415346	0.347874
746.612272	0.347671
746.809180	0.347377
747.006069	0.347015
747.202940	0.346689
747.399793	0.346402
747.596628	0.346241
747.793444	0.346091
747.990243	0.345981
748.187023	0.345561
748.383784	0.345464
748.580528	0.345281
748.777253	0.345225
748.973960	0.345347
749.170649	0.345112
749.367320	0.345018
749.563973	0.344501
749.760607	0.344288
749.957223	0.344222
750.153821	0.343817
750.350400	0.343135
750.546962	0.343097
750.743505	0.342884
750.940030	0.342663
751.136536	0.342228
751.333025	0.342086
751.529495	0.341859
751.725947	0.341824
751.922381	0.341875
752.118796	0.342169
752.315194	0.341637
752.511573	0.341519
752.707934	0.341303
752.904276	0.341161
753.100601	0.340916
753.296907	0.340757
753.493195	0.340180
753.689465	0.339647
753.885716	0.339407
754.081949	0.339465
754.278164	0.339024
754.474361	0.339017
754.670540	0.338710
754.866700	0.338772
755.062843	0.338584
755.258967	0.338620
755.455072	0.338371
755.651160	0.337936
755.847229	0.337822
756.043280	0.337643
756.239313	0.337161
756.435328	0.337134
756.631324	0.337216
756.827302	0.337251
757.023262	0.337165
757.219204	0.337391
757.415127	0.337253
757.611033	0.337101
757.806920	0.337271
758.002788	0.337411
758.198639	0.337152
758.394471	0.336566
758.590286	0.336329
758.786081	0.336056
758.981859	0.335587
759.177619	0.335619
759.373360	0.335099
759.569083	0.334687
759.764788	0.334447
759.960474	0.334376
760.156143	0.334351
760.351793	0.334218
760.547425	0.333897
760.743038	0.333871
760.938634	0.333636
761.134211	0.333641
761.329770	0.333561
761.525311	0.333167
761.720833	0.332873
761.916338	0.332307
762.111824	0.331983
762.307292	0.331738
762.502741	0.331670
762.698173	0.331404
762.893586	0.331457
763.088981	0.331007
763.284358	0.331101
763.479716	0.331061
763.675057	0.331116
763.870379	0.331052
764.065683	0.331375
764.260968	0.331098
764.456236	0.330995
764.651485	0.330562
764.846716	0.330501
765.041929	0.330355
765.237123	0.330136
765.432299	0.330259
765.627457	0.330063
765.822597	0.329455
766.017719	0.329244
766.212822	0.329092
766.407907	0.329128
766.602974	0.329136
766.798023	0.328893
766.993054	0.328690
767.188066	0.328370
767.383060	0.328228
767.578036	0.328221
767.772993	0.328380
767.967933	0.328248
768.162854	0.328114
768.357757	0.327784
768.552642	0.327508
768.747508	0.327584
768.942356	0.327298
769.137186	0.327028
769.331998	0.327232
769.526792	0.326935
769.721567	0.326683
769.916324	0.326305
770.111063	0.326469
770.305784	0.326556
770.500486	0.326482
770.695171	0.326410
770.889837	0.326520
771.084484	0.326489
771.279114	0.326421
771.473725	0.326638
771.668318	0.326862
771.862893	0.326677
772.057450	0.326453
772.251988	0.326164
772.446509	0.326114
772.641011	0.325976
772.835494	0.325364
773.029960	0.325171
773.224407	0.324950
773.418836	0.324933
773.613247	0.324964
773.807640	0.324877
774.002014	0.324849
774.196370	0.325058
774.390708	0.325368
774.585028	0.325600
774.779330	0.325348
774.973613	0.325284
775.167878	0.325122
775.362125	0.324983
775.556354	0.324837
775.750564	0.325055
775.944756	0.324843
776.138930	0.324489
776.333086	0.324374
776.527223	0.324564
776.721343	0.324571
776.915444	0.324265
777.109526	0.324223
777.303591	0.324201
777.497637	0.324146
777.691666	0.323989
777.885676	0.324066
778.079667	0.324182
778.273641	0.323959
778.467596	0.323510
778.661533	0.324008
778.855452	0.324345
779.049352	0.324281
779.243235	0.323892
779.437099	0.324003
779.630945	0.323938
779.824773	0.323820
780.018582	0.324026
780.212373	0.324311
780.406146	0.323967
780.599901	0.323582
780.793638	0.323853
780.987356	0.324076
781.181056	0.323933
781.374738	0.323993
781.568402	0.323730
781.762047	0.323781
781.955674	0.323482
782.149283	0.323509
782.342874	0.323481
782.536447	0.323191
782.730001	0.322921
782.923537	0.322889
783.117055	0.322693
783.310555	0.322850
783.504036	0.322761
783.697499	0.323137
783.890944	0.323037
784.084371	0.322962
784.277780	0.323189
784.471170	0.323446
784.664542	0.323508
784.857896	0.323420
785.051231	0.323382
785.244549	0.323432
785.437848	0.323251
785.631129	0.323178
785.824392	0.323225
786.017636	0.323238
786.210863	0.323186
786.404071	0.323186
786.597260	0.323438
786.790432	0.323412
786.983585	0.323460
787.176721	0.323762
787.369838	0.323736
787.562936	0.323750
787.756017	0.323790
787.949079	0.323765
788.142123	0.323619
788.335149	0.323567
788.528156	0.323775
788.721146	0.323555
788.914117	0.323513
789.107070	0.323671
789.300005	0.323645
789.492921	0.323698
789.685819	0.323699
789.878699	0.323891
790.071561	0.323894
790.264405	0.323668
790.457230	0.323859
790.650037	0.323894
790.842826	0.324000
791.035597	0.324084
791.228349	0.324042
791.421084	0.324263
791.613800	0.324409
791.806497	0.324604
791.999177	0.324819
792.191838	0.325228
792.384481	0.325200
792.577106	0.325377
792.769713	0.325422
792.962301	0.325700
793.154871	0.325911
793.347423	0.325968
793.539957	0.326098
793.732473	0.326019
793.924970	0.325865
794.117449	0.325815
794.309910	0.325589
794.502353	0.325806
794.694777	0.325739
794.887183	0.325650
795.079571	0.325701
795.271941	0.325690
795.464293	0.326117
795.656626	0.326228
795.848941	0.326654
796.041238	0.327139
796.233516	0.327183
796.425777	0.327287
796.618019	0.327460
796.810243	0.327695
797.002449	0.327770
797.194636	0.327926
797.386805	0.328178
797.578956	0.328078
797.771089	0.328191
797.963204	0.328367
798.155300	0.328447
798.347378	0.328645
798.539438	0.328830
798.731480	0.328909
798.923503	0.329049
799.115509	0.329247
799.307496	0.329862
799.499465	0.330321
799.691415	0.330622
799.883348	0.331118
800.075262	0.331320
800.267158	0.331585
800.459035	0.332104
800.650895	0.332305
800.842736	0.332429
801.034559	0.332557
801.226364	0.332283
801.418150	0.332543
801.609919	0.332495
801.801669	0.332556
801.993401	0.332872
802.185114	0.332775
802.376810	0.333174
802.568487	0.333239
802.760146	0.333510
802.951787	0.333663
803.143409	0.333606
803.335014	0.333889
803.526600	0.334041
803.718168	0.334035
803.909717	0.334295
804.101249	0.334021
804.292762	0.334028
804.484257	0.333885
804.675734	0.334520
804.867192	0.334679
805.058632	0.334929
805.250054	0.335455
805.441458	0.335689
805.632844	0.335926
805.824211	0.336185
806.015561	0.336790
806.206891	0.337274
806.398204	0.337270
806.589499	0.337637
806.780775	0.337903
806.972033	0.337804
807.163273	0.338081
807.354495	0.338150
807.545698	0.338666
807.736883	0.338764
807.928050	0.338599
808.119199	0.339008
808.310329	0.339281
808.501441	0.339698
808.692535	0.340093
808.883611	0.340372
809.074669	0.340686
809.265708	0.340969
809.456729	0.341146
809.647732	0.341494
809.838717	0.341554
810.029683	0.341849
810.220632	0.341812
810.411562	0.341748
810.602474	0.341871
810.793367	0.341914
810.984242	0.341892
811.175100	0.342276
811.365938	0.342840
811.556759	0.343382
811.747562	0.343519
811.938346	0.343904
812.129112	0.344629
812.319860	0.344979
812.510589	0.345792
812.701300	0.346264
812.891994	0.346592
813.082668	0.346923
813.273325	0.346963
813.463964	0.347501
813.654584	0.347773
813.845186	0.347801
814.035769	0.347927
814.226335	0.348086
814.416882	0.348360
814.607411	0.348484
814.797922	0.348583
814.988415	0.349042
815.178889	0.348989
815.369345	0.349220
815.559783	0.349334
815.750203	0.349933
815.940605	0.349995
816.130988	0.350170
816.321353	0.350692
816.511700	0.351133
816.702028	0.351103
816.892339	0.351790
817.082631	0.352004
817.272905	0.352512
817.463161	0.352432
817.653398	0.352616
817.843617	0.352947
818.033819	0.353038
818.224001	0.353451
818.414166	0.353966
818.604312	0.354036
818.794440	0.354420
818.984550	0.354763
819.174642	0.355278
819.364716	0.355994
819.554771	0.356504
819.744808	0.357286
819.934827	0.357618
820.124827	0.357937
820.314810	0.358251
820.504774	0.358775
820.694720	0.359300
820.884647	0.359719
821.074557	0.360123
821.264448	0.360543
821.454321	0.360657
821.644176	0.361148
821.834012	0.361161
822.023831	0.361486
822.213631	0.361597
822.403413	0.361872
822.593176	0.362088
822.782922	0.362545
822.972649	0.362967
823.162358	0.363268
823.352049	0.363369
823.541721	0.364169
823.731376	0.364994
823.921012	0.365759
824.110629	0.366039
824.300229	0.366630
824.489811	0.366820
824.679374	0.367047
824.868919	0.367286
825.058445	0.367404
825.247954	0.367810
825.437444	0.367600
825.626916	0.367415
825.816370	0.367886
826.005806	0.368114
826.195223	0.368340
826.384622	0.368547
826.574003	0.369000
826.763366	0.369599
826.952711	0.369868
827.142037	0.370442
827.331345	0.371032
827.520635	0.371338
827.709906	0.371668
827.899160	0.372139
828.088395	0.372769
828.277612	0.372982
828.466810	0.373288
828.655991	0.373678
828.845153	0.374062
829.034297	0.374595
829.223423	0.375049
829.412531	0.375906
829.601620	0.376542
829.790691	0.376686
829.979744	0.377002
830.168779	0.377357
830.357795	0.377740
830.546793	0.378212
830.735773	0.378555
830.924735	0.379343
831.113679	0.379597
831.302604	0.379772
831.491511	0.380220
831.680400	0.381088
831.869271	0.381432
832.058123	0.381581
832.246957	0.381961
832.435773	0.382192
832.624571	0.382694
832.813351	0.382699
833.002112	0.383320
833.190855	0.383851
833.379580	0.384246
833.568287	0.384990
833.756975	0.385704
833.945645	0.386202
834.134297	0.386769
834.322931	0.386967
834.511547	0.387414
834.700144	0.387791
834.888723	0.388110
835.077284	0.388359
835.265826	0.388547
835.454351	0.389327
835.642857	0.389767
835.831345	0.390097
836.019815	0.390078
836.208266	0.390597
836.396699	0.390966
836.585114	0.391650
836.773511	0.391568
836.961890	0.392115
837.150250	0.391943
837.338592	0.392532
837.526916	0.392958
837.715222	0.393800
837.903510	0.394201
838.091779	0.394565
838.280030	0.394721
838.468263	0.395372
838.656477	0.395642
838.844674	0.396284
839.032852	0.396656
839.221012	0.397175
839.409153	0.397280
839.597277	0.397921
839.785382	0.398250
839.973469	0.398767
840.161538	0.399442
840.349589	0.399917
840.537621	0.400239
840.725635	0.400142
840.913631	0.400379
841.101609	0.400927
841.289568	0.401212
841.477509	0.401958
841.665432	0.402705
841.853337	0.403043
842.041224	0.403808
842.229092	0.404529
842.416942	0.405464
842.604774	0.406234
842.792588	0.406719
842.980383	0.407040
843.168160	0.407130
843.355919	0.407514
843.543660	0.408110
843.731382	0.408613
843.919087	0.408675
844.106773	0.408868
844.294441	0.409439
844.482090	0.409783
844.669722	0.410577
844.857335	0.411393
845.044930	0.411511
845.232507	0.411836
845.420065	0.412037
845.607605	0.412719
845.795127	0.413216
845.982631	0.413594
846.170117	0.414323
846.357584	0.414626
846.545033	0.414913
846.732464	0.415904
846.919877	0.416702
847.107272	0.417159
847.294648	0.417545
847.482006	0.418061
847.669346	0.418232
847.856667	0.418420
848.043971	0.418588
848.231256	0.418953
848.418523	0.418987
848.605771	0.419448
848.793002	0.419626
848.980214	0.420170
849.167408	0.421001
849.354584	0.421628
849.541742	0.422159
849.728881	0.422837
849.916002	0.422979
850.103105	0.423618
850.290190	0.423904
850.477256	0.424693
850.664304	0.425241
850.851334	0.425228
851.038346	0.425767
851.225340	0.426297
851.412315	0.426818
851.599272	0.427952
851.786211	0.428206
851.973132	0.428727
852.160034	0.429195
852.346918	0.429654
852.533784	0.430192
852.720632	0.430815
852.907462	0.431393
853.094273	0.431892
853.281066	0.431914
853.467841	0.432069
853.654598	0.432505
853.841336	0.432865
854.028056	0.432964
854.214758	0.433503
854.401442	0.433776
854.588107	0.433890
854.774755	0.434813
854.961384	0.435331
855.147995	0.435981
855.334587	0.436397
855.521162	0.436779
855.707718	0.437973
855.894256	0.438634
856.080775	0.439324
856.267277	0.440222
856.453760	0.440211
856.640225	0.440870
856.826672	0.441703
857.013101	0.441974
857.199511	0.442448
857.385903	0.442359
857.572277	0.442236
857.758633	0.441915
857.944970	0.442072
858.131290	0.442397
858.317591	0.442583
858.503873	0.442967
858.690138	0.443783
858.876384	0.444429
859.062612	0.445040
859.248822	0.445484
859.435014	0.446421
859.621188	0.447219
859.807343	0.447375
859.993480	0.447774
860.179599	0.447933
860.365699	0.447804
860.551781	0.448382
860.737846	0.448691
860.923891	0.449685
861.109919	0.450017
861.295929	0.449975
861.481920	0.450453
861.667893	0.450925
861.853848	0.451293
862.039784	0.452019
862.225702	0.451993
862.411603	0.452273
862.597484	0.452650
862.783348	0.453156
862.969193	0.453580
863.155021	0.454219
863.340830	0.454240
863.526620	0.454623
863.712393	0.454890
863.898147	0.455619
864.083883	0.455752
864.269601	0.455713
864.455301	0.456173
864.640982	0.456878
864.826645	0.457411
865.012290	0.458147
865.197917	0.458711
865.383526	0.459207
865.569116	0.459043
865.754688	0.459816
865.940242	0.460287
866.125777	0.460589
866.311295	0.460665
866.496794	0.460840
866.682275	0.461197
866.867737	0.461680
867.053182	0.461954
867.238608	0.462288
867.424016	0.462262
867.609406	0.462852
867.794778	0.462682
867.980131	0.462786
868.165466	0.463521
868.350783	0.464005
868.536082	0.463918
868.721362	0.464466
868.906625	0.465005
869.091869	0.465634
869.277094	0.465743
869.462302	0.466709
869.647491	0.467478
869.832662	0.467762
870.017815	0.467443
870.202950	0.467939
870.388066	0.468291
870.573165	0.468797
870.758245	0.468993
870.943306	0.469803
871.128350	0.469971
871.313375	0.470197
871.498382	0.470127
871.683371	0.470945
871.868342	0.471702
872.053294	0.471687
872.238229	0.471665
872.423144	0.471975
872.608042	0.471221
872.792922	0.470862
872.977783	0.470832
873.162626	0.470642
873.347451	0.470788
873.532258	0.470311
873.717046	0.470299
873.901816	0.470724
874.086568	0.470968
874.271302	0.471927
874.456017	0.472860
874.640715	0.473645
874.825394	0.473949
875.010055	0.474105
875.194697	0.474369
875.379322	0.474530
875.563928	0.474830
875.748516	0.475080
875.933085	0.475154
876.117637	0.475198
876.302170	0.474670
876.486685	0.475055
876.671182	0.475518
876.855661	0.475865
877.040121	0.476779
877.224563	0.476730
877.408987	0.477402
877.593393	0.477822
877.777780	0.477791
877.962150	0.478485
878.146501	0.478534
878.330833	0.478595
878.515148	0.478672
878.699444	0.478684
878.883722	0.478863
879.067982	0.479176
879.252224	0.478857
879.436447	0.479522
879.620653	0.479511
879.804840	0.480665
879.989008	0.480508
880.173159	0.480563
880.357291	0.480556
880.541405	0.480622
880.725501	0.479899
880.909579	0.480223
881.093638	0.480187
881.277680	0.480286
881.461703	0.479757
881.645707	0.480092
881.829694	0.480335
882.013662	0.480699
882.197612	0.481097
882.381544	0.481545
882.565458	0.481807
882.749353	0.481816
882.933230	0.481947
883.117089	0.482220
883.300930	0.482850
883.484753	0.483475
883.668557	0.483296
883.852343	0.483537
884.036111	0.483282
884.219861	0.483510
884.403592	0.483578
884.587305	0.484684
884.771000	0.484479
884.954677	0.484204
885.138335	0.484193
885.321976	0.484517
885.505598	0.484456
885.689201	0.484986
885.872787	0.484861
886.056354	0.484306
886.239904	0.483067
886.423434	0.482894
886.606947	0.482700
886.790442	0.482259
886.973918	0.481963
887.157376	0.481666
887.340816	0.481706
887.524237	0.481665
887.707641	0.481880
887.891026	0.482188
888.074393	0.482734
888.257741	0.482994
888.441072	0.483653
888.624384	0.483995
888.807678	0.484393
888.990954	0.484103
889.174211	0.484059
889.357451	0.484526
889.540672	0.484649
889.723875	0.484478
889.907059	0.483919
890.090226	0.484123
890.273374	0.483933
890.456504	0.483790
890.639616	0.483465
890.822709	0.483036
891.005785	0.482866
891.188842	0.482003
891.371881	0.481427
891.554901	0.482248
891.737904	0.481656
891.920888	0.481591
892.103854	0.481243
892.286802	0.481245
892.469731	0.481594
892.652643	0.481407
892.835536	0.481549
893.018410	0.482008
893.201267	0.481470
893.384106	0.481212
893.566926	0.480998
893.749728	0.481038
893.932511	0.481100
894.115277	0.481253
894.298024	0.481538
894.480753	0.481594
894.663464	0.481324
894.846157	0.481496
895.028831	0.481203
895.211487	0.480618
895.394125	0.480164
895.576745	0.479776
895.759346	0.479553
895.941930	0.478872
896.124495	0.478590
896.307041	0.478452
896.489570	0.477382
896.672080	0.477391
896.854573	0.477982
897.037046	0.478396
897.219502	0.478526
897.401940	0.477913
897.584359	0.478451
897.766760	0.478646
897.949143	0.478513
898.131507	0.478754
898.313854	0.478228
898.496182	0.477486
898.678492	0.476745
898.860783	0.476323
899.043057	0.476018
899.225312	0.474802
899.407549	0.474662
899.589768	0.474352
899.771968	0.473759
899.954151	0.473821
900.136315	0.473414
900.318461	0.473018
900.500588	0.472714
900.682698	0.472500
900.864789	0.472673
901.046862	0.472145
901.228917	0.471525
901.410953	0.472365
901.592971	0.472150
901.774972	0.472316
901.956953	0.471620
902.138917	0.471420
902.320862	0.471262
902.502790	0.470563
902.684699	0.470396
902.866589	0.470246
903.048462	0.469011
903.230316	0.468944
903.412152	0.468409
903.593970	0.468717
903.775770	0.467894
903.957551	0.467695
904.139314	0.468217
904.321059	0.468002
904.502786	0.467917
904.684494	0.468109
904.866185	0.467018
905.047857	0.466937
905.229510	0.466301
905.411146	0.466285
905.592763	0.465653
905.774363	0.464410
905.955943	0.463362
906.137506	0.462551
906.319051	0.461583
906.500577	0.461101
906.682085	0.460261
906.863575	0.459773
907.045046	0.459905
907.226500	0.459082
907.407935	0.458370
907.589352	0.458441
907.770750	0.458082
907.952131	0.457396
908.133493	0.456962
908.314837	0.456843
908.496163	0.456266
908.677470	0.454984
908.858760	0.454982
909.040031	0.454824
909.221284	0.453944
909.402518	0.453526
909.583735	0.453299
909.764933	0.453076
909.946113	0.451925
910.127275	0.451602
910.308418	0.451116
910.489544	0.450094
910.670651	0.449958
910.851740	0.449543
911.032810	0.448668
911.213863	0.448129
911.394897	0.447315
911.575913	0.447372
911.756911	0.446395
911.937890	0.445465
912.118851	0.444793
912.299794	0.443977
912.480719	0.443267
912.661626	0.443155
912.842514	0.442554
913.023384	0.441850
913.204236	0.441304
913.385070	0.441000
913.565886	0.441001
913.746683	0.441143
913.927462	0.440508
914.108223	0.440083
914.288965	0.439309
914.469690	0.438379
914.650396	0.438026
914.831084	0.437347
915.011754	0.437417
915.192405	0.436788
915.373038	0.435969
915.553653	0.435075
915.734250	0.434728
915.914829	0.433874
916.095389	0.433468
916.275931	0.433030
916.456455	0.431951
916.636961	0.431349
916.817448	0.430734
916.997917	0.429854
917.178368	0.429168
917.358801	0.428652
917.539216	0.428231
917.719612	0.427858
917.899990	0.427153
918.080350	0.426491
918.260692	0.425490
918.441015	0.424663
918.621320	0.424804
918.801607	0.425018
918.981876	0.423552
919.162127	0.422838
919.342359	0.421474
919.522573	0.420684
919.702769	0.419693
919.882947	0.418837
920.063106	0.418103
920.243247	0.416879
920.423370	0.415851
920.603475	0.415905
920.783562	0.414904
920.963630	0.414823
921.143680	0.413968
921.323712	0.413181
921.503725	0.411969
921.683721	0.411807
921.863698	0.411241
922.043657	0.409923
922.223598	0.408271
922.403520	0.407877
922.583424	0.407176
922.763311	0.406453
922.943178	0.406009
923.123028	0.405335
923.302859	0.404601
923.482673	0.403091
923.662467	0.402689
923.842244	0.401732
924.022003	0.400765
924.201743	0.399606
924.381465	0.398103
924.561169	0.397880
924.740854	0.397195
924.920522	0.395949
925.100171	0.395369
925.279802	0.393789
925.459414	0.393488
925.639009	0.393322
925.818585	0.392740
925.998143	0.392190
926.177683	0.390557
926.357205	0.390134
926.536708	0.388906
926.716193	0.388069
926.895660	0.388130
927.075109	0.387569
927.254539	0.385754
927.433951	0.384024
927.613345	0.383880
927.792721	0.382860
927.972079	0.381131
928.151418	0.380290
928.330739	0.379136
928.510042	0.377785
928.689327	0.376969
928.868593	0.375759
929.047841	0.375470
929.227071	0.373525
929.406283	0.372759
929.585476	0.372657
929.764652	0.372020
929.943809	0.370899
930.122948	0.369620
930.302068	0.367835
930.481171	0.368360
930.660255	0.367494
930.839321	0.366685
931.018369	0.366475
931.197398	0.364825
931.376409	0.363446
931.555402	0.363323
931.734377	0.362579
931.913334	0.361902
932.092272	0.359795
932.271192	0.358510
932.450094	0.358152
932.628978	0.356230
932.807844	0.355828
932.986691	0.354294
933.165520	0.351911
933.344331	0.350913
933.523123	0.349325
933.701898	0.348084
933.880654	0.347545
934.059392	0.345476
934.238111	0.345503
934.416813	0.344262
934.595496	0.343478
934.774161	0.342880
934.952808	0.342513
935.131437	0.342176
935.310047	0.340515
935.488639	0.339327
935.667213	0.338521
935.845769	0.336693
936.024306	0.335085
936.202825	0.334201
936.381326	0.332447
936.559809	0.330169
936.738274	0.327277
936.916720	0.326091
937.095148	0.324825
937.273558	0.322975
937.451950	0.321727
937.630323	0.320904
937.808678	0.321290
937.987015	0.320929
938.165334	0.319932
938.343635	0.320551
938.521917	0.320413
938.700181	0.318372
938.878427	0.318355
939.056655	0.316880
939.234864	0.315353
939.413055	0.312731
939.591228	0.313731
939.769383	0.313032
939.947519	0.311598
940.125638	0.308986
940.303738	0.309217
940.481820	0.308155
940.659883	0.307445
940.837929	0.306899
941.015956	0.305279
941.193965	0.302483
941.371955	0.301252
941.549928	0.299295
941.727882	0.298328
941.905818	0.296392
942.083736	0.294978
942.261636	0.292722
942.439517	0.291135
942.617380	0.290484
942.795225	0.289048
942.973052	0.287522
943.150860	0.285744
943.328651	0.285694
943.506423	0.284997
943.684176	0.284940
943.861912	0.285393
944.039629	0.284224
944.217328	0.283657
944.395009	0.283309
944.572672	0.282888
944.750317	0.283452
944.927943	0.281308
945.105551	0.279790
945.283141	0.277518
945.460712	0.275567
945.638265	0.274887
945.815801	0.271679
945.993317	0.267872
946.170816	0.266833
946.348297	0.265449
946.525759	0.264910
946.703203	0.263634
946.880629	0.262468
947.058036	0.260606
947.235425	0.257277
947.412797	0.257502
947.590149	0.257347
947.767484	0.254949
947.944800	0.254327
948.122099	0.253426
948.299379	0.252922
948.476640	0.250798
948.653884	0.248667
948.831109	0.248891
949.008316	0.247410
949.185505	0.246322
949.362676	0.244572
949.539828	0.242407
949.716962	0.241108
949.894078	0.237363
950.071176	0.235513
950.248256	0.236873
950.425317	0.237688
950.602360	0.235475
950.779385	0.235421
950.956391	0.234468
951.133380	0.232133
951.310350	0.230992
951.487302	0.231072
951.664235	0.230919
951.841151	0.228565
952.018048	0.225340
952.194927	0.224294
952.371788	0.222929
952.548631	0.222147
952.725455	0.220545
952.902261	0.220598
953.079049	0.218637
953.255819	0.217850
953.432570	0.214696
953.609303	0.211402
953.786018	0.211146
953.962715	0.209429
954.139394	0.209777
954.316054	0.209241
954.492696	0.208536
954.669320	0.207263
954.845926	0.208989
955.022513	0.210268
955.199083	0.210624
955.375634	0.211647
955.552166	0.210788
955.728681	0.208734
955.905177	0.209712
956.081655	0.207606
956.258115	0.209314
956.434557	0.206353
956.610980	0.205661
956.787385	0.205995
956.963772	0.203463
957.140141	0.200500
957.316492	0.197894
957.492824	0.194824
957.669138	0.193758
957.845434	0.191231
958.021712	0.188363
958.197971	0.186867
958.374212	0.186643
958.550435	0.185595
958.726640	0.186400
958.902826	0.186903
959.078995	0.189428
959.255145	0.187610
959.431277	0.187862
959.607390	0.187537
959.783486	0.188629
959.959563	0.186006
960.135622	0.185598
960.311662	0.185432
960.487685	0.184681
960.663689	0.184383
960.839675	0.185050
961.015643	0.184556
961.191593	0.184423
961.367524	0.183070
961.543437	0.181647
961.719332	0.179843
961.895209	0.180041
962.071067	0.178858
962.246907	0.176983
962.422730	0.176005
962.598533	0.174432
962.774319	0.173158
962.950086	0.171150
963.125835	0.174935
963.301566	0.173851
963.477279	0.171798
963.652973	0.171508
963.828650	0.170781
964.004308	0.168208
964.179947	0.168214
964.355569	0.170214
964.531172	0.170632
964.706757	0.169644
964.882324	0.171999
965.057873	0.173075
965.233403	0.175476
965.408916	0.175275
965.584410	0.177213
965.759885	0.175833
965.935343	0.174949
966.110782	0.174979
966.286203	0.173789
966.461606	0.171136
966.636991	0.169210
966.812357	0.168958
966.987705	0.167489
967.163035	0.165890
967.338347	0.166936
967.513641	0.166894
967.688916	0.166951
967.864173	0.165206
968.039412	0.165255
968.214632	0.166740
968.389835	0.164258
968.565019	0.164259
968.740185	0.163455
968.915333	0.164225
969.090462	0.161957
969.265573	0.160430
969.440667	0.162033
969.615741	0.163512
969.790798	0.162203
969.965836	0.163581
970.140856	0.163833
970.315858	0.164717
970.490842	0.164098
970.665808	0.163799
970.840755	0.162353
971.015684	0.161290
971.190595	0.161306
971.365487	0.161844
971.540362	0.159875
971.715218	0.160804
971.890056	0.160179
972.064875	0.163462
972.239677	0.164361
972.414460	0.166281
972.589225	0.165906
972.763972	0.165907
972.938700	0.165165
973.113411	0.165544
973.288103	0.160645
973.462777	0.163089
973.637432	0.158329
973.812070	0.159508
973.986689	0.161331
974.161290	0.160639
974.335873	0.159623
974.510437	0.160179
974.684984	0.159268
974.859512	0.164570
975.034022	0.164111
975.208513	0.162055
975.382987	0.162093
975.557442	0.163092
975.731879	0.164970
975.906298	0.165000
976.080698	0.166193
976.255080	0.170148
976.429445	0.167622
976.603790	0.167927
976.778118	0.170052
976.952427	0.167511
977.126719	0.164637
977.300992	0.160147
977.475246	0.159264
977.649483	0.158218
977.823701	0.154776
977.997901	0.155679
978.172083	0.155137
978.346247	0.155854
978.520392	0.158983
978.694519	0.161764
978.868628	0.165688
979.042719	0.168847
979.216791	0.170264
979.390845	0.172703
979.564882	0.171540
979.738899	0.170232
979.912899	0.170855
980.086880	0.168814
980.260843	0.167469
980.434788	0.170614
980.608715	0.169279
980.782623	0.167394
980.956514	0.165802
981.130386	0.166632
981.304240	0.167524
981.478075	0.166602
981.651892	0.165638
981.825692	0.164194
981.999472	0.160408
982.173235	0.158413
982.346980	0.158211
982.520706	0.157558
982.694414	0.156988
982.868104	0.158130
983.041775	0.157954
983.215428	0.159245
983.389064	0.160474
983.562680	0.160775
983.736279	0.161617
983.909860	0.160955
984.083422	0.161446
984.256966	0.162617
984.430491	0.160786
984.603999	0.160718
984.777488	0.161051
984.950959	0.159630
985.124412	0.158817
985.297847	0.159579
985.471263	0.161165
985.644661	0.160896
985.818041	0.160637
985.991403	0.160130
986.164747	0.159015
986.338072	0.157945
986.511379	0.157563
986.684668	0.157993
986.857938	0.159827
987.031191	0.157821
987.204425	0.158735
987.377641	0.158442
987.550839	0.159894
987.724018	0.160744
987.897179	0.161510
988.070322	0.160358
988.243447	0.159809
988.416554	0.157251
988.589642	0.158804
988.762712	0.158616
988.935764	0.159285
989.108798	0.158755
989.281813	0.161027
989.454811	0.163650
989.627790	0.165827
989.800751	0.164966
989.973693	0.164093
990.146617	0.162855
990.319524	0.161246
990.492412	0.159552
990.665281	0.157991
990.838133	0.155773
991.010966	0.151413
991.183781	0.152112
991.356578	0.154385
991.529356	0.154265
991.702117	0.156793
991.874859	0.157838
992.047583	0.157340
992.220288	0.157907
992.392976	0.159697
992.565645	0.161943
992.738296	0.160445
992.910929	0.160976
993.083543	0.163581
993.256139	0.161755
993.428718	0.162112
993.601277	0.165301
993.773819	0.165654
993.946342	0.163634
994.118848	0.164605
994.291335	0.165715
994.463803	0.165691
994.636254	0.163457
994.808686	0.163919
994.981100	0.165386
995.153496	0.164368
995.325874	0.165983
995.498233	0.166952
995.670574	0.166519
995.842897	0.166507
996.015202	0.166467
996.187488	0.167251
996.359757	0.166879
996.532007	0.166540
996.704239	0.165377
996.876452	0.164294
997.048648	0.164542
997.220825	0.164078
997.392984	0.163262
997.565124	0.161828
997.737247	0.163134
997.909351	0.161987
998.081437	0.160738
998.253505	0.160466
998.425554	0.161116
998.597586	0.160748
998.769599	0.158255
998.941594	0.159234
999.113571	0.159858
999.285529	0.156348
999.457469	0.159369
999.629391	0.160341
999.801295	0.162454
999.973181	0.161749
1000.145048	0.159067
1000.316897	0.159501
1000.488728	0.159572
1000.660541	0.159132
1000.832335	0.161012
1001.004111	0.159968
1001.175869	0.158690
1001.347609	0.158489
1001.519331	0.158646
1001.691034	0.161683
1001.862719	0.163690
1002.034386	0.164037
1002.206035	0.166018
1002.377665	0.167306
1002.549277	0.166852
1002.720871	0.168445
1002.892447	0.166485
1003.064004	0.168011
1003.235544	0.168472
1003.407065	0.169060
1003.578568	0.168134
1003.750052	0.165764
1003.921519	0.163444
1004.092967	0.163250
1004.264397	0.162999
1004.435809	0.165078
1004.607202	0.162285
1004.778577	0.160791
1004.949934	0.161463
1005.121273	0.162224
1005.292594	0.163523
1005.463896	0.165054
1005.635180	0.164657
1005.806446	0.162425
1005.977694	0.162269
1006.148923	0.162321
1006.320135	0.163447
1006.491328	0.160543
1006.662503	0.159282
1006.833659	0.159854
1007.004798	0.158694
1007.175918	0.157645
1007.347020	0.158531
1007.518103	0.157192
1007.689169	0.159031
1007.860216	0.155690
1008.031245	0.154843
1008.202256	0.155208
1008.373248	0.153076
1008.544223	0.153490
1008.715179	0.155233
1008.886117	0.156200
1009.057036	0.156491
1009.227938	0.157930
1009.398821	0.162352
1009.569686	0.163714
1009.740533	0.164107
1009.911361	0.165035
1010.082172	0.167445
1010.252964	0.166288
1010.423738	0.166935
1010.594493	0.167242
1010.765231	0.164852
1010.935950	0.162226
1011.106651	0.164594
1011.277334	0.162010
1011.447998	0.162788
1011.618645	0.159713
1011.789273	0.160332
1011.959882	0.158580
1012.130474	0.157638
1012.301048	0.156752
1012.471603	0.156373
1012.642140	0.155829
1012.812658	0.157997
1012.983159	0.155628
1013.153641	0.155995
1013.324105	0.155279
1013.494551	0.155471
1013.664979	0.155614
1013.835388	0.157145
1014.005779	0.159789
1014.176152	0.158140
1014.346507	0.158306
1014.516843	0.159270
1014.687162	0.159997
1014.857462	0.160993
1015.027744	0.162038
1015.198007	0.161320
1015.368252	0.160367
1015.538480	0.158946
1015.708689	0.160870
1015.878879	0.159943
1016.049052	0.159386
1016.219206	0.157767
1016.389342	0.157318
1016.559460	0.158116
1016.729559	0.158403
1016.899641	0.159501
1017.069704	0.160842
1017.239749	0.158685
1017.409775	0.158042
1017.579784	0.160304
1017.749774	0.161833
1017.919746	0.163556
1018.089700	0.162140
1018.259635	0.163505
1018.429553	0.162267
1018.599452	0.161471
1018.769333	0.161044
1018.939195	0.161580
1019.109040	0.159908
1019.278866	0.160119
1019.448674	0.158817
1019.618464	0.157455
1019.788235	0.159693
1019.957989	0.159641
1020.127724	0.159158
1020.297441	0.160049
1020.467139	0.161371
1020.636820	0.159634
1020.806482	0.158178
1020.976126	0.157321
1021.145752	0.158698
1021.315359	0.155555
1021.484948	0.156751
1021.654519	0.156082
1021.824072	0.156315
1021.993607	0.154894
1022.163123	0.156732
1022.332621	0.158147
1022.502101	0.159530
1022.671563	0.160981
1022.841007	0.161225
1023.010432	0.160858
1023.179839	0.160008
1023.349228	0.160048
1023.518598	0.161728
1023.687951	0.161390
1023.857285	0.161669
1024.026601	0.163224
1024.195899	0.163205
1024.365178	0.162818
1024.534439	0.161388
1024.703682	0.162924
1024.872907	0.162624
1025.042114	0.160510
1025.211302	0.161713
1025.380472	0.160498
1025.549624	0.158901
1025.718758	0.156168
1025.887873	0.156530
1026.056970	0.159260
1026.226049	0.157590
1026.395110	0.158562
1026.564153	0.159674
1026.733177	0.157656
1026.902183	0.158153
1027.071171	0.156666
1027.240141	0.157508
1027.409092	0.156948
1027.578026	0.156284
1027.746940	0.157501
1027.915837	0.158618
1028.084716	0.158376
1028.253576	0.159701
1028.422418	0.158560
1028.591242	0.159917
1028.760048	0.158255
1028.928835	0.156947
1029.097604	0.154969
1029.266355	0.154590
1029.435088	0.150816
1029.603803	0.149961
1029.772499	0.149726
1029.941177	0.148715
1030.109837	0.147015
1030.278478	0.148625
1030.447102	0.151238
1030.615707	0.152649
1030.784294	0.153198
1030.952863	0.154236
1031.121413	0.154936
1031.289945	0.155013
1031.458460	0.155463
1031.626955	0.155354
1031.795433	0.152861
1031.963892	0.151534
1032.132334	0.150241
1032.300756	0.150055
1032.469161	0.151770
1032.637548	0.151508
1032.805916	0.152132
1032.974266	0.155096
1033.142598	0.156637
1033.310911	0.160844
1033.479207	0.161042
1033.647484	0.163159
1033.815743	0.163056
1033.983983	0.163083
1034.152206	0.163879
1034.320410	0.163147
1034.488596	0.160512
1034.656764	0.160512
1034.824914	0.159979
1034.993045	0.159691
1035.161158	0.158849
1035.329253	0.159719
1035.497330	0.159091
1035.665388	0.158393
1035.833428	0.158787
1036.001450	0.159474
1036.169454	0.159140
1036.337440	0.158539
1036.505407	0.159337
1036.673356	0.160315
1036.841287	0.157867
1037.009200	0.156450
1037.177094	0.157564
1037.344970	0.157002
1037.512828	0.158079
1037.680668	0.158541
1037.848489	0.159999
1038.016293	0.159701
1038.184078	0.157321
1038.351845	0.157967
1038.519593	0.160312
1038.687324	0.158942
1038.855036	0.158592
1039.022730	0.158480
1039.190406	0.157061
1039.358063	0.155097
1039.525702	0.155983
1039.693323	0.158392
1039.860926	0.158637
1040.028511	0.156696
1040.196077	0.155587
1040.363625	0.157448
1040.531155	0.154845
1040.698667	0.154893
1040.866161	0.154884
1041.033636	0.152099
1041.201093	0.149794
1041.368532	0.150429
1041.535952	0.151365
1041.703355	0.153041
1041.870739	0.153145
1042.038105	0.155284
1042.205452	0.156324
1042.372782	0.157619
1042.540093	0.159185
1042.707386	0.160630
1042.874661	0.160981
1043.041918	0.160369
1043.209156	0.158542
1043.376376	0.157417
1043.543578	0.156561
1043.710762	0.156833
1043.877927	0.155233
1044.045074	0.154474
1044.212203	0.153585
1044.379314	0.153839
1044.546407	0.153428
1044.713481	0.155060
1044.880537	0.153863
1045.047575	0.154204
1045.214595	0.154555
1045.381596	0.154419
1045.548579	0.155591
1045.715544	0.156034
1045.882491	0.156104
1046.049420	0.156575
1046.216330	0.158071
1046.383222	0.159920
1046.550096	0.157254
1046.716951	0.156699
1046.883789	0.159058
1047.050608	0.158493
1047.217409	0.159017
1047.384192	0.158861
1047.550956	0.160952
1047.717703	0.159583
1047.884431	0.156684
1048.051140	0.159254
1048.217832	0.157180
1048.384505	0.155690
1048.551161	0.154696
1048.717798	0.151184
1048.884416	0.150696
1049.051017	0.149118
1049.217599	0.149389
1049.384163	0.152097
1049.550709	0.153652
1049.717237	0.155662
1049.883746	0.156815
1050.050237	0.158073
1050.216710	0.160570
1050.383165	0.161345
1050.549601	0.160497
1050.716019	0.160885
1050.882420	0.161032
1051.048801	0.161123
1051.215165	0.158486
1051.381510	0.158398
1051.547837	0.157348
1051.714146	0.157593
1051.880437	0.156120
1052.046709	0.157258
1052.212964	0.156752
1052.379200	0.157281
1052.545417	0.157081
1052.711617	0.160469
1052.877798	0.160871
1053.043961	0.161588
1053.210106	0.163052
1053.376233	0.164131
1053.542341	0.163799
1053.708432	0.161606
1053.874504	0.158729
1054.040557	0.158130
1054.206593	0.156630
1054.372610	0.155534
1054.538609	0.156686
1054.704590	0.156441
1054.870553	0.156305
1055.036497	0.157733
1055.202424	0.159193
1055.368331	0.158508
1055.534221	0.157955
1055.700093	0.156182
1055.865946	0.156300
1056.031781	0.154372
1056.197598	0.154336
1056.363397	0.152779
1056.529177	0.151520
1056.694939	0.153053
1056.860683	0.155515
1057.026409	0.153609
1057.192116	0.155062
1057.357806	0.155739
1057.523477	0.158303
1057.689130	0.156364
1057.854764	0.158126
1058.020381	0.157769
1058.185979	0.159241
1058.351559	0.160697
1058.517120	0.163306
1058.682664	0.164653
1058.848189	0.162701
1059.013696	0.162326
1059.179185	0.164846
1059.344656	0.164099
1059.510108	0.165710
1059.675542	0.165413
1059.840958	0.164869
1060.006356	0.165293
1060.171735	0.165025
1060.337096	0.165132
1060.502439	0.165495
1060.667764	0.164806
1060.833071	0.167877
1060.998359	0.165866
1061.163629	0.163018
1061.328881	0.162020
1061.494115	0.162295
1061.659330	0.162865
1061.824527	0.161349
1061.989706	0.158161
1062.154867	0.156674
1062.320010	0.151349
1062.485134	0.151107
1062.650240	0.151707
1062.815328	0.151990
1062.980398	0.150752
1063.145449	0.149537
1063.310482	0.149612
1063.475497	0.151528
1063.640494	0.150617
1063.805473	0.154047
1063.970433	0.154589
1064.135375	0.155563
1064.300299	0.155837
1064.465204	0.155695
1064.630092	0.155944
1064.794961	0.156635
1064.959812	0.157644
1065.124645	0.160841
1065.289459	0.159356
1065.454256	0.159860
1065.619034	0.158382
1065.783793	0.157840
1065.948535	0.159755
1066.113258	0.161724
1066.277964	0.163636
1066.442651	0.164067
1066.607319	0.162698
1066.771970	0.166126
1066.936602	0.166243
1067.101216	0.166814
1067.265812	0.169296
1067.430389	0.167179
1067.594949	0.165050
1067.759490	0.163222
1067.924013	0.162783
1068.088518	0.164108
1068.253004	0.162854
1068.417472	0.164236
1068.581922	0.164768
1068.746354	0.161548
1068.910768	0.162623
1069.075163	0.163747
1069.239540	0.165582
1069.403899	0.162876
1069.568240	0.160754
1069.732562	0.162584
1069.896866	0.163440
1070.061152	0.165410
1070.225420	0.166483
1070.389670	0.166332
1070.553901	0.166273
1070.718114	0.164200
1070.882309	0.166205
1071.046486	0.168345
1071.210644	0.165731
1071.374784	0.165285
1071.538906	0.163399
1071.703010	0.164522
1071.867096	0.162683
1072.031163	0.162389
1072.195212	0.163738
1072.359243	0.163419
1072.523256	0.163693
1072.687250	0.161882
1072.851226	0.159804
1073.015184	0.158566
1073.179124	0.158107
1073.343045	0.159033
1073.506949	0.159089
1073.670834	0.161462
1073.834701	0.162642
1073.998549	0.162779
1074.162380	0.163993
1074.326192	0.163935
1074.489986	0.167105
1074.653761	0.169379
1074.817519	0.171215
1074.981258	0.171399
1075.144979	0.171922
1075.308682	0.173451
1075.472367	0.172844
1075.636033	0.174299
1075.799681	0.174492
1075.963311	0.173858
1076.126923	0.170294
1076.290516	0.169993
1076.454092	0.171277
1076.617649	0.169320
1076.781187	0.166946
1076.944708	0.165554
1077.108210	0.164099
1077.271695	0.165358
1077.435160	0.165425
1077.598608	0.167784
1077.762038	0.168124
1077.925449	0.169269
1078.088842	0.168913
1078.252217	0.169200
1078.415573	0.170491
1078.578912	0.172489
1078.742232	0.171776
1078.905534	0.172052
1079.068817	0.169252
1079.232083	0.169971
1079.395330	0.171303
1079.558559	0.171646
1079.721770	0.172512
1079.884962	0.173521
1080.048136	0.174305
1080.211293	0.174261
1080.374430	0.173320
1080.537550	0.171702
1080.700651	0.170759
1080.863735	0.167708
1081.026800	0.167975
1081.189846	0.167446
1081.352875	0.166896
1081.515885	0.164553
1081.678877	0.166684
1081.841851	0.168305
1082.004807	0.171467
1082.167744	0.170551
1082.330663	0.170264
1082.493564	0.169246
1082.656447	0.171202
1082.819312	0.172320
1082.982158	0.171525
1083.144986	0.170823
1083.307796	0.170566
1083.470587	0.169560
1083.633361	0.167265
1083.796116	0.168002
1083.958853	0.169752
1084.121571	0.168764
1084.284272	0.166058
1084.446954	0.168153
1084.609618	0.167654
1084.772264	0.168990
1084.934892	0.171240
1085.097501	0.176054
1085.260092	0.176414
1085.422665	0.177857
1085.585220	0.179307
1085.747756	0.181413
1085.910274	0.181421
1086.072774	0.180785
1086.235256	0.180943
1086.397720	0.180710
1086.560165	0.177891
1086.722592	0.177298
1086.885001	0.174729
1087.047392	0.175297
1087.209764	0.173775
1087.372119	0.173838
1087.534455	0.173351
1087.696772	0.170252
1087.859072	0.171759
1088.021353	0.171921
1088.183616	0.171806
1088.345861	0.173784
1088.508088	0.172525
1088.670296	0.177424
1088.832486	0.178533
1088.994658	0.181508
1089.156812	0.182934
1089.318948	0.180694
1089.481065	0.182578
1089.643164	0.185110
1089.805245	0.186850
1089.967308	0.187162
1090.129352	0.184329
1090.291378	0.185238
1090.453386	0.182471
1090.615376	0.180133
1090.777347	0.180543
1090.939301	0.179254
1091.101236	0.175921
1091.263153	0.173128
1091.425051	0.174156
1091.586932	0.172801
1091.748794	0.172709
1091.910638	0.174299
1092.072463	0.176204
1092.234271	0.176279
1092.396060	0.177281
1092.557831	0.181407
1092.719584	0.179292
1092.881319	0.175988
1093.043035	0.174665
1093.204733	0.172135
1093.366413	0.175176
1093.528075	0.176665
1093.689718	0.176223
1093.851343	0.175483
1094.012950	0.174229
1094.174539	0.175609
1094.336110	0.175138
1094.497662	0.178851
1094.659196	0.179585
1094.820712	0.173861
1094.982210	0.171595
1095.143689	0.172105
1095.305151	0.175410
1095.466594	0.173658
1095.628018	0.174286
1095.789425	0.177016
1095.950813	0.175878
1096.112183	0.174863
1096.273535	0.173857
1096.434869	0.174657
1096.596184	0.181397
1096.757482	0.178551
1096.918761	0.175116
1097.080021	0.177121
1097.241264	0.178070
1097.402488	0.179638
1097.563694	0.183598
1097.724882	0.186558
1097.886052	0.184646
1098.047203	0.178815
1098.208336	0.181825
1098.369451	0.184972
1098.530548	0.180154
1098.691627	0.174225
1098.852687	0.174698
1099.013729	0.175478
1099.174753	0.175314
1099.335758	0.177969
1099.496746	0.178653
1099.657715	0.180232
1099.818666	0.180018
1099.979599	0.185023
1100.140513	0.189563
1100.301409	0.188018
1100.462287	0.184392
1100.623147	0.182794
1100.783989	0.183253
1100.944812	0.180030
1101.105617	0.175165
1101.266404	0.172786
1101.427173	0.171243
1101.587923	0.172826
1101.748656	0.172543
1101.909370	0.173383
1102.070066	0.175511
1102.230743	0.172561
1102.391403	0.178866
1102.552044	0.180817
1102.712667	0.187421
1102.873271	0.186859
1103.033858	0.191524
1103.194426	0.192620
1103.354976	0.189744
1103.515508	0.189573
1103.676021	0.195347
1103.836517	0.192493
1103.996994	0.194821
1104.157453	0.192145
1104.317893	0.195117
1104.478316	0.187847
1104.638720	0.189485
1104.799106	0.191341
1104.959474	0.191697
1105.119823	0.191799
1105.280155	0.189668
1105.440468	0.189231
1105.600763	0.188996
1105.761039	0.189320
1105.921298	0.192396
1106.081538	0.191926
1106.241760	0.194450
1106.401964	0.191996
1106.562149	0.188876
1106.722316	0.189723
1106.882465	0.186275
1107.042596	0.187188
1107.202709	0.184415
1107.362803	0.181120
1107.522879	0.179424
1107.682937	0.182864
1107.842977	0.187118
1108.002999	0.188211
1108.163002	0.186307
1108.322987	0.188146
1108.482954	0.187130
1108.642902	0.192388
1108.802833	0.194645
1108.962745	0.194071
1109.122639	0.190683
1109.282515	0.188726
1109.442372	0.185319
1109.602211	0.187790
1109.762032	0.192837
1109.921835	0.195397
1110.081620	0.189620
1110.241386	0.191803
1110.401134	0.192304
1110.560864	0.189638
1110.720576	0.187876
1110.880269	0.189303
1111.039945	0.191603
1111.199602	0.184960
1111.359240	0.180440
1111.518861	0.183283
1111.678463	0.180016
1111.838047	0.179092
1111.997613	0.183865
1112.157161	0.188603
1112.316690	0.187727
1112.476202	0.181887
1112.635695	0.184396
1112.795169	0.193882
1112.954626	0.191639
1113.114064	0.193851
1113.273484	0.198274
1113.432886	0.196696
1113.592270	0.198241
1113.751635	0.202844
1113.910983	0.205920
1114.070312	0.205243
1114.229622	0.194296
1114.388915	0.191517
1114.548189	0.188188
1114.707445	0.193032
1114.866683	0.195229
1115.025903	0.193228
1115.185104	0.192161
1115.344287	0.194151
1115.503452	0.193776
1115.662599	0.199904
1115.821727	0.205230
1115.980838	0.206766
1116.139930	0.198585
1116.299004	0.199371
1116.458059	0.199708
1116.617097	0.197524
1116.776116	0.193516
1116.935117	0.198021
1117.094099	0.197916
1117.253064	0.194239
1117.412010	0.193740
1117.570938	0.194972
1117.729848	0.193281
1117.888740	0.189010
1118.047613	0.192067
1118.206468	0.194595
1118.365305	0.189811
1118.524124	0.185011
1118.682924	0.189988
1118.841707	0.191456
1119.000471	0.189319
1119.159216	0.190304
1119.317944	0.191918
1119.476653	0.189210
1119.635344	0.184034
1119.794017	0.186978
1119.952672	0.189363
1120.111308	0.189274
1120.269927	0.191591
1120.428527	0.196985
1120.587108	0.190124
1120.745672	0.191678
1120.904217	0.189560
1121.062744	0.192794
1121.221253	0.196215
1121.379744	0.194462
1121.538216	0.190410
1121.696671	0.185639
1121.855107	0.180850
1122.013524	0.177865
1122.171924	0.177014
1122.330305	0.179846
1122.488668	0.177892
1122.647013	0.170646
1122.805340	0.173536
1122.963648	0.176573
1123.121938	0.179080
1123.280210	0.184165
1123.438464	0.187489
1123.596700	0.190228
1123.754917	0.192685
1123.913116	0.195362
1124.071297	0.196910
1124.229459	0.198430
1124.387604	0.196994
1124.545730	0.195854
1124.703838	0.191701
1124.861928	0.199560
1125.019999	0.203321
1125.178052	0.203148
1125.336088	0.208182
1125.494104	0.208788
1125.652103	0.206527
1125.810083	0.205346
1125.968045	0.216673
1126.125989	0.209881
1126.283915	0.207509
1126.441823	0.203869
1126.599712	0.202509
1126.757583	0.199874
1126.915436	0.203016
1127.073270	0.200111
1127.231087	0.199675
1127.388885	0.197580
1127.546665	0.198973
1127.704426	0.197970
1127.862170	0.200143
1128.019895	0.196101
1128.177602	0.200403
1128.335291	0.196173
1128.492961	0.202943
1128.650614	0.204182
1128.808248	0.199457
1128.965864	0.199014
1129.123461	0.200649
1129.281041	0.195914
1129.438602	0.196880
1129.596145	0.190749
1129.753670	0.188069
1129.911176	0.189505
1130.068665	0.191169
1130.226135	0.191437
1130.383587	0.196953
1130.541020	0.193743
1130.698436	0.193908
1130.855833	0.198091
1131.013212	0.198786
1131.170573	0.193393
1131.327915	0.194609
1131.485239	0.195972
1131.642545	0.191619
1131.799833	0.190271
1131.957103	0.189894
1132.114354	0.191002
1132.271588	0.198885
1132.428803	0.200266
1132.585999	0.209713
1132.743178	0.204835
1132.900338	0.204106
1133.057480	0.207507
1133.214604	0.212419
1133.371710	0.216737
1133.528797	0.218320
1133.685866	0.209614
1133.842917	0.206888
1133.999950	0.216228
1134.156964	0.215056
1134.313960	0.211405
1134.470938	0.204530
1134.627898	0.206159
1134.784840	0.207680
1134.941763	0.211423
1135.098668	0.216063
1135.255555	0.222269
1135.412424	0.217945
1135.569274	0.223883
1135.726107	0.228366
1135.882921	0.228389
1136.039716	0.222535
1136.196494	0.216529
1136.353253	0.220291
1136.509995	0.217771
1136.666717	0.213430
1136.823422	0.206771
1136.980109	0.207793
1137.136777	0.205489
1137.293427	0.212947
1137.450059	0.216579
1137.606672	0.214369
1137.763267	0.209067
1137.919844	0.208307
1138.076403	0.203488
1138.232944	0.201188
1138.389466	0.201945
1138.545971	0.207569
1138.702457	0.200067
1138.858924	0.189912
1139.015374	0.187071
1139.171805	0.184625
1139.328218	0.182602
1139.484613	0.192274
1139.640990	0.192426
1139.797348	0.181155
1139.953688	0.182085
1140.110010	0.187912
1140.266314	0.193934
1140.422600	0.205633
1140.578867	0.203867
1140.735116	0.197230
1140.891347	0.190358
1141.047559	0.193525
1141.203754	0.191643
1141.359930	0.188784
1141.516088	0.185048
1141.672228	0.187796
1141.828349	0.180860
1141.984452	0.182956
1142.140537	0.195797
1142.296604	0.198665
1142.452653	0.195214
1142.608683	0.190619
1142.764695	0.182418
1142.920689	0.193256
1143.076665	0.193217
1143.232622	0.200688
1143.388562	0.207933
1143.544483	0.197269
1143.700385	0.195013
1143.856270	0.207437
1144.012136	0.215955
1144.167985	0.220741
1144.323814	0.210617
1144.479626	0.213095
1144.635420	0.212258
1144.791195	0.201209
1144.946952	0.208796
1145.102691	0.223068
1145.258411	0.216181
1145.414113	0.219268
1145.569798	0.206542
1145.725463	0.199498
1145.881111	0.195094
1146.036741	0.186893
1146.192352	0.187786
1146.347945	0.181596
1146.503519	0.174115
1146.659076	0.179385
1146.814614	0.185133
1146.970134	0.199741
1147.125636	0.206811
1147.281120	0.201800
1147.436585	0.199401
1147.592032	0.211085
1147.747461	0.210224
1147.902872	0.203824
1148.058265	0.197159
1148.213639	0.190264
1148.368995	0.183819
1148.524333	0.190254
1148.679653	0.206622
1148.834954	0.209032
1148.990237	0.200917
1149.145502	0.211754
1149.300749	0.222160
1149.455977	0.218946
1149.611188	0.225171
1149.766380	0.228446
1149.921553	0.223801
1150.076709	0.216503
1150.231846	0.228791
1150.386966	0.223337
1150.542066	0.212154
1150.697149	0.197146
1150.852214	0.198029
1151.007260	0.197806
1151.162288	0.201445
1151.317298	0.209173
1151.472289	0.206469
1151.627263	0.199989
1151.782218	0.196651
1151.937155	0.197412
1152.092073	0.207038
1152.246974	0.219844
1152.401856	0.217216
1152.556720	0.223475
1152.711566	0.220552
1152.866393	0.214802
1153.021203	0.213061
1153.175994	0.223306
1153.330767	0.221191
1153.485521	0.208444
1153.640258	0.192068
1153.794976	0.189569
1153.949676	0.184780
1154.104358	0.177179
1154.259021	0.183250
1154.413667	0.174316
1154.568294	0.171767
1154.722903	0.171208
1154.877493	0.172147
1155.032066	0.181139
1155.186620	0.175730
1155.341156	0.174706
1155.495674	0.180666
1155.650173	0.179600
1155.804654	0.185436
1155.959118	0.183357
1156.113562	0.190814
1156.267989	0.204615
1156.422397	0.207165
1156.576788	0.211647
1156.731160	0.206097
1156.885513	0.204269
1157.039849	0.202553
1157.194166	0.210606
1157.348465	0.205920
1157.502746	0.211893
1157.657009	0.215227
1157.811253	0.209047
1157.965479	0.219105
1158.119687	0.227907
1158.273877	0.219278
1158.428048	0.222478
1158.582201	0.229221
1158.736337	0.234400
1158.890453	0.247668
1159.044552	0.239628
1159.198632	0.232989
1159.352694	0.227805
1159.506738	0.227609
1159.660764	0.225569
1159.814771	0.216277
1159.968761	0.199759
1160.122732	0.198334
1160.276685	0.186001
1160.430619	0.190300
1160.584535	0.203040
1160.738434	0.208091
1160.892313	0.203446
1161.046175	0.206078
1161.200019	0.219034
1161.353844	0.225620
1161.507651	0.234524
1161.661440	0.228226
1161.815210	0.221382
1161.968962	0.208222
1162.122697	0.194296
1162.276412	0.194427
1162.430110	0.200299
1162.583789	0.191159
1162.737451	0.183713
1162.891094	0.171969
1163.044718	0.158855
1163.198325	0.161353
1163.351913	0.170222
1163.505483	0.170185
1163.659035	0.178573
1163.812569	0.181595
1163.966084	0.180890
1164.119581	0.184934
1164.273060	0.184977
1164.426521	0.194818
1164.579964	0.188753
1164.733388	0.177388
1164.886794	0.201257
1165.040182	0.177148
1165.193551	0.171249
1165.346903	0.175440
1165.500236	0.185407
1165.653551	0.188067
1165.806848	0.189746
1165.960126	0.193352
1166.113386	0.206603
1166.266628	0.176874
1166.419852	0.192406
1166.573058	0.213160
1166.726245	0.204461
1166.879414	0.200830
1167.032565	0.209121
1167.185698	0.208239
1167.338812	0.218996
1167.491909	0.227333
1167.644987	0.255713
1167.798046	0.256833
1167.951088	0.229600
1168.104111	0.227426
1168.257117	0.232748
1168.410103	0.234604
1168.563072	0.221092
1168.716023	0.204438
1168.868955	0.204319
1169.021869	0.189007
1169.174765	0.179086
1169.327642	0.182707
1169.480501	0.191411
1169.633343	0.171658
1169.786165	0.140976
1169.938970	0.160835
1170.091757	0.156154
1170.244525	0.148533
1170.397275	0.141154
1170.550007	0.138938
1170.702720	0.141677
1170.855415	0.145531
1171.008092	0.162641
1171.160751	0.197933
1171.313392	0.198380
1171.466014	0.233431
1171.618619	0.280493
1171.771205	0.280493
1171.923772	0.280493
