sample name	sample
index	83
start time	 02-11-2021  04:28:29 PM
880	0.378137
Peak Time (s)	92.037
Peak Height 	0.3781
calc peak height	90,93
Baseline Time (s)	9.536
Baseline Value 	-0.001412
subtract baseline	10,4
Abs	0.319099
Peak Time (s)	91.535
Peak Height 	0.3191
calc peak height	90,93
Baseline Time (s)	10.537
Baseline Value 	0.00369
subtract baseline	10,3
PK_550	0.154176
Peak Time (s)	90.035
Peak Height 	0.1542
calc peak height	90,93
Baseline Time (s)	9.536
Baseline Value 	0.001006
subtract baseline	10,2
PK_880	0.296644
Peak Time (s)	92.037
Peak Height 	0.2966
calc peak height	90,93
Baseline Time (s)	9.536
Baseline Value 	4.0824E-4
subtract baseline	10,1


Time (s)	A880-A510	A880-A775	A880-A975	A880	I510	I775	I975	I880	
0.036000	0.001278	-0.000176	0.008207	0.001477	4464.449254	19176.003983	3298.942615	10534.924017
0.539000	-0.002149	-0.002009	-0.008314	0.002945	4447.241327	19053.022838	3283.633377	10509.256548
1.037000	0.000103	-0.001610	-0.002306	0.002367	4457.167436	19089.344101	3289.165762	10519.366497
1.536500	-0.001028	-0.000724	0.005786	0.000333	4460.345783	19198.318291	3297.834633	10554.986984
2.036500	0.003884	-0.000517	-0.000723	-0.000045	4479.113386	19220.291783	3292.561453	10561.640729
2.537000	0.000501	-0.000630	-0.000677	0.001420	4461.906695	19161.183906	3291.351291	10535.931268
3.037000	0.004990	0.000567	-0.000522	-0.001552	4488.463392	19317.719259	3294.023161	10588.159871
3.537500	-0.004562	-0.001327	-0.003703	-0.000735	4451.676131	19215.728633	3290.610410	10573.762079
4.038000	-0.000511	-0.001150	-0.003300	-0.001696	4469.350276	19258.482548	3291.771358	10590.698497
4.536000	-0.001758	0.000255	-0.004491	0.000540	4457.047719	19227.283550	3288.862748	10551.364463
5.036000	-0.001191	-0.000315	-0.008181	-0.000207	4461.676748	19233.917107	3286.382175	10564.486205
5.536000	0.005103	-0.000164	0.006468	-0.000145	4483.827496	19237.273380	3298.841639	10563.395544
6.036500	-0.000111	0.000706	0.000535	0.000498	4463.001240	19245.769059	3293.172129	10552.091062
6.536500	0.000914	-0.000636	-0.000568	-0.001363	4473.226665	19265.275700	3293.821880	10584.829344
7.037000	-0.000653	-0.001118	0.001797	-0.001221	4467.162371	19241.833472	3295.732040	10582.331479
7.534000	0.003905	-0.001301	0.001195	-0.001240	4483.457476	19235.711352	3295.230310	10582.672262
8.037500	0.000437	-0.000705	0.004421	-0.000632	4468.938654	19235.243148	3297.489325	10571.964883
8.535500	-0.000481	-0.001219	0.001712	-0.001340	4468.197280	19242.540008	3295.760977	10584.433874
9.035500	-0.000664	0.000584	-0.003958	0.000176	4462.185803	19253.305679	3289.621892	10557.752327
9.536000	0.000000	0.000000	0.002243	0.000000	4465.153621	19237.972336	3295.064800	10560.843231
10.036000	0.002114	0.000142	-0.001212	0.000238	4471.801528	19234.359383	3291.902837	10556.657029
10.536500	-0.000928	-0.001564	0.000000	-0.001467	4467.060639	19234.312049	3294.397698	10586.659931
11.036500	0.002148	-0.000072	-0.009448	-0.000278	4473.758399	19245.723502	3285.379232	10565.734943
11.537000	0.002762	0.000867	0.006414	0.000451	4473.348852	19253.586840	3298.276562	10552.915873
12.037500	-0.001423	-0.001564	0.007571	-0.001490	4465.390682	19235.177028	3300.973151	10587.072157
12.537000	0.001716	0.000140	0.004704	-0.000731	4473.832907	19270.684564	3297.819003	10573.697647
13.035000	-0.002239	-0.000933	0.000022	0.004910	4440.077942	19020.080921	3288.983416	10475.047984
13.541000	0.003123	-0.001451	-0.004113	-0.001233	4480.636154	19229.786401	3290.685549	10582.535938
14.035500	-0.004241	-0.002659	0.000564	0.000359	4448.969932	19125.068528	3293.315933	10554.534753
14.536500	-0.000326	-0.001976	-0.000910	0.000175	4463.382920	19157.420585	3292.214716	10557.775186
15.036500	0.002023	-0.001310	-0.005691	0.004153	4457.640226	19034.200999	3284.815739	10488.217767
15.536500	0.002326	-0.000082	0.001485	-0.000892	4476.577645	19268.403109	3295.179978	10576.537709
16.036500	-0.002019	-0.001012	-0.010709	-0.001097	4461.897258	19241.155263	3285.009205	10580.141487
16.537000	-0.001788	-0.000794	-0.007673	-0.001060	4462.582701	19247.967604	3287.527493	10579.499147
17.037000	0.001045	-0.000299	-0.006681	0.001939	4461.996618	19154.182141	3285.840320	10526.850467
17.535000	-0.003346	-0.001650	0.002514	-0.000931	4456.638074	19211.016270	3296.100346	10577.230045
18.035500	-0.001565	-0.001017	-0.005024	0.000883	4456.520432	19166.805284	3288.122314	10545.344849
18.535500	0.001132	-0.000428	0.003630	0.000744	4466.526187	19194.060234	3295.618670	10547.786072
19.035500	-0.002510	-0.001173	-0.009505	0.000964	4452.915938	19157.935738	3284.292285	10543.918154
19.535500	0.000579	-0.000074	0.003667	0.000676	4464.809886	19209.806832	3295.708079	10548.964903
20.036000	0.000217	-0.000326	0.002858	0.000777	4463.175652	19196.606444	3294.925351	10547.202901
20.537000	0.000321	-0.002087	0.001867	-0.000537	4468.191005	19179.857081	3295.203044	10570.277539
21.037000	-0.004219	-0.001013	-0.009913	0.001131	4446.349752	19157.687024	3283.812865	10541.000785
21.537000	-0.001932	0.000040	0.001063	0.000880	4455.240704	19206.481796	3293.297153	10545.393973
22.037500	-0.000832	-0.000081	-0.005692	0.001151	4458.154370	19191.769788	3287.332977	10540.636210
22.535000	0.000349	0.000559	-0.012414	0.001130	4462.395690	19216.569991	3281.734095	10541.016067
23.038000	-0.001497	-0.002033	0.003782	-0.000440	4461.419873	19178.273115	3296.770151	10568.584330
23.535500	-0.002982	-0.001703	-0.001073	-0.000314	4455.744374	19185.882521	3292.492030	10566.357372
24.036000	-0.000940	-0.001113	-0.002006	-0.000020	4461.903039	19196.970625	3291.445209	10561.186572
24.536500	-0.003217	-0.001304	0.000191	-0.000324	4454.957544	19201.211397	3293.581903	10566.540743
25.036500	-0.000340	-0.001991	0.011981	0.000193	4463.269133	19156.184212	3303.362887	10557.445324
25.536500	-0.003818	-0.001809	-0.000355	-0.000602	4453.823917	19192.743312	3293.352374	10571.435312
26.037000	-0.000701	-0.000566	-0.021151	0.001528	4457.291353	19159.570094	3274.238876	10534.040397
26.534000	0.000507	-0.001088	-0.000019	0.000687	4464.518722	19171.460115	3292.537561	10548.782645
27.035000	0.000250	-0.000289	0.004808	-0.002659	4475.474651	19327.191958	3299.583191	10607.709963
27.538000	0.003786	-0.000576	-0.008673	-0.001107	4482.555129	19257.897997	3286.725159	10580.318933
28.035500	0.000842	0.000187	-0.005895	0.000023	4468.051575	19244.103776	3288.112778	10560.432899
28.536000	0.001186	-0.001437	0.008988	-0.001218	4473.680976	19229.758166	3301.974889	10582.286027
29.036000	-0.001043	-0.001996	0.004416	0.004000	4447.421915	19014.421951	3293.497004	10490.874639
29.536500	0.001144	-0.000204	0.006060	-0.001192	4473.434230	19275.078651	3299.396422	10581.811654
30.036500	-0.003766	-0.001100	-0.002488	0.001327	4447.249727	19147.143314	3289.892217	10537.566149
30.539500	-0.001893	-0.000335	0.005895	0.001846	4451.987998	19156.310738	3296.620495	10528.470249
31.037000	-0.002483	-0.001138	0.008377	0.002234	4448.560978	19111.871381	3298.432915	10521.684297
31.543000	-0.000321	-0.002491	0.011525	-0.002004	4471.115096	19219.674694	3304.896273	10596.134818
32.035000	-0.001501	-0.002009	0.016858	0.001680	4453.945758	19100.063356	3306.353986	10531.379468
32.536000	0.000803	-0.000416	-0.000597	-0.000224	4468.792109	19230.757251	3292.821863	10564.783553
33.035500	-0.003083	-0.001717	0.001900	0.003485	4442.099439	19043.819836	3291.787212	10499.841853
33.535500	-0.001765	-0.000315	-0.002055	0.001082	4455.116145	19185.607036	3290.466830	10541.851586
34.036500	-0.003412	-0.002842	-0.005340	0.000796	4450.343832	19101.973727	3287.929004	10546.869426
34.536500	-0.000208	-0.000323	0.004911	0.002244	4456.506796	19141.910415	3295.430162	10521.517895
35.036000	-0.003231	-0.001992	0.001890	-0.000022	4453.845904	19164.152433	3294.780119	10561.224294
35.537000	-0.001674	-0.002067	0.012126	0.000951	4455.897145	19125.039084	3302.823890	10544.140844
36.035000	-0.005557	0.000051	-0.004633	0.002899	4435.540912	19131.432752	3286.754233	10510.076456
36.534500	-0.001670	-0.001046	-0.003202	0.000803	4456.430558	19168.698938	3289.730236	10546.737494
37.037500	-0.000192	0.000030	-0.001331	0.001855	4457.931192	19169.616834	3290.425810	10528.315304
37.535000	-0.001157	-0.000701	0.002878	0.001240	4456.698155	19165.272094	3294.545030	10539.079836
38.035500	-0.002895	0.000252	0.013119	0.001690	4449.023787	19184.047095	3303.046653	10531.194019
38.536000	-0.000195	-0.001543	0.006769	0.001260	4460.017563	19133.073773	3297.884003	10538.738060
39.036000	-0.000846	-0.002681	0.003488	0.000198	4461.466219	19130.241349	3295.965562	10557.358843
39.535500	0.001216	-0.000599	-0.003580	0.000989	4465.957447	19178.479568	3289.253518	10543.483763
40.036500	-0.001550	-0.001612	0.001450	0.000566	4457.689288	19156.428494	3293.898516	10550.905885
40.537000	-0.002406	-0.001102	0.008535	0.001193	4452.478870	19152.039095	3299.474555	10539.903325
41.034500	0.000919	-0.000373	-0.012784	0.001587	4462.792045	19164.541224	3281.049194	10533.006979
41.535000	-0.001649	-0.000327	-0.000079	0.002045	4452.145956	19149.161774	3291.328827	10524.996509
42.035500	-0.003564	-0.001387	0.011110	0.000393	4451.222512	19171.287353	3302.423205	10553.944180
42.535500	0.000718	0.000047	0.001350	0.001552	4462.209667	19181.596229	3292.968972	10533.626430
43.036000	-0.000658	-0.000582	0.011012	0.001786	4456.537429	19149.334553	3301.117850	10529.529268
43.536500	0.003543	-0.000574	-0.004053	-0.003906	4491.725585	19363.544277	3293.015105	10629.794077
44.036500	-0.000773	-0.000940	-0.007367	0.004911	4445.182329	19019.777751	3282.784979	10475.021428
44.536000	0.000320	-0.000719	0.010807	-0.000289	4467.306149	19221.805563	3302.754914	10565.916359
45.037000	0.001706	-0.001744	-0.003090	0.002910	4460.903506	19064.194549	3288.044026	10509.883521
45.537500	0.003287	-0.000123	0.007527	-0.000412	4478.290785	19248.801729	3299.994617	10568.079306
46.035000	-0.003816	-0.001580	-0.005779	0.004137	4437.285574	19024.772794	3284.754957	10488.493577
46.543000	0.001421	-0.001140	0.007227	-0.000848	4473.198848	19227.040659	3300.113633	10575.767011
47.035500	-0.002300	-0.001365	-0.000546	0.003336	4445.349577	19062.450127	3289.835119	10502.440038
47.535500	0.002080	-0.000577	-0.005683	0.000959	4469.122058	19180.391331	3287.501948	10544.005330
48.036000	-0.003214	-0.000827	0.008180	0.004095	4439.523184	19054.256136	3296.652426	10489.222551
48.539000	-0.001676	-0.000073	0.005956	0.000076	4458.971635	19232.394170	3298.205263	10559.513458
49.036500	-0.004063	-0.001211	0.002332	0.003800	4437.594525	19050.897444	3291.886604	10494.348410
49.537000	0.002178	-0.000930	0.003786	-0.005533	4492.665828	19411.699328	3301.198548	10658.699184
50.037000	0.000989	-0.000818	0.007072	0.004524	4452.702246	19038.628960	3295.326260	10481.745950
50.537500	-0.024920	-0.025295	0.018967	0.271522	3705.362797	11165.282329	3129.323155	7013.137805
51.035000	-0.010878	-0.019919	-0.017556	-0.014801	4479.091449	19046.967405	3290.791706	10825.432043
51.538000	-0.012120	-0.020151	0.015724	-0.123752	4915.324354	23630.477420	3433.837667	13077.080350
52.035500	-0.008736	-0.018307	-0.002762	-0.176183	5187.697685	26385.589693	3475.478774	14379.268532
52.537500	0.000252	-0.013763	0.012066	-0.096324	4847.653352	22651.720151	3398.457294	12455.986977
53.036000	-0.003826	-0.013765	0.001904	-0.099886	4845.373547	22813.982974	3391.265226	12534.439542
53.536000	-0.004577	-0.009941	-0.004643	-0.074568	4733.739349	21854.015757	3358.040998	11990.469319
54.036500	0.001507	-0.009634	0.013957	-0.071485	4746.251743	21733.471251	3373.915381	11926.372914
54.537000	-0.000017	-0.011087	0.012999	-0.071612	4740.416160	21676.175252	3373.051061	11929.004880
55.036500	-0.002812	-0.013680	0.010402	-0.034472	4581.302219	20037.505399	3333.580162	11191.313095
55.534500	0.007815	-0.012968	0.008882	-0.019916	4566.421332	19500.888684	3318.610741	10918.976691
56.038000	0.009006	-0.013121	0.025852	-0.004139	4512.349612	18904.231693	3319.702197	10633.923393
56.535500	0.002513	-0.017765	0.018713	0.001263	4469.582594	18539.069250	3308.372576	10538.689118
57.036000	0.014520	-0.013102	0.035952	0.021150	4441.883673	18001.502943	3306.021382	10198.075912
57.535500	0.017656	-0.017943	0.029241	0.030797	4419.375800	17507.103914	3291.811863	10038.374882
58.036000	0.021249	-0.015208	0.054744	0.047681	4374.464012	17039.973879	3299.232546	9767.290431
58.536500	0.030116	-0.011845	0.055189	0.059664	4364.132210	16762.741144	3289.332632	9581.179631
59.036500	0.051895	-0.004762	0.067612	0.082308	4361.275611	16276.000447	3280.779764	9243.219204
59.537000	0.056826	-0.003117	0.070183	0.088364	4357.572398	16141.175772	3277.909626	9155.781767
60.034000	0.074444	0.000509	0.088980	0.138957	4253.139680	14787.373383	3252.757640	8471.034177
60.538000	0.106644	0.015376	0.134555	0.160553	4285.861317	14605.116709	3271.554457	8202.179333
61.035000	0.128931	0.030377	0.148871	0.168501	4331.399555	14796.233719	3276.722754	8106.553317
61.535500	0.148097	0.046433	0.167516	0.206162	4272.941550	14220.544543	3261.510963	7676.473164
62.035500	0.155553	0.053684	0.161291	0.220758	4251.029149	14031.221613	3245.600138	7519.556487
62.536000	0.174536	0.059415	0.181068	0.231063	4277.706946	13914.960414	3252.743663	7411.913321
63.039000	0.178992	0.064537	0.202531	0.247784	4240.157017	13625.576291	3256.378953	7242.588775
63.542500	0.190831	0.072302	0.207206	0.259777	4239.693911	13522.011223	3250.786010	7125.101122
64.036500	0.191268	0.076702	0.207057	0.278044	4186.984431	13189.232696	3237.119774	6952.256751
64.537000	0.203088	0.082231	0.212469	0.285728	4199.020972	13138.484542	3235.474069	6881.700834
65.038000	0.208645	0.089770	0.218551	0.301091	4170.669513	12956.278130	3228.838505	6744.310183
65.537500	0.214307	0.094161	0.217276	0.305188	4175.151354	12963.052623	3225.061442	6708.482891
66.035500	0.222068	0.099672	0.237002	0.317551	4162.019724	12806.069940	3230.249569	6602.407769
66.535500	0.228354	0.102452	0.259075	0.317048	4181.440803	12880.983613	3246.716985	6606.667818
67.036000	0.237985	0.108066	0.246571	0.323393	4190.950694	12864.250949	3232.909716	6553.321028
67.536000	0.235138	0.111065	0.251633	0.328354	4168.470491	12819.492821	3232.981618	6512.153253
68.036500	0.237807	0.115247	0.255371	0.338226	4148.088665	12690.836208	3228.615965	6431.626208
68.537000	0.245252	0.118299	0.261198	0.336844	4173.114540	12790.954493	3233.753983	6442.790272
69.036500	0.244231	0.118915	0.257317	0.342282	4154.749270	12682.100770	3227.127818	6399.059658
69.537000	0.260432	0.126243	0.270975	0.345139	4192.989485	12782.988744	3234.820565	6376.308383
70.037500	0.256404	0.125997	0.277466	0.350280	4166.586843	12661.568457	3235.795708	6335.737770
70.534500	0.264789	0.132641	0.277508	0.350875	4188.983546	12798.014670	3235.395781	6331.076867
71.034500	0.262976	0.132085	0.274156	0.353392	4176.484048	12728.446983	3231.184226	6311.410965
71.534500	0.266049	0.133507	0.269583	0.349873	4195.561590	12840.528934	3230.433946	6338.931369
72.035500	0.267432	0.135783	0.270077	0.356550	4180.218882	12740.639496	3226.069051	6286.906172
72.536000	0.268546	0.136575	0.277746	0.351357	4198.516462	12876.725923	3235.219443	6327.297988
73.036500	0.268189	0.136368	0.285983	0.352637	4193.743952	12842.728999	3240.283682	6317.299548
73.536500	0.271232	0.138618	0.284203	0.350914	4207.694083	12933.804281	3240.241233	6330.765832
74.037000	0.272643	0.139989	0.282088	0.354967	4199.941007	12872.240557	3235.748457	6299.166466
74.537500	0.277192	0.140488	0.285914	0.351356	4224.042944	12966.734003	3241.174082	6327.307313
75.037500	0.274077	0.142349	0.286470	0.354163	4206.505710	12944.895754	3239.521612	6305.411261
75.535000	0.278043	0.143468	0.298447	0.352830	4222.186570	13001.574500	3249.415071	6315.791185
76.035500	0.277438	0.143286	0.274385	0.356750	4208.785614	12906.955626	3228.962255	6285.363157
76.535000	0.279510	0.145531	0.294248	0.352909	4226.328233	13047.704849	3246.202327	6315.180969
77.036000	0.280920	0.145769	0.297663	0.356754	4219.073491	12964.039276	3245.881136	6285.330880
77.536500	0.282736	0.145265	0.296527	0.353203	4235.113402	13034.671766	3247.689270	6312.887472
78.036500	0.282401	0.147563	0.297151	0.354589	4229.946068	13055.888166	3247.117738	6302.102784
78.537000	0.285522	0.147449	0.282596	0.355223	4237.417219	13038.459787	3235.930647	6297.179910
79.037000	0.286279	0.149191	0.310794	0.361193	4221.810967	12940.597268	3252.436604	6251.201129
79.537500	0.287310	0.149621	0.310900	0.357647	4235.503086	13032.602512	3255.228901	6278.432670
80.034500	0.286308	0.147346	0.300546	0.356389	4236.272425	13008.991955	3248.314749	6288.149915
80.535000	0.288210	0.147887	0.297322	0.357052	4240.006815	13006.160373	3245.404039	6283.026102
81.035500	0.289239	0.149894	0.288950	0.359847	4234.690169	12987.911969	3237.185514	6261.512887
81.535500	0.290348	0.149919	0.299511	0.360029	4237.479326	12984.272630	3244.817635	6260.114169
82.036500	0.289718	0.150417	0.297326	0.361119	4232.309571	12970.591001	3242.389718	6251.767215
82.536500	0.289423	0.152671	0.309645	0.363480	4224.364346	12968.120342	3249.829578	6233.751087
83.037000	0.288331	0.149424	0.303606	0.361228	4227.826100	12945.142637	3246.980321	6250.931276
83.536500	0.290669	0.153253	0.299948	0.365107	4223.227359	12943.999172	3241.382867	6221.392940
84.034500	0.293068	0.152483	0.286735	0.365193	4230.137872	12924.273060	3231.739611	6220.737754
84.534500	0.292549	0.151853	0.307642	0.365510	4227.636025	12902.512046	3246.795944	6218.336810
85.035000	0.292010	0.153172	0.318761	0.366894	4221.898864	12901.017088	3254.166450	6207.868901
85.535500	0.293926	0.152255	0.301362	0.366304	4229.380193	12893.512182	3241.541854	6212.326850
86.036000	0.288580	0.151823	0.298274	0.370075	4202.369383	12797.594715	3236.529308	6183.938077
86.536000	0.290318	0.151520	0.309599	0.367057	4216.389081	12859.459026	3247.102711	6206.640350
87.036000	0.294444	0.153724	0.301996	0.369404	4221.673216	12856.205329	3239.730931	6188.976493
87.536500	0.297697	0.153428	0.304234	0.370590	4227.838403	12822.376057	3240.502246	6180.080118
88.037000	0.293311	0.153681	0.309193	0.372194	4210.052595	12791.679834	3242.975606	6168.099904
88.537000	0.293862	0.153915	0.303050	0.370917	4215.452889	12826.020596	3239.394556	6177.634411
89.040000	0.296605	0.152186	0.316208	0.370808	4223.927674	12789.205952	3249.252332	6178.454830
89.535000	0.286327	0.149634	0.290283	0.368751	4199.652017	12777.964660	3231.732243	6193.880357
90.035500	0.293293	0.154176	0.291898	0.376996	4195.916738	12694.411551	3227.034726	6132.481464
90.535500	0.295957	0.153415	0.304315	0.374442	4211.225403	12734.766108	3237.745701	6151.374353
91.035500	0.294201	0.151951	0.310059	0.373059	4210.124978	12732.943097	3242.975830	6161.652093
91.535500	0.296282	0.152775	0.319099	0.375826	4208.101801	12689.208664	3247.650952	6141.120259
92.036500	0.296644	0.152512	0.294199	0.378137	4202.375016	12631.538450	3227.850968	6124.070437
92.537000	0.292953	0.151963	0.301609	0.375541	4199.172508	12677.371066	3234.988486	6143.231950
93.059000	0.289200	0.151750	0.285730	0.377958	4181.257843	12618.537190	3222.061547	6125.389052
93.540500	0.286875	0.149119	0.308341	0.375535	4181.538730	12613.907683	3239.887731	6143.273430
94.034000	0.290607	0.149696	0.295926	0.377047	4187.956542	12593.088533	3229.843634	6132.104554
94.535500	0.295384	0.152935	0.297493	0.379350	4195.148437	12613.933007	3229.322436	6115.163866
95.035500	0.293352	0.151236	0.294655	0.381140	4184.056289	12536.474296	3226.060857	6102.057285
95.536000	0.292925	0.149538	0.296478	0.378110	4191.600070	12565.966830	3229.481267	6124.269963
