sample name	sample
index	761
start time	 03-31-2021  12:22:18 PM
880	0.482012
Peak Time (s)	92.538
Peak Height 	0.482
calc peak height	90,93
Baseline Time (s)	10.037
Baseline Value 	-0.001609
subtract baseline	10,4
Abs	0.335238
Peak Time (s)	92.538
Peak Height 	0.3352
calc peak height	90,93
Baseline Time (s)	8.536
Baseline Value 	-1.5375E-4
subtract baseline	10,3
PK_550	0.138772
Peak Time (s)	91.037
Peak Height 	0.1388
calc peak height	90,93
Baseline Time (s)	8.536
Baseline Value 	1.9271E-4
subtract baseline	10,2
PK_880	0.319166
Peak Time (s)	91.537
Peak Height 	0.3192
calc peak height	90,93
Baseline Time (s)	10.037
Baseline Value 	5.3914E-4
subtract baseline	10,1


Time (s)	A880-A510	A880-A775	A880-A975	A880	I510	I775	I975	I880	
0.036500	-0.001665	-0.000485	0.002001	0.005162	6696.714618	40513.980254	3998.699187	22143.376581
0.537000	-0.002824	-0.000228	-0.002626	0.003204	6703.547362	40705.743503	3992.330574	22230.022025
1.037500	-0.003297	-0.000781	-0.000359	0.002328	6706.993701	40733.803501	3999.834814	22268.897687
1.536500	0.001399	0.000232	0.001532	0.000336	6764.719127	40995.734570	4009.180411	22357.623356
2.035000	0.000438	0.000284	0.001186	0.000910	6751.391493	40950.154457	4006.957906	22332.005791
2.535500	0.001818	-0.000629	0.001515	-0.000487	6775.529943	40992.373827	4011.131436	22394.371325
3.038500	0.002254	0.000550	0.002609	-0.001840	6791.169003	41214.525277	4017.075868	22454.982917
3.536000	0.000068	-0.000385	0.002015	-0.000031	6756.337724	40973.886689	4011.238437	22374.000722
4.036500	-0.000352	-0.001089	-0.003463	-0.000329	6755.288486	40938.422677	3998.765082	22387.334172
4.536500	0.000669	0.000349	0.002604	0.000176	6759.762471	41019.979830	4012.164900	22364.753185
5.036500	-0.000364	-0.000831	0.001136	-0.000708	6758.464610	40994.033507	4010.747896	22404.261173
5.537000	0.000388	0.000096	0.001829	-0.000377	6762.120786	41046.255141	4011.626797	22389.465927
6.034500	-0.001500	-0.001340	0.000637	-0.001159	6752.524083	40988.996240	4010.633098	22424.450177
6.535000	0.001052	-0.000824	-0.003087	-0.000507	6769.028137	40977.089355	4000.091695	22395.271879
7.035000	0.000569	-0.000192	-0.001689	0.000019	6760.254233	40986.325884	4002.182790	22371.752318
7.535500	-0.000085	-0.000600	-0.000501	-0.000603	6759.979176	41005.145928	4006.541075	22399.592991
8.036000	0.001838	-0.000062	0.001145	-0.000150	6772.767121	41012.548569	4009.420457	22379.302315
8.536000	-0.000486	0.000000	0.000000	-0.000468	6755.328557	41045.832402	4007.422833	22393.541794
9.036000	0.000134	0.000599	0.002464	0.000428	6752.934025	41019.857807	4011.215147	22353.524299
9.537000	-0.000752	-0.000100	0.000246	0.000105	6748.054298	40986.870425	4006.633186	22367.917157
10.037000	0.000000	-0.000099	-0.001211	0.000000	6755.481278	40996.201345	4003.377390	22372.617585
10.537500	-0.000763	-0.000045	-0.000865	-0.000522	6753.387002	41046.587297	4005.465783	22395.943158
11.035000	0.001770	0.000195	0.001512	-0.000479	6775.048853	41063.856189	4011.104927	22394.035744
11.535000	0.004271	0.000119	-0.000990	0.000099	6791.853013	41006.613255	4003.670869	22368.204638
12.035500	-0.000974	-0.001125	0.002668	-0.001353	6758.773956	41024.839173	4016.033178	22433.160055
12.538500	-0.000551	-0.000151	0.003550	-0.000663	6756.455365	41049.743545	4016.501926	22402.274861
13.036000	0.001792	0.000701	-0.000471	-0.000429	6774.798649	41103.796008	4006.190723	22391.777502
13.536000	0.001812	0.000013	-0.004211	-0.000362	6774.386434	41037.671864	3997.054687	22388.795854
14.036500	0.000534	0.000983	-0.000861	0.002595	6737.641566	40864.131311	3997.993096	22257.051453
14.537000	-0.000736	-0.000053	0.001291	0.001811	6733.448863	40842.137458	4005.040447	22291.906657
15.036500	-0.001107	-0.000227	-0.003196	-0.000727	6752.191713	41048.698683	4000.357889	22405.140341
15.537500	-0.002536	-0.001362	-0.000764	-0.001633	6747.655967	41028.605332	4008.391968	22445.715528
16.035000	0.000422	0.000322	0.006890	-0.000481	6763.319583	41075.144667	4024.218342	22394.111066
16.535500	-0.000336	-0.000296	0.003264	-0.000672	6758.393906	41037.745052	4015.827611	22402.658026
17.038500	0.001562	-0.000635	0.000979	-0.002007	6786.572287	41125.091840	4013.516008	22462.466436
17.536000	-0.000097	-0.000003	-0.005316	0.000590	6749.533439	40953.036136	3992.151087	22346.296733
18.036000	-0.000624	0.000805	-0.002163	0.001368	6738.240742	40955.609812	3997.813074	22311.595754
18.539500	0.000522	-0.000116	-0.001418	0.000363	6756.861701	40962.969039	4002.006297	22356.398081
19.036500	-0.000915	-0.000633	-0.002661	0.000928	6739.523089	40868.508991	3997.675433	22331.195056
19.537000	0.000335	0.000186	0.004274	0.001087	6748.959066	40926.143078	4014.006773	22324.123732
20.037500	0.001834	0.000467	-0.004122	0.001285	6760.246970	40933.419962	3993.339077	22315.319947
20.534500	-0.000064	-0.000893	-0.004482	0.000396	6751.496042	40892.263782	3994.597318	22354.934810
21.035000	0.000808	-0.000333	0.005616	0.000555	6757.675557	40927.260908	4018.567165	22347.849646
21.535500	0.001144	0.000560	0.000699	0.001343	6753.750945	40936.401764	4004.740446	22312.710452
22.038500	-0.000945	0.000805	0.001276	0.001731	6732.341126	40923.920034	4005.199055	22295.466008
22.536000	-0.001282	-0.000729	-0.000765	0.000743	6737.951999	40876.299160	4002.662279	22339.444188
23.036500	-0.000489	-0.000352	0.002274	0.000438	6747.450428	40935.841219	4010.729719	22353.074802
23.537000	0.000130	-0.001433	-0.004306	0.000147	6755.332410	40866.786835	3995.611467	22366.030380
24.036500	0.000003	0.000665	0.004208	0.001433	6743.095172	40937.707718	4013.004880	22308.695050
24.537000	-0.000418	0.000134	0.003894	0.000980	6743.368697	40930.888895	4013.343354	22328.879120
25.037500	-0.000110	-0.000428	-0.001081	0.000753	6748.002123	40901.705867	4001.880825	22339.019749
25.535000	0.000490	0.000206	0.000270	0.000825	6752.576654	40950.715093	4004.956530	22335.791406
26.035500	-0.001100	-0.000334	0.001212	0.000871	6738.419008	40899.556907	4007.115309	22333.727244
26.538000	-0.000114	-0.000968	0.002039	0.000029	6754.240138	40917.759662	4011.150526	22371.319852
27.036000	-0.000198	-0.000389	0.000334	0.000865	6746.275940	40895.275412	4005.014231	22334.026609
27.536000	0.001419	0.000258	0.005494	-0.001458	6780.528300	41155.278147	4023.189699	22437.858047
28.036500	0.001075	-0.000526	-0.002588	-0.001015	6773.656671	41047.605773	4002.507734	22418.003510
28.537000	0.000626	0.000457	-0.002265	-0.000231	6762.924513	41065.029226	4001.400355	22382.926877
29.036500	-0.000523	-0.000363	0.003202	-0.001007	6759.679810	41061.251513	4016.491408	22417.657281
29.537000	-0.002255	-0.001360	0.000156	-0.000122	6737.016401	40896.689107	4006.963019	22378.059413
30.034500	0.000479	0.000473	0.002419	-0.000149	6760.939084	41059.308421	4012.503890	22379.283122
30.535000	0.000226	-0.000324	-0.004301	-0.000308	6760.112826	41003.403356	3996.708621	22386.369004
31.035500	-0.002349	-0.000171	0.000187	0.001903	6718.770600	40823.817422	4002.163854	22287.788262
31.537000	0.000387	-0.000459	-0.001550	0.001591	6745.048140	40825.943457	3998.747196	22301.668574
32.036000	-0.001075	-0.000314	0.001773	-0.000772	6752.852847	41044.928990	4012.448823	22407.136879
32.536500	0.001261	0.000146	-0.000801	-0.000365	6769.616493	41049.645418	4005.242709	22388.942673
33.036500	-0.000753	-0.000101	-0.000752	-0.000557	6753.788149	41044.806162	4005.824466	22397.530121
33.536500	-0.001961	-0.000468	0.001393	0.001255	6727.686207	40854.401547	4006.625905	22316.641090
34.037000	0.000948	-0.000523	0.002716	-0.000873	6771.313673	41035.557054	4014.983792	22411.676260
34.537500	0.000720	0.000173	-0.001159	0.001409	6749.507005	40896.844418	4000.119719	22309.785742
35.035000	-0.001127	0.000224	0.005289	0.001336	6734.174921	40907.738173	4015.869079	22313.044468
35.535500	-0.001606	0.000483	0.000591	0.001258	6730.712277	40937.087572	4004.685000	22316.496999
36.038500	-0.001336	-0.000425	-0.000580	0.001380	6731.997144	40847.253992	4001.577743	22311.074998
36.535500	0.000753	0.000355	0.000690	0.001371	6750.127773	40916.124757	4004.653671	22311.486139
37.036000	0.001919	-0.000199	-0.006670	0.001305	6760.807064	40873.461444	3987.238621	22314.393702
37.535500	0.000680	-0.000156	0.004738	0.001146	6751.437394	40891.096916	4014.990333	22321.480309
38.036500	-0.000001	-0.000046	0.002808	0.001188	6745.183964	40897.048161	4010.206265	22319.629146
38.537000	-0.002511	0.000438	0.000504	0.001632	6719.703976	40900.525084	4003.578069	22299.846380
39.037500	-0.000122	0.000004	0.001715	0.001267	6743.445972	40894.472782	4007.374290	22316.089890
39.537500	0.001978	0.000373	-0.007014	0.001543	6759.262062	40902.690248	3985.863464	22303.834652
40.035000	-0.001676	0.000039	-0.002370	0.001578	6727.361297	40870.472299	3996.819667	22302.274338
40.535500	-0.000869	-0.000001	-0.000479	0.001485	6735.119215	40875.105157	4001.570083	22306.409733
41.036000	-0.000631	-0.000402	0.000515	0.001307	6738.710122	40855.688879	4004.385670	22314.337183
41.536000	0.001087	0.000031	-0.000414	0.001379	6752.949391	40887.095923	4001.979770	22311.126857
42.036500	-0.001656	-0.000413	-0.005114	0.000973	6732.737480	40883.705389	3991.719228	22329.184380
42.536500	0.000535	0.000622	0.001593	0.002157	6741.432973	40870.768932	4004.933687	22276.505227
43.037000	-0.000242	-0.000117	-0.000987	0.001625	6739.317698	40852.759446	4000.013631	22300.150167
43.537000	0.000178	-0.000199	0.000084	0.001519	6743.870094	40854.885956	4002.838462	22304.886301
44.037000	0.001213	-0.000647	0.005103	-0.002019	6783.632089	41125.139100	4023.607064	22463.034691
44.537000	-0.000807	-0.000898	0.004820	-0.001331	6760.031846	41042.762379	4021.230394	22432.167362
45.035500	0.001521	0.000732	0.008431	0.000151	6767.383626	41055.722659	4026.449402	22365.869569
45.540500	-0.001813	-0.000066	0.002357	0.004659	6699.747309	40593.683579	4000.757145	22165.616632
46.035500	-0.000698	0.000049	0.001237	-0.000413	6753.014610	41045.297456	4010.279441	22391.097080
46.535500	-0.000110	-0.000233	0.002891	-0.000562	6759.405297	41033.612130	4014.651411	22397.725407
47.038500	0.001574	-0.000163	0.004562	-0.000443	6773.020933	41029.357754	4018.431710	22392.436209
47.536500	-0.000585	0.000192	0.001592	0.001840	6734.503289	40860.917201	4005.694932	22290.601279
48.036500	0.000152	0.000098	0.000536	0.002290	6736.973761	40813.545809	4002.073241	22270.577118
48.537000	0.001893	0.000574	0.002754	0.000235	6769.891105	41034.496133	4012.384134	22362.102873
49.037500	0.001806	0.000184	0.005023	-0.000488	6775.437302	41063.699065	4019.667418	22394.442975
49.537000	-0.004014	-0.001562	-0.004805	0.003834	6688.006625	40535.660756	3985.667744	22202.087653
50.038000	0.002360	0.000162	0.003782	-0.002403	6797.031563	41229.865524	4021.311384	22480.241589
50.536000	0.000582	-0.000239	0.001770	0.003374	6731.336652	40690.037555	4002.432372	22222.484240
51.035500	-0.001106	-0.001089	0.004843	0.000260	6743.649535	40886.973241	4017.400657	22360.987847
51.536500	-0.039289	-0.003195	0.009501	0.205787	5130.646684	26491.680007	3625.530103	15051.109517
52.036500	-0.029683	-0.004599	0.014813	0.064478	6021.065895	35417.358447	3893.137311	19695.948781
52.539500	-0.012647	-0.003258	0.024632	-0.017657	6799.192491	42285.724336	4113.386892	23177.611557
53.036500	0.020099	-0.003995	0.039867	-0.134608	8367.812964	54336.692788	4524.027133	29421.696269
53.540000	0.043623	0.009948	0.069655	-0.060049	7771.321967	47650.095264	4370.742715	25249.337639
54.037500	0.083125	0.031076	0.102706	0.001078	7538.965578	43722.181018	4282.374176	22324.525219
54.535000	0.108763	0.050405	0.132900	0.065049	7154.467770	39745.002989	4183.363189	19674.000809
55.035000	0.143213	0.072342	0.160535	0.116294	6996.413442	37347.619464	4118.585536	17815.107410
55.538500	0.169969	0.087890	0.192255	0.163385	6813.034367	34941.981942	4078.268047	16289.883738
56.036000	0.202648	0.103644	0.214099	0.180260	6954.810586	34859.644168	4091.146890	15782.358028
56.536000	0.220349	0.115188	0.233745	0.227569	6693.359290	32341.658129	4021.290728	14460.237009
57.036500	0.239028	0.127021	0.246090	0.248556	6673.725063	31729.917333	4000.366530	13918.321203
57.537000	0.252669	0.134344	0.263346	0.266327	6638.832616	31047.169612	3999.129772	13479.446469
58.036500	0.259816	0.140083	0.276505	0.302972	6399.082451	29121.174068	3944.385096	12629.268510
58.534000	0.268597	0.143889	0.284293	0.327026	6281.193687	27931.629743	3908.166309	12108.951645
59.035000	0.270852	0.147034	0.287845	0.364580	6024.093595	26033.137973	3836.699454	11352.107528
59.540500	0.277335	0.150371	0.296595	0.389485	5897.987761	24917.604789	3804.655333	10885.078650
60.035500	0.280356	0.151768	0.298197	0.364479	6092.001214	26290.918963	3858.078354	11354.060241
60.536000	0.283957	0.151787	0.302300	0.382544	5990.312147	25343.292594	3829.639467	11012.569104
61.036000	0.284572	0.153385	0.304640	0.398267	5887.655465	24628.546120	3803.224129	10726.695570
61.536000	0.284786	0.150099	0.307358	0.396849	5898.576759	24535.740461	3811.299831	10752.047193
62.036500	0.290547	0.154571	0.307815	0.406368	5873.494212	24287.021664	3793.704536	10583.391490
62.536500	0.298750	0.158657	0.311260	0.414170	5876.162615	24105.714599	3785.372778	10447.879796
63.037000	0.297832	0.157862	0.305784	0.420732	5826.834847	23751.330626	3762.784095	10335.773206
63.543000	0.297771	0.157503	0.303394	0.423738	5806.860492	23591.255435	3752.862388	10284.991392
64.035000	0.299122	0.157883	0.303676	0.428682	5783.630021	23376.044337	3744.387585	10202.218800
64.536500	0.299516	0.157474	0.304990	0.432179	5763.728148	23193.698984	3740.450864	10144.237785
65.036000	0.301753	0.159260	0.315887	0.437225	5745.830776	23042.748277	3751.047557	10061.391406
65.536000	0.301272	0.158293	0.310697	0.444802	5695.127477	22652.435586	3728.107180	9938.780000
66.036000	0.301936	0.157355	0.305356	0.438989	5735.802145	22874.167776	3728.943184	10032.649125
66.536500	0.300617	0.155627	0.311588	0.439435	5724.657624	22774.987034	3739.268278	10025.406824
67.036500	0.301607	0.155648	0.315913	0.439779	5728.739158	22760.314412	3746.451395	10019.826175
67.537000	0.301298	0.155663	0.318975	0.440424	5722.722938	22731.691270	3750.845606	10009.366178
68.037500	0.300054	0.154380	0.309867	0.440120	5716.806868	22687.241677	3734.959431	10014.295582
68.534500	0.303535	0.155466	0.314763	0.441224	5731.781088	22686.414474	3741.761555	9996.411082
69.037500	0.302286	0.153663	0.311403	0.438899	5738.593426	22710.131801	3739.898560	10034.121844
69.535500	0.303436	0.153610	0.315011	0.439486	5742.159284	22681.085297	3745.348234	10024.576629
70.035500	0.302770	0.154398	0.313847	0.439997	5734.705821	22693.616814	3742.321967	10016.280511
70.536000	0.306149	0.155589	0.320073	0.441022	5749.633696	22701.175810	3751.757643	9999.680126
71.036000	0.306547	0.152698	0.319243	0.439117	5764.321890	22656.534907	3753.722732	10030.575607
71.537000	0.305000	0.153545	0.317278	0.439174	5754.083767	22692.318093	3750.031773	10029.652645
72.037000	0.308155	0.153196	0.316161	0.440257	5767.318463	22627.501459	3746.035769	10012.078729
72.537500	0.307977	0.152279	0.317705	0.440717	5763.235941	22565.410461	3748.002734	10004.627096
73.034500	0.311239	0.152328	0.318346	0.442440	5773.087443	22490.120357	3746.038850	9976.769697
73.535000	0.308517	0.152333	0.318672	0.442855	5753.041742	22471.760570	3745.877695	9970.090473
74.035500	0.308801	0.151646	0.322027	0.443668	5749.674655	22404.660246	3750.496235	9957.004199
74.535500	0.310294	0.152218	0.315935	0.445863	5745.216531	22332.325156	3735.538846	9921.792295
75.036000	0.311524	0.151104	0.323488	0.445004	5758.509084	22320.957301	3750.723887	9935.541339
75.536500	0.307222	0.150916	0.321913	0.452275	5685.649256	21992.091969	3734.763848	9819.944885
76.035500	0.310539	0.150661	0.319087	0.447631	5735.565528	22184.955250	3738.018456	9893.560453
76.537000	0.309727	0.151002	0.320819	0.448560	5724.571999	22158.995579	3739.459868	9878.770049
77.037000	0.313736	0.150874	0.324914	0.448973	5747.319255	22135.141306	3746.101439	9872.197675
77.537000	0.309607	0.148792	0.317662	0.449320	5719.024320	22028.438611	3732.450971	9866.681548
78.034500	0.310578	0.148576	0.318627	0.450018	5720.743882	21988.452612	3732.927913	9855.622043
78.540500	0.313456	0.149235	0.323543	0.451884	5727.118709	21935.788665	3738.381252	9826.106178
79.035000	0.313682	0.149725	0.324535	0.452694	5723.435655	21921.843106	3738.708159	9813.334247
79.536000	0.312688	0.149254	0.325460	0.453327	5713.208253	21873.815716	3739.232060	9803.377227
80.038000	0.312561	0.148096	0.326514	0.454106	5707.533791	21789.900898	3739.726888	9791.137990
80.536500	0.315217	0.148221	0.324097	0.455012	5718.507260	21756.085616	3733.775709	9776.913733
81.036500	0.314486	0.148650	0.324384	0.456445	5704.937328	21712.812429	3731.734878	9754.503607
81.537000	0.314465	0.147289	0.325871	0.456089	5707.032938	21669.580716	3735.021555	9760.067500
82.037000	0.314787	0.146350	0.328978	0.457217	5701.989125	21580.980837	3738.563305	9742.456854
82.535000	0.313307	0.145848	0.321809	0.457608	5690.322950	21542.833010	3725.113000	9736.362703
83.038000	0.312824	0.145077	0.321872	0.458697	5680.558456	21463.638923	3723.307189	9719.430707
83.535000	0.314092	0.144317	0.320290	0.459590	5682.888114	21393.553575	3718.965876	9705.577104
84.035500	0.318085	0.145661	0.323962	0.462250	5691.175394	21337.917622	3720.737500	9664.464495
84.535500	0.315051	0.143861	0.326284	0.462554	5670.471671	21249.305145	3724.283537	9659.772850
85.036000	0.315824	0.144129	0.330857	0.463893	5666.977753	21204.342340	3730.001951	9639.181757
85.536500	0.314822	0.142273	0.325384	0.464446	5657.398491	21103.711832	3719.379850	9630.699563
86.037000	0.314693	0.143157	0.330431	0.466088	5646.537921	21072.161691	3725.365973	9605.583019
86.536500	0.316601	0.140714	0.327515	0.466820	5653.746021	20940.586246	3718.956564	9594.411707
87.037000	0.317766	0.142477	0.323004	0.469082	5647.025928	20920.001161	3707.198612	9560.013820
87.534500	0.315281	0.141272	0.325223	0.469896	5626.899000	20836.932352	3709.623292	9547.678716
88.035000	0.313580	0.140034	0.325273	0.469786	5617.249035	20790.658924	3709.899109	9549.338083
88.535000	0.318371	0.140603	0.328223	0.473036	5626.590889	20681.244710	3709.379631	9500.302508
89.035500	0.316776	0.140479	0.321443	0.473954	5611.367354	20638.882113	3696.198600	9486.517338
89.535500	0.311462	0.137813	0.327422	0.478866	5550.307154	20333.882717	3698.011778	9413.253231
90.036500	0.315689	0.137180	0.330377	0.476018	5592.404538	20422.518980	3707.952265	9455.640148
90.537000	0.318175	0.138670	0.334599	0.478172	5594.387102	20395.866561	3711.523692	9423.552479
91.036500	0.317688	0.138772	0.332964	0.479589	5582.986744	20343.326029	3706.256743	9402.543025
91.537000	0.319166	0.138498	0.332212	0.480234	5587.973934	20306.674020	3703.858590	9393.007045
92.034500	0.317563	0.137761	0.331859	0.481330	5571.862233	20233.807261	3701.375917	9376.818794
92.537500	0.318740	0.136886	0.335238	0.482012	5574.807669	20172.181849	3705.999570	9366.770541
93.035500	0.323094	0.137299	0.332056	0.485062	5582.588858	20068.258147	3695.359825	9322.017814
93.535500	0.321380	0.136776	0.336934	0.485001	5572.731377	20050.106771	3703.780457	9322.910187
94.035500	0.320840	0.136528	0.330421	0.485985	5563.673030	20001.863352	3691.036019	9308.537302
94.536000	0.321727	0.134457	0.332904	0.486293	5567.113834	19909.032717	3694.711726	9304.056189
95.036000	0.321223	0.134025	0.330415	0.487143	5559.087826	19859.210588	3689.078658	9291.673953
95.539500	0.324765	0.134718	0.337314	0.489876	5563.877136	19780.264409	3696.113099	9252.032076
96.037000	0.320294	0.132419	0.335579	0.488589	5545.055529	19741.193798	3695.351631	9270.657610
96.537000	0.323732	0.133593	0.339689	0.491314	5549.265179	19681.545042	3697.705459	9231.274848
