sample name	sample
index	547
start time	 03-15-2021  11:20:21 AM
880	0.192861
Peak Time (s)	91.536
Peak Height 	0.1929
calc peak height	90,93
Baseline Time (s)	9.536
Baseline Value 	-0.00429
subtract baseline	10,4
Abs	0.151154
Peak Time (s)	92.037
Peak Height 	0.1512
calc peak height	90,93
Baseline Time (s)	11.54
Baseline Value 	0.003104
subtract baseline	10,3
PK_550	0.074445
Peak Time (s)	91.536
Peak Height 	0.07445
calc peak height	90,93
Baseline Time (s)	9.536
Baseline Value 	5.279E-4
subtract baseline	10,2
PK_880	0.141452
Peak Time (s)	92.535
Peak Height 	0.1415
calc peak height	90,93
Baseline Time (s)	9.036
Baseline Value 	0.001994
subtract baseline	10,1


Time (s)	A880-A510	A880-A775	A880-A975	A880	I510	I775	I975	I880	
0.036000	-0.004505	-0.000993	-0.001440	0.005324	6058.449318	40222.401798	3723.790207	21272.883101
0.536500	-0.002272	-0.000808	-0.008534	0.006165	6068.932556	40165.958491	3706.504088	21237.133568
1.039500	-0.002366	0.000294	-0.003267	0.004557	6080.365820	40399.710433	3721.463061	21305.564407
1.537500	0.001044	-0.000012	-0.002149	0.000252	6139.257236	40747.349649	3733.432948	21490.066828
2.034500	-0.003885	-0.000626	-0.004178	0.004308	6070.774651	40341.741169	3720.013679	21316.204194
2.535500	-0.002499	0.000117	0.001411	0.000639	6109.122626	40724.818744	3740.503452	21473.384743
3.035500	0.000126	-0.000050	-0.002231	-0.001579	6146.287861	40904.201923	3737.323019	21569.056990
3.536000	0.000428	-0.000256	0.001672	0.000753	6130.658930	40682.301971	3740.832235	21468.482444
4.038500	-0.004581	-0.000271	0.001345	0.005169	6059.047160	40298.020451	3730.277078	21279.504356
4.536000	-0.001039	0.000621	-0.000708	0.001260	6115.530013	40714.553594	3734.393976	21446.681054
5.039000	0.000377	0.000154	0.002891	0.000758	6130.235253	40717.705155	3743.554885	21468.295820
5.539500	-0.002363	0.000181	-0.000010	0.000625	6110.275622	40731.686548	3737.362542	21474.008883
6.037000	-0.000831	-0.000047	-0.003731	0.000251	6124.851955	40744.314031	3729.927123	21490.076214
6.534500	0.001262	0.001387	-0.000617	0.001806	6128.983539	40733.769132	3733.383218	21423.240847
7.040500	-0.000669	0.000157	0.001897	0.000348	6125.359083	40753.720721	3742.244350	21485.933808
7.535000	-0.000866	0.000574	0.005550	0.000944	6119.281794	40738.081662	3749.119512	21460.283905
8.038000	0.000280	-0.000051	-0.002377	0.001726	6122.061563	40615.439704	3729.660998	21426.684961
8.536000	-0.001778	0.000460	0.000731	0.000496	6115.727400	40767.251781	3739.302689	21479.535030
9.036000	0.000000	0.000110	0.004163	0.000694	6127.833953	40719.420280	3746.558688	21471.045642
9.536000	0.000383	0.000000	-0.001902	0.000000	6136.105817	40770.406327	3734.540258	21500.909600
10.037000	0.001315	-0.001025	-0.002412	-0.000233	6145.081208	40701.228456	3733.924246	21510.935565
10.539500	-0.001731	0.000873	0.003494	0.000864	6113.273381	40771.203556	3744.670011	21463.732922
11.037000	0.000106	-0.000050	-0.000125	-0.000013	6134.081701	40767.209722	3738.528895	21501.479658
11.540000	-0.000858	-0.000594	0.000000	-0.000170	6127.873875	40733.323285	3739.158506	21508.226833
12.037000	-0.001048	-0.000066	-0.000690	0.001043	6117.128228	40673.679527	3734.917343	21456.032731
12.535000	0.000009	0.000373	0.000109	0.000441	6129.844531	40764.449772	3738.037528	21481.909562
13.035500	-0.000906	-0.000046	0.002603	-0.002434	6144.933131	40979.647265	3750.092624	21606.094816
13.536000	0.000454	0.000208	0.003601	-0.001520	6148.369044	40921.646415	3750.282784	21566.504891
14.036000	0.000696	-0.000254	0.001371	-0.000689	6143.822577	40808.423562	3743.391320	21530.623303
14.536500	-0.001248	-0.000146	-0.000208	0.002229	6106.540392	40563.396875	3733.351510	21405.103671
15.036500	0.002116	0.000386	-0.002973	-0.000604	6154.133775	40857.002085	3733.502079	21526.934999
15.586500	0.001226	0.001072	-0.001476	-0.000599	6147.214764	40916.647746	3736.822408	21526.724705
16.040500	-0.001646	-0.000240	-0.004928	0.000026	6120.330785	40747.173921	3727.778104	21499.777245
16.537500	0.000267	0.000886	0.004132	-0.000338	6137.817573	40877.477799	3748.811317	21515.474878
17.035500	0.001572	-0.000091	0.002166	-0.000858	6151.898932	40837.543931	3745.556193	21537.932387
17.535500	0.001143	0.000439	0.001521	-0.002666	6162.572887	41042.726875	3748.175543	21616.157839
18.038000	-0.000926	0.000425	-0.003417	0.001484	6114.692935	40678.009710	3727.896810	21437.087500
18.536000	0.000584	0.000329	-0.002011	0.001124	6129.014716	40700.985272	3731.803252	21452.536703
19.036500	-0.000018	0.000835	0.002610	0.002148	6116.548124	40655.778038	3739.810960	21408.563183
19.536500	-0.001029	-0.000483	0.000250	0.000904	6118.331077	40649.343904	3737.320317	21461.987823
20.042500	0.000596	0.000343	0.002953	0.001813	6123.819219	40642.201787	3741.328405	21422.967084
20.537000	-0.002769	-0.000587	0.000567	0.000306	6109.602333	40692.454180	3739.360837	21487.710946
21.037000	0.000156	0.000964	-0.003196	0.002213	6117.382533	40661.376546	3726.775006	21405.780426
21.534500	-0.000164	-0.000012	0.002734	0.001118	6123.321182	40671.732205	3742.394316	21452.778610
22.035000	-0.002177	0.000331	-0.002863	0.001677	6103.662053	40652.976266	3728.693515	21428.779444
22.535500	-0.000909	0.000657	0.007275	0.001749	6112.796638	40675.151102	3751.198729	21425.707788
23.035500	-0.000597	-0.000147	0.002565	0.000802	6122.430348	40687.605183	3742.725802	21466.395538
23.536000	-0.001467	0.000317	-0.000655	0.001451	6110.805774	40671.369544	3734.086675	21438.471301
24.036500	0.001451	0.001191	-0.000022	0.002395	6125.910828	40665.319751	3733.395835	21397.980999
24.537000	0.002014	0.000255	0.000958	0.001377	6138.061749	40672.518960	3737.843907	21441.674105
25.036500	-0.000746	0.001049	0.004931	0.001956	6112.454238	40691.213357	3745.445749	21416.806570
25.534500	-0.000229	0.000270	0.002701	0.001776	6117.785163	40639.021606	3740.846884	21424.544027
26.034500	-0.001891	-0.000820	-0.002834	0.001031	6110.773609	40609.013279	3730.187533	21456.540075
26.535000	-0.000823	-0.000021	-0.001576	0.001117	6118.285473	40671.094572	3732.785159	21452.839162
27.035500	0.000012	-0.000088	-0.000990	0.000860	6126.651905	40687.690804	3734.656485	21463.901133
27.535500	-0.000689	0.000150	-0.001664	0.001242	6118.347826	40675.128927	3732.312504	21447.465079
28.036500	-0.001272	0.001116	0.005302	0.003212	6098.869878	40587.665683	3743.455717	21362.998406
28.536000	0.002297	0.000875	0.007840	-0.000271	6152.955532	40870.669614	3757.061550	21512.586447
29.054000	0.000449	0.000754	0.003181	-0.000626	6141.431109	40891.150822	3747.317454	21527.887771
29.539000	-0.000634	0.000290	0.006278	-0.000751	6134.059665	40861.522735	3754.603888	21533.310765
30.037000	0.001128	0.000333	0.005482	0.002840	6120.029492	40552.018326	3744.698104	21378.949410
30.537500	-0.000268	-0.000385	-0.000767	-0.001111	6139.644845	40833.899978	3739.546866	21548.826866
31.037000	0.002370	0.000311	0.001619	-0.000523	6155.470027	40843.384909	3743.573597	21523.454881
31.535000	-0.000345	0.000219	0.006347	0.002030	6114.955887	40612.506554	3748.467437	21413.646782
32.034500	-0.000321	-0.000179	0.003426	0.003909	6100.805948	40414.889015	3737.702445	21333.236601
32.560000	0.003397	0.000691	0.006769	-0.000704	6164.830260	40892.437129	3755.610739	21531.261252
33.036000	0.002198	0.000191	0.005297	-0.000555	6154.391638	40835.704751	3751.936081	21524.847764
33.536500	0.002408	0.000659	0.006539	-0.000741	6157.455308	40892.884075	3755.171512	21532.850475
34.039000	-0.002212	0.000126	-0.004116	0.005021	6078.025342	40345.089661	3718.590513	21285.817829
34.542000	0.002122	0.000201	0.004457	-0.001768	6163.194791	40942.817642	3752.779142	21577.231792
35.037000	-0.001383	-0.000148	-0.000140	0.002399	6104.217997	40548.523276	3733.125442	21397.822144
35.535000	0.000009	-0.000020	0.000359	0.001695	6120.230782	40620.853531	3735.800685	21428.027550
36.035500	-0.000521	-0.000283	0.001434	0.002648	6108.892185	40515.169240	3736.072060	21387.147254
36.535000	0.001528	0.000587	-0.003084	0.002489	6125.779994	40604.592605	3726.413844	21393.969417
37.035500	-0.001351	0.000576	-0.000959	0.002392	6104.519290	40612.117873	3731.325260	21398.142535
37.535500	-0.003146	0.000579	-0.002993	0.001876	6094.780143	40657.239779	3727.967886	21420.261300
38.035500	-0.001875	0.000200	0.002708	0.002225	6101.793673	40593.863573	3739.857161	21405.267132
38.536500	-0.002255	-0.000139	-0.001879	0.002068	6100.096542	40578.091176	3730.005101	21412.016774
39.037000	-0.001248	0.000265	-0.001280	0.001654	6110.930383	40649.245502	3732.248709	21429.769877
39.537000	-0.001542	-0.000377	0.002805	0.001393	6110.671680	40615.986425	3741.937359	21440.967211
40.034500	-0.000353	0.000937	0.004728	0.003040	6107.181714	40587.125353	3742.556074	21370.387648
40.534500	0.001397	-0.000068	0.000049	0.002125	6127.563935	40579.233689	3734.152656	21409.547994
41.034500	-0.000573	0.000398	0.001735	0.002359	6110.702115	40599.421798	3737.385987	21399.533011
41.535500	-0.001470	-0.000610	0.001241	0.001653	6109.245950	40573.192612	3737.860140	21429.830161
42.035500	-0.001302	0.000263	-0.000560	0.002665	6102.804471	40561.133181	3731.603623	21386.426668
42.536000	-0.000888	-0.000544	0.003502	0.001491	6114.927131	40593.009691	3743.281255	21436.776618
43.039000	-0.001611	0.000595	0.002567	0.002162	6104.280548	40633.723430	3739.682855	21407.977307
43.539500	-0.000243	0.000061	0.002432	0.002346	6113.316910	40571.259919	3738.970824	21400.083730
44.133000	-0.003706	-0.000540	0.005701	0.002596	6085.067825	40497.341945	3745.737712	21389.387600
44.534000	-0.002168	0.001095	0.004726	0.002187	6099.856021	40675.135061	3744.466768	21406.929325
45.034000	0.002621	0.000932	0.003673	-0.001966	6168.604572	41024.466056	3751.453579	21585.813764
45.534500	0.001566	0.000855	0.002809	-0.000366	6148.044579	40877.228463	3745.895425	21516.680332
46.060000	-0.003244	0.000424	-0.000482	0.003906	6078.651149	40467.366760	3729.029511	21333.353105
46.535000	-0.001028	0.000357	0.004724	0.000279	6123.129774	40777.212516	3748.757369	21488.896751
47.038000	0.001114	0.000807	0.003649	-0.000014	6141.843373	40842.133631	3746.993629	21501.494818
47.536500	0.001892	-0.000043	-0.002016	-0.000481	6151.450254	40808.697215	3735.357706	21521.649620
48.057500	-0.001455	0.000437	-0.001448	0.003905	6092.212880	40468.571035	3726.899427	21333.390882
48.536500	-0.003572	0.000309	0.000613	0.003133	6082.014234	40524.386743	3733.168407	21366.379227
49.036500	-0.000282	0.000136	-0.000345	0.002861	6109.089819	40533.051027	3731.645917	21378.035468
49.558000	0.000630	0.000615	0.004906	-0.000029	6138.231171	40826.664513	3749.861666	21502.144170
50.037000	-0.002169	0.000369	-0.000055	0.003619	6088.964076	40487.476316	3730.608719	21345.616493
50.535000	-0.000376	0.000925	0.004451	0.000701	6124.888221	40789.989451	3747.188747	21470.711747
51.035500	0.003172	0.000822	-0.000645	-0.001801	6171.608260	41000.367665	3741.365828	21578.694132
51.541500	0.000410	0.000570	0.002816	0.001255	6126.668061	40710.564961	3742.270876	21446.889606
52.036000	0.000452	0.001363	0.004809	0.012948	6038.480002	39771.547467	3720.774389	20951.230554
52.538000	-0.002886	-0.010719	0.005468	0.253663	4643.985833	23466.719493	3316.604029	13222.286247
53.039000	-0.013101	-0.026197	0.001091	-0.068924	6591.067094	44693.777255	3908.435963	24719.500472
53.542500	-0.025580	-0.086024	-0.012786	-0.299289	9064.462059	64831.667085	4644.785257	40064.937917
54.037000	-0.009474	-0.116181	0.006157	-0.334344	9848.304323	65535.000000	4893.131255	43198.614520
54.534500	-0.003296	-0.083589	0.008294	-0.299877	9403.510070	65264.841559	4740.746686	40115.458966
55.035000	-0.006114	-0.056475	0.005635	-0.259721	8780.867574	63417.463133	4555.633767	36818.699556
55.535500	-0.011028	-0.035127	-0.001908	-0.214596	8129.416047	60189.248944	4351.586165	33460.236109
56.035500	-0.008331	-0.031982	-0.005788	-0.222971	8267.169331	61731.352179	4368.047555	34057.470764
56.535500	-0.002515	-0.029291	-0.001851	-0.222269	8331.989267	62001.749337	4380.005048	34006.976522
57.036000	0.007883	-0.022259	0.005761	-0.212053	8334.313293	61569.471316	4370.374633	33281.147004
57.536500	0.010999	-0.016052	0.004993	-0.196388	8176.523745	60303.837041	4310.910733	32200.788261
58.036500	0.010211	-0.010962	0.004143	-0.166482	7809.303528	57111.357771	4205.491008	30243.536742
58.537000	0.011947	-0.006944	0.007000	-0.131924	7444.297502	53424.752796	4104.368581	28143.417885
59.037000	0.014714	-0.006130	0.008719	-0.106071	7203.597410	50589.847567	4032.184651	26678.041453
59.540500	0.012599	-0.004304	0.013575	-0.082680	6952.114367	48275.776200	3979.404841	25425.299324
60.035000	0.015619	-0.002362	0.017204	-0.061425	6781.178218	46298.722355	3931.264847	24344.054860
60.535000	0.019888	-0.000031	0.016402	-0.046259	6682.397333	45032.572817	3889.302772	23604.231443
61.035500	0.022864	0.001356	0.021937	-0.036455	6621.756166	44222.420146	3878.345880	23139.575623
61.536000	0.027256	0.003908	0.029668	-0.027134	6578.561618	43582.127070	3874.291056	22707.424151
62.036500	0.032458	0.007175	0.029432	-0.024035	6596.929852	43597.942570	3865.835635	22565.779104
62.539000	0.035113	0.010566	0.033957	-0.011891	6514.760385	42784.332166	3846.761213	22020.383844
63.037000	0.041076	0.014525	0.035901	0.009003	6389.035489	41256.016230	3800.742730	21116.959172
63.537000	0.041625	0.018595	0.043616	0.011663	6371.604929	41380.978243	3812.822923	21005.028704
64.034500	0.044088	0.019494	0.045669	0.018899	6332.506242	40822.400835	3800.438821	20704.000764
64.537500	0.047101	0.020383	0.048980	0.022551	6327.312870	40581.433845	3799.630014	20553.980999
65.055000	0.052162	0.023879	0.050359	0.026168	6339.076825	40570.838042	3794.331444	20406.610170
65.541000	0.052403	0.023953	0.059409	0.030378	6306.832770	40213.119474	3805.822892	20236.647103
66.050500	0.052706	0.024854	0.058050	0.039305	6237.783668	39528.434355	3781.553869	19881.640826
66.536000	0.055214	0.026133	0.066395	0.039947	6252.598644	39582.341340	3799.673066	19856.370994
67.036000	0.059315	0.028094	0.058448	0.044277	6250.780413	39382.413159	3770.945746	19687.055592
67.536500	0.063299	0.030330	0.070801	0.048960	6245.225075	39176.912433	3788.799799	19505.798843
68.037000	0.060290	0.030924	0.067230	0.055898	6167.097169	38649.791160	3764.418680	19240.842087
68.540000	0.066915	0.032639	0.072179	0.057580	6205.691100	38652.468181	3771.934419	19177.225256
69.037500	0.068508	0.033498	0.069858	0.061262	6189.332011	38420.321316	3758.167052	19038.858882
69.535000	0.068420	0.034352	0.078908	0.065337	6156.943832	38157.243670	3769.563910	18887.084967
70.035500	0.066160	0.034860	0.071468	0.071604	6091.573485	37691.762970	3738.475705	18656.417871
70.536000	0.071861	0.035989	0.075388	0.072617	6127.360027	37701.112366	3744.988190	18619.460722
71.036000	0.075314	0.038201	0.077379	0.077087	6119.559865	37520.278523	3739.432291	18457.342412
71.536000	0.076395	0.038467	0.082514	0.080355	6102.855362	37281.217821	3743.611467	18339.857707
72.036500	0.076211	0.039339	0.082779	0.088115	6042.897118	36739.011533	3726.936472	18064.427328
72.537000	0.079037	0.040177	0.086632	0.087701	6067.220405	36836.878593	3736.394302	18078.998563
73.037000	0.082547	0.040890	0.089152	0.091372	6066.008514	36606.002875	3733.834304	17950.283376
73.537000	0.082355	0.042871	0.090250	0.095846	6031.050404	36412.580404	3726.363201	17794.866669
74.034500	0.083265	0.044727	0.089043	0.103321	5982.502647	35980.880946	3707.414921	17538.793472
74.535000	0.085959	0.044702	0.093653	0.102979	6004.857106	36004.991294	3718.175024	17550.392018
75.035500	0.088434	0.046281	0.095834	0.106973	5993.654184	35820.993347	3714.222313	17415.254377
75.538500	0.090884	0.047524	0.099634	0.111273	5980.056484	35589.555930	3713.135366	17271.147536
76.036000	0.091580	0.047061	0.100061	0.113676	5967.561877	35374.047083	3708.848896	17191.219397
76.541500	0.096397	0.049735	0.100312	0.117650	5973.730522	35276.754519	3700.825937	17060.025867
77.036500	0.096038	0.050331	0.099596	0.120862	5947.694591	35081.853699	3692.435963	16954.850305
77.536500	0.097088	0.050999	0.102463	0.124951	5925.707138	34828.685425	3689.840058	16822.071226
78.037500	0.100366	0.051600	0.109756	0.127250	5932.768989	34703.796729	3700.490096	16747.959899
78.536000	0.098842	0.052813	0.103533	0.130712	5896.954778	34539.118947	3679.946375	16637.130534
79.035000	0.101304	0.053766	0.108420	0.133750	5892.839944	34387.191861	3683.833209	16540.573314
79.535500	0.102786	0.054599	0.114001	0.137991	5873.220292	34140.476654	3686.659022	16406.919245
80.036000	0.106702	0.055996	0.113490	0.140628	5882.304975	34051.216766	3680.034199	16324.494325
80.535500	0.105014	0.055443	0.112284	0.141345	5865.252191	33960.009482	3676.008673	16302.153686
81.036000	0.109058	0.057137	0.114057	0.144941	5868.422781	33823.992856	3672.209147	16190.722017
81.536500	0.108720	0.056433	0.116382	0.148227	5842.875597	33540.402397	3670.212126	16089.676222
82.037000	0.108332	0.057978	0.110200	0.154030	5799.736386	33240.720276	3645.680507	15913.122429
82.537000	0.113252	0.058424	0.121118	0.151492	5851.780087	33450.401000	3673.269188	15990.038867
83.037000	0.116344	0.060290	0.123150	0.154832	5850.034635	33346.620890	3670.549395	15888.880662
83.535000	0.113519	0.059235	0.125586	0.158207	5806.727138	33036.894245	3668.602775	15787.473118
84.035000	0.115816	0.060891	0.125032	0.162357	5793.912117	32863.879648	3658.912181	15663.846733
84.535000	0.121032	0.062668	0.129212	0.161901	5833.335319	33018.751256	3668.462587	15677.369389
85.035500	0.119968	0.063455	0.124356	0.163567	5814.288311	32957.615618	3655.054799	15628.001485
85.536000	0.122631	0.063260	0.130547	0.167804	5803.365931	32651.680803	3659.050425	15503.346791
86.039000	0.123324	0.063578	0.128217	0.170319	5790.773001	32501.137399	3649.174627	15429.906744
86.536500	0.124708	0.064861	0.134906	0.168981	5809.605971	32680.824115	3665.594928	15468.923694
87.036500	0.124957	0.065088	0.131092	0.170240	5802.607906	32609.985117	3655.182904	15432.220274
87.536500	0.126191	0.066673	0.135903	0.176653	5766.956299	32280.656946	3651.921101	15246.876170
88.037500	0.129181	0.068093	0.134580	0.179625	5767.074682	32175.532009	3643.231108	15161.887236
88.535000	0.131124	0.069241	0.138279	0.177824	5792.810210	32375.594426	3654.373582	15213.319241
89.035000	0.133898	0.070107	0.144373	0.179372	5801.282031	32329.149097	3663.690757	15169.099697
89.535500	0.132100	0.069761	0.140943	0.183910	5757.742561	31999.209660	3647.425536	15040.397715
90.035500	0.133631	0.070317	0.142344	0.186563	5750.092354	31858.666231	3644.895077	14965.765632
90.536000	0.136107	0.071453	0.139516	0.185086	5777.120062	32033.915940	3642.175646	15007.263002
91.036000	0.138912	0.072049	0.145747	0.186489	5786.755452	31979.660448	3651.935526	14967.837828
91.536000	0.137707	0.074445	0.140301	0.192861	5735.013537	31713.928942	3628.232923	14790.431461
92.037000	0.141159	0.073305	0.151154	0.189816	5779.327187	31840.900003	3656.174124	14874.880476
92.534500	0.141452	0.073852	0.146828	0.191043	5772.920492	31795.604621	3644.904011	14840.799788
93.037500	0.143932	0.074168	0.152988	0.193094	5775.857676	31680.035181	3653.229606	14783.987737
93.535000	0.141516	0.075192	0.151165	0.199446	5716.279581	31328.109435	3636.740931	14609.798432
94.035500	0.140631	0.076487	0.152957	0.201130	5699.049322	31302.636297	3636.957016	14564.053798
94.535500	0.147748	0.078218	0.153710	0.199497	5758.153442	31524.050101	3641.738450	14608.410002
95.036000	0.149806	0.078797	0.158686	0.200946	5762.313140	31466.654840	3648.855535	14569.052628
95.536000	0.148525	0.077441	0.153798	0.205938	5719.759863	31050.992808	3629.065467	14434.395585
96.047000	0.147509	0.079292	0.156149	0.208305	5697.062609	31017.513033	3629.034138	14371.096739
96.536500	0.153357	0.080213	0.161826	0.205647	5754.462532	31250.796624	3645.698840	14442.194318
97.037500	0.155319	0.080841	0.154716	0.207011	5758.542089	31202.615333	3628.757271	14405.641031
97.537500	0.150938	0.080718	0.159442	0.213693	5683.995061	30761.396959	3624.894106	14228.247778
98.039500	0.155808	0.082264	0.167471	0.214722	5709.669719	30794.746784	3638.802642	14201.193682
98.535500	0.160305	0.084208	0.167011	0.213544	5748.009393	30996.553733	3640.240904	14232.187827
