sample name	sample
index	1514
start time	 05-18-2021  03:10:25 PM


Wavelength (nm)	Absorbance
494.344910	0.195191
494.563924	0.195191
494.782919	0.195191
495.001897	0.634056
495.220856	0.083002
495.439797	0.103055
495.658719	0.141307
495.877624	0.091800
496.096510	0.249566
496.315378	0.065410
496.534227	-0.039651
496.753059	0.142095
496.971872	0.089864
497.190667	0.171369
497.409444	0.168244
497.628203	0.165570
497.846943	0.166531
498.065665	0.164203
498.284369	0.167110
498.503055	0.169371
498.721723	0.169119
498.940372	0.168019
499.159003	0.167804
499.377616	0.168499
499.596210	0.169417
499.814787	0.170012
500.033345	0.169853
500.251885	0.169462
500.470406	0.169891
500.688910	0.170799
500.907395	0.171837
501.125862	0.173662
501.344311	0.173204
501.562742	0.173831
501.781154	0.174356
501.999548	0.175855
502.217924	0.176519
502.436282	0.175855
502.654621	0.174776
502.872942	0.175665
503.091245	0.173861
503.309530	0.174374
503.527797	0.174988
503.746045	0.174392
503.964275	0.174662
504.182487	0.174614
504.400681	0.174221
504.618856	0.174691
504.837013	0.174479
505.055152	0.174384
505.273273	0.174552
505.491376	0.172682
505.709460	0.172455
505.927526	0.171969
506.145574	0.171861
506.363604	0.172866
506.581615	0.173383
506.799608	0.173769
507.017583	0.174686
507.235540	0.174497
507.453478	0.174861
507.671399	0.176011
507.889301	0.175310
508.107185	0.174548
508.325050	0.173887
508.542898	0.174092
508.760727	0.173537
508.978538	0.172636
509.196330	0.172812
509.414105	0.172877
509.631861	0.171369
509.849599	0.170689
510.067319	0.171201
510.285021	0.172129
510.502704	0.172293
510.720369	0.172794
510.938016	0.173705
511.155645	0.173634
511.373255	0.174234
511.590848	0.175520
511.808422	0.177361
512.025977	0.178165
512.243515	0.177536
512.461034	0.177748
512.678536	0.178625
512.896018	0.179130
513.113483	0.180232
513.330930	0.180193
513.548358	0.179992
513.765768	0.178914
513.983160	0.178861
514.200533	0.179569
514.417889	0.178623
514.635226	0.177587
514.852545	0.177250
515.069845	0.176351
515.287128	0.177548
515.504392	0.178070
515.721638	0.178132
515.938866	0.178308
516.156075	0.178340
516.373267	0.179161
516.590440	0.180159
516.807594	0.180840
517.024731	0.181486
517.241850	0.181632
517.458950	0.182309
517.676032	0.183965
517.893095	0.183847
518.110141	0.184554
518.327168	0.184006
518.544177	0.184156
518.761168	0.183412
518.978141	0.183210
519.195095	0.182894
519.412031	0.183277
519.628949	0.182896
519.845849	0.183409
520.062731	0.183515
520.279594	0.185068
520.496439	0.185786
520.713266	0.186322
520.930074	0.187314
521.146865	0.187109
521.363637	0.187257
521.580391	0.187032
521.797127	0.187276
522.013844	0.187277
522.230543	0.186624
522.447224	0.186243
522.663887	0.187021
522.880532	0.187031
523.097158	0.187380
523.313766	0.187605
523.530356	0.189084
523.746928	0.189845
523.963481	0.189755
524.180017	0.190343
524.396534	0.190824
524.613032	0.190737
524.829513	0.191351
525.045975	0.191572
525.262420	0.191093
525.478845	0.190944
525.695253	0.190605
525.911643	0.190870
526.128014	0.190901
526.344367	0.191385
526.560702	0.192015
526.777018	0.191843
526.993316	0.193294
527.209597	0.192967
527.425858	0.192228
527.642102	0.192486
527.858328	0.193320
528.074535	0.194167
528.290724	0.193714
528.506894	0.194119
528.723047	0.194492
528.939181	0.193127
529.155297	0.194154
529.371395	0.194868
529.587475	0.194797
529.803536	0.194853
530.019579	0.195204
530.235604	0.196041
530.451611	0.195733
530.667600	0.195417
530.883570	0.196498
531.099522	0.196871
531.315456	0.197675
531.531372	0.197639
531.747269	0.197522
531.963148	0.197161
532.179009	0.197273
532.394852	0.197262
532.610676	0.198298
532.826482	0.198198
533.042271	0.198718
533.258040	0.198575
533.473792	0.200015
533.689525	0.200794
533.905240	0.201174
534.120937	0.201216
534.336616	0.202247
534.552277	0.201917
534.767919	0.202207
534.983543	0.202124
535.199149	0.203160
535.414736	0.203458
535.630306	0.204167
535.845857	0.204839
536.061390	0.205120
536.276904	0.205254
536.492401	0.206316
536.707879	0.206812
536.923339	0.207167
537.138781	0.206947
537.354204	0.206883
537.569610	0.206326
537.784997	0.206339
538.000366	0.207116
538.215716	0.206831
538.431049	0.206445
538.646363	0.206698
538.861659	0.207012
539.076937	0.206814
539.292196	0.206886
539.507438	0.207711
539.722661	0.207656
539.937866	0.207866
540.153052	0.208048
540.368221	0.208675
540.583371	0.209405
540.798503	0.209033
541.013617	0.209853
541.228712	0.210628
541.443789	0.210414
541.658848	0.210516
541.873889	0.210105
542.088912	0.210479
542.303916	0.210464
542.518902	0.210230
542.733870	0.210830
542.948820	0.210782
543.163752	0.210284
543.378665	0.210743
543.593560	0.211176
543.808437	0.211737
544.023295	0.212029
544.238136	0.211994
544.452958	0.212551
544.667762	0.212784
544.882548	0.213101
545.097315	0.213781
545.312064	0.213596
545.526795	0.214217
545.741508	0.214603
545.956203	0.214409
546.170879	0.215246
546.385537	0.214748
546.600177	0.215505
546.814799	0.215389
547.029402	0.215724
547.243988	0.216255
547.458555	0.216461
547.673103	0.216561
547.887634	0.217162
548.102146	0.216869
548.316640	0.217782
548.531116	0.217628
548.745574	0.218103
548.960013	0.218352
549.174435	0.218781
549.388838	0.218567
549.603222	0.218685
549.817589	0.218981
550.031937	0.219249
550.246267	0.219015
550.460579	0.218889
550.674873	0.219022
550.889148	0.218830
551.103405	0.218579
551.317644	0.218602
551.531865	0.218641
551.746068	0.218774
551.960252	0.218685
552.174418	0.218754
552.388566	0.218934
552.602696	0.219178
552.816807	0.219480
553.030900	0.219943
553.244975	0.220532
553.459032	0.220311
553.673070	0.220518
553.887091	0.221362
554.101093	0.221870
554.315077	0.222393
554.529042	0.222423
554.742990	0.222227
554.956919	0.222097
555.170830	0.221733
555.384722	0.222396
555.598597	0.222546
555.812453	0.222060
556.026291	0.221681
556.240111	0.221870
556.453913	0.221709
556.667696	0.221812
556.881461	0.221921
557.095208	0.222725
557.308937	0.222694
557.522647	0.223076
557.736339	0.223560
557.950013	0.223822
558.163669	0.223831
558.377307	0.224325
558.590926	0.225081
558.804527	0.225222
559.018110	0.225247
559.231675	0.225657
559.445221	0.225473
559.658749	0.225517
559.872259	0.226302
560.085751	0.226883
560.299225	0.226819
560.512680	0.226749
560.726117	0.227538
560.939536	0.227499
561.152937	0.227451
561.366319	0.227957
561.579683	0.228264
561.793029	0.228050
562.006357	0.227236
562.219667	0.227831
562.432958	0.227435
562.646231	0.227189
562.859486	0.227157
563.072723	0.226865
563.285941	0.226563
563.499141	0.226376
563.712323	0.226508
563.925487	0.227025
564.138632	0.226518
564.351760	0.227343
564.564869	0.227468
564.777960	0.227787
564.991032	0.228054
565.204087	0.228047
565.417123	0.228238
565.630141	0.228165
565.843140	0.228135
566.056122	0.228557
566.269085	0.228330
566.482030	0.228301
566.694957	0.228726
566.907866	0.229369
567.120756	0.230068
567.333628	0.230033
567.546482	0.230368
567.759318	0.230657
567.972135	0.231006
568.184935	0.230831
568.397716	0.230804
568.610478	0.230803
568.823223	0.230876
569.035949	0.230829
569.248657	0.231072
569.461347	0.231010
569.674019	0.230979
569.886672	0.230609
570.099308	0.231219
570.311925	0.231715
570.524523	0.231266
570.737104	0.231112
570.949666	0.231218
571.162210	0.231619
571.374736	0.232330
571.587244	0.232603
571.799733	0.233015
572.012205	0.233040
572.224658	0.233364
572.437092	0.233636
572.649509	0.233857
572.861907	0.233904
573.074287	0.233381
573.286649	0.232707
573.498993	0.232500
573.711318	0.233119
573.923625	0.232981
574.135914	0.232224
574.348185	0.232349
574.560438	0.232423
574.772672	0.232350
574.984888	0.233134
575.197086	0.233613
575.409266	0.234191
575.621427	0.233601
575.833570	0.233807
576.045695	0.234434
576.257802	0.234615
576.469890	0.234885
576.681961	0.235204
576.894013	0.235389
577.106046	0.235393
577.318062	0.235490
577.530059	0.236090
577.742039	0.236353
577.954000	0.236629
578.165942	0.237213
578.377867	0.237302
578.589773	0.237255
578.801661	0.237278
579.013531	0.237529
579.225382	0.237629
579.437216	0.237790
579.649031	0.238197
579.860828	0.238270
580.072606	0.238363
580.284367	0.238407
580.496109	0.238626
580.707833	0.238659
580.919539	0.238884
581.131227	0.239100
581.342896	0.239273
581.554547	0.239180
581.766180	0.238723
581.977795	0.238476
582.189391	0.238699
582.400969	0.238909
582.612529	0.239057
582.824071	0.238588
583.035595	0.238816
583.247100	0.238513
583.458587	0.238345
583.670056	0.238801
583.881506	0.239302
584.092939	0.239366
584.304353	0.239627
584.515749	0.239939
584.727127	0.240274
584.938486	0.240221
585.149828	0.240421
585.361151	0.240778
585.572456	0.241054
585.783742	0.240616
585.995011	0.240907
586.206261	0.240452
586.417493	0.240402
586.628706	0.240753
586.839902	0.240966
587.051079	0.240963
587.262238	0.240899
587.473379	0.241063
587.684502	0.241461
587.895606	0.241387
588.106692	0.241764
588.317760	0.242063
588.528810	0.241972
588.739841	0.242205
588.950855	0.242497
589.161850	0.242860
589.372827	0.242827
589.583785	0.243441
589.794726	0.243657
590.005648	0.243477
590.216552	0.243355
590.427437	0.243404
590.638305	0.243317
590.849154	0.243381
591.059985	0.243192
591.270798	0.243378
591.481592	0.243137
591.692369	0.243432
591.903127	0.243848
592.113867	0.244114
592.324588	0.244854
592.535292	0.244599
592.745977	0.244826
592.956644	0.245363
593.167293	0.245628
593.377923	0.245631
593.588536	0.245696
593.799130	0.246039
594.009706	0.245950
594.220263	0.245742
594.430803	0.246355
594.641324	0.246818
594.851827	0.246605
595.062312	0.246632
595.272778	0.246720
595.483227	0.246771
595.693657	0.246963
595.904069	0.247386
596.114462	0.247532
596.324838	0.247594
596.535195	0.247615
596.745534	0.248280
596.955855	0.248631
597.166157	0.249113
597.376441	0.249439
597.586707	0.249547
597.796955	0.249519
598.007185	0.249932
598.217396	0.250043
598.427589	0.249948
598.637764	0.249991
598.847921	0.249985
599.058060	0.250057
599.268180	0.250120
599.478282	0.250147
599.688366	0.250192
599.898431	0.250006
600.108479	0.250169
600.318508	0.250659
600.528519	0.250728
600.738511	0.250974
600.948486	0.251174
601.158442	0.250978
601.368380	0.251361
601.578300	0.251571
601.788202	0.251654
601.998085	0.251992
602.207950	0.252039
602.417797	0.252374
602.627626	0.252799
602.837436	0.252865
603.047228	0.253139
603.257002	0.252956
603.466758	0.253061
603.676496	0.253407
603.886215	0.253669
604.095916	0.253626
604.305599	0.253555
604.515264	0.253157
604.724910	0.253179
604.934538	0.253693
605.144148	0.254156
605.353740	0.254748
605.563314	0.254971
605.772869	0.254799
605.982406	0.254761
606.191925	0.254880
606.401425	0.255131
606.610908	0.255649
606.820372	0.255628
607.029818	0.255877
607.239246	0.255881
607.448655	0.256189
607.658047	0.256684
607.867420	0.257235
608.076775	0.257402
608.286111	0.257749
608.495430	0.257788
608.704730	0.257813
608.914012	0.257639
609.123275	0.257459
609.332521	0.257413
609.541748	0.257269
609.750957	0.257270
609.960148	0.257319
610.169321	0.257433
610.378475	0.257545
610.587611	0.257535
610.796729	0.257789
611.005829	0.257921
611.214910	0.258115
611.423974	0.258248
611.633019	0.258466
611.842045	0.258319
612.051054	0.258265
612.260044	0.258255
612.469017	0.258566
612.677970	0.258829
612.886906	0.259107
613.095824	0.259157
613.304723	0.259084
613.513604	0.259093
613.722467	0.260018
613.931311	0.260393
614.140138	0.260647
614.348946	0.260884
614.557736	0.260795
614.766507	0.260912
614.975261	0.261201
615.183996	0.261599
615.392713	0.261563
615.601412	0.261260
615.810092	0.261184
616.018754	0.260983
616.227399	0.260696
616.436024	0.260911
616.644632	0.261344
616.853222	0.261337
617.061793	0.261498
617.270346	0.262037
617.478880	0.262165
617.687397	0.262209
617.895895	0.262786
618.104375	0.263352
618.312837	0.263440
618.521281	0.263057
618.729706	0.263154
618.938113	0.263193
619.146502	0.263097
619.354873	0.263180
619.563226	0.263630
619.771560	0.263625
619.979876	0.263728
620.188174	0.263822
620.396453	0.264411
620.604715	0.264707
620.812958	0.264968
621.021183	0.265334
621.229390	0.265796
621.437578	0.265785
621.645748	0.265893
621.853900	0.265866
622.062034	0.265993
622.270150	0.266296
622.478247	0.266341
622.686326	0.266610
622.894387	0.266780
623.102430	0.266548
623.310454	0.266663
623.518461	0.267116
623.726449	0.267652
623.934418	0.267750
624.142370	0.267696
624.350303	0.267647
624.558218	0.267846
624.766115	0.267671
624.973994	0.268193
625.181855	0.268459
625.389697	0.268351
625.597521	0.268144
625.805327	0.268653
626.013114	0.268669
626.220883	0.269196
626.428634	0.269022
626.636367	0.269375
626.844082	0.269373
627.051778	0.269382
627.259457	0.269546
627.467117	0.269798
627.674758	0.269888
627.882382	0.269977
628.089987	0.270176
628.297574	0.270654
628.505143	0.270741
628.712694	0.270953
628.920226	0.271382
629.127740	0.271487
629.335236	0.271579
629.542714	0.271754
629.750174	0.271932
629.957615	0.271945
630.165038	0.271977
630.372443	0.272236
630.579829	0.272306
630.787198	0.272371
630.994548	0.272619
631.201880	0.272957
631.409194	0.273055
631.616489	0.273234
631.823766	0.273267
632.031025	0.273557
632.238266	0.273619
632.445489	0.273565
632.652693	0.273660
632.859879	0.273630
633.067047	0.273513
633.274197	0.273611
633.481329	0.273977
633.688442	0.274112
633.895537	0.273912
634.102614	0.274179
634.309672	0.274384
634.516713	0.274343
634.723735	0.274449
634.930739	0.274742
635.137724	0.274692
635.344692	0.274534
635.551641	0.274721
635.758572	0.275044
635.965485	0.275084
636.172379	0.275324
636.379256	0.275802
636.586114	0.276080
636.792954	0.276231
636.999775	0.276559
637.206579	0.276536
637.413364	0.276621
637.620131	0.276633
637.826880	0.276752
638.033610	0.276888
638.240323	0.276736
638.447017	0.276614
638.653692	0.276624
638.860350	0.276738
639.066990	0.277222
639.273611	0.277340
639.480214	0.277572
639.686798	0.277435
639.893365	0.277582
640.099913	0.277717
640.306443	0.277891
640.512955	0.278121
640.719449	0.278300
640.925924	0.278374
641.132381	0.278600
641.338820	0.278605
641.545241	0.278946
641.751644	0.279112
641.958028	0.279381
642.164394	0.279561
642.370742	0.279832
642.577071	0.279955
642.783383	0.279947
642.989676	0.280079
643.195951	0.280231
643.402207	0.280461
643.608446	0.280482
643.814666	0.280719
644.020868	0.280785
644.227052	0.280740
644.433218	0.280853
644.639365	0.281389
644.845494	0.281507
645.051605	0.281792
645.257698	0.281890
645.463772	0.282158
645.669828	0.282223
645.875866	0.282387
646.081886	0.282902
646.287888	0.283110
646.493871	0.282965
646.699836	0.283195
646.905783	0.283240
647.111712	0.283123
647.317622	0.283049
647.523514	0.283040
647.729388	0.283000
647.935244	0.282927
648.141082	0.283163
648.346901	0.283126
648.552702	0.283281
648.758485	0.283720
648.964250	0.284137
649.169996	0.284527
649.375724	0.284776
649.581434	0.285457
649.787126	0.285808
649.992800	0.285821
650.198455	0.285998
650.404092	0.286227
650.609711	0.286215
650.815311	0.286423
651.020894	0.286471
651.226458	0.286477
651.432004	0.286497
651.637532	0.286447
651.843041	0.286683
652.048532	0.286806
652.254006	0.286980
652.459460	0.287093
652.664897	0.287120
652.870315	0.287547
653.075716	0.287881
653.281097	0.287729
653.486461	0.287802
653.691807	0.287881
653.897134	0.288361
654.102443	0.288358
654.307734	0.288536
654.513006	0.288875
654.718261	0.289051
654.923497	0.288924
655.128715	0.289377
655.333915	0.289564
655.539096	0.289702
655.744259	0.289920
655.949404	0.289913
656.154531	0.290122
656.359640	0.290036
656.564730	0.290060
656.769802	0.290686
656.974856	0.290768
657.179892	0.291350
657.384909	0.291495
657.589908	0.291561
657.794889	0.292152
657.999852	0.292035
658.204797	0.292486
658.409723	0.292451
658.614631	0.292705
658.819521	0.293011
659.024393	0.292821
659.229246	0.293280
659.434081	0.293144
659.638898	0.293236
659.843697	0.293918
660.048478	0.293975
660.253240	0.294251
660.457984	0.294279
660.662710	0.294352
660.867417	0.294475
661.072107	0.294453
661.276778	0.294891
661.481431	0.294958
661.686066	0.295121
661.890682	0.295523
662.095281	0.295944
662.299861	0.296171
662.504422	0.296515
662.708966	0.296755
662.913491	0.296827
663.117999	0.297195
663.322488	0.297475
663.526958	0.297320
663.731411	0.297165
663.935845	0.297187
664.140261	0.297373
664.344659	0.297586
664.549038	0.297787
664.753400	0.297931
664.957743	0.298105
665.162068	0.298329
665.366375	0.298616
665.570663	0.299101
665.774933	0.299343
665.979185	0.299469
666.183419	0.299405
666.387635	0.299386
666.591832	0.299758
666.796011	0.299658
667.000172	0.299801
667.204315	0.299834
667.408439	0.300047
667.612545	0.300161
667.816634	0.300162
668.020703	0.300249
668.224755	0.300738
668.428788	0.300993
668.632803	0.301287
668.836800	0.301476
669.040779	0.301878
669.244739	0.301971
669.448681	0.302188
669.652605	0.302570
669.856511	0.303077
670.060399	0.303322
670.264268	0.303648
670.468119	0.303916
670.671952	0.304236
670.875767	0.304540
671.079563	0.304850
671.283341	0.305158
671.487101	0.305519
671.690843	0.305970
671.894567	0.306039
672.098272	0.306194
672.301959	0.306406
672.505628	0.306351
672.709278	0.306415
672.912911	0.306534
673.116525	0.306703
673.320121	0.306864
673.523699	0.306876
673.727258	0.307116
673.930799	0.307209
674.134322	0.307424
674.337827	0.307790
674.541314	0.308110
674.744782	0.308310
674.948232	0.308246
675.151664	0.308279
675.355078	0.308467
675.558474	0.308601
675.761851	0.308708
675.965210	0.308884
676.168551	0.309016
676.371873	0.309081
676.575178	0.309115
676.778464	0.309510
676.981732	0.309756
677.184981	0.309783
677.388213	0.310347
677.591426	0.310444
677.794621	0.310655
677.997798	0.310964
678.200956	0.311104
678.404097	0.311513
678.607219	0.311917
678.810323	0.311968
679.013408	0.312368
679.216476	0.312187
679.419525	0.312386
679.622556	0.312604
679.825569	0.312813
680.028563	0.313130
680.231540	0.312932
680.434498	0.312861
680.637438	0.313209
680.840359	0.313216
681.043263	0.313539
681.246148	0.313762
681.449015	0.313794
681.651864	0.313857
681.854694	0.313832
682.057506	0.314269
682.260301	0.314595
682.463076	0.314808
682.665834	0.315200
682.868573	0.315462
683.071295	0.315607
683.273998	0.315756
683.476682	0.315850
683.679349	0.316246
683.881997	0.316364
684.084627	0.316268
684.287239	0.316113
684.489833	0.315962
684.692408	0.315780
684.894965	0.316089
685.097504	0.316337
685.300025	0.316701
685.502527	0.316712
685.705012	0.316773
685.907478	0.317118
686.109925	0.317326
686.312355	0.317694
686.514766	0.317858
686.717159	0.317911
686.919534	0.317964
687.121891	0.317908
687.324230	0.318049
687.526550	0.318362
687.728852	0.318313
687.931136	0.318272
688.133401	0.318305
688.335649	0.318517
688.537878	0.318575
688.740089	0.318717
688.942281	0.318809
689.144456	0.318974
689.346612	0.319234
689.548750	0.319342
689.750870	0.319839
689.952971	0.319705
690.155055	0.320022
690.357120	0.320343
690.559167	0.320907
690.761195	0.321256
690.963206	0.321540
691.165198	0.321409
691.367172	0.321606
691.569128	0.321445
691.771065	0.321792
691.972984	0.321874
692.174885	0.321927
692.376768	0.321656
692.578633	0.321495
692.780479	0.321633
692.982308	0.321647
693.184118	0.321710
693.385909	0.321887
693.587683	0.322113
693.789438	0.322267
693.991175	0.322262
694.192894	0.322368
694.394595	0.322638
694.596277	0.322591
694.797941	0.323079
694.999587	0.323456
695.201215	0.323891
695.402824	0.323782
695.604416	0.324007
695.805989	0.324357
696.007543	0.324614
696.209080	0.324780
696.410598	0.324811
696.612099	0.324780
696.813580	0.324890
697.015044	0.324878
697.216490	0.325251
697.417917	0.325212
697.619326	0.325023
697.820717	0.324948
698.022089	0.324996
698.223444	0.325069
698.424780	0.324946
698.626098	0.324867
698.827397	0.324996
699.028679	0.324872
699.229942	0.324615
699.431187	0.324844
699.632414	0.325068
699.833622	0.325201
700.034813	0.325688
700.235985	0.326023
700.437139	0.326356
700.638274	0.326483
700.839392	0.326925
701.040491	0.327388
701.241572	0.327866
701.442635	0.327929
701.643679	0.328287
701.844706	0.328372
702.045714	0.328289
702.246704	0.328569
702.447675	0.328710
702.648629	0.328752
702.849564	0.328823
703.050481	0.328567
703.251380	0.328736
703.452260	0.328583
703.653122	0.328268
703.853966	0.328498
704.054792	0.327920
704.255600	0.327646
704.456389	0.327599
704.657160	0.327395
704.857913	0.327467
705.058648	0.327185
705.259365	0.327167
705.460063	0.327186
705.660743	0.327306
705.861405	0.327534
706.062048	0.327640
706.262674	0.327514
706.463281	0.327483
706.663870	0.327461
706.864441	0.327867
707.064993	0.327817
707.265527	0.327920
707.466043	0.327853
707.666541	0.327880
707.867021	0.328067
708.067482	0.328283
708.267925	0.328780
708.468350	0.329219
708.668757	0.329359
708.869145	0.329613
709.069516	0.329745
709.269868	0.329925
709.470201	0.330015
709.670517	0.330149
709.870814	0.330111
710.071093	0.329898
710.271354	0.329485
710.471597	0.329316
710.671821	0.329332
710.872028	0.329193
711.072216	0.329596
711.272385	0.329599
711.472537	0.329446
711.672670	0.329470
711.872785	0.329431
712.072882	0.329528
712.272961	0.329397
712.473021	0.329252
712.673063	0.329423
712.873087	0.329029
713.073093	0.329087
713.273081	0.329166
713.473050	0.329003
713.673001	0.328798
713.872934	0.328780
714.072849	0.328766
714.272745	0.328673
714.472623	0.328465
714.672483	0.328207
714.872325	0.328204
715.072148	0.327947
715.271954	0.328001
715.471741	0.328291
715.671509	0.328393
715.871260	0.328589
716.070992	0.328549
716.270707	0.328687
716.470403	0.328648
716.670080	0.328479
716.869740	0.328425
717.069381	0.328404
717.269004	0.328307
717.468609	0.328108
717.668195	0.328118
717.867764	0.328379
718.067314	0.328065
718.266846	0.328182
718.466360	0.327905
718.665855	0.328136
718.865332	0.327974
719.064791	0.327713
719.264232	0.327567
719.463655	0.327146
719.663059	0.326651
719.862445	0.326580
720.061813	0.326157
720.261163	0.326637
720.460494	0.326387
720.659807	0.326435
720.859102	0.326581
721.058379	0.326638
721.257638	0.326677
721.456878	0.326684
721.656100	0.326732
721.855304	0.326983
722.054490	0.326711
722.253657	0.326777
722.452806	0.326788
722.651937	0.326791
722.851050	0.326577
723.050145	0.326639
723.249221	0.326728
723.448279	0.326709
723.647319	0.326396
723.846340	0.326031
724.045344	0.325696
724.244329	0.325579
724.443296	0.325201
724.642245	0.325169
724.841175	0.324814
725.040088	0.324653
725.238982	0.324543
725.437857	0.324348
725.636715	0.324307
725.835554	0.324469
726.034376	0.324164
726.233179	0.324145
726.431963	0.324314
726.630730	0.324211
726.829478	0.323941
727.028208	0.323881
727.226920	0.323995
727.425614	0.324119
727.624289	0.323848
727.822946	0.323609
728.021585	0.323580
728.220206	0.323072
728.418808	0.323073
728.617392	0.322925
728.815958	0.322833
729.014506	0.322857
729.213036	0.322541
729.411547	0.322384
729.610040	0.322442
729.808515	0.322284
730.006972	0.322346
730.205410	0.321952
730.403831	0.322015
730.602233	0.321927
730.800616	0.321725
730.998982	0.321627
731.197329	0.321376
731.395658	0.321644
731.593969	0.321418
731.792262	0.321101
731.990536	0.321046
732.188793	0.320672
732.387031	0.320324
732.585250	0.320059
732.783452	0.319819
732.981635	0.319826
733.179800	0.319043
733.377947	0.318787
733.576076	0.318504
733.774186	0.318695
733.972278	0.318642
734.170352	0.318420
734.368408	0.318259
734.566446	0.318463
734.764465	0.318280
734.962466	0.318252
735.160449	0.318162
735.358413	0.318333
735.556360	0.317957
735.754288	0.317901
735.952198	0.318018
736.150090	0.317847
736.347963	0.317403
736.545818	0.317118
736.743655	0.317108
736.941474	0.316853
737.139275	0.316260
737.337057	0.315942
737.534821	0.315502
737.732567	0.315139
737.930295	0.314843
738.128005	0.314563
738.325696	0.314341
738.523369	0.313854
738.721024	0.313729
738.918660	0.313778
739.116279	0.313532
739.313879	0.313489
739.511461	0.313172
739.709024	0.313132
739.906570	0.313135
740.104097	0.313191
740.301606	0.313374
740.499097	0.313606
740.696569	0.313428
740.894024	0.313167
741.091460	0.312768
741.288878	0.312685
741.486277	0.312769
741.683659	0.312614
741.881022	0.312346
742.078367	0.312060
742.275694	0.311553
742.473002	0.311487
742.670293	0.311389
742.867565	0.311431
743.064819	0.311485
743.262054	0.310874
743.459272	0.310718
743.656471	0.310743
743.853652	0.310406
744.050815	0.310131
744.247959	0.309954
744.445085	0.309825
744.642194	0.309685
744.839283	0.309267
745.036355	0.309295
745.233408	0.309093
745.430444	0.308846
745.627461	0.308683
745.824459	0.308761
746.021440	0.308731
746.218402	0.308791
746.415346	0.308842
746.612272	0.308811
746.809180	0.308966
747.006069	0.308822
747.202940	0.308588
747.399793	0.308531
747.596628	0.308546
747.793444	0.308206
747.990243	0.308103
748.187023	0.307699
748.383784	0.307488
748.580528	0.306790
748.777253	0.306722
748.973960	0.306709
749.170649	0.306579
749.367320	0.306058
749.563973	0.305888
749.760607	0.305547
749.957223	0.305550
750.153821	0.305379
750.350400	0.305489
750.546962	0.305262
750.743505	0.305085
750.940030	0.304963
751.136536	0.304714
751.333025	0.304394
751.529495	0.304592
751.725947	0.304161
751.922381	0.303930
752.118796	0.303455
752.315194	0.302857
752.511573	0.302524
752.707934	0.301961
752.904276	0.301899
753.100601	0.301541
753.296907	0.300999
753.493195	0.300701
753.689465	0.300474
753.885716	0.300382
754.081949	0.300353
754.278164	0.299899
754.474361	0.300140
754.670540	0.299755
754.866700	0.299846
755.062843	0.299693
755.258967	0.299815
755.455072	0.299857
755.651160	0.299652
755.847229	0.299483
756.043280	0.299323
756.239313	0.299089
756.435328	0.299230
756.631324	0.298871
756.827302	0.298680
757.023262	0.298560
757.219204	0.297863
757.415127	0.297679
757.611033	0.297738
757.806920	0.297922
758.002788	0.297862
758.198639	0.297633
758.394471	0.297273
758.590286	0.297297
758.786081	0.297018
758.981859	0.297129
759.177619	0.297231
759.373360	0.297030
759.569083	0.296651
759.764788	0.296388
759.960474	0.296017
760.156143	0.296115
760.351793	0.295897
760.547425	0.295595
760.743038	0.295607
760.938634	0.295255
761.134211	0.295067
761.329770	0.295066
761.525311	0.294937
761.720833	0.294880
761.916338	0.294585
762.111824	0.294553
762.307292	0.294819
762.502741	0.294734
762.698173	0.294709
762.893586	0.294639
763.088981	0.294724
763.284358	0.294521
763.479716	0.294505
763.675057	0.294674
763.870379	0.294060
764.065683	0.293592
764.260968	0.293462
764.456236	0.293305
764.651485	0.292981
764.846716	0.292954
765.041929	0.292829
765.237123	0.292818
765.432299	0.292818
765.627457	0.293123
765.822597	0.293311
766.017719	0.293155
766.212822	0.293342
766.407907	0.293615
766.602974	0.293322
766.798023	0.293495
766.993054	0.293214
767.188066	0.293240
767.383060	0.293309
767.578036	0.293102
767.772993	0.293116
767.967933	0.292864
768.162854	0.292628
768.357757	0.292763
768.552642	0.292653
768.747508	0.292682
768.942356	0.292384
769.137186	0.292244
769.331998	0.292036
769.526792	0.291906
769.721567	0.291684
769.916324	0.291597
770.111063	0.291283
770.305784	0.291190
770.500486	0.290884
770.695171	0.290857
770.889837	0.290658
771.084484	0.290728
771.279114	0.290678
771.473725	0.290732
771.668318	0.290872
771.862893	0.290786
772.057450	0.290568
772.251988	0.290630
772.446509	0.290370
772.641011	0.290151
772.835494	0.289916
773.029960	0.289949
773.224407	0.289864
773.418836	0.289618
773.613247	0.289645
773.807640	0.289552
774.002014	0.289616
774.196370	0.289847
774.390708	0.289788
774.585028	0.289763
774.779330	0.289651
774.973613	0.289610
775.167878	0.289565
775.362125	0.289253
775.556354	0.289428
775.750564	0.289215
775.944756	0.289410
776.138930	0.289578
776.333086	0.289596
776.527223	0.289365
776.721343	0.289210
776.915444	0.289154
777.109526	0.289270
777.303591	0.289213
777.497637	0.289270
777.691666	0.289035
777.885676	0.288869
778.079667	0.288872
778.273641	0.288869
778.467596	0.289018
778.661533	0.288684
778.855452	0.288310
779.049352	0.288094
779.243235	0.287989
779.437099	0.287828
779.630945	0.287966
779.824773	0.287830
780.018582	0.287789
780.212373	0.287610
780.406146	0.287814
780.599901	0.288399
780.793638	0.288482
780.987356	0.288614
781.181056	0.288768
781.374738	0.288692
781.568402	0.288852
781.762047	0.288907
781.955674	0.289043
782.149283	0.289314
782.342874	0.289168
782.536447	0.289359
782.730001	0.289157
782.923537	0.288938
783.117055	0.288964
783.310555	0.289152
783.504036	0.289507
783.697499	0.289522
783.890944	0.289376
784.084371	0.289346
784.277780	0.289275
784.471170	0.289713
784.664542	0.290078
784.857896	0.290346
785.051231	0.290400
785.244549	0.290412
785.437848	0.290648
785.631129	0.290547
785.824392	0.290921
786.017636	0.290924
786.210863	0.290987
786.404071	0.290965
786.597260	0.291006
786.790432	0.290850
786.983585	0.290830
787.176721	0.290815
787.369838	0.291168
787.562936	0.291101
787.756017	0.291173
787.949079	0.291170
788.142123	0.291237
788.335149	0.291325
788.528156	0.291405
788.721146	0.291575
788.914117	0.291731
789.107070	0.291733
789.300005	0.291623
789.492921	0.291925
789.685819	0.292238
789.878699	0.292130
790.071561	0.292259
790.264405	0.292528
790.457230	0.292543
790.650037	0.292774
790.842826	0.292905
791.035597	0.293441
791.228349	0.293644
791.421084	0.293496
791.613800	0.293922
791.806497	0.293917
791.999177	0.294173
792.191838	0.294267
792.384481	0.294167
792.577106	0.294367
792.769713	0.294086
792.962301	0.293859
793.154871	0.293937
793.347423	0.293867
793.539957	0.294157
793.732473	0.294195
793.924970	0.294340
794.117449	0.294439
794.309910	0.294600
794.502353	0.294759
794.694777	0.294910
794.887183	0.295198
795.079571	0.295822
795.271941	0.295641
795.464293	0.295750
795.656626	0.295992
795.848941	0.296434
796.041238	0.296430
796.233516	0.296863
796.425777	0.297298
796.618019	0.297535
796.810243	0.297479
797.002449	0.297913
797.194636	0.298228
797.386805	0.298531
797.578956	0.298615
797.771089	0.298985
797.963204	0.299315
798.155300	0.299342
798.347378	0.299649
798.539438	0.300004
798.731480	0.300230
798.923503	0.300438
799.115509	0.300418
799.307496	0.300737
799.499465	0.301021
799.691415	0.300960
799.883348	0.301290
800.075262	0.301394
800.267158	0.301635
800.459035	0.301906
800.650895	0.301928
800.842736	0.302183
801.034559	0.302198
801.226364	0.302557
801.418150	0.302709
801.609919	0.302871
801.801669	0.303210
801.993401	0.303281
802.185114	0.303330
802.376810	0.303784
802.568487	0.304111
802.760146	0.304377
802.951787	0.304239
803.143409	0.304416
803.335014	0.304678
803.526600	0.304913
803.718168	0.304972
803.909717	0.305129
804.101249	0.305339
804.292762	0.305558
804.484257	0.305878
804.675734	0.306498
804.867192	0.306836
805.058632	0.307015
805.250054	0.307418
805.441458	0.307876
805.632844	0.308217
805.824211	0.308472
806.015561	0.308590
806.206891	0.308742
806.398204	0.308710
806.589499	0.308841
806.780775	0.308891
806.972033	0.308930
807.163273	0.309310
807.354495	0.309603
807.545698	0.309830
807.736883	0.310447
807.928050	0.310594
808.119199	0.310898
808.310329	0.311411
808.501441	0.312059
808.692535	0.312153
808.883611	0.312114
809.074669	0.312340
809.265708	0.312670
809.456729	0.312724
809.647732	0.313266
809.838717	0.313635
810.029683	0.313863
810.220632	0.314181
810.411562	0.314747
810.602474	0.315380
810.793367	0.316094
810.984242	0.316202
811.175100	0.316446
811.365938	0.316847
811.556759	0.317220
811.747562	0.317471
811.938346	0.317757
812.129112	0.317823
812.319860	0.317838
812.510589	0.317984
812.701300	0.318394
812.891994	0.318774
813.082668	0.318829
813.273325	0.318798
813.463964	0.319183
813.654584	0.319357
813.845186	0.319529
814.035769	0.319765
814.226335	0.319946
814.416882	0.319989
814.607411	0.320208
814.797922	0.320537
814.988415	0.321097
815.178889	0.321650
815.369345	0.322037
815.559783	0.322316
815.750203	0.322429
815.940605	0.322540
816.130988	0.322846
816.321353	0.322904
816.511700	0.323330
816.702028	0.323347
816.892339	0.323125
817.082631	0.322935
817.272905	0.323545
817.463161	0.324117
817.653398	0.324543
817.843617	0.324976
818.033819	0.325651
818.224001	0.325729
818.414166	0.326291
818.604312	0.326962
818.794440	0.327522
818.984550	0.327687
819.174642	0.327929
819.364716	0.328198
819.554771	0.328793
819.744808	0.328982
819.934827	0.329436
820.124827	0.329558
820.314810	0.329542
820.504774	0.330192
820.694720	0.330778
820.884647	0.331146
821.074557	0.331415
821.264448	0.331395
821.454321	0.331651
821.644176	0.332090
821.834012	0.332496
822.023831	0.332982
822.213631	0.332976
822.403413	0.332902
822.593176	0.333489
822.782922	0.333617
822.972649	0.334053
823.162358	0.334616
823.352049	0.334843
823.541721	0.335262
823.731376	0.335838
823.921012	0.336620
824.110629	0.337300
824.300229	0.337379
824.489811	0.338257
824.679374	0.338816
824.868919	0.339337
825.058445	0.339482
825.247954	0.339986
825.437444	0.340187
825.626916	0.340246
825.816370	0.340824
826.005806	0.341331
826.195223	0.341461
826.384622	0.342058
826.574003	0.342353
826.763366	0.343191
826.952711	0.343706
827.142037	0.344213
827.331345	0.344922
827.520635	0.345166
827.709906	0.345532
827.899160	0.346164
828.088395	0.346328
828.277612	0.346868
828.466810	0.347111
828.655991	0.347484
828.845153	0.348000
829.034297	0.348184
829.223423	0.348631
829.412531	0.349117
829.601620	0.349610
829.790691	0.350261
829.979744	0.350427
830.168779	0.351041
830.357795	0.351414
830.546793	0.351682
830.735773	0.352043
830.924735	0.352317
831.113679	0.352934
831.302604	0.353364
831.491511	0.353343
831.680400	0.353625
831.869271	0.353815
832.058123	0.354194
832.246957	0.354781
832.435773	0.355341
832.624571	0.355607
832.813351	0.355883
833.002112	0.356123
833.190855	0.356889
833.379580	0.357626
833.568287	0.358151
833.756975	0.358947
833.945645	0.359632
834.134297	0.360442
834.322931	0.361162
834.511547	0.361430
834.700144	0.361942
834.888723	0.362284
835.077284	0.362876
835.265826	0.363480
835.454351	0.363861
835.642857	0.363973
835.831345	0.364108
836.019815	0.364451
836.208266	0.365238
836.396699	0.365625
836.585114	0.366171
836.773511	0.366551
836.961890	0.366939
837.150250	0.367413
837.338592	0.367904
837.526916	0.368698
837.715222	0.369130
837.903510	0.369523
838.091779	0.370057
838.280030	0.370363
838.468263	0.371003
838.656477	0.371658
838.844674	0.371830
839.032852	0.372581
839.221012	0.372747
839.409153	0.373498
839.597277	0.374150
839.785382	0.374597
839.973469	0.375103
840.161538	0.375681
840.349589	0.375993
840.537621	0.376814
840.725635	0.377053
840.913631	0.377651
841.101609	0.378302
841.289568	0.378561
841.477509	0.379146
841.665432	0.379974
841.853337	0.380589
842.041224	0.381307
842.229092	0.381748
842.416942	0.382510
842.604774	0.383313
842.792588	0.383704
842.980383	0.384135
843.168160	0.384699
843.355919	0.385379
843.543660	0.385734
843.731382	0.386221
843.919087	0.386804
844.106773	0.387419
844.294441	0.387736
844.482090	0.388147
844.669722	0.388953
844.857335	0.389655
845.044930	0.389783
845.232507	0.390054
845.420065	0.390646
845.607605	0.391032
845.795127	0.391209
845.982631	0.391506
846.170117	0.392193
846.357584	0.392574
846.545033	0.393234
846.732464	0.393912
846.919877	0.394543
847.107272	0.394594
847.294648	0.395013
847.482006	0.395709
847.669346	0.396344
847.856667	0.396952
848.043971	0.397247
848.231256	0.397550
848.418523	0.397850
848.605771	0.398074
848.793002	0.398743
848.980214	0.399044
849.167408	0.399631
849.354584	0.400226
849.541742	0.400448
849.728881	0.401129
849.916002	0.401326
850.103105	0.402280
850.290190	0.403185
850.477256	0.403979
850.664304	0.404717
850.851334	0.404876
851.038346	0.405108
851.225340	0.405591
851.412315	0.405689
851.599272	0.406465
851.786211	0.406715
851.973132	0.407063
852.160034	0.407077
852.346918	0.407421
852.533784	0.407592
852.720632	0.408040
852.907462	0.408474
853.094273	0.409500
853.281066	0.409774
853.467841	0.410203
853.654598	0.410179
853.841336	0.410772
854.028056	0.410910
854.214758	0.411433
854.401442	0.412218
854.588107	0.412286
854.774755	0.412518
854.961384	0.412744
855.147995	0.412954
855.334587	0.413457
855.521162	0.413804
855.707718	0.414393
855.894256	0.415173
856.080775	0.414926
856.267277	0.415812
856.453760	0.416381
856.640225	0.416913
856.826672	0.417244
857.013101	0.417986
857.199511	0.418071
857.385903	0.418692
857.572277	0.418798
857.758633	0.419878
857.944970	0.420240
858.131290	0.420779
858.317591	0.421315
858.503873	0.421603
858.690138	0.421793
858.876384	0.422353
859.062612	0.422610
859.248822	0.423199
859.435014	0.423554
859.621188	0.424076
859.807343	0.424529
859.993480	0.425268
860.179599	0.426161
860.365699	0.426653
860.551781	0.427522
860.737846	0.428403
860.923891	0.429190
861.109919	0.429398
861.295929	0.429666
861.481920	0.429665
861.667893	0.429688
861.853848	0.429952
862.039784	0.430573
862.225702	0.430888
862.411603	0.431107
862.597484	0.431485
862.783348	0.432033
862.969193	0.432872
863.155021	0.433357
863.340830	0.434015
863.526620	0.434342
863.712393	0.434882
863.898147	0.435180
864.083883	0.435816
864.269601	0.436359
864.455301	0.437092
864.640982	0.437383
864.826645	0.437950
865.012290	0.438363
865.197917	0.439055
865.383526	0.439413
865.569116	0.439661
865.754688	0.439523
865.940242	0.439418
866.125777	0.439256
866.311295	0.439081
866.496794	0.439263
866.682275	0.439190
866.867737	0.439368
867.053182	0.439403
867.238608	0.439956
867.424016	0.440459
867.609406	0.440753
867.794778	0.441065
867.980131	0.441682
868.165466	0.442302
868.350783	0.442924
868.536082	0.443129
868.721362	0.443678
868.906625	0.444158
869.091869	0.444390
869.277094	0.444562
869.462302	0.445051
869.647491	0.445836
869.832662	0.445966
870.017815	0.445894
870.202950	0.446126
870.388066	0.445776
870.573165	0.445749
870.758245	0.446415
870.943306	0.447039
871.128350	0.447166
871.313375	0.446732
871.498382	0.447052
871.683371	0.447512
871.868342	0.447903
872.053294	0.448578
872.238229	0.448956
872.423144	0.448716
872.608042	0.449309
872.792922	0.449765
872.977783	0.450184
873.162626	0.450295
873.347451	0.450695
873.532258	0.451058
873.717046	0.451345
873.901816	0.451598
874.086568	0.451923
874.271302	0.451792
874.456017	0.452083
874.640715	0.452150
874.825394	0.452328
875.010055	0.452286
875.194697	0.452367
875.379322	0.451909
875.563928	0.452010
875.748516	0.452676
875.933085	0.452654
876.117637	0.453492
876.302170	0.453960
876.486685	0.454434
876.671182	0.455634
876.855661	0.456521
877.040121	0.458052
877.224563	0.458498
877.408987	0.458594
877.593393	0.458908
877.777780	0.458173
877.962150	0.458226
878.146501	0.457803
878.330833	0.457425
878.515148	0.456912
878.699444	0.456076
878.883722	0.456024
879.067982	0.456020
879.252224	0.456078
879.436447	0.455934
879.620653	0.456207
879.804840	0.456462
879.989008	0.456195
880.173159	0.456261
880.357291	0.456649
880.541405	0.456709
880.725501	0.457051
880.909579	0.457263
881.093638	0.457855
881.277680	0.458009
881.461703	0.458414
881.645707	0.458436
881.829694	0.458926
882.013662	0.458955
882.197612	0.459235
882.381544	0.459246
882.565458	0.459249
882.749353	0.459227
882.933230	0.459230
883.117089	0.458993
883.300930	0.458972
883.484753	0.458869
883.668557	0.458978
883.852343	0.459156
884.036111	0.458534
884.219861	0.458392
884.403592	0.458439
884.587305	0.458337
884.771000	0.458898
884.954677	0.459068
885.138335	0.458680
885.321976	0.458782
885.505598	0.458382
885.689201	0.458896
885.872787	0.459315
886.056354	0.459592
886.239904	0.458980
886.423434	0.458641
886.606947	0.458855
886.790442	0.458928
886.973918	0.459267
887.157376	0.459271
887.340816	0.459497
887.524237	0.459300
887.707641	0.458964
887.891026	0.459618
888.074393	0.459434
888.257741	0.459646
888.441072	0.459865
888.624384	0.459817
888.807678	0.459596
888.990954	0.459503
889.174211	0.459003
889.357451	0.458987
889.540672	0.459389
889.723875	0.459816
889.907059	0.459481
890.090226	0.459154
890.273374	0.458931
890.456504	0.459347
890.639616	0.459607
890.822709	0.460161
891.005785	0.459962
891.188842	0.459720
891.371881	0.459312
891.554901	0.458714
891.737904	0.458615
891.920888	0.458964
892.103854	0.459211
892.286802	0.458543
892.469731	0.458423
892.652643	0.458734
892.835536	0.458604
893.018410	0.458930
893.201267	0.459824
893.384106	0.460640
893.566926	0.460709
893.749728	0.460387
893.932511	0.460847
894.115277	0.460853
894.298024	0.460905
894.480753	0.460700
894.663464	0.460572
894.846157	0.460557
895.028831	0.460304
895.211487	0.459998
895.394125	0.459641
895.576745	0.459532
895.759346	0.459200
895.941930	0.458953
896.124495	0.458663
896.307041	0.458222
896.489570	0.457810
896.672080	0.457020
896.854573	0.456268
897.037046	0.456034
897.219502	0.455006
897.401940	0.455017
897.584359	0.454507
897.766760	0.454734
897.949143	0.454400
898.131507	0.453939
898.313854	0.453755
898.496182	0.453874
898.678492	0.453858
898.860783	0.453977
899.043057	0.453546
899.225312	0.453048
899.407549	0.452176
899.589768	0.451967
899.771968	0.451817
899.954151	0.451645
900.136315	0.451677
900.318461	0.451421
900.500588	0.451432
900.682698	0.450744
900.864789	0.451554
901.046862	0.451576
901.228917	0.451615
901.410953	0.451511
901.592971	0.451374
901.774972	0.450733
901.956953	0.450427
902.138917	0.450041
902.320862	0.449498
902.502790	0.448276
902.684699	0.447777
902.866589	0.446694
903.048462	0.446318
903.230316	0.445561
903.412152	0.445272
903.593970	0.444856
903.775770	0.444284
903.957551	0.444473
904.139314	0.443831
904.321059	0.443263
904.502786	0.442825
904.684494	0.441747
904.866185	0.441342
905.047857	0.440389
905.229510	0.440421
905.411146	0.439906
905.592763	0.438874
905.774363	0.438750
905.955943	0.438119
906.137506	0.438011
906.319051	0.437516
906.500577	0.437429
906.682085	0.437249
906.863575	0.436233
907.045046	0.435648
907.226500	0.435637
907.407935	0.435191
907.589352	0.434939
907.770750	0.434545
907.952131	0.434796
908.133493	0.434036
908.314837	0.433353
908.496163	0.433665
908.677470	0.433640
908.858760	0.433248
909.040031	0.433006
909.221284	0.433048
909.402518	0.433119
909.583735	0.432500
909.764933	0.432147
909.946113	0.431611
910.127275	0.430180
910.308418	0.429683
910.489544	0.429180
910.670651	0.428475
910.851740	0.427347
911.032810	0.426700
911.213863	0.425804
911.394897	0.425580
911.575913	0.425154
911.756911	0.424767
911.937890	0.423902
912.118851	0.423136
912.299794	0.422731
912.480719	0.422947
912.661626	0.422120
912.842514	0.422013
913.023384	0.420841
913.204236	0.420533
913.385070	0.420328
913.565886	0.419448
913.746683	0.419348
913.927462	0.418736
914.108223	0.417824
914.288965	0.417036
914.469690	0.416789
914.650396	0.415957
914.831084	0.415724
915.011754	0.414934
915.192405	0.414001
915.373038	0.413296
915.553653	0.412898
915.734250	0.411549
915.914829	0.411399
916.095389	0.410145
916.275931	0.409916
916.456455	0.408294
916.636961	0.407252
916.817448	0.407291
916.997917	0.405923
917.178368	0.404598
917.358801	0.404108
917.539216	0.402603
917.719612	0.401745
917.899990	0.401697
918.080350	0.401265
918.260692	0.400093
918.441015	0.398709
918.621320	0.398378
918.801607	0.397198
918.981876	0.396472
919.162127	0.395457
919.342359	0.394877
919.522573	0.393291
919.702769	0.392101
919.882947	0.391733
920.063106	0.391388
920.243247	0.390159
920.423370	0.389731
920.603475	0.389218
920.783562	0.388467
920.963630	0.387240
921.143680	0.387157
921.323712	0.386905
921.503725	0.385858
921.683721	0.384815
921.863698	0.384131
922.043657	0.383792
922.223598	0.382898
922.403520	0.382002
922.583424	0.381571
922.763311	0.380126
922.943178	0.379639
923.123028	0.378633
923.302859	0.377591
923.482673	0.376915
923.662467	0.375596
923.842244	0.374114
924.022003	0.373096
924.201743	0.372141
924.381465	0.371909
924.561169	0.370500
924.740854	0.370286
924.920522	0.370079
925.100171	0.368958
925.279802	0.367979
925.459414	0.366848
925.639009	0.367130
925.818585	0.366190
925.998143	0.364020
926.177683	0.363369
926.357205	0.362756
926.536708	0.361015
926.716193	0.360645
926.895660	0.359552
927.075109	0.358993
927.254539	0.356986
927.433951	0.355808
927.613345	0.354922
927.792721	0.352857
927.972079	0.351261
928.151418	0.350842
928.330739	0.349154
928.510042	0.348090
928.689327	0.346733
928.868593	0.346375
929.047841	0.346369
929.227071	0.346218
929.406283	0.345895
929.585476	0.344701
929.764652	0.343374
929.943809	0.343392
930.122948	0.342963
930.302068	0.342663
930.481171	0.341693
930.660255	0.339832
930.839321	0.338139
931.018369	0.337033
931.197398	0.337408
931.376409	0.336475
931.555402	0.334957
931.734377	0.333203
931.913334	0.331895
932.092272	0.330830
932.271192	0.330315
932.450094	0.329199
932.628978	0.328612
932.807844	0.326220
932.986691	0.325378
933.165520	0.323884
933.344331	0.323489
933.523123	0.322980
933.701898	0.321060
933.880654	0.319180
934.059392	0.318497
934.238111	0.318138
934.416813	0.316396
934.595496	0.315157
934.774161	0.314273
934.952808	0.312534
935.131437	0.311144
935.310047	0.311632
935.488639	0.310242
935.667213	0.308369
935.845769	0.306116
936.024306	0.306124
936.202825	0.304615
936.381326	0.303297
936.559809	0.303070
936.738274	0.302110
936.916720	0.300354
937.095148	0.299144
937.273558	0.297856
937.451950	0.296337
937.630323	0.295206
937.808678	0.294952
937.987015	0.294000
938.165334	0.292460
938.343635	0.290514
938.521917	0.288906
938.700181	0.288902
938.878427	0.288414
939.056655	0.287312
939.234864	0.286470
939.413055	0.284921
939.591228	0.285380
939.769383	0.284001
939.947519	0.284199
940.125638	0.282816
940.303738	0.281611
940.481820	0.280170
940.659883	0.278878
940.837929	0.276816
941.015956	0.275387
941.193965	0.272844
941.371955	0.272438
941.549928	0.269957
941.727882	0.268159
941.905818	0.267835
942.083736	0.266793
942.261636	0.265704
942.439517	0.264475
942.617380	0.263138
942.795225	0.261768
942.973052	0.258223
943.150860	0.256618
943.328651	0.257036
943.506423	0.254907
943.684176	0.253742
943.861912	0.253423
944.039629	0.253465
944.217328	0.252404
944.395009	0.251491
944.572672	0.251374
944.750317	0.250531
944.927943	0.246891
945.105551	0.246006
945.283141	0.244879
945.460712	0.243455
945.638265	0.241064
945.815801	0.240160
945.993317	0.237674
946.170816	0.236086
946.348297	0.235527
946.525759	0.235719
946.703203	0.233124
946.880629	0.229704
947.058036	0.228668
947.235425	0.227838
947.412797	0.225769
947.590149	0.226392
947.767484	0.225735
947.944800	0.224276
948.122099	0.223407
948.299379	0.222569
948.476640	0.223841
948.653884	0.222819
948.831109	0.221061
949.008316	0.222259
949.185505	0.219841
949.362676	0.219579
949.539828	0.220341
949.716962	0.219305
949.894078	0.217821
950.071176	0.216927
950.248256	0.215913
950.425317	0.215077
950.602360	0.213045
950.779385	0.212412
950.956391	0.211090
951.133380	0.208595
951.310350	0.208132
951.487302	0.207261
951.664235	0.206717
951.841151	0.205607
952.018048	0.205571
952.194927	0.204177
952.371788	0.203306
952.548631	0.200804
952.725455	0.199931
952.902261	0.198296
953.079049	0.197603
953.255819	0.195996
953.432570	0.193794
953.609303	0.191310
953.786018	0.190740
953.962715	0.190686
954.139394	0.192582
954.316054	0.190471
954.492696	0.190454
954.669320	0.189443
954.845926	0.187750
955.022513	0.187930
955.199083	0.185970
955.375634	0.184368
955.552166	0.183005
955.728681	0.184669
955.905177	0.186570
956.081655	0.187130
956.258115	0.186495
956.434557	0.184592
956.610980	0.181417
956.787385	0.182317
956.963772	0.183188
957.140141	0.182849
957.316492	0.178765
957.492824	0.175959
957.669138	0.171257
957.845434	0.169520
958.021712	0.171456
958.197971	0.172599
958.374212	0.172918
958.550435	0.168826
958.726640	0.166936
958.902826	0.165501
959.078995	0.165865
959.255145	0.168926
959.431277	0.169913
959.607390	0.169867
959.783486	0.171218
959.959563	0.170743
960.135622	0.172370
960.311662	0.173344
960.487685	0.171757
960.663689	0.173594
960.839675	0.172673
961.015643	0.174163
961.191593	0.173733
961.367524	0.173013
961.543437	0.172391
961.719332	0.173048
961.895209	0.170994
962.071067	0.173159
962.246907	0.169117
962.422730	0.169869
962.598533	0.169745
962.774319	0.169447
962.950086	0.169051
963.125835	0.168823
963.301566	0.168692
963.477279	0.171966
963.652973	0.172237
963.828650	0.175159
964.004308	0.172539
964.179947	0.170516
964.355569	0.170113
964.531172	0.168113
964.706757	0.165418
964.882324	0.164896
965.057873	0.161643
965.233403	0.160331
965.408916	0.157252
965.584410	0.156759
965.759885	0.154487
965.935343	0.155271
966.110782	0.156600
966.286203	0.159374
966.461606	0.158080
966.636991	0.158957
966.812357	0.161445
966.987705	0.163161
967.163035	0.163960
967.338347	0.164377
967.513641	0.163736
967.688916	0.163598
967.864173	0.163406
968.039412	0.164240
968.214632	0.164197
968.389835	0.163473
968.565019	0.163324
968.740185	0.162571
968.915333	0.162678
969.090462	0.163296
969.265573	0.163835
969.440667	0.165068
969.615741	0.165008
969.790798	0.166374
969.965836	0.165680
970.140856	0.164350
970.315858	0.165234
970.490842	0.167139
970.665808	0.167683
970.840755	0.167875
971.015684	0.166552
971.190595	0.168499
971.365487	0.165977
971.540362	0.163327
971.715218	0.165073
971.890056	0.165310
972.064875	0.161858
972.239677	0.160507
972.414460	0.158038
972.589225	0.158001
972.763972	0.155626
972.938700	0.158775
973.113411	0.162674
973.288103	0.160887
973.462777	0.159789
973.637432	0.161096
973.812070	0.163139
973.986689	0.165011
974.161290	0.165041
974.335873	0.162734
974.510437	0.161625
974.684984	0.156013
974.859512	0.157535
975.034022	0.159005
975.208513	0.158119
975.382987	0.155046
975.557442	0.153585
975.731879	0.153243
975.906298	0.153715
976.080698	0.154040
976.255080	0.157476
976.429445	0.158060
976.603790	0.157847
976.778118	0.160585
976.952427	0.161885
977.126719	0.164256
977.300992	0.164848
977.475246	0.168289
977.649483	0.165277
977.823701	0.165377
977.997901	0.161929
978.172083	0.161343
978.346247	0.159011
978.520392	0.158620
978.694519	0.157042
978.868628	0.154985
979.042719	0.155149
979.216791	0.156330
979.390845	0.154460
979.564882	0.156994
979.738899	0.158798
979.912899	0.158720
980.086880	0.157695
980.260843	0.155902
980.434788	0.157361
980.608715	0.154842
980.782623	0.158314
980.956514	0.161807
981.130386	0.161582
981.304240	0.159881
981.478075	0.160462
981.651892	0.162203
981.825692	0.166105
981.999472	0.162647
982.173235	0.163842
982.346980	0.161020
982.520706	0.159824
982.694414	0.159607
982.868104	0.159875
983.041775	0.160192
983.215428	0.163080
983.389064	0.160857
983.562680	0.166126
983.736279	0.167896
983.909860	0.169608
984.083422	0.169371
984.256966	0.171651
984.430491	0.171765
984.603999	0.172798
984.777488	0.168681
984.950959	0.170768
985.124412	0.167585
985.297847	0.164211
985.471263	0.162134
985.644661	0.161311
985.818041	0.158441
985.991403	0.157284
986.164747	0.155797
986.338072	0.156166
986.511379	0.155276
986.684668	0.158263
986.857938	0.161351
987.031191	0.160766
987.204425	0.161642
987.377641	0.161584
987.550839	0.164667
987.724018	0.166838
987.897179	0.165361
988.070322	0.164157
988.243447	0.162433
988.416554	0.160024
988.589642	0.159562
988.762712	0.159455
988.935764	0.159121
989.108798	0.155449
989.281813	0.154448
989.454811	0.157485
989.627790	0.158643
989.800751	0.156968
989.973693	0.157655
990.146617	0.156991
990.319524	0.156037
990.492412	0.156744
990.665281	0.159149
990.838133	0.159714
991.010966	0.157901
991.183781	0.157124
991.356578	0.157845
991.529356	0.158217
991.702117	0.160925
991.874859	0.162200
992.047583	0.161282
992.220288	0.160254
992.392976	0.159974
992.565645	0.159429
992.738296	0.158941
992.910929	0.161274
993.083543	0.163744
993.256139	0.160931
993.428718	0.159653
993.601277	0.162562
993.773819	0.163753
993.946342	0.163718
994.118848	0.164353
994.291335	0.165384
994.463803	0.165509
994.636254	0.161657
994.808686	0.162633
994.981100	0.164411
995.153496	0.163533
995.325874	0.161943
995.498233	0.165007
995.670574	0.166979
995.842897	0.166962
996.015202	0.164778
996.187488	0.167703
996.359757	0.169126
996.532007	0.166448
996.704239	0.167139
996.876452	0.168228
997.048648	0.163666
997.220825	0.160961
997.392984	0.160222
997.565124	0.160466
997.737247	0.157707
997.909351	0.156331
998.081437	0.158215
998.253505	0.156167
998.425554	0.155392
998.597586	0.154727
998.769599	0.155051
998.941594	0.155049
999.113571	0.155821
999.285529	0.157107
999.457469	0.158222
999.629391	0.158021
999.801295	0.159163
999.973181	0.160375
1000.145048	0.164417
1000.316897	0.165629
1000.488728	0.166839
1000.660541	0.167022
1000.832335	0.167695
1001.004111	0.168455
1001.175869	0.170420
1001.347609	0.170465
1001.519331	0.171033
1001.691034	0.169752
1001.862719	0.169707
1002.034386	0.167378
1002.206035	0.165332
1002.377665	0.165369
1002.549277	0.164666
1002.720871	0.163971
1002.892447	0.164253
1003.064004	0.161971
1003.235544	0.161957
1003.407065	0.160989
1003.578568	0.162387
1003.750052	0.162857
1003.921519	0.159732
1004.092967	0.158569
1004.264397	0.158425
1004.435809	0.157788
1004.607202	0.157704
1004.778577	0.156604
1004.949934	0.157339
1005.121273	0.156309
1005.292594	0.158256
1005.463896	0.160648
1005.635180	0.161829
1005.806446	0.159770
1005.977694	0.161723
1006.148923	0.162991
1006.320135	0.162304
1006.491328	0.161604
1006.662503	0.164511
1006.833659	0.163900
1007.004798	0.166075
1007.175918	0.163316
1007.347020	0.165159
1007.518103	0.163842
1007.689169	0.164062
1007.860216	0.165284
1008.031245	0.166520
1008.202256	0.164812
1008.373248	0.162402
1008.544223	0.159488
1008.715179	0.161638
1008.886117	0.159923
1009.057036	0.160517
1009.227938	0.158374
1009.398821	0.157648
1009.569686	0.157396
1009.740533	0.156395
1009.911361	0.157952
1010.082172	0.159125
1010.252964	0.158806
1010.423738	0.159046
1010.594493	0.158249
1010.765231	0.160545
1010.935950	0.160243
1011.106651	0.160498
1011.277334	0.160179
1011.447998	0.160868
1011.618645	0.159891
1011.789273	0.161672
1011.959882	0.162443
1012.130474	0.161855
1012.301048	0.160998
1012.471603	0.162079
1012.642140	0.162322
1012.812658	0.164644
1012.983159	0.163535
1013.153641	0.162749
1013.324105	0.161335
1013.494551	0.161507
1013.664979	0.162160
1013.835388	0.160780
1014.005779	0.159815
1014.176152	0.160461
1014.346507	0.159430
1014.516843	0.159749
1014.687162	0.160309
1014.857462	0.158948
1015.027744	0.157467
1015.198007	0.155535
1015.368252	0.156999
1015.538480	0.158096
1015.708689	0.156273
1015.878879	0.155888
1016.049052	0.155971
1016.219206	0.155499
1016.389342	0.156298
1016.559460	0.156762
1016.729559	0.158499
1016.899641	0.158690
1017.069704	0.157500
1017.239749	0.157364
1017.409775	0.156868
1017.579784	0.158957
1017.749774	0.158378
1017.919746	0.159713
1018.089700	0.158433
1018.259635	0.157625
1018.429553	0.157599
1018.599452	0.158184
1018.769333	0.156536
1018.939195	0.156944
1019.109040	0.155093
1019.278866	0.155872
1019.448674	0.154767
1019.618464	0.156770
1019.788235	0.157243
1019.957989	0.157883
1020.127724	0.156873
1020.297441	0.158001
1020.467139	0.157207
1020.636820	0.156490
1020.806482	0.156848
1020.976126	0.156858
1021.145752	0.154425
1021.315359	0.153265
1021.484948	0.152370
1021.654519	0.151994
1021.824072	0.151170
1021.993607	0.151210
1022.163123	0.152926
1022.332621	0.153417
1022.502101	0.152946
1022.671563	0.154907
1022.841007	0.153792
1023.010432	0.152822
1023.179839	0.154686
1023.349228	0.156718
1023.518598	0.158714
1023.687951	0.158608
1023.857285	0.158406
1024.026601	0.157373
1024.195899	0.158470
1024.365178	0.160167
1024.534439	0.159472
1024.703682	0.158860
1024.872907	0.157175
1025.042114	0.155153
1025.211302	0.155060
1025.380472	0.154022
1025.549624	0.154886
1025.718758	0.153501
1025.887873	0.152873
1026.056970	0.153393
1026.226049	0.153624
1026.395110	0.154955
1026.564153	0.155554
1026.733177	0.153908
1026.902183	0.154298
1027.071171	0.154724
1027.240141	0.154173
1027.409092	0.155523
1027.578026	0.155626
1027.746940	0.154701
1027.915837	0.155471
1028.084716	0.154522
1028.253576	0.153276
1028.422418	0.154129
1028.591242	0.154013
1028.760048	0.153722
1028.928835	0.151581
1029.097604	0.152293
1029.266355	0.153347
1029.435088	0.153590
1029.603803	0.153698
1029.772499	0.155547
1029.941177	0.154219
1030.109837	0.155233
1030.278478	0.155823
1030.447102	0.157569
1030.615707	0.159286
1030.784294	0.160506
1030.952863	0.157584
1031.121413	0.158107
1031.289945	0.156916
1031.458460	0.155401
1031.626955	0.155571
1031.795433	0.155527
1031.963892	0.153492
1032.132334	0.152426
1032.300756	0.148841
1032.469161	0.151864
1032.637548	0.151870
1032.805916	0.152917
1032.974266	0.153126
1033.142598	0.152066
1033.310911	0.152045
1033.479207	0.151898
1033.647484	0.151441
1033.815743	0.153220
1033.983983	0.152319
1034.152206	0.151128
1034.320410	0.150885
1034.488596	0.152781
1034.656764	0.153315
1034.824914	0.152651
1034.993045	0.154313
1035.161158	0.153632
1035.329253	0.152753
1035.497330	0.152425
1035.665388	0.155156
1035.833428	0.154682
1036.001450	0.155166
1036.169454	0.154728
1036.337440	0.155308
1036.505407	0.155981
1036.673356	0.155957
1036.841287	0.156664
1037.009200	0.156781
1037.177094	0.153389
1037.344970	0.152053
1037.512828	0.152659
1037.680668	0.151811
1037.848489	0.150879
1038.016293	0.148801
1038.184078	0.149381
1038.351845	0.150128
1038.519593	0.149940
1038.687324	0.151568
1038.855036	0.154363
1039.022730	0.151110
1039.190406	0.151656
1039.358063	0.152356
1039.525702	0.152797
1039.693323	0.151840
1039.860926	0.151006
1040.028511	0.150468
1040.196077	0.149590
1040.363625	0.149644
1040.531155	0.151445
1040.698667	0.150751
1040.866161	0.152106
1041.033636	0.154396
1041.201093	0.154750
1041.368532	0.155354
1041.535952	0.155062
1041.703355	0.157520
1041.870739	0.158325
1042.038105	0.157140
1042.205452	0.156968
1042.372782	0.156093
1042.540093	0.155048
1042.707386	0.156128
1042.874661	0.154625
1043.041918	0.154190
1043.209156	0.152893
1043.376376	0.149750
1043.543578	0.151306
1043.710762	0.152423
1043.877927	0.151975
1044.045074	0.152799
1044.212203	0.150814
1044.379314	0.152383
1044.546407	0.152366
1044.713481	0.153347
1044.880537	0.155335
1045.047575	0.153882
1045.214595	0.153305
1045.381596	0.153783
1045.548579	0.153189
1045.715544	0.155612
1045.882491	0.155353
1046.049420	0.156200
1046.216330	0.153975
1046.383222	0.152894
1046.550096	0.151114
1046.716951	0.151764
1046.883789	0.150218
1047.050608	0.149421
1047.217409	0.147068
1047.384192	0.147023
1047.550956	0.146278
1047.717703	0.147215
1047.884431	0.148888
1048.051140	0.151797
1048.217832	0.150590
1048.384505	0.151251
1048.551161	0.152818
1048.717798	0.152991
1048.884416	0.150597
1049.051017	0.151294
1049.217599	0.151449
1049.384163	0.151607
1049.550709	0.152900
1049.717237	0.155566
1049.883746	0.154557
1050.050237	0.151663
1050.216710	0.151548
1050.383165	0.153066
1050.549601	0.154464
1050.716019	0.153659
1050.882420	0.152559
1051.048801	0.153579
1051.215165	0.153070
1051.381510	0.155302
1051.547837	0.157186
1051.714146	0.158235
1051.880437	0.159760
1052.046709	0.159025
1052.212964	0.159335
1052.379200	0.158883
1052.545417	0.156819
1052.711617	0.155545
1052.877798	0.153986
1053.043961	0.152516
1053.210106	0.151492
1053.376233	0.150097
1053.542341	0.150287
1053.708432	0.150846
1053.874504	0.151452
1054.040557	0.151865
1054.206593	0.152083
1054.372610	0.154640
1054.538609	0.156013
1054.704590	0.155698
1054.870553	0.155559
1055.036497	0.154556
1055.202424	0.153612
1055.368331	0.152592
1055.534221	0.151166
1055.700093	0.150910
1055.865946	0.150059
1056.031781	0.149152
1056.197598	0.150758
1056.363397	0.152967
1056.529177	0.153054
1056.694939	0.154326
1056.860683	0.154837
1057.026409	0.153061
1057.192116	0.152555
1057.357806	0.151439
1057.523477	0.151363
1057.689130	0.149869
1057.854764	0.148722
1058.020381	0.147386
1058.185979	0.147979
1058.351559	0.151591
1058.517120	0.153616
1058.682664	0.152083
1058.848189	0.149029
1059.013696	0.150209
1059.179185	0.150407
1059.344656	0.151600
1059.510108	0.150897
1059.675542	0.150556
1059.840958	0.145257
1060.006356	0.147463
1060.171735	0.149340
1060.337096	0.153154
1060.502439	0.154375
1060.667764	0.155940
1060.833071	0.151523
1060.998359	0.154929
1061.163629	0.153303
1061.328881	0.154354
1061.494115	0.152604
1061.659330	0.152950
1061.824527	0.152402
1061.989706	0.150088
1062.154867	0.149326
1062.320010	0.152804
1062.485134	0.152963
1062.650240	0.153378
1062.815328	0.150548
1062.980398	0.149626
1063.145449	0.150784
1063.310482	0.151766
1063.475497	0.151713
1063.640494	0.151793
1063.805473	0.149016
1063.970433	0.147986
1064.135375	0.146759
1064.300299	0.149131
1064.465204	0.149994
1064.630092	0.146949
1064.794961	0.147414
1064.959812	0.146309
1065.124645	0.142344
1065.289459	0.144149
1065.454256	0.145258
1065.619034	0.148052
1065.783793	0.150069
1065.948535	0.151389
1066.113258	0.153643
1066.277964	0.152455
1066.442651	0.153262
1066.607319	0.157179
1066.771970	0.157621
1066.936602	0.158359
1067.101216	0.157246
1067.265812	0.156929
1067.430389	0.156458
1067.594949	0.156692
1067.759490	0.159043
1067.924013	0.159292
1068.088518	0.159973
1068.253004	0.158993
1068.417472	0.156433
1068.581922	0.156138
1068.746354	0.155068
1068.910768	0.154263
1069.075163	0.151830
1069.239540	0.148581
1069.403899	0.148572
1069.568240	0.147875
1069.732562	0.148374
1069.896866	0.148403
1070.061152	0.148923
1070.225420	0.150890
1070.389670	0.153845
1070.553901	0.155278
1070.718114	0.157443
1070.882309	0.156817
1071.046486	0.157751
1071.210644	0.159299
1071.374784	0.158222
1071.538906	0.160174
1071.703010	0.158254
1071.867096	0.153495
1072.031163	0.154192
1072.195212	0.151586
1072.359243	0.154550
1072.523256	0.155010
1072.687250	0.151183
1072.851226	0.151084
1073.015184	0.149390
1073.179124	0.147813
1073.343045	0.150506
1073.506949	0.151206
1073.670834	0.153706
1073.834701	0.152929
1073.998549	0.152752
1074.162380	0.156970
1074.326192	0.159332
1074.489986	0.160581
1074.653761	0.162601
1074.817519	0.160941
1074.981258	0.161353
1075.144979	0.162913
1075.308682	0.162103
1075.472367	0.161132
1075.636033	0.159716
1075.799681	0.162174
1075.963311	0.162252
1076.126923	0.160795
1076.290516	0.160755
1076.454092	0.163308
1076.617649	0.163068
1076.781187	0.165489
1076.944708	0.167645
1077.108210	0.168076
1077.271695	0.161798
1077.435160	0.161078
1077.598608	0.162372
1077.762038	0.162869
1077.925449	0.158891
1078.088842	0.157725
1078.252217	0.155887
1078.415573	0.152250
1078.578912	0.154444
1078.742232	0.157386
1078.905534	0.155884
1079.068817	0.157413
1079.232083	0.160268
1079.395330	0.159140
1079.558559	0.156735
1079.721770	0.157639
1079.884962	0.162797
1080.048136	0.160086
1080.211293	0.159252
1080.374430	0.160425
1080.537550	0.159133
1080.700651	0.158567
1080.863735	0.160810
1081.026800	0.165163
1081.189846	0.163817
1081.352875	0.160514
1081.515885	0.161729
1081.678877	0.162372
1081.841851	0.164094
1082.004807	0.164940
1082.167744	0.164031
1082.330663	0.163833
1082.493564	0.159645
1082.656447	0.162735
1082.819312	0.160375
1082.982158	0.158435
1083.144986	0.159458
1083.307796	0.157908
1083.470587	0.157772
1083.633361	0.152808
1083.796116	0.152706
1083.958853	0.157053
1084.121571	0.154843
1084.284272	0.158790
1084.446954	0.159635
1084.609618	0.158982
1084.772264	0.158245
1084.934892	0.160771
1085.097501	0.168375
1085.260092	0.165343
1085.422665	0.163439
1085.585220	0.162505
1085.747756	0.161246
1085.910274	0.163873
1086.072774	0.164288
1086.235256	0.161194
1086.397720	0.159298
1086.560165	0.154990
1086.722592	0.158958
1086.885001	0.157775
1087.047392	0.159489
1087.209764	0.160462
1087.372119	0.159076
1087.534455	0.160481
1087.696772	0.166693
1087.859072	0.165703
1088.021353	0.169689
1088.183616	0.169809
1088.345861	0.169306
1088.508088	0.167666
1088.670296	0.164842
1088.832486	0.164713
1088.994658	0.164457
1089.156812	0.168136
1089.318948	0.166849
1089.481065	0.165012
1089.643164	0.165185
1089.805245	0.166014
1089.967308	0.165835
1090.129352	0.167816
1090.291378	0.166027
1090.453386	0.164928
1090.615376	0.160268
1090.777347	0.166596
1090.939301	0.166462
1091.101236	0.164401
1091.263153	0.162880
1091.425051	0.163323
1091.586932	0.162596
1091.748794	0.164436
1091.910638	0.164784
1092.072463	0.164385
1092.234271	0.161071
1092.396060	0.164574
1092.557831	0.165644
1092.719584	0.168142
1092.881319	0.165550
1093.043035	0.166128
1093.204733	0.165138
1093.366413	0.165204
1093.528075	0.166156
1093.689718	0.164671
1093.851343	0.158847
1094.012950	0.156439
1094.174539	0.152664
1094.336110	0.149836
1094.497662	0.148333
1094.659196	0.150318
1094.820712	0.149576
1094.982210	0.149732
1095.143689	0.151166
1095.305151	0.153181
1095.466594	0.154672
1095.628018	0.160941
1095.789425	0.162656
1095.950813	0.163858
1096.112183	0.163957
1096.273535	0.165058
1096.434869	0.162556
1096.596184	0.162120
1096.757482	0.164452
1096.918761	0.165303
1097.080021	0.161685
1097.241264	0.166081
1097.402488	0.168838
1097.563694	0.168241
1097.724882	0.165438
1097.886052	0.168086
1098.047203	0.166474
1098.208336	0.165866
1098.369451	0.166685
1098.530548	0.166901
1098.691627	0.172003
1098.852687	0.172535
1099.013729	0.166878
1099.174753	0.168821
1099.335758	0.165382
1099.496746	0.166676
1099.657715	0.163513
1099.818666	0.168143
1099.979599	0.171078
1100.140513	0.165083
1100.301409	0.165264
1100.462287	0.169072
1100.623147	0.168235
1100.783989	0.169150
1100.944812	0.166091
1101.105617	0.170751
1101.266404	0.165330
1101.427173	0.164638
1101.587923	0.166382
1101.748656	0.163846
1101.909370	0.168008
1102.070066	0.171057
1102.230743	0.167736
1102.391403	0.170035
1102.552044	0.167833
1102.712667	0.165859
1102.873271	0.166223
1103.033858	0.169522
1103.194426	0.166482
1103.354976	0.165074
1103.515508	0.165214
1103.676021	0.162710
1103.836517	0.163969
1103.996994	0.161888
1104.157453	0.163567
1104.317893	0.161060
1104.478316	0.157076
1104.638720	0.160844
1104.799106	0.161261
1104.959474	0.157290
1105.119823	0.165875
1105.280155	0.168612
1105.440468	0.173351
1105.600763	0.171753
1105.761039	0.170122
1105.921298	0.175534
1106.081538	0.176854
1106.241760	0.180204
1106.401964	0.186259
1106.562149	0.184272
1106.722316	0.184115
1106.882465	0.181511
1107.042596	0.177607
1107.202709	0.180239
1107.362803	0.173260
1107.522879	0.169305
1107.682937	0.162554
1107.842977	0.157695
1108.002999	0.158099
1108.163002	0.151742
1108.322987	0.153263
1108.482954	0.157463
1108.642902	0.159644
1108.802833	0.159142
1108.962745	0.165706
1109.122639	0.170144
1109.282515	0.179664
1109.442372	0.178137
1109.602211	0.180832
1109.762032	0.178753
1109.921835	0.183439
1110.081620	0.184137
1110.241386	0.188536
1110.401134	0.184787
1110.560864	0.183227
1110.720576	0.177654
1110.880269	0.179693
1111.039945	0.178182
1111.199602	0.179154
1111.359240	0.175125
1111.518861	0.167646
1111.678463	0.163123
1111.838047	0.163529
1111.997613	0.160956
1112.157161	0.156875
1112.316690	0.159332
1112.476202	0.158064
1112.635695	0.157157
1112.795169	0.157409
1112.954626	0.161848
1113.114064	0.167906
1113.273484	0.167015
1113.432886	0.167691
1113.592270	0.167546
1113.751635	0.167198
1113.910983	0.175922
1114.070312	0.176971
1114.229622	0.181400
1114.388915	0.183798
1114.548189	0.177708
1114.707445	0.174602
1114.866683	0.174598
1115.025903	0.175735
1115.185104	0.170743
1115.344287	0.169541
1115.503452	0.172292
1115.662599	0.172990
1115.821727	0.169679
1115.980838	0.172716
1116.139930	0.178584
1116.299004	0.175388
1116.458059	0.168307
1116.617097	0.169450
1116.776116	0.161620
1116.935117	0.157025
1117.094099	0.148911
1117.253064	0.152564
1117.412010	0.159505
1117.570938	0.155552
1117.729848	0.163404
1117.888740	0.171587
1118.047613	0.168545
1118.206468	0.171932
1118.365305	0.173243
1118.524124	0.174200
1118.682924	0.169861
1118.841707	0.160018
1119.000471	0.163482
1119.159216	0.162956
1119.317944	0.160130
1119.476653	0.165755
1119.635344	0.164992
1119.794017	0.167147
1119.952672	0.172296
1120.111308	0.179832
1120.269927	0.186303
1120.428527	0.188178
1120.587108	0.190921
1120.745672	0.189649
1120.904217	0.192844
1121.062744	0.188225
1121.221253	0.181707
1121.379744	0.182303
1121.538216	0.174472
1121.696671	0.170903
1121.855107	0.172417
1122.013524	0.166458
1122.171924	0.162479
1122.330305	0.161315
1122.488668	0.168236
1122.647013	0.175013
1122.805340	0.173075
1122.963648	0.166214
1123.121938	0.164125
1123.280210	0.163638
1123.438464	0.162779
1123.596700	0.169886
1123.754917	0.175047
1123.913116	0.180183
1124.071297	0.174204
1124.229459	0.165810
1124.387604	0.180387
1124.545730	0.180568
1124.703838	0.172757
1124.861928	0.168504
1125.019999	0.168483
1125.178052	0.166098
1125.336088	0.161728
1125.494104	0.159885
1125.652103	0.165717
1125.810083	0.156270
1125.968045	0.164950
1126.125989	0.165222
1126.283915	0.176379
1126.441823	0.184045
1126.599712	0.180965
1126.757583	0.177125
1126.915436	0.186077
1127.073270	0.190467
1127.231087	0.195884
1127.388885	0.188755
1127.546665	0.189879
1127.704426	0.181688
1127.862170	0.174979
1128.019895	0.162556
1128.177602	0.163566
1128.335291	0.166111
1128.492961	0.164216
1128.650614	0.166855
1128.808248	0.170675
1128.965864	0.166579
1129.123461	0.175181
1129.281041	0.177551
1129.438602	0.183561
1129.596145	0.195357
1129.753670	0.185449
1129.911176	0.183089
1130.068665	0.171958
1130.226135	0.177333
1130.383587	0.179613
1130.541020	0.167135
1130.698436	0.167363
1130.855833	0.170470
1131.013212	0.164758
1131.170573	0.160704
1131.327915	0.173860
1131.485239	0.177449
1131.642545	0.172704
1131.799833	0.178734
1131.957103	0.191931
1132.114354	0.189820
1132.271588	0.192610
1132.428803	0.191333
1132.585999	0.203509
1132.743178	0.197817
1132.900338	0.207308
1133.057480	0.202348
1133.214604	0.201917
1133.371710	0.198923
1133.528797	0.199715
1133.685866	0.199235
1133.842917	0.194198
1133.999950	0.192199
1134.156964	0.190796
1134.313960	0.188931
1134.470938	0.185906
1134.627898	0.189961
1134.784840	0.180998
1134.941763	0.183975
1135.098668	0.183691
1135.255555	0.184510
1135.412424	0.192113
1135.569274	0.192270
1135.726107	0.187340
1135.882921	0.189412
1136.039716	0.193581
1136.196494	0.194811
1136.353253	0.192563
1136.509995	0.193539
1136.666717	0.198738
1136.823422	0.187095
1136.980109	0.181325
1137.136777	0.179789
1137.293427	0.183141
1137.450059	0.170440
1137.606672	0.182289
1137.763267	0.188463
1137.919844	0.184071
1138.076403	0.184379
1138.232944	0.183170
1138.389466	0.186618
1138.545971	0.199729
1138.702457	0.199538
1138.858924	0.204925
1139.015374	0.193844
1139.171805	0.192911
1139.328218	0.198295
1139.484613	0.196741
1139.640990	0.212252
1139.797348	0.208799
1139.953688	0.200051
1140.110010	0.193698
1140.266314	0.205910
1140.422600	0.214950
1140.578867	0.218884
1140.735116	0.219231
1140.891347	0.213613
1141.047559	0.210373
1141.203754	0.211306
1141.359930	0.199551
1141.516088	0.207388
1141.672228	0.194835
1141.828349	0.181473
1141.984452	0.178754
1142.140537	0.168203
1142.296604	0.169952
1142.452653	0.157263
1142.608683	0.160474
1142.764695	0.172097
1142.920689	0.163889
1143.076665	0.153783
1143.232622	0.155832
1143.388562	0.150630
1143.544483	0.161584
1143.700385	0.156255
1143.856270	0.154946
1144.012136	0.146627
1144.167985	0.143536
1144.323814	0.143746
1144.479626	0.155807
1144.635420	0.161790
1144.791195	0.155284
1144.946952	0.154685
1145.102691	0.163762
1145.258411	0.169398
1145.414113	0.176077
1145.569798	0.176787
1145.725463	0.173830
1145.881111	0.162136
1146.036741	0.161833
1146.192352	0.165256
1146.347945	0.167604
1146.503519	0.158208
1146.659076	0.165217
1146.814614	0.166716
1146.970134	0.167471
1147.125636	0.184993
1147.281120	0.202375
1147.436585	0.199878
1147.592032	0.186374
1147.747461	0.185509
1147.902872	0.193913
1148.058265	0.184624
1148.213639	0.184238
1148.368995	0.191721
1148.524333	0.181036
1148.679653	0.173875
1148.834954	0.180399
1148.990237	0.207781
1149.145502	0.207682
1149.300749	0.221243
1149.455977	0.219857
1149.611188	0.223719
1149.766380	0.220986
1149.921553	0.238645
1150.076709	0.230161
1150.231846	0.229800
1150.386966	0.216692
1150.542066	0.210433
1150.697149	0.182149
1150.852214	0.186162
1151.007260	0.184662
1151.162288	0.171888
1151.317298	0.155326
1151.472289	0.157783
1151.627263	0.148567
1151.782218	0.150596
1151.937155	0.140728
1152.092073	0.152816
1152.246974	0.148865
1152.401856	0.144062
1152.556720	0.153642
1152.711566	0.151464
1152.866393	0.164979
1153.021203	0.164214
1153.175994	0.172233
1153.330767	0.171220
1153.485521	0.165742
1153.640258	0.180835
1153.794976	0.190911
1153.949676	0.186860
1154.104358	0.201863
1154.259021	0.191341
1154.413667	0.197440
1154.568294	0.185636
1154.722903	0.187892
1154.877493	0.200098
1155.032066	0.191778
1155.186620	0.190589
1155.341156	0.192534
1155.495674	0.179302
1155.650173	0.172002
1155.804654	0.182639
1155.959118	0.182621
1156.113562	0.199394
1156.267989	0.189874
1156.422397	0.177593
1156.576788	0.165223
1156.731160	0.166386
1156.885513	0.168430
1157.039849	0.191091
1157.194166	0.170131
1157.348465	0.169120
1157.502746	0.177730
1157.657009	0.190647
1157.811253	0.205526
1157.965479	0.224197
1158.119687	0.224398
1158.273877	0.230782
1158.428048	0.199208
1158.582201	0.215590
1158.736337	0.197545
1158.890453	0.172379
1159.044552	0.170011
1159.198632	0.165326
1159.352694	0.158656
1159.506738	0.155465
1159.660764	0.155206
1159.814771	0.156322
1159.968761	0.152198
1160.122732	0.178031
1160.276685	0.198305
1160.430619	0.197337
1160.584535	0.212421
1160.738434	0.204079
1160.892313	0.210483
1161.046175	0.209921
1161.200019	0.202548
1161.353844	0.196717
1161.507651	0.188004
1161.661440	0.169397
1161.815210	0.181228
1161.968962	0.155746
1162.122697	0.140474
1162.276412	0.140051
1162.430110	0.143370
1162.583789	0.153869
1162.737451	0.162104
1162.891094	0.161652
1163.044718	0.168278
1163.198325	0.142920
1163.351913	0.135529
1163.505483	0.159216
1163.659035	0.151367
1163.812569	0.142520
1163.966084	0.149349
1164.119581	0.137290
1164.273060	0.148128
1164.426521	0.151249
1164.579964	0.156547
1164.733388	0.179970
1164.886794	0.183860
1165.040182	0.192934
1165.193551	0.188289
1165.346903	0.189733
1165.500236	0.211274
1165.653551	0.191452
1165.806848	0.191760
1165.960126	0.182657
1166.113386	0.183125
1166.266628	0.159344
1166.419852	0.151832
1166.573058	0.165332
1166.726245	0.162748
1166.879414	0.141102
1167.032565	0.156998
1167.185698	0.167100
1167.338812	0.190376
1167.491909	0.185392
1167.644987	0.173465
1167.798046	0.160293
1167.951088	0.146037
1168.104111	0.143028
1168.257117	0.145717
1168.410103	0.138386
1168.563072	0.143276
1168.716023	0.146056
1168.868955	0.176866
1169.021869	0.191164
1169.174765	0.210601
1169.327642	0.209271
1169.480501	0.228121
1169.633343	0.241396
1169.786165	0.241828
1169.938970	0.219547
1170.091757	0.185109
1170.244525	0.132456
1170.397275	0.149043
1170.550007	0.175207
1170.702720	0.194453
1170.855415	0.177317
1171.008092	0.168029
1171.160751	0.170085
1171.313392	0.167915
1171.466014	0.145633
1171.618619	0.142782
1171.771205	0.142782
1171.923772	0.142782
