sample name	sample
index	11
start time	 02-11-2021  11:32:24 AM
880	0.193559
Peak Time (s)	80.537
Peak Height 	0.1936
calc peak height	80,83
Baseline Time (s)	10.037
Baseline Value 	-0.003919
subtract baseline	10,4
Abs	0.146890
Peak Time (s)	81.036
Peak Height 	0.1469
calc peak height	80,83
Baseline Time (s)	9.036
Baseline Value 	0.005355
subtract baseline	10,3
PK_550	0.070773
Peak Time (s)	81.036
Peak Height 	0.07077
calc peak height	80,83
Baseline Time (s)	11.536
Baseline Value 	0.001086
subtract baseline	10,2
PK_880	0.128612
Peak Time (s)	80.037
Peak Height 	0.1286
calc peak height	80,83
Baseline Time (s)	8.54
Baseline Value 	0.002262
subtract baseline	10,1


Time (s)	A880-A510	A880-A775	A880-A975	A880	I510	I775	I975	I880	
0.034000	0.000184	-0.000240	0.004407	0.000646	4372.931510	18370.041821	3184.370845	9935.926100
0.537000	0.000421	-0.001355	0.000750	0.003456	4363.710904	18230.519890	3178.099525	9889.873111
1.067500	0.003333	0.000862	0.004789	0.001486	4381.251597	18379.420056	3183.924406	9922.131093
1.535500	-0.001137	-0.000062	0.008302	-0.000628	4372.762977	18421.973139	3189.451231	9956.897380
2.034500	0.001072	0.000061	0.003455	-0.000331	4379.648144	18415.727897	3184.395185	9951.996044
2.535500	-0.000572	-0.000473	0.001347	0.002594	4363.244884	18292.365158	3179.507284	9903.973524
3.036000	-0.005987	-0.000118	-0.001106	0.002970	4342.703616	18291.602445	3176.783429	9897.820923
3.536000	0.000609	-0.000449	0.001383	0.001698	4370.681350	18325.089911	3180.407598	9918.647095
4.036500	-0.004475	-0.000559	-0.003625	0.002289	4350.449577	18300.131376	3175.023975	9908.966366
4.537000	-0.001082	0.000738	-0.000373	0.002547	4361.594098	18337.126527	3177.894336	9904.737723
5.037000	-0.001996	-0.000027	0.004490	0.002655	4357.951114	18306.043565	3182.493649	9902.967900
5.534500	-0.000645	-0.002138	0.001747	-0.002503	4381.292112	18414.782755	3184.849887	9987.886384
6.064000	-0.000207	-0.000126	-0.008998	-0.001279	4378.456165	18443.021209	3173.303510	9967.643054
6.538000	-0.000515	-0.000433	0.007856	0.001980	4365.645987	18315.646746	3186.443073	9914.035853
7.035500	-0.003125	-0.000160	-0.004632	0.001904	4356.604635	18328.019619	3174.429979	9915.265732
7.563000	0.000341	-0.000491	0.006346	-0.001277	4380.424697	18429.883205	3188.161059	9967.609243
8.036000	0.003641	-0.000383	-0.008003	-0.001814	4394.341427	18453.029679	3174.761534	9976.484713
8.539500	0.000000	-0.000502	-0.003556	-0.001061	4378.414613	18421.751433	3178.303818	9964.042553
9.036000	0.004457	0.000052	0.000000	-0.001257	4395.283943	18448.610140	3181.931964	9967.275738
9.537000	0.001279	0.001128	0.003265	-0.002136	4386.925367	18518.937153	3185.975823	9981.800200
10.037000	-0.001001	-0.000370	0.014345	0.000000	4370.995588	18388.465183	3194.837644	9946.551360
10.535000	-0.001197	0.000500	0.005207	0.001618	4364.500501	18361.790755	3184.203441	9919.968627
11.035000	-0.000404	-0.001204	-0.001748	0.000574	4371.079039	18338.236887	3178.469931	9937.109322
11.535500	0.000773	0.000000	-0.003213	0.001511	4371.941908	18347.747489	3176.162683	9921.719409
12.035500	0.000218	0.000173	0.001521	0.001362	4370.482086	18359.240260	3180.867034	9924.165086
12.536000	0.000697	-0.000417	-0.000515	0.001367	4372.186084	18338.023933	3178.894732	9924.084769
13.039500	0.000530	-0.000646	0.001815	0.001339	4371.685280	18330.826262	3181.173422	9924.534686
13.536500	-0.001288	0.000535	-0.003020	0.001316	4365.253486	18373.772145	3176.533760	9924.914483
14.036500	-0.002000	0.000149	0.003350	0.000784	4364.607964	18379.011636	3183.204561	9933.648634
14.540000	0.001315	-0.000073	0.008072	0.001114	4375.314924	18359.295796	3187.505679	9928.232469
15.037000	-0.000764	-0.000328	-0.000742	0.000586	4369.744171	18369.033232	3179.427722	9936.902487
15.535000	0.000846	0.000302	-0.007197	0.000864	4374.527452	18381.631034	3172.977671	9932.343195
16.035500	0.000014	-0.000230	0.005082	0.000772	4371.870760	18365.898151	3184.908345	9933.855981
16.535500	-0.000067	0.000669	-0.002530	0.001255	4369.846693	18380.777170	3177.063376	9925.926454
17.036000	0.002994	0.000006	-0.005037	0.000529	4383.485155	18383.012922	3175.355839	9937.842115
17.538500	-0.000244	-0.000794	0.006291	0.001027	4370.030147	18336.704942	3185.842691	9929.667824
18.036000	-0.003992	-0.002267	0.008235	-0.000720	4362.867107	18346.461585	3189.475124	9958.406797
18.536500	-0.000520	-0.001362	-0.002668	-0.000267	4373.682864	18362.583167	3178.393674	9950.951735
19.037000	-0.001550	-0.000265	0.010603	0.000713	4366.473529	18366.756757	3190.401052	9934.816245
19.537000	-0.001529	-0.000468	0.006099	0.001412	4364.047969	18334.571858	3185.276117	9923.335792
20.034500	0.000326	0.000239	0.006730	-0.002323	4384.153454	18493.660488	3189.573174	9984.902446
20.538000	-0.000128	-0.000850	0.005392	0.000693	4371.643431	18346.617684	3185.288735	9935.152095
21.054000	0.003024	0.000173	0.005241	-0.000226	4386.327129	18415.987451	3186.041338	9950.270558
21.535500	0.000133	-0.001620	-0.002819	-0.001960	4382.141048	18413.890476	3179.882269	9978.895914
22.036000	-0.001917	-0.000020	0.011891	-0.001016	4371.357850	18437.399299	3193.401326	9963.302298
22.541500	-0.002240	-0.001540	0.002411	0.003293	4354.816099	18229.726488	3179.858755	9892.534612
23.057500	0.003393	-0.000622	-0.001617	-0.001029	4390.580308	18416.277730	3180.143728	9963.511119
23.536500	-0.002376	-0.001002	-0.000983	0.000763	4363.340835	18338.695899	3179.025384	9933.995192
24.037000	0.004039	0.000163	-0.001897	0.002149	4381.406047	18330.804088	3176.812055	9911.253577
24.595000	-0.002751	0.000170	-0.002315	0.002933	4354.278139	18303.139564	3175.660730	9898.420339
25.034500	-0.001731	-0.000183	0.004821	-0.001188	4372.640593	18437.730961	3186.573726	9966.142963
25.536000	0.000675	-0.000720	0.006421	-0.001160	4381.208315	18417.480870	3188.119660	9965.674486
26.035500	0.001443	-0.000375	0.002878	-0.001555	4385.414901	18443.986163	3185.027878	9972.192869
26.535500	-0.000252	0.000081	-0.002415	0.003273	4361.964810	18287.913704	3175.240128	9892.867276
27.036000	-0.001785	-0.001073	0.004476	0.000324	4367.025619	18351.813980	3184.753043	9941.216680
27.536000	-0.000242	0.000770	-0.002309	0.001314	4369.007046	18382.283498	3177.218593	9924.954702
28.036500	0.003521	0.000076	0.001277	0.001259	4382.751341	18359.469253	3180.730150	9925.859647
28.536500	-0.001900	-0.000398	0.003937	0.002415	4359.149121	18301.391828	3182.189671	9906.906566
29.037000	0.000303	-0.000882	-0.001489	0.000308	4374.576317	18359.220869	3178.976549	9941.486082
29.534500	-0.002076	-0.002134	-0.004850	0.000003	4367.132736	18325.440249	3176.039467	9946.506870
30.034500	0.000658	-0.001686	-0.001345	0.000796	4374.098340	18313.175409	3178.644013	9933.459939
30.535000	-0.003038	-0.000920	0.012032	0.000137	4363.215832	18363.964671	3192.392600	9944.299312
31.035000	-0.001109	-0.000967	-0.003959	0.001110	4366.629313	18327.569140	3175.832092	9928.292539
31.536000	0.003912	0.001357	0.000501	0.002946	4378.068951	18344.954873	3178.351069	9898.208090
32.039000	0.000355	-0.000859	-0.004771	0.000557	4373.866861	18351.124821	3175.584541	9937.387507
32.536500	0.000404	-0.001549	-0.000900	0.000369	4374.718119	18333.229172	3179.485044	9940.474982
33.036500	-0.000400	0.000150	-0.000282	0.001266	4368.611185	18361.817689	3179.215700	9925.732137
33.537000	0.004606	0.000025	0.010619	0.001361	4386.310528	18353.999707	3189.775125	9924.178230
34.034500	0.000148	0.000221	-0.000245	0.001568	4369.494361	18353.596250	3178.961074	9920.784143
34.535000	0.001225	-0.000055	-0.001844	0.002418	4370.309601	18313.484731	3176.605817	9906.855248
35.035000	-0.000114	-0.000807	-0.001557	0.000831	4371.197125	18343.200289	3178.406223	9932.876164
35.535500	-0.001177	-0.000066	-0.003493	0.001486	4365.044241	18346.294098	3175.917903	9922.128718
36.035500	0.000187	0.000142	-0.001569	0.001410	4370.198629	18356.430120	3177.837462	9923.376730
36.536500	-0.000613	-0.000739	0.008547	0.002895	4362.022519	18272.232695	3186.222031	9899.042768
37.036500	0.003262	-0.001139	0.006755	-0.003533	4399.226787	18487.581948	3190.795127	10004.946792
37.536500	-0.000924	0.000520	-0.002474	-0.001367	4376.185600	18469.372985	3179.641620	9969.084306
38.036500	0.001698	-0.001042	0.002990	-0.001519	4386.208351	18418.789717	3185.102861	9971.603198
38.537000	-0.001719	-0.000042	0.001343	0.004207	4353.419717	18250.394190	3177.947458	9877.616606
39.034500	0.003255	0.000946	0.005440	0.000870	4383.193349	18404.435427	3185.161990	9932.235688
39.535000	0.000316	-0.000619	0.001232	-0.001504	4381.155053	18433.406455	3183.371431	9971.358702
40.064000	-0.003194	-0.001662	0.005665	-0.001283	4367.735964	18388.180123	3187.496280	9967.712809
40.535000	-0.002694	-0.001927	0.006068	0.002150	4357.266461	18256.510414	3184.524340	9911.243229
41.036000	-0.000987	-0.000782	0.003121	0.002394	4362.479843	18288.511181	3181.417530	9907.252673
41.539000	-0.000520	-0.000145	0.012672	-0.000748	4375.411172	18423.278708	3193.912455	9958.870280
42.047500	0.003308	0.000698	0.006980	0.000252	4385.626073	18417.693146	3187.279301	9942.404233
42.537000	-0.002160	-0.000367	0.010609	0.003864	4353.076032	18251.058648	3187.296584	9883.221772
43.037000	0.000779	-0.000740	-0.000370	-0.001336	4382.219261	18423.040175	3181.649314	9968.577748
43.537500	0.006736	-0.000343	-0.005038	-0.002497	4408.161070	18478.989680	3178.259182	9987.782665
44.034500	0.004463	-0.000580	0.007349	-0.006837	4415.772491	18627.208304	3194.678433	10059.994070
44.535000	-0.010016	-0.018549	0.047490	0.130860	3941.828240	13878.375917	3107.246805	8086.442072
45.035000	-0.024137	-0.024633	0.068026	0.200786	3743.103394	12109.643410	3069.930554	7299.751624
45.535500	-0.011396	-0.021180	0.024226	0.097075	4029.327199	14697.637545	3115.759703	8514.392334
46.039000	0.000737	-0.009210	0.003446	-0.060574	4611.459854	20352.663321	3247.519094	11016.705821
46.536000	-0.005788	-0.002941	0.006849	-0.106999	4784.576447	22608.888636	3306.775482	11944.095428
47.036500	0.007789	0.008310	0.007492	-0.094524	4789.585624	22553.327501	3292.082859	11685.078390
47.537000	0.012355	0.011258	0.025856	-0.065064	4679.441140	21387.215809	3278.663279	11102.124999
48.037000	0.025237	0.018982	0.043754	-0.043570	4642.781354	20809.076481	3274.387035	10701.073522
48.537500	0.032384	0.022112	0.043018	-0.015537	4556.838612	19808.931937	3241.422683	10206.967597
49.035000	0.046592	0.030767	0.053887	-0.012077	4600.548689	20012.859647	3249.705157	10148.167278
49.534500	0.054213	0.032158	0.066751	0.010154	4541.397434	19209.329198	3239.258344	9781.329178
50.035500	0.063502	0.036860	0.070106	0.028557	4505.490335	18701.685506	3222.940758	9491.534667
50.536000	0.068081	0.040292	0.077992	0.058837	4408.200696	17752.128147	3199.679705	9040.643051
51.035500	0.082280	0.042968	0.085718	0.074370	4403.306245	17317.781460	3191.847887	8821.265094
51.536000	0.085397	0.048257	0.099875	0.088784	4362.456572	17017.243406	3191.592658	8624.589165
52.049500	0.086664	0.051185	0.089509	0.095678	4342.504451	16888.561305	3174.780469	8532.809498
52.537500	0.085596	0.051319	0.086803	0.106444	4301.371470	16549.354431	3162.113940	8392.353873
53.037000	0.089239	0.052826	0.099948	0.107162	4311.435922	16574.259022	3173.783688	8383.116562
53.536500	0.089990	0.050893	0.090939	0.108904	4308.016363	16458.682423	3163.668963	8360.748550
54.035000	0.092387	0.053973	0.097768	0.113591	4300.152316	16408.487891	3165.663437	8301.019342
54.535500	0.090296	0.056188	0.101428	0.122986	4261.319249	16186.387913	3160.343676	8183.226099
55.035500	0.097651	0.058154	0.108673	0.120196	4295.568003	16333.104513	3169.699549	8217.945461
55.539000	0.101778	0.060056	0.113166	0.123051	4299.915650	16303.546757	3171.247205	8182.419909
56.036500	0.100807	0.058579	0.109223	0.123395	4295.416862	16247.315121	3167.208235	8178.151107
56.536500	0.098844	0.058661	0.107854	0.128804	4270.455268	16084.150863	3160.904535	8111.542218
57.037000	0.102031	0.060092	0.103737	0.129306	4279.497459	16112.450090	3156.663751	8105.403425
57.537000	0.102007	0.061706	0.116817	0.133021	4266.925231	16048.533700	3165.309332	8060.194044
58.037000	0.099264	0.059654	0.112115	0.133271	4256.935089	15978.823116	3160.714598	8057.161858
58.534500	0.103656	0.061277	0.117441	0.139241	4251.696212	15848.201017	3160.121274	7985.345502
59.035000	0.101080	0.061838	0.118261	0.139221	4243.248108	15865.576917	3160.895825	7985.581184
59.535500	0.104571	0.063104	0.114020	0.141494	4247.268326	15835.446275	3154.928792	7958.491473
60.036000	0.107682	0.062455	0.119659	0.143159	4252.051805	15766.518253	3158.558299	7938.739900
60.536000	0.105227	0.063857	0.113799	0.150374	4220.351046	15594.940934	3146.740770	7854.017963
61.036500	0.108213	0.063462	0.114398	0.150314	4230.262678	15585.129541	3147.328603	7854.717669
61.536500	0.105537	0.063063	0.114739	0.152206	4215.428333	15518.175502	3145.947818	7832.732700
62.037500	0.108962	0.063912	0.123575	0.154797	4218.123268	15467.522819	3151.536630	7802.777028
62.537000	0.106706	0.063463	0.124319	0.159534	4195.668263	15317.891983	3147.953480	7748.463024
63.034500	0.106267	0.062435	0.125464	0.158830	4196.511616	15308.603965	3149.607982	7756.497019
63.534500	0.110475	0.063695	0.127256	0.162037	4199.705477	15252.926044	3148.341548	7720.006781
64.035500	0.116027	0.066583	0.132365	0.164874	4208.406701	15254.388280	3150.377936	7687.952983
64.535500	0.112066	0.063987	0.128800	0.164442	4197.109606	15192.784566	3147.572712	7692.819881
65.038500	0.112315	0.065036	0.129641	0.167639	4187.741714	15131.971964	3145.476436	7656.911761
65.536000	0.114134	0.066789	0.133130	0.171086	4182.597702	15084.192593	3145.513325	7618.485955
66.036000	0.114762	0.063262	0.122843	0.168618	4192.396633	15054.420364	3138.636665	7645.961420
66.537000	0.116670	0.064249	0.121109	0.171370	4189.721659	15004.980763	3134.747128	7615.335341
67.037000	0.116598	0.063594	0.133530	0.170631	4191.837774	15007.334198	3146.273364	7623.540013
67.537500	0.113192	0.064543	0.138318	0.172659	4174.683061	14977.185666	3148.735089	7601.048577
68.035000	0.116753	0.064766	0.134697	0.175097	4178.210972	14915.562945	3143.350484	7574.155352
68.535000	0.114854	0.063967	0.131218	0.181578	4152.109920	14715.191901	3134.661627	7503.388208
69.035500	0.117791	0.066504	0.130434	0.176836	4176.010122	14915.529821	3138.090455	7555.067390
69.536000	0.116648	0.064711	0.145111	0.175799	4175.675479	14894.549775	3152.017858	7566.438770
70.036000	0.121076	0.067014	0.138958	0.178517	4181.056158	14883.070042	3144.093619	7536.685328
70.536000	0.115943	0.065712	0.138944	0.182479	4152.688542	14738.260225	3140.594473	7493.634234
71.036000	0.117709	0.064747	0.141533	0.177300	4174.295105	14854.030606	3147.460908	7549.979673
71.536500	0.119109	0.066120	0.138062	0.178653	4174.442540	14854.619624	3143.182563	7535.200969
72.037000	0.121480	0.066085	0.131506	0.179140	4180.362809	14840.173195	3137.019741	7529.881481
72.537500	0.120061	0.066732	0.145280	0.185874	4154.923632	14673.505628	3143.179861	7457.063770
73.035000	0.120318	0.066669	0.143490	0.179415	4175.843961	14848.697291	3147.319583	7526.887376
73.534500	0.123782	0.067925	0.132626	0.180914	4182.029060	14842.013546	3136.452565	7510.595376
74.035500	0.120381	0.068716	0.140419	0.180781	4171.762428	14867.547073	3143.384291	7512.038315
74.538500	0.124534	0.068830	0.135757	0.184349	4173.593209	14772.414053	3136.189297	7473.450012
75.036000	0.123949	0.070070	0.133878	0.183970	4172.949021	14816.906969	3134.892963	7477.539865
75.536000	0.124982	0.068677	0.131489	0.183679	4177.100122	14786.594025	3133.085724	7480.669484
76.037000	0.125328	0.068603	0.136633	0.184314	4176.191254	14767.157130	3136.978342	7473.826020
76.534000	0.123048	0.068653	0.143889	0.187095	4160.392012	14692.513467	3140.882081	7443.970547
77.037000	0.123880	0.068849	0.138281	0.185626	4167.553865	14737.989245	3137.271286	7459.726058
77.537500	0.125084	0.068895	0.145465	0.185620	4171.336379	14739.399607	3143.567084	7459.790038
78.035000	0.121340	0.068797	0.137010	0.186673	4156.406084	14707.961179	3135.263059	7448.491605
78.535500	0.122290	0.069194	0.142620	0.188188	4154.661323	14677.510228	3138.817134	7432.293578
79.038500	0.126233	0.070456	0.142044	0.188384	4166.290590	14706.546899	3138.144317	7430.201409
79.536000	0.127866	0.069450	0.144250	0.188957	4169.601451	14663.575966	3139.568687	7424.095313
80.036500	0.128612	0.068023	0.145517	0.188103	4174.609689	14647.998431	3141.426259	7433.203968
80.536500	0.122382	0.068215	0.142724	0.193559	4138.442554	14506.024517	3134.252232	7375.316385
81.036000	0.127177	0.070773	0.146890	0.191782	4158.664445	14622.826870	3139.407446	7394.092564
81.537000	0.126421	0.066909	0.137976	0.189509	4163.371885	14579.823839	3133.651093	7418.215001
82.037000	0.125147	0.066723	0.137307	0.188941	4161.179484	14590.146539	3133.564387	7424.268245
82.535000	0.116740	0.064521	0.144616	0.192150	4125.581237	14444.910046	3137.106584	7390.193453
83.035000	0.126899	0.067101	0.140554	0.191548	4158.526349	14530.069496	3134.114659	7396.566034
83.584500	0.128062	0.067725	0.143422	0.191705	4161.647134	14542.622638	3136.456541	7394.900709
84.035500	0.123895	0.067169	0.143074	0.191379	4149.765736	14536.460728	3136.437985	7398.355951
84.563500	0.125229	0.068884	0.142390	0.199731	4128.328545	14359.396505	3128.688518	7310.706234
85.036000	0.130587	0.069243	0.130996	0.193746	4163.153351	14528.596640	3124.126989	7373.349534
85.536000	0.125516	0.069052	0.141804	0.194430	4145.371694	14505.105523	3132.712391	7366.144200
86.037000	0.131720	0.068420	0.142759	0.194151	4165.418630	14495.634837	3133.772209	7369.077364
86.567000	0.128315	0.067251	0.144403	0.198971	4140.033654	14336.296357	3131.049782	7318.608777
87.034500	0.129432	0.069113	0.152503	0.195669	4153.613518	14473.550108	3140.917765	7353.123771
