sample name	sample
index	120
start time	 02-15-2021  12:41:15 PM
880	0.416365
Peak Time (s)	91.537
Peak Height 	0.4164
calc peak height	90,93
Baseline Time (s)	8.536
Baseline Value 	-0.001651
subtract baseline	10,4
Abs	0.320312
Peak Time (s)	90.035
Peak Height 	0.3203
calc peak height	90,93
Baseline Time (s)	10.036
Baseline Value 	-0.001704
subtract baseline	10,3
PK_550	0.158319
Peak Time (s)	91.537
Peak Height 	0.1583
calc peak height	90,93
Baseline Time (s)	11.037
Baseline Value 	1.6541E-4
subtract baseline	10,2
PK_880	0.297563
Peak Time (s)	92.537
Peak Height 	0.2976
calc peak height	90,93
Baseline Time (s)	9.036
Baseline Value 	-0.002061
subtract baseline	10,1


Time (s)	A880-A510	A880-A775	A880-A975	A880	I510	I775	I975	I880	
0.036000	0.001101	-0.001041	-0.007604	0.000129	4330.020121	16334.396185	3264.281622	9183.264907
0.536500	-0.002259	-0.000549	-0.012618	0.003543	4309.814633	16245.509761	3258.581920	9134.911647
1.036000	0.004693	-0.000416	0.007185	0.004275	4328.356143	16227.376495	3271.639579	9124.588608
1.539000	0.001806	-0.001673	-0.005136	-0.000653	4334.499046	16338.961952	3266.509532	9194.395037
2.037000	0.000343	-0.000322	-0.013167	0.000865	4325.537885	16333.896230	3260.011540	9172.811555
2.537500	0.000132	-0.000407	-0.000731	0.002462	4320.132007	16282.637079	3267.398950	9150.183703
3.038000	0.001241	0.000069	0.000160	-0.001570	4335.563700	16420.439894	3270.815608	9207.484320
3.535000	-0.000399	-0.001033	0.012134	0.000037	4325.796489	16337.479886	3278.137949	9184.585805
4.035500	0.000101	0.001112	-0.003688	0.001202	4323.803006	16367.413597	3266.230118	9168.031261
4.536000	0.000009	0.000175	-0.002486	0.000518	4325.575188	16359.679313	3267.528931	9177.741318
5.036000	0.000106	-0.000639	-0.000471	0.003189	4317.888765	16253.526598	3267.076485	9139.910447
5.536000	0.001822	-0.001846	0.000691	-0.001502	4337.111518	16359.634653	3271.138452	9206.515394
6.039000	0.004644	-0.000002	0.004420	0.000459	4339.717073	16356.068594	3272.375881	9178.578342
6.537000	-0.000661	-0.000956	0.006931	-0.001283	4328.969895	16380.190221	3275.374950	9203.385714
7.036500	-0.003804	-0.000413	-0.006770	0.002321	4308.858333	16286.739019	3263.355470	9152.168663
7.534500	0.001512	0.000372	-0.007196	0.000192	4331.065357	16375.653311	3264.517692	9182.370036
8.035000	0.003593	-0.000948	-0.002403	-0.000478	4339.370325	16355.772767	3268.274322	9191.905475
8.535500	0.004103	-0.000547	0.005993	0.000000	4339.467511	16353.417812	3273.805433	9185.105118
9.035500	0.000000	-0.000718	-0.005410	0.002583	4319.377590	16269.523887	3264.104389	9148.470430
9.536000	-0.000658	-0.001979	-0.002438	-0.001379	4329.266939	16351.809915	3268.874859	9204.754806
10.036000	0.002903	0.000827	0.000000	0.000370	4334.722521	16384.163565	3269.353229	9179.849519
10.537000	-0.000464	0.001395	0.013805	-0.000210	4326.339191	16419.374066	3279.511746	9188.093235
11.036500	-0.002685	0.000000	0.000033	0.003689	4308.121109	16257.721592	3267.079187	9132.840986
11.537500	0.001942	0.000137	-0.002875	-0.000590	4334.720643	16392.433803	3268.025858	9193.507087
12.034500	0.000561	-0.000525	-0.002020	-0.001217	4332.448299	16391.353729	3269.052247	9202.446117
12.537000	0.003387	-0.000462	-0.000107	-0.000028	4337.388650	16356.889279	3269.555405	9185.508828
13.034500	-0.002604	-0.000255	0.004694	0.003672	4308.410989	16250.528077	3270.321160	9133.087230
13.535000	0.001575	0.002019	-0.003144	0.000646	4329.894031	16412.253043	3266.986852	9175.926434
14.035500	-0.001473	-0.000388	0.002570	0.001221	4319.046652	16321.007362	3270.549483	9167.760988
14.536000	0.004317	-0.000878	-0.006556	0.001302	4336.177501	16303.589878	3264.196655	9166.608538
15.039000	-0.002912	-0.001121	-0.004274	0.002196	4311.869531	16269.026184	3265.145427	9153.938760
15.539500	0.001649	0.001062	-0.011774	0.000655	4330.086476	16382.617521	3261.092324	9175.790980
16.036500	0.003178	0.000523	0.002665	-0.000294	4337.557183	16395.198294	3271.674076	9189.289151
16.537500	0.005532	0.000911	0.011613	0.000514	4342.242191	16382.327975	3277.425317	9177.803466
17.035000	-0.003353	0.000410	-0.007182	0.002056	4310.976621	16319.868364	3263.255389	9155.922154
17.538000	-0.005429	-0.001140	-0.003535	-0.001464	4315.263546	16380.102458	3268.174396	9205.973825
18.035500	0.001895	0.000462	-0.000759	0.000673	4330.772661	16363.699826	3268.616325	9175.535265
18.535500	0.002500	0.000207	-0.003153	0.000988	4331.646795	16346.281115	3266.745223	9171.067090
19.036000	-0.002843	-0.000088	-0.006676	0.000604	4316.804496	16349.002705	3264.591402	9176.525071
19.536500	0.001761	0.001201	0.001093	0.001094	4329.104434	16373.454382	3269.609800	9169.566157
20.036500	0.002993	0.001083	-0.001594	0.001490	4331.619621	16357.735159	3267.474157	9163.949771
20.537000	0.001988	-0.000229	-0.002370	0.000319	4332.117905	16353.407979	3267.746892	9180.574131
21.037000	0.002240	0.000960	-0.005466	0.000619	4331.971557	16380.601259	3265.409142	9176.298952
21.537500	-0.002786	-0.000616	-0.004438	-0.001266	4322.551292	16390.071725	3267.412928	9203.146725
22.037500	-0.000101	0.000106	0.004727	0.000412	4325.566344	16360.801886	3272.625326	9179.253470
22.535000	-0.003051	-0.000264	-0.002652	-0.000235	4318.680881	16369.279419	3267.934350	9188.445811
23.035500	0.000936	-0.000909	-0.002103	-0.000774	4332.241574	16366.018122	3268.687624	9196.121486
23.536000	0.000310	-0.000318	-0.002433	0.000546	4326.396703	16343.747101	3267.546885	9177.349461
24.036000	0.001032	0.000532	0.006179	0.000645	4328.263255	16366.718762	3273.481986	9175.937654
24.536500	0.000907	0.001956	-0.011259	0.002279	4322.994881	16360.298233	3260.344386	9152.773044
25.039500	-0.002466	-0.000366	-0.009933	0.000344	4318.702028	16348.446225	3262.549521	9180.214819
25.536500	0.004577	0.000875	-0.006117	0.001255	4337.106973	16358.538906	3264.528433	9167.280237
26.037000	0.002851	-0.000448	-0.004042	0.000028	4335.599027	16355.610882	3266.794437	9184.710428
26.537500	0.000732	0.000356	0.002262	0.000924	4326.527092	16352.790946	3270.541599	9171.975525
27.035000	0.000496	0.001195	-0.006576	-0.001436	4332.911207	16450.940778	3266.057911	9205.574140
27.535000	0.005474	0.001310	0.004631	-0.000615	4345.493020	16429.190366	3273.278606	9193.855752
28.035500	0.003867	0.000883	0.007424	0.003665	4327.706620	16285.281489	3272.234109	9133.179936
28.536000	0.003850	0.000821	0.008776	0.000278	4337.861094	16386.802610	3275.576007	9181.152461
29.036000	-0.003678	-0.001031	-0.005442	0.004335	4303.286690	16206.944854	3262.889493	9123.748156
29.539500	0.001828	-0.000572	-0.001566	-0.001188	4336.178786	16389.017634	3269.347291	9202.025711
30.036500	-0.005112	-0.000624	-0.002350	0.001995	4305.959242	16290.253387	3266.604500	9156.793982
30.540000	-0.002837	-0.000463	-0.013175	0.001002	4315.635048	16325.389858	3259.913267	9170.860675
31.037500	-0.000739	0.001918	0.006504	0.002679	4316.889627	16346.893626	3272.281291	9147.117164
31.535000	0.001236	0.000230	-0.000311	0.000058	4330.641185	16375.440870	3269.353677	9184.285089
32.035000	0.002208	0.001441	0.005615	0.003025	4324.654116	16321.774305	3271.415766	9142.216248
32.535000	0.000214	0.000740	0.007333	-0.000322	4328.711736	16402.709463	3274.978775	9189.686155
33.036000	-0.002627	-0.000311	0.004027	0.004756	4305.144843	16215.993662	3269.103629	9117.816557
33.536000	-0.000557	0.000549	-0.026247	0.000537	4323.824301	16370.532712	3251.552814	9177.467104
34.036000	0.001336	-0.000231	0.004853	0.002457	4323.746532	16288.158353	3271.280604	9150.256589
34.536500	-0.002080	0.000645	0.010986	0.002472	4313.519427	16314.356997	3275.587127	9150.033991
35.036500	-0.001446	-0.000355	0.004713	0.001304	4318.880096	16319.479867	3271.988950	9166.581165
35.537500	-0.000727	-0.000700	0.001173	0.000812	4322.495065	16323.975212	3269.861122	9173.568414
36.037500	-0.001873	0.000077	-0.002324	0.002299	4314.648904	16302.327668	3266.413513	9152.488481
36.535000	-0.000947	-0.000727	-0.010684	0.000445	4322.931688	16334.328509	3261.971604	9178.771070
37.035500	-0.003303	0.000044	0.004317	0.001693	4312.201803	16319.802153	3271.439659	9161.068108
37.535500	-0.001774	-0.000197	0.004318	0.000689	4319.734615	16343.048768	3272.142824	9175.304517
38.035500	-0.000089	0.000676	-0.023308	0.001206	4323.222852	16353.937103	3253.040669	9167.968754
38.536000	0.000373	0.001488	-0.000321	0.001414	4323.981865	16372.428526	3268.406179	9165.022446
39.039000	-0.001851	0.000505	0.013597	0.001790	4316.226022	16330.883739	3277.930438	9159.686354
39.536500	-0.003723	-0.001146	-0.011337	-0.000542	4317.597107	16351.689156	3262.198274	9192.825580
40.037000	0.002983	0.000635	0.002356	0.001688	4330.990552	16337.948987	3270.074417	9161.131187
40.534500	0.001193	0.001493	0.008057	0.003028	4321.608925	16323.277172	3273.126608	9142.181955
41.035000	-0.003264	0.001105	-0.005543	0.002541	4309.805493	16326.298946	3264.042179	9149.067051
41.535500	-0.000686	0.002036	0.000797	0.002641	4317.162708	16351.677968	3268.330972	9147.652539
42.035500	-0.002948	0.001477	-0.016677	0.003470	4307.993290	16309.306381	3255.924406	9135.937068
42.535000	-0.002527	0.000499	0.002467	0.001220	4315.913168	16348.120935	3270.478115	9167.778165
43.036000	0.004513	0.001725	-0.004106	0.002502	4333.148466	16346.404859	3265.051732	9149.619451
43.536500	0.002536	0.001227	0.001810	-0.002988	4343.777756	16499.772922	3272.963645	9227.753251
44.036000	-0.003707	0.000120	-0.005079	0.005197	4300.665670	16215.659877	3262.550124	9111.608697
44.537000	0.002126	0.000752	-0.015430	0.000453	4332.130356	16379.329857	3258.768172	9178.669787
45.036500	0.002217	0.000068	0.007982	0.003147	4324.315520	16276.269412	3272.989569	9140.495757
45.534500	0.000934	0.002746	-0.004535	0.000869	4327.297913	16427.722636	3265.876771	9172.756687
46.035000	0.001519	0.001465	-0.004423	0.000576	4329.932619	16397.399018	3266.154687	9176.916989
46.535000	0.003230	0.000675	-0.001276	-0.000990	4339.822066	16421.193634	3269.411377	9199.201170
47.036000	-0.005051	0.001476	-0.009192	0.004864	4297.695728	16266.871841	3259.994860	9116.291078
47.535500	-0.002084	-0.000866	-0.009218	0.002459	4313.545713	16268.774083	3261.600526	9150.214957
48.036000	-0.003417	0.000552	0.000907	0.006483	4297.743556	16189.881481	3265.758512	9093.566335
48.539000	-0.000089	0.001341	-0.002836	0.000071	4326.621659	16409.087108	3267.595876	9184.095821
49.037000	-0.001857	0.000086	0.000324	0.004689	4307.612894	16230.029658	3266.590678	9118.759254
49.537000	-0.000219	0.002151	0.003343	-0.002500	4333.962026	16513.299130	3273.699345	9220.778726
50.037500	-0.003457	-0.001302	-0.013451	0.000846	4314.259269	16304.570855	3259.833102	9173.082042
50.534000	-0.058806	-0.040927	0.059532	0.329491	3557.170150	8742.899692	3129.851187	5899.999331
51.035000	-0.060668	-0.034791	-0.000574	0.190607	3754.809343	10988.528526	3162.100496	6990.278633
51.535500	-0.030642	-0.024523	0.000043	0.012988	4202.588114	15270.303189	3260.744313	9003.076557
52.036000	-0.014827	-0.016345	0.009572	-0.176418	4914.297102	22294.127818	3431.005847	12281.243288
52.536000	0.016231	-0.008176	0.016782	-0.099123	4723.429288	19466.577384	3361.960143	10769.141985
53.036500	0.003104	-0.016697	0.024274	-0.040602	4465.028765	17122.322237	3318.252592	9790.578641
53.536500	0.005801	-0.014471	0.022560	-0.008969	4372.170323	16202.839600	3292.343269	9314.030867
54.037000	0.019775	-0.011949	0.006328	-0.017122	4442.618228	16529.428622	3286.360245	9433.549986
54.536500	0.036938	-0.007391	0.037104	0.008848	4414.145619	15882.331408	3289.905592	9060.501919
55.037500	0.046472	-0.003368	0.057638	0.020614	4407.021217	15656.068222	3296.476915	8898.695216
55.534500	0.062884	0.003369	0.068719	0.053751	4354.787590	14914.283560	3280.197181	8465.866898
56.035000	0.082737	0.009267	0.090044	0.096540	4286.348188	13950.378521	3265.127765	7953.653393
56.535500	0.104399	0.019653	0.101279	0.121233	4277.572753	13598.080757	3256.052356	7680.238777
57.035000	0.128563	0.035207	0.124520	0.149209	4266.620381	13301.438575	3252.925561	7388.678651
57.538500	0.154823	0.046807	0.144415	0.173150	4273.271500	13015.023089	3250.280596	7153.657143
58.041500	0.166723	0.058363	0.159725	0.225657	4161.792346	12120.879410	3227.085816	6681.421608
58.536500	0.192542	0.074092	0.186122	0.241207	4189.004841	12124.589630	3233.644968	6552.170534
59.037000	0.204396	0.085922	0.215799	0.267006	4152.205575	11838.259875	3236.030952	6347.696323
59.537000	0.226843	0.097919	0.236978	0.277273	4184.284259	11873.228967	3242.858397	6269.640824
60.037500	0.238129	0.108806	0.246492	0.322680	4096.643102	11201.225934	3221.032233	5945.730668
60.535000	0.251008	0.116013	0.242916	0.345145	4073.232291	10920.798297	3206.287916	5797.566580
61.035500	0.259805	0.120229	0.252592	0.354211	4072.584397	10833.705258	3206.623533	5739.916305
61.535000	0.265122	0.128449	0.266079	0.361172	4068.625941	10856.225049	3210.241248	5696.459966
62.038500	0.258719	0.129545	0.271689	0.360344	4055.305125	10890.753623	3213.862629	5701.588201
62.538500	0.259298	0.130137	0.288504	0.359300	4059.165606	10920.255422	3224.196898	5708.078668
63.045500	0.264430	0.133849	0.284845	0.363234	4062.022501	10916.237034	3219.751150	5683.717601
63.536500	0.268770	0.137264	0.292197	0.366954	4063.506682	10910.742622	3221.868082	5660.887336
64.037000	0.269283	0.135096	0.264728	0.372933	4050.509986	10765.176226	3203.027542	5624.596685
64.537000	0.274891	0.136751	0.277769	0.370575	4069.503287	10836.522887	3211.521057	5638.846207
65.034500	0.270890	0.139608	0.291589	0.380205	4037.212244	10716.475278	3213.885024	5581.128584
65.535000	0.271930	0.136905	0.269797	0.375054	4051.750929	10759.643306	3204.630488	5611.841114
66.034500	0.275865	0.139823	0.301563	0.385181	4037.209675	10633.190292	3216.734350	5551.800001
66.535500	0.275876	0.141114	0.287576	0.382546	4043.398133	10701.814577	3210.309690	5567.290531
67.036000	0.275131	0.142007	0.275286	0.382794	4041.070600	10713.135117	3203.405229	5565.825756
67.536500	0.275967	0.143067	0.270422	0.383751	4040.789614	10714.942326	3200.267848	5560.196317
68.036500	0.276114	0.145724	0.301898	0.391487	4023.180541	10626.158333	3213.334372	5515.114087
68.536500	0.279483	0.142764	0.288010	0.382074	4053.015587	10739.148054	3210.816308	5570.075426
69.037000	0.282523	0.147634	0.283212	0.389617	4042.404233	10692.136541	3204.004940	5525.938963
69.534500	0.290432	0.146878	0.298464	0.383988	4074.638801	10778.044073	3215.644099	5558.801899
70.034000	0.283867	0.148820	0.289054	0.384625	4057.366100	10801.219789	3209.974141	5555.060980
70.535000	0.289892	0.148890	0.292030	0.382910	4075.940417	10833.030290	3212.605059	5565.143585
71.034500	0.281190	0.149933	0.283794	0.388463	4041.985397	10752.917977	3204.951611	5532.641108
71.538500	0.287149	0.150323	0.296714	0.382165	4071.113409	10871.999424	3215.685343	5569.533673
72.038500	0.289959	0.151608	0.292359	0.380966	4080.818958	10916.710768	3213.889981	5576.619677
72.535500	0.285772	0.150809	0.285133	0.379261	4074.799477	10933.093185	3210.780555	5586.731070
73.037000	0.284452	0.150304	0.264027	0.383716	4060.924398	10843.891068	3196.886134	5560.399119
73.535500	0.288799	0.151968	0.301755	0.378966	4082.865259	10959.423721	3220.435758	5588.480950
74.037500	0.291687	0.155218	0.301023	0.380409	4086.394208	10992.300581	3219.173679	5579.921387
74.536500	0.287941	0.150719	0.297515	0.376195	4087.540386	10987.095697	3219.582403	5605.009954
75.035500	0.284062	0.152545	0.293697	0.382461	4062.990314	10906.657180	3213.800952	5567.788818
75.535000	0.286149	0.153792	0.284457	0.377920	4078.963177	11011.694592	3211.152906	5594.709745
76.035500	0.286687	0.153263	0.293163	0.382723	4068.658501	10914.891584	3213.350760	5566.248178
76.535500	0.291631	0.154931	0.307265	0.380145	4086.903313	10991.869895	3222.969229	5581.485941
77.036000	0.291822	0.157469	0.313672	0.382227	4082.286587	11000.186386	3225.523736	5569.169939
77.536000	0.295510	0.157160	0.305603	0.382594	4090.406669	10987.865240	3220.563708	5567.005999
78.037000	0.292150	0.154179	0.307435	0.385879	4074.218533	10874.554056	3219.719149	5547.711202
78.537000	0.300521	0.159179	0.303822	0.384329	4098.478033	10993.036670	3218.524909	5556.799732
79.034500	0.291990	0.156189	0.305908	0.383820	4078.820090	10947.959625	3220.028240	5559.789896
79.535000	0.297427	0.158164	0.308647	0.387240	4083.727733	10921.816609	3219.632736	5539.762306
80.035500	0.293490	0.157606	0.308056	0.392300	4062.006987	10821.001584	3216.376114	5510.421090
80.535500	0.289381	0.154468	0.305761	0.383748	4072.676495	10918.125085	3219.984585	5560.209431
81.035500	0.293998	0.157686	0.295308	0.387859	4073.901479	10902.028369	3211.664482	5536.155396
81.538500	0.302540	0.156811	0.297885	0.388528	4093.099676	10874.261397	3212.738656	5532.262212
82.036500	0.292600	0.154653	0.290710	0.388049	4070.070496	10844.191509	3208.990133	5535.051376
82.536000	0.288679	0.155371	0.301870	0.389538	4057.125778	10830.415287	3214.423574	5526.397572
83.037000	0.294109	0.157677	0.296835	0.395803	4055.139212	10760.047533	3208.086066	5490.307646
83.536500	0.294528	0.155864	0.297684	0.394271	4059.781778	10755.094952	3209.408325	5499.087371
84.034500	0.295638	0.155031	0.293361	0.395758	4058.882693	10714.181682	3206.196029	5490.567394
84.535000	0.295686	0.154249	0.295576	0.395362	4059.943196	10707.409258	3207.634222	5492.833907
85.035000	0.290724	0.154042	0.293335	0.398482	4040.848410	10649.191976	3204.690822	5475.038629
85.535500	0.291324	0.153368	0.269235	0.397579	4044.373505	10653.174841	3192.364128	5480.174265
86.036000	0.291821	0.153673	0.300231	0.398646	4043.034734	10639.892129	3208.392454	5474.102790
86.536500	0.291333	0.156954	0.295909	0.403465	4030.662462	10613.152166	3203.379460	5446.876725
87.036500	0.298906	0.155271	0.301633	0.404047	4046.994130	10573.974053	3206.186940	5443.612737
87.536500	0.294213	0.156005	0.319340	0.405699	4032.162454	10558.155036	3215.167983	5434.361289
88.037000	0.292795	0.154418	0.303195	0.406936	4026.018611	10509.656934	3205.458677	5427.453753
88.537500	0.302862	0.157248	0.302418	0.409533	4043.395515	10513.664501	3203.619282	5413.023654
89.035000	0.297773	0.156168	0.294507	0.408172	4034.686287	10518.467776	3200.087689	5420.575668
89.535000	0.295712	0.156715	0.308128	0.410885	4023.641077	10481.455212	3205.998277	5405.542724
90.035500	0.293972	0.155800	0.320312	0.414150	4012.192447	10410.554287	3210.942984	5387.579655
90.536000	0.288991	0.152631	0.315425	0.408456	4013.815663	10453.298241	3211.395052	5418.997909
91.038000	0.294871	0.157050	0.311075	0.413674	4015.324498	10439.743395	3206.085362	5390.190625
91.536500	0.293334	0.158319	0.293870	0.416365	4005.724188	10415.678000	3195.410449	5375.465675
92.036500	0.292742	0.153424	0.291990	0.415151	4007.130304	10353.743430	3195.061457	5382.097522
92.537000	0.297563	0.154878	0.304483	0.414477	4019.644674	10389.479136	3202.060128	5385.786308
93.037000	0.292974	0.155073	0.308643	0.415398	4007.095817	10377.266756	3203.814848	5380.747113
93.534500	0.293803	0.156319	0.299768	0.416474	4006.537205	10380.124430	3198.465790	5374.869749
94.037500	0.294432	0.152617	0.294214	0.417946	4004.634485	10293.659099	3194.762798	5366.860179
94.535000	0.291218	0.153132	0.314815	0.416003	4001.769042	10334.607654	3206.860808	5377.440981
95.035500	0.298593	0.156445	0.307662	0.423852	4000.701968	10259.210158	3198.740693	5334.981482
95.538500	0.302987	0.154738	0.295289	0.418157	4023.648636	10325.460646	3195.215107	5365.711189
96.036000	0.293517	0.153646	0.294861	0.420093	3997.745563	10275.095697	3193.980002	5355.219008
