sample name	sample
index	973
start time	 04-14-2021  02:39:07 PM


Wavelength (nm)	Absorbance
494.344910	0.201066
494.563924	0.201066
494.782919	0.201066
495.001897	-0.010425
495.220856	0.065472
495.439797	0.049824
495.658719	0.019808
495.877624	0.003360
496.096510	0.005830
496.315378	0.002685
496.534227	0.000312
496.753059	0.007469
496.971872	0.007076
497.190667	0.127739
497.409444	0.161684
497.628203	0.177112
497.846943	0.182480
498.065665	0.187088
498.284369	0.187774
498.503055	0.189310
498.721723	0.190841
498.940372	0.193710
499.159003	0.194463
499.377616	0.195588
499.596210	0.196294
499.814787	0.196467
500.033345	0.197619
500.251885	0.201274
500.470406	0.203310
500.688910	0.203311
500.907395	0.203024
501.125862	0.202950
501.344311	0.202910
501.562742	0.204620
501.781154	0.204952
501.999548	0.203869
502.217924	0.201994
502.436282	0.200463
502.654621	0.201666
502.872942	0.199540
503.091245	0.198301
503.309530	0.197879
503.527797	0.196210
503.746045	0.198138
503.964275	0.198971
504.182487	0.199906
504.400681	0.200973
504.618856	0.201861
504.837013	0.204465
505.055152	0.205093
505.273273	0.206278
505.491376	0.206969
505.709460	0.206499
505.927526	0.206654
506.145574	0.207395
506.363604	0.206749
506.581615	0.206376
506.799608	0.206196
507.017583	0.208029
507.235540	0.207479
507.453478	0.207174
507.671399	0.207189
507.889301	0.207125
508.107185	0.206087
508.325050	0.208097
508.542898	0.207305
508.760727	0.208095
508.978538	0.207004
509.196330	0.207362
509.414105	0.207000
509.631861	0.205891
509.849599	0.206493
510.067319	0.207353
510.285021	0.207416
510.502704	0.207703
510.720369	0.207977
510.938016	0.208005
511.155645	0.208230
511.373255	0.209083
511.590848	0.209544
511.808422	0.209366
512.025977	0.209516
512.243515	0.208386
512.461034	0.209180
512.678536	0.209057
512.896018	0.209154
513.113483	0.209138
513.330930	0.209244
513.548358	0.210467
513.765768	0.210656
513.983160	0.210953
514.200533	0.210955
514.417889	0.211265
514.635226	0.211384
514.852545	0.211643
515.069845	0.212905
515.287128	0.213688
515.504392	0.214042
515.721638	0.214865
515.938866	0.214732
516.156075	0.215029
516.373267	0.213916
516.590440	0.213961
516.807594	0.216192
517.024731	0.215539
517.241850	0.215503
517.458950	0.215199
517.676032	0.214406
517.893095	0.214341
518.110141	0.215038
518.327168	0.215434
518.544177	0.214716
518.761168	0.213594
518.978141	0.214582
519.195095	0.214662
519.412031	0.215625
519.628949	0.216390
519.845849	0.216319
520.062731	0.216341
520.279594	0.217044
520.496439	0.217581
520.713266	0.218445
520.930074	0.218547
521.146865	0.218573
521.363637	0.218253
521.580391	0.218540
521.797127	0.219325
522.013844	0.219822
522.230543	0.220445
522.447224	0.221357
522.663887	0.220835
522.880532	0.221257
523.097158	0.222307
523.313766	0.222815
523.530356	0.223056
523.746928	0.223309
523.963481	0.223360
524.180017	0.224224
524.396534	0.225307
524.613032	0.225996
524.829513	0.226586
525.045975	0.226946
525.262420	0.227537
525.478845	0.227368
525.695253	0.228324
525.911643	0.229007
526.128014	0.228818
526.344367	0.227960
526.560702	0.228025
526.777018	0.227839
526.993316	0.227845
527.209597	0.227652
527.425858	0.228867
527.642102	0.228739
527.858328	0.229106
528.074535	0.229511
528.290724	0.230108
528.506894	0.230204
528.723047	0.230360
528.939181	0.230463
529.155297	0.230532
529.371395	0.230571
529.587475	0.230624
529.803536	0.231001
530.019579	0.230953
530.235604	0.231995
530.451611	0.232740
530.667600	0.233323
530.883570	0.234432
531.099522	0.234756
531.315456	0.234980
531.531372	0.235868
531.747269	0.235615
531.963148	0.236276
532.179009	0.236043
532.394852	0.236632
532.610676	0.236946
532.826482	0.236918
533.042271	0.237984
533.258040	0.238703
533.473792	0.238913
533.689525	0.239469
533.905240	0.240133
534.120937	0.240698
534.336616	0.240840
534.552277	0.240819
534.767919	0.240969
534.983543	0.240646
535.199149	0.241078
535.414736	0.240963
535.630306	0.242062
535.845857	0.242203
536.061390	0.242323
536.276904	0.242114
536.492401	0.242800
536.707879	0.242749
536.923339	0.243413
537.138781	0.243865
537.354204	0.244203
537.569610	0.244128
537.784997	0.244097
538.000366	0.244602
538.215716	0.245390
538.431049	0.245199
538.646363	0.246174
538.861659	0.246867
539.076937	0.246504
539.292196	0.247332
539.507438	0.247131
539.722661	0.247701
539.937866	0.248273
540.153052	0.249116
540.368221	0.250032
540.583371	0.249950
540.798503	0.250117
541.013617	0.251318
541.228712	0.251620
541.443789	0.252028
541.658848	0.252399
541.873889	0.252604
542.088912	0.253470
542.303916	0.254078
542.518902	0.254913
542.733870	0.255746
542.948820	0.255950
543.163752	0.256128
543.378665	0.256838
543.593560	0.257361
543.808437	0.257736
544.023295	0.257579
544.238136	0.257668
544.452958	0.257668
544.667762	0.257644
544.882548	0.258107
545.097315	0.258406
545.312064	0.258697
545.526795	0.258747
545.741508	0.259121
545.956203	0.259149
546.170879	0.259512
546.385537	0.259914
546.600177	0.260039
546.814799	0.259734
547.029402	0.259971
547.243988	0.260332
547.458555	0.260990
547.673103	0.260731
547.887634	0.260864
548.102146	0.261255
548.316640	0.261507
548.531116	0.262107
548.745574	0.262575
548.960013	0.262824
549.174435	0.263388
549.388838	0.263561
549.603222	0.264395
549.817589	0.265332
550.031937	0.265306
550.246267	0.265887
550.460579	0.265655
550.674873	0.265658
550.889148	0.265872
551.103405	0.265815
551.317644	0.266148
551.531865	0.266007
551.746068	0.265568
551.960252	0.265877
552.174418	0.266134
552.388566	0.266715
552.602696	0.267207
552.816807	0.267694
553.030900	0.267994
553.244975	0.268013
553.459032	0.267911
553.673070	0.268135
553.887091	0.268687
554.101093	0.269260
554.315077	0.269249
554.529042	0.269485
554.742990	0.269978
554.956919	0.270320
555.170830	0.270070
555.384722	0.270405
555.598597	0.270672
555.812453	0.270177
556.026291	0.269996
556.240111	0.270701
556.453913	0.270967
556.667696	0.270977
556.881461	0.270978
557.095208	0.271777
557.308937	0.272112
557.522647	0.272067
557.736339	0.272531
557.950013	0.272238
558.163669	0.272303
558.377307	0.272576
558.590926	0.272681
558.804527	0.273226
559.018110	0.273440
559.231675	0.273658
559.445221	0.274310
559.658749	0.274750
559.872259	0.275132
560.085751	0.275105
560.299225	0.275093
560.512680	0.275342
560.726117	0.275288
560.939536	0.275427
561.152937	0.275803
561.366319	0.276380
561.579683	0.276958
561.793029	0.277153
562.006357	0.277223
562.219667	0.277547
562.432958	0.278076
562.646231	0.278570
562.859486	0.278869
563.072723	0.279155
563.285941	0.278947
563.499141	0.279074
563.712323	0.279744
563.925487	0.279729
564.138632	0.279670
564.351760	0.279051
564.564869	0.278763
564.777960	0.278557
564.991032	0.278831
565.204087	0.278755
565.417123	0.278332
565.630141	0.278765
565.843140	0.279745
566.056122	0.280105
566.269085	0.280648
566.482030	0.281151
566.694957	0.281653
566.907866	0.281732
567.120756	0.281726
567.333628	0.282043
567.546482	0.281452
567.759318	0.281251
567.972135	0.281635
568.184935	0.281959
568.397716	0.282581
568.610478	0.282599
568.823223	0.282695
569.035949	0.283668
569.248657	0.283758
569.461347	0.284515
569.674019	0.284286
569.886672	0.284049
570.099308	0.284200
570.311925	0.284286
570.524523	0.284753
570.737104	0.285069
570.949666	0.284756
571.162210	0.285659
571.374736	0.285460
571.587244	0.285829
571.799733	0.286253
572.012205	0.286248
572.224658	0.285821
572.437092	0.285659
572.649509	0.286096
572.861907	0.286452
573.074287	0.286167
573.286649	0.286264
573.498993	0.286502
573.711318	0.286487
573.923625	0.286811
574.135914	0.287233
574.348185	0.287339
574.560438	0.287482
574.772672	0.287713
574.984888	0.288027
575.197086	0.288182
575.409266	0.288442
575.621427	0.288915
575.833570	0.289210
576.045695	0.289653
576.257802	0.290031
576.469890	0.289906
576.681961	0.289573
576.894013	0.289687
577.106046	0.290029
577.318062	0.290060
577.530059	0.290122
577.742039	0.290281
577.954000	0.289958
578.165942	0.289871
578.377867	0.289515
578.589773	0.290475
578.801661	0.290372
579.013531	0.290358
579.225382	0.290474
579.437216	0.290493
579.649031	0.290708
579.860828	0.290859
580.072606	0.291216
580.284367	0.292283
580.496109	0.291851
580.707833	0.292040
580.919539	0.292389
581.131227	0.292740
581.342896	0.293604
581.554547	0.293610
581.766180	0.294109
581.977795	0.294493
582.189391	0.294755
582.400969	0.295289
582.612529	0.295562
582.824071	0.295975
583.035595	0.296376
583.247100	0.295748
583.458587	0.296377
583.670056	0.296340
583.881506	0.296684
584.092939	0.296430
584.304353	0.296302
584.515749	0.296684
584.727127	0.296632
584.938486	0.296754
585.149828	0.297271
585.361151	0.297416
585.572456	0.297233
585.783742	0.297437
585.995011	0.297746
586.206261	0.298426
586.417493	0.298289
586.628706	0.298324
586.839902	0.298586
587.051079	0.299306
587.262238	0.299293
587.473379	0.300154
587.684502	0.300482
587.895606	0.301061
588.106692	0.301435
588.317760	0.302150
588.528810	0.302708
588.739841	0.302781
588.950855	0.302665
589.161850	0.302794
589.372827	0.303039
589.583785	0.303165
589.794726	0.302705
590.005648	0.302634
590.216552	0.302524
590.427437	0.302663
590.638305	0.302932
590.849154	0.303001
591.059985	0.303249
591.270798	0.303022
591.481592	0.302698
591.692369	0.303070
591.903127	0.302654
592.113867	0.303010
592.324588	0.303299
592.535292	0.303786
592.745977	0.303468
592.956644	0.303427
593.167293	0.303713
593.377923	0.304251
593.588536	0.304593
593.799130	0.305429
594.009706	0.305613
594.220263	0.305784
594.430803	0.305758
594.641324	0.306132
594.851827	0.306703
595.062312	0.307090
595.272778	0.307183
595.483227	0.307549
595.693657	0.307395
595.904069	0.307363
596.114462	0.307644
596.324838	0.307327
596.535195	0.307547
596.745534	0.307728
596.955855	0.307995
597.166157	0.308180
597.376441	0.308169
597.586707	0.308682
597.796955	0.308702
598.007185	0.308460
598.217396	0.309058
598.427589	0.309237
598.637764	0.309047
598.847921	0.308884
599.058060	0.309209
599.268180	0.308960
599.478282	0.308735
599.688366	0.308601
599.898431	0.308607
600.108479	0.308557
600.318508	0.308730
600.528519	0.309182
600.738511	0.309719
600.948486	0.309315
601.158442	0.309780
601.368380	0.310131
601.578300	0.310613
601.788202	0.311325
601.998085	0.311841
602.207950	0.312266
602.417797	0.312396
602.627626	0.312350
602.837436	0.312970
603.047228	0.312992
603.257002	0.313267
603.466758	0.313752
603.676496	0.313628
603.886215	0.313504
604.095916	0.313298
604.305599	0.313703
604.515264	0.314013
604.724910	0.314381
604.934538	0.314500
605.144148	0.314618
605.353740	0.314885
605.563314	0.314858
605.772869	0.315133
605.982406	0.315413
606.191925	0.315434
606.401425	0.315487
606.610908	0.315218
606.820372	0.315636
607.029818	0.315501
607.239246	0.315453
607.448655	0.316015
607.658047	0.316100
607.867420	0.316487
608.076775	0.316602
608.286111	0.316906
608.495430	0.317234
608.704730	0.317271
608.914012	0.318024
609.123275	0.318296
609.332521	0.318551
609.541748	0.318915
609.750957	0.319242
609.960148	0.319531
610.169321	0.319824
610.378475	0.319964
610.587611	0.320277
610.796729	0.319544
611.005829	0.319569
611.214910	0.319417
611.423974	0.319494
611.633019	0.319726
611.842045	0.319902
612.051054	0.319543
612.260044	0.319563
612.469017	0.319800
612.677970	0.320385
612.886906	0.320472
613.095824	0.320725
613.304723	0.321017
613.513604	0.320882
613.722467	0.320547
613.931311	0.320865
614.140138	0.320776
614.348946	0.320562
614.557736	0.320530
614.766507	0.320340
614.975261	0.320515
615.183996	0.320442
615.392713	0.320697
615.601412	0.321295
615.810092	0.321434
616.018754	0.322043
616.227399	0.322337
616.436024	0.322805
616.644632	0.323536
616.853222	0.323473
617.061793	0.323708
617.270346	0.323929
617.478880	0.323756
617.687397	0.323823
617.895895	0.323854
618.104375	0.324152
618.312837	0.324274
618.521281	0.324330
618.729706	0.324558
618.938113	0.324516
619.146502	0.324462
619.354873	0.324716
619.563226	0.325067
619.771560	0.325182
619.979876	0.325028
620.188174	0.325166
620.396453	0.325160
620.604715	0.325381
620.812958	0.325569
621.021183	0.325758
621.229390	0.325870
621.437578	0.325915
621.645748	0.326459
621.853900	0.326733
622.062034	0.326798
622.270150	0.327310
622.478247	0.327530
622.686326	0.327834
622.894387	0.328201
623.102430	0.328373
623.310454	0.328324
623.518461	0.328311
623.726449	0.328564
623.934418	0.328891
624.142370	0.328571
624.350303	0.328647
624.558218	0.328677
624.766115	0.328631
624.973994	0.328895
625.181855	0.329583
625.389697	0.329550
625.597521	0.329573
625.805327	0.329720
626.013114	0.330018
626.220883	0.330454
626.428634	0.330464
626.636367	0.330718
626.844082	0.330350
627.051778	0.330580
627.259457	0.331149
627.467117	0.331528
627.674758	0.331646
627.882382	0.331921
628.089987	0.331903
628.297574	0.332236
628.505143	0.332365
628.712694	0.333301
628.920226	0.333047
629.127740	0.332764
629.335236	0.333100
629.542714	0.333300
629.750174	0.333471
629.957615	0.333808
630.165038	0.334169
630.372443	0.334148
630.579829	0.334010
630.787198	0.334226
630.994548	0.334656
631.201880	0.334659
631.409194	0.335085
631.616489	0.335398
631.823766	0.335384
632.031025	0.335494
632.238266	0.335631
632.445489	0.335703
632.652693	0.335899
632.859879	0.335977
633.067047	0.335812
633.274197	0.335634
633.481329	0.335623
633.688442	0.335629
633.895537	0.335970
634.102614	0.336409
634.309672	0.336746
634.516713	0.337085
634.723735	0.337229
634.930739	0.337574
635.137724	0.337796
635.344692	0.337871
635.551641	0.338088
635.758572	0.337961
635.965485	0.338009
636.172379	0.338395
636.379256	0.338374
636.586114	0.338716
636.792954	0.339132
636.999775	0.339209
637.206579	0.339484
637.413364	0.339695
637.620131	0.339789
637.826880	0.339980
638.033610	0.339809
638.240323	0.339788
638.447017	0.339864
638.653692	0.340127
638.860350	0.340385
639.066990	0.340501
639.273611	0.341204
639.480214	0.341499
639.686798	0.341940
639.893365	0.342541
640.099913	0.343140
640.306443	0.343311
640.512955	0.343414
640.719449	0.344101
640.925924	0.344308
641.132381	0.344018
641.338820	0.344334
641.545241	0.344207
641.751644	0.344269
641.958028	0.344350
642.164394	0.344693
642.370742	0.345031
642.577071	0.344862
642.783383	0.344959
642.989676	0.345385
643.195951	0.345637
643.402207	0.345824
643.608446	0.345732
643.814666	0.346128
644.020868	0.345977
644.227052	0.346171
644.433218	0.346382
644.639365	0.346846
644.845494	0.346768
645.051605	0.346817
645.257698	0.347116
645.463772	0.347621
645.669828	0.347473
645.875866	0.348069
646.081886	0.347835
646.287888	0.348075
646.493871	0.348393
646.699836	0.348725
646.905783	0.349065
647.111712	0.349651
647.317622	0.349881
647.523514	0.350062
647.729388	0.350157
647.935244	0.350279
648.141082	0.350307
648.346901	0.350489
648.552702	0.350686
648.758485	0.350484
648.964250	0.350428
649.169996	0.350460
649.375724	0.350934
649.581434	0.351085
649.787126	0.351494
649.992800	0.352031
650.198455	0.352340
650.404092	0.352493
650.609711	0.353208
650.815311	0.353425
651.020894	0.353767
651.226458	0.353793
651.432004	0.354346
651.637532	0.354693
651.843041	0.354927
652.048532	0.355093
652.254006	0.355529
652.459460	0.355907
652.664897	0.356364
652.870315	0.356650
653.075716	0.357257
653.281097	0.357304
653.486461	0.357711
653.691807	0.357772
653.897134	0.358120
654.102443	0.358157
654.307734	0.358135
654.513006	0.357995
654.718261	0.358366
654.923497	0.358319
655.128715	0.358105
655.333915	0.358135
655.539096	0.358399
655.744259	0.358059
655.949404	0.358190
656.154531	0.358463
656.359640	0.358861
656.564730	0.359129
656.769802	0.359399
656.974856	0.359972
657.179892	0.360241
657.384909	0.360252
657.589908	0.360628
657.794889	0.360984
657.999852	0.361167
658.204797	0.361538
658.409723	0.361563
658.614631	0.361901
658.819521	0.362064
659.024393	0.362238
659.229246	0.362652
659.434081	0.362884
659.638898	0.363050
659.843697	0.363086
660.048478	0.362947
660.253240	0.362936
660.457984	0.362933
660.662710	0.363252
660.867417	0.363425
661.072107	0.363477
661.276778	0.363668
661.481431	0.364127
661.686066	0.364605
661.890682	0.365095
662.095281	0.365367
662.299861	0.365733
662.504422	0.365747
662.708966	0.366177
662.913491	0.366572
663.117999	0.366956
663.322488	0.366699
663.526958	0.366808
663.731411	0.367037
663.935845	0.367367
664.140261	0.367395
664.344659	0.367828
664.549038	0.367871
664.753400	0.368127
664.957743	0.368216
665.162068	0.368721
665.366375	0.368921
665.570663	0.369048
665.774933	0.369388
665.979185	0.369690
666.183419	0.369858
666.387635	0.370203
666.591832	0.370267
666.796011	0.370539
667.000172	0.371119
667.204315	0.371405
667.408439	0.371508
667.612545	0.371226
667.816634	0.371541
668.020703	0.371878
668.224755	0.371770
668.428788	0.371993
668.632803	0.372272
668.836800	0.372175
669.040779	0.372529
669.244739	0.373281
669.448681	0.373858
669.652605	0.374135
669.856511	0.374323
670.060399	0.374945
670.264268	0.375331
670.468119	0.375726
670.671952	0.375963
670.875767	0.376145
671.079563	0.375807
671.283341	0.376411
671.487101	0.376684
671.690843	0.376879
671.894567	0.376927
672.098272	0.377168
672.301959	0.377278
672.505628	0.377612
672.709278	0.377859
672.912911	0.378444
673.116525	0.378553
673.320121	0.378700
673.523699	0.379041
673.727258	0.379518
673.930799	0.379725
674.134322	0.380123
674.337827	0.380512
674.541314	0.380695
674.744782	0.380800
674.948232	0.380819
675.151664	0.381269
675.355078	0.381365
675.558474	0.381720
675.761851	0.381774
675.965210	0.382018
676.168551	0.382071
676.371873	0.382256
676.575178	0.382354
676.778464	0.382638
676.981732	0.382671
677.184981	0.383077
677.388213	0.383202
677.591426	0.383772
677.794621	0.384026
677.997798	0.384448
678.200956	0.384772
678.404097	0.384936
678.607219	0.385132
678.810323	0.385480
679.013408	0.385753
679.216476	0.386059
679.419525	0.386334
679.622556	0.386561
679.825569	0.386687
680.028563	0.386764
680.231540	0.387373
680.434498	0.387731
680.637438	0.387973
680.840359	0.388220
681.043263	0.388464
681.246148	0.388365
681.449015	0.388819
681.651864	0.388934
681.854694	0.389443
682.057506	0.389584
682.260301	0.389795
682.463076	0.389843
682.665834	0.389845
682.868573	0.389800
683.071295	0.390258
683.273998	0.390176
683.476682	0.390478
683.679349	0.390759
683.881997	0.391124
684.084627	0.391375
684.287239	0.391697
684.489833	0.391826
684.692408	0.392342
684.894965	0.392247
685.097504	0.392517
685.300025	0.392844
685.502527	0.392888
685.705012	0.392915
685.907478	0.393276
686.109925	0.393532
686.312355	0.393992
686.514766	0.394134
686.717159	0.394524
686.919534	0.394504
687.121891	0.394586
687.324230	0.394947
687.526550	0.395170
687.728852	0.395290
687.931136	0.395437
688.133401	0.395684
688.335649	0.395494
688.537878	0.395948
688.740089	0.396236
688.942281	0.396553
689.144456	0.396477
689.346612	0.396699
689.548750	0.396852
689.750870	0.397149
689.952971	0.397249
690.155055	0.397564
690.357120	0.397634
690.559167	0.397904
690.761195	0.398302
690.963206	0.398722
691.165198	0.398843
691.367172	0.399065
691.569128	0.399248
691.771065	0.399456
691.972984	0.399861
692.174885	0.400281
692.376768	0.400625
692.578633	0.400644
692.780479	0.400852
692.982308	0.401230
693.184118	0.401303
693.385909	0.401501
693.587683	0.401948
693.789438	0.402224
693.991175	0.402136
694.192894	0.402158
694.394595	0.402650
694.596277	0.402822
694.797941	0.402914
694.999587	0.403254
695.201215	0.403393
695.402824	0.403193
695.604416	0.403248
695.805989	0.403382
696.007543	0.403368
696.209080	0.402734
696.410598	0.402847
696.612099	0.402868
696.813580	0.402897
697.015044	0.402985
697.216490	0.403254
697.417917	0.403477
697.619326	0.403739
697.820717	0.403995
698.022089	0.404522
698.223444	0.404809
698.424780	0.404913
698.626098	0.404923
698.827397	0.405039
699.028679	0.405224
699.229942	0.405182
699.431187	0.405419
699.632414	0.405800
699.833622	0.405800
700.034813	0.405978
700.235985	0.406325
700.437139	0.406534
700.638274	0.406887
700.839392	0.406903
701.040491	0.407139
701.241572	0.407273
701.442635	0.407136
701.643679	0.407344
701.844706	0.407159
702.045714	0.407176
702.246704	0.407288
702.447675	0.407360
702.648629	0.407494
702.849564	0.407546
703.050481	0.407609
703.251380	0.407655
703.452260	0.407868
703.653122	0.408205
703.853966	0.408279
704.054792	0.408438
704.255600	0.408383
704.456389	0.408315
704.657160	0.408407
704.857913	0.408317
705.058648	0.408608
705.259365	0.408425
705.460063	0.408087
705.660743	0.408080
705.861405	0.408144
706.062048	0.408219
706.262674	0.408402
706.463281	0.408664
706.663870	0.408863
706.864441	0.408761
707.064993	0.409116
707.265527	0.409430
707.466043	0.409738
707.666541	0.409857
707.867021	0.409866
708.067482	0.409784
708.267925	0.409577
708.468350	0.409719
708.668757	0.409934
708.869145	0.409993
709.069516	0.409958
709.269868	0.409712
709.470201	0.409808
709.670517	0.409807
709.870814	0.410179
710.071093	0.410326
710.271354	0.410256
710.471597	0.410489
710.671821	0.410408
710.872028	0.410189
711.072216	0.410212
711.272385	0.409836
711.472537	0.410193
711.672670	0.409819
711.872785	0.409744
712.072882	0.409481
712.272961	0.409116
712.473021	0.409132
712.673063	0.409263
712.873087	0.409057
713.073093	0.409188
713.273081	0.408838
713.473050	0.409187
713.673001	0.409142
713.872934	0.409021
714.072849	0.408976
714.272745	0.408759
714.472623	0.408676
714.672483	0.408921
714.872325	0.408816
715.072148	0.408946
715.271954	0.408582
715.471741	0.408550
715.671509	0.408505
715.871260	0.408405
716.070992	0.408220
716.270707	0.408440
716.470403	0.408340
716.670080	0.408251
716.869740	0.407732
717.069381	0.407341
717.269004	0.407386
717.468609	0.407248
717.668195	0.407191
717.867764	0.407251
718.067314	0.407107
718.266846	0.407019
718.466360	0.407087
718.665855	0.407325
718.865332	0.407438
719.064791	0.407308
719.264232	0.407450
719.463655	0.407510
719.663059	0.407319
719.862445	0.407058
720.061813	0.407330
720.261163	0.407498
720.460494	0.407410
720.659807	0.407586
720.859102	0.407597
721.058379	0.407780
721.257638	0.407669
721.456878	0.407794
721.656100	0.407996
721.855304	0.407410
722.054490	0.407042
722.253657	0.406938
722.452806	0.406730
722.651937	0.406627
722.851050	0.406297
723.050145	0.406136
723.249221	0.405709
723.448279	0.405457
723.647319	0.405288
723.846340	0.405192
724.045344	0.405093
724.244329	0.405075
724.443296	0.404850
724.642245	0.404741
724.841175	0.404671
725.040088	0.404923
725.238982	0.404984
725.437857	0.405304
725.636715	0.405345
725.835554	0.405153
726.034376	0.404805
726.233179	0.404778
726.431963	0.404656
726.630730	0.404648
726.829478	0.404282
727.028208	0.403950
727.226920	0.403666
727.425614	0.403494
727.624289	0.403300
727.822946	0.403091
728.021585	0.402683
728.220206	0.402520
728.418808	0.401934
728.617392	0.402133
728.815958	0.401931
729.014506	0.401679
729.213036	0.401379
729.411547	0.401441
729.610040	0.401475
729.808515	0.401164
730.006972	0.400796
730.205410	0.400851
730.403831	0.400507
730.602233	0.400599
730.800616	0.400283
730.998982	0.399848
731.197329	0.399566
731.395658	0.399509
731.593969	0.399394
731.792262	0.399186
731.990536	0.398932
732.188793	0.398635
732.387031	0.398135
732.585250	0.397992
732.783452	0.398001
732.981635	0.397395
733.179800	0.396988
733.377947	0.396917
733.576076	0.396581
733.774186	0.396119
733.972278	0.395954
734.170352	0.395728
734.368408	0.395451
734.566446	0.394930
734.764465	0.394903
734.962466	0.394882
735.160449	0.394446
735.358413	0.394518
735.556360	0.394558
735.754288	0.394276
735.952198	0.394172
736.150090	0.393815
736.347963	0.393716
736.545818	0.393835
736.743655	0.393392
736.941474	0.393473
737.139275	0.393081
737.337057	0.393115
737.534821	0.393002
737.732567	0.392743
737.930295	0.392675
738.128005	0.392722
738.325696	0.392280
738.523369	0.392180
738.721024	0.391770
738.918660	0.391473
739.116279	0.391065
739.313879	0.390489
739.511461	0.390060
739.709024	0.389695
739.906570	0.389180
740.104097	0.388710
740.301606	0.388515
740.499097	0.388252
740.696569	0.387918
740.894024	0.387639
741.091460	0.387247
741.288878	0.386962
741.486277	0.386614
741.683659	0.386253
741.881022	0.386062
742.078367	0.385732
742.275694	0.385610
742.473002	0.385505
742.670293	0.385392
742.867565	0.385523
743.064819	0.385278
743.262054	0.385244
743.459272	0.385559
743.656471	0.385485
743.853652	0.385059
744.050815	0.384741
744.247959	0.384528
744.445085	0.384206
744.642194	0.383849
744.839283	0.383758
745.036355	0.383426
745.233408	0.382893
745.430444	0.382550
745.627461	0.382465
745.824459	0.381946
746.021440	0.381621
746.218402	0.381353
746.415346	0.381079
746.612272	0.380569
746.809180	0.380524
747.006069	0.379840
747.202940	0.379779
747.399793	0.379472
747.596628	0.379464
747.793444	0.379538
747.990243	0.378993
748.187023	0.378680
748.383784	0.378594
748.580528	0.378259
748.777253	0.378246
748.973960	0.377886
749.170649	0.377621
749.367320	0.377433
749.563973	0.376994
749.760607	0.377009
749.957223	0.376791
750.153821	0.376335
750.350400	0.376059
750.546962	0.376062
750.743505	0.376167
750.940030	0.376043
751.136536	0.375627
751.333025	0.375681
751.529495	0.375524
751.725947	0.375466
751.922381	0.375551
752.118796	0.375223
752.315194	0.375018
752.511573	0.374489
752.707934	0.374207
752.904276	0.374208
753.100601	0.373929
753.296907	0.373793
753.493195	0.373479
753.689465	0.373483
753.885716	0.373370
754.081949	0.373089
754.278164	0.372765
754.474361	0.372418
754.670540	0.372386
754.866700	0.372181
755.062843	0.371853
755.258967	0.371906
755.455072	0.371484
755.651160	0.371584
755.847229	0.371668
756.043280	0.371663
756.239313	0.371636
756.435328	0.371269
756.631324	0.370679
756.827302	0.370369
757.023262	0.369898
757.219204	0.369335
757.415127	0.368763
757.611033	0.368101
757.806920	0.367756
758.002788	0.367551
758.198639	0.367262
758.394471	0.367419
758.590286	0.367412
758.786081	0.367217
758.981859	0.367231
759.177619	0.367230
759.373360	0.367166
759.569083	0.367180
759.764788	0.367077
759.960474	0.366917
760.156143	0.366297
760.351793	0.365959
760.547425	0.365717
760.743038	0.365495
760.938634	0.365265
761.134211	0.365011
761.329770	0.364597
761.525311	0.364140
761.720833	0.363940
761.916338	0.364046
762.111824	0.363983
762.307292	0.363775
762.502741	0.363625
762.698173	0.363342
762.893586	0.363073
763.088981	0.362718
763.284358	0.362727
763.479716	0.362700
763.675057	0.362652
763.870379	0.362183
764.065683	0.361987
764.260968	0.361879
764.456236	0.361800
764.651485	0.361787
764.846716	0.361771
765.041929	0.361560
765.237123	0.361128
765.432299	0.361057
765.627457	0.360902
765.822597	0.360983
766.017719	0.360796
766.212822	0.360805
766.407907	0.360771
766.602974	0.360757
766.798023	0.360778
766.993054	0.360810
767.188066	0.360258
767.383060	0.360293
767.578036	0.360331
767.772993	0.360455
767.967933	0.360338
768.162854	0.360003
768.357757	0.359860
768.552642	0.359624
768.747508	0.359523
768.942356	0.359719
769.137186	0.359692
769.331998	0.359640
769.526792	0.359448
769.721567	0.359138
769.916324	0.359047
770.111063	0.358935
770.305784	0.358934
770.500486	0.358818
770.695171	0.358625
770.889837	0.358477
771.084484	0.358308
771.279114	0.358169
771.473725	0.358271
771.668318	0.358571
771.862893	0.358431
772.057450	0.358111
772.251988	0.358220
772.446509	0.358217
772.641011	0.358130
772.835494	0.357731
773.029960	0.357588
773.224407	0.357391
773.418836	0.357047
773.613247	0.357305
773.807640	0.357100
774.002014	0.356974
774.196370	0.356808
774.390708	0.357002
774.585028	0.357158
774.779330	0.357030
774.973613	0.356964
775.167878	0.356871
775.362125	0.356414
775.556354	0.356536
775.750564	0.356272
775.944756	0.355901
776.138930	0.355667
776.333086	0.355578
776.527223	0.355386
776.721343	0.355069
776.915444	0.355042
777.109526	0.355028
777.303591	0.355133
777.497637	0.355347
777.691666	0.355671
777.885676	0.355749
778.079667	0.355659
778.273641	0.355876
778.467596	0.356345
778.661533	0.356319
778.855452	0.356464
779.049352	0.356438
779.243235	0.356086
779.437099	0.356194
779.630945	0.356548
779.824773	0.356788
780.018582	0.356940
780.212373	0.357032
780.406146	0.356949
780.599901	0.357093
780.793638	0.356972
780.987356	0.357452
781.181056	0.357579
781.374738	0.357440
781.568402	0.357544
781.762047	0.357631
781.955674	0.357402
782.149283	0.357811
782.342874	0.357923
782.536447	0.358386
782.730001	0.358216
782.923537	0.357986
783.117055	0.357780
783.310555	0.357643
783.504036	0.357611
783.697499	0.357850
783.890944	0.357972
784.084371	0.357669
784.277780	0.357650
784.471170	0.357696
784.664542	0.357928
784.857896	0.358063
785.051231	0.357945
785.244549	0.357817
785.437848	0.357727
785.631129	0.357703
785.824392	0.357925
786.017636	0.357932
786.210863	0.357900
786.404071	0.357940
786.597260	0.358233
786.790432	0.358619
786.983585	0.358566
787.176721	0.358582
787.369838	0.358436
787.562936	0.358459
787.756017	0.358359
787.949079	0.358233
788.142123	0.358353
788.335149	0.357858
788.528156	0.357774
788.721146	0.358316
788.914117	0.358686
789.107070	0.358940
789.300005	0.359567
789.492921	0.359730
789.685819	0.360328
789.878699	0.360321
790.071561	0.360669
790.264405	0.360882
790.457230	0.360792
790.650037	0.361166
790.842826	0.361215
791.035597	0.361005
791.228349	0.361362
791.421084	0.361323
791.613800	0.361698
791.806497	0.361930
791.999177	0.362177
792.191838	0.362576
792.384481	0.362698
792.577106	0.362994
792.769713	0.363596
792.962301	0.363960
793.154871	0.364384
793.347423	0.364724
793.539957	0.365411
793.732473	0.365710
793.924970	0.365972
794.117449	0.365757
794.309910	0.366283
794.502353	0.366005
794.694777	0.366346
794.887183	0.366677
795.079571	0.366813
795.271941	0.366859
795.464293	0.366585
795.656626	0.366824
795.848941	0.367418
796.041238	0.367542
796.233516	0.368023
796.425777	0.367926
796.618019	0.367941
796.810243	0.367973
797.002449	0.367959
797.194636	0.368557
797.386805	0.368709
797.578956	0.368569
797.771089	0.369183
797.963204	0.369360
798.155300	0.369678
798.347378	0.370060
798.539438	0.370703
798.731480	0.371156
798.923503	0.371517
799.115509	0.371925
799.307496	0.372432
799.499465	0.372350
799.691415	0.372631
799.883348	0.372965
800.075262	0.373000
800.267158	0.373031
800.459035	0.373034
800.650895	0.373089
800.842736	0.373261
801.034559	0.373468
801.226364	0.373626
801.418150	0.373741
801.609919	0.373902
801.801669	0.374158
801.993401	0.374353
802.185114	0.374564
802.376810	0.375148
802.568487	0.375511
802.760146	0.375886
802.951787	0.375771
803.143409	0.376318
803.335014	0.376560
803.526600	0.377459
803.718168	0.377679
803.909717	0.378210
804.101249	0.378324
804.292762	0.378239
804.484257	0.378560
804.675734	0.379329
804.867192	0.379349
805.058632	0.379729
805.250054	0.379588
805.441458	0.380012
805.632844	0.380409
805.824211	0.380986
806.015561	0.381848
806.206891	0.381969
806.398204	0.382111
806.589499	0.382762
806.780775	0.383123
806.972033	0.383433
807.163273	0.383764
807.354495	0.384116
807.545698	0.384387
807.736883	0.384378
807.928050	0.384891
808.119199	0.385592
808.310329	0.385666
808.501441	0.386089
808.692535	0.386412
808.883611	0.386632
809.074669	0.386936
809.265708	0.387204
809.456729	0.387699
809.647732	0.388056
809.838717	0.388338
810.029683	0.389044
810.220632	0.389448
810.411562	0.389960
810.602474	0.390735
810.793367	0.391024
810.984242	0.391629
811.175100	0.391985
811.365938	0.392100
811.556759	0.392156
811.747562	0.392541
811.938346	0.392815
812.129112	0.393176
812.319860	0.393617
812.510589	0.394299
812.701300	0.394727
812.891994	0.395166
813.082668	0.395826
813.273325	0.395876
813.463964	0.395955
813.654584	0.396130
813.845186	0.396593
814.035769	0.396988
814.226335	0.397103
814.416882	0.397241
814.607411	0.397474
814.797922	0.397866
814.988415	0.398629
815.178889	0.398958
815.369345	0.399504
815.559783	0.399622
815.750203	0.399897
815.940605	0.400304
816.130988	0.400625
816.321353	0.401292
816.511700	0.401488
816.702028	0.402038
816.892339	0.402889
817.082631	0.403420
817.272905	0.404102
817.463161	0.404467
817.653398	0.404912
817.843617	0.405454
818.033819	0.405653
818.224001	0.406268
818.414166	0.406782
818.604312	0.407150
818.794440	0.407716
818.984550	0.408083
819.174642	0.408760
819.364716	0.408991
819.554771	0.409412
819.744808	0.409980
819.934827	0.410415
820.124827	0.410862
820.314810	0.411249
820.504774	0.411731
820.694720	0.412474
820.884647	0.413106
821.074557	0.413652
821.264448	0.414063
821.454321	0.414725
821.644176	0.415323
821.834012	0.415406
822.023831	0.415941
822.213631	0.416401
822.403413	0.416739
822.593176	0.417058
822.782922	0.417894
822.972649	0.418568
823.162358	0.419014
823.352049	0.419512
823.541721	0.420596
823.731376	0.420701
823.921012	0.421357
824.110629	0.421600
824.300229	0.421910
824.489811	0.422502
824.679374	0.422988
824.868919	0.423331
825.058445	0.423858
825.247954	0.424169
825.437444	0.424733
825.626916	0.424949
825.816370	0.425846
826.005806	0.426141
826.195223	0.426912
826.384622	0.427395
826.574003	0.428053
826.763366	0.428595
826.952711	0.429045
827.142037	0.429691
827.331345	0.430176
827.520635	0.430676
827.709906	0.431291
827.899160	0.431344
828.088395	0.432008
828.277612	0.432773
828.466810	0.433040
828.655991	0.433566
828.845153	0.434560
829.034297	0.435380
829.223423	0.435858
829.412531	0.436580
829.601620	0.437056
829.790691	0.437416
829.979744	0.437989
830.168779	0.438992
830.357795	0.439935
830.546793	0.440165
830.735773	0.440719
830.924735	0.441254
831.113679	0.441754
831.302604	0.442196
831.491511	0.443038
831.680400	0.443313
831.869271	0.443945
832.058123	0.444598
832.246957	0.445718
832.435773	0.446046
832.624571	0.446540
832.813351	0.447185
833.002112	0.447658
833.190855	0.448072
833.379580	0.448404
833.568287	0.448605
833.756975	0.448824
833.945645	0.448574
834.134297	0.449178
834.322931	0.449834
834.511547	0.450336
834.700144	0.451432
834.888723	0.452221
835.077284	0.453007
835.265826	0.453861
835.454351	0.454036
835.642857	0.454862
835.831345	0.455513
836.019815	0.455944
836.208266	0.456317
836.396699	0.456876
836.585114	0.457298
836.773511	0.457714
836.961890	0.457962
837.150250	0.458711
837.338592	0.459215
837.526916	0.459763
837.715222	0.460516
837.903510	0.461029
838.091779	0.461608
838.280030	0.461881
838.468263	0.462490
838.656477	0.463153
838.844674	0.464102
839.032852	0.464812
839.221012	0.465475
839.409153	0.465904
839.597277	0.466763
839.785382	0.467259
839.973469	0.467920
840.161538	0.469006
840.349589	0.469818
840.537621	0.470491
840.725635	0.470879
840.913631	0.471152
841.101609	0.471975
841.289568	0.472548
841.477509	0.473536
841.665432	0.474151
841.853337	0.475102
842.041224	0.475766
842.229092	0.476078
842.416942	0.477148
842.604774	0.477934
842.792588	0.478572
842.980383	0.479207
843.168160	0.479499
843.355919	0.480317
843.543660	0.480177
843.731382	0.480584
843.919087	0.481033
844.106773	0.481323
844.294441	0.482035
844.482090	0.482527
844.669722	0.483278
844.857335	0.483833
845.044930	0.484017
845.232507	0.484960
845.420065	0.485849
845.607605	0.486883
845.795127	0.487231
845.982631	0.487913
846.170117	0.488441
846.357584	0.489164
846.545033	0.489687
846.732464	0.490308
846.919877	0.490772
847.107272	0.491356
847.294648	0.491599
847.482006	0.492443
847.669346	0.493237
847.856667	0.493902
848.043971	0.494184
848.231256	0.495098
848.418523	0.496036
848.605771	0.496459
848.793002	0.496781
848.980214	0.497510
849.167408	0.498306
849.354584	0.498574
849.541742	0.499054
849.728881	0.499628
849.916002	0.499636
850.103105	0.500121
850.290190	0.500774
850.477256	0.501901
850.664304	0.502609
850.851334	0.503401
851.038346	0.504090
851.225340	0.505158
851.412315	0.506042
851.599272	0.506955
851.786211	0.508091
851.973132	0.508834
852.160034	0.508752
852.346918	0.509269
852.533784	0.509692
852.720632	0.510033
852.907462	0.510592
853.094273	0.511140
853.281066	0.511875
853.467841	0.511948
853.654598	0.512258
853.841336	0.512777
854.028056	0.513190
854.214758	0.513769
854.401442	0.514331
854.588107	0.514901
854.774755	0.515245
854.961384	0.515521
855.147995	0.515808
855.334587	0.516333
855.521162	0.517174
855.707718	0.517895
855.894256	0.517960
856.080775	0.518554
856.267277	0.518274
856.453760	0.518896
856.640225	0.519208
856.826672	0.519836
857.013101	0.520718
857.199511	0.521314
857.385903	0.521447
857.572277	0.521981
857.758633	0.522839
857.944970	0.523631
858.131290	0.523991
858.317591	0.524926
858.503873	0.525649
858.690138	0.525803
858.876384	0.526148
859.062612	0.527038
859.248822	0.527949
859.435014	0.528301
859.621188	0.528849
859.807343	0.529440
859.993480	0.529744
860.179599	0.530136
860.365699	0.530837
860.551781	0.531305
860.737846	0.531764
860.923891	0.532225
861.109919	0.532931
861.295929	0.533438
861.481920	0.534333
861.667893	0.534752
861.853848	0.535278
862.039784	0.535556
862.225702	0.536401
862.411603	0.536986
862.597484	0.537481
862.783348	0.537620
862.969193	0.538431
863.155021	0.538529
863.340830	0.539375
863.526620	0.540323
863.712393	0.541153
863.898147	0.541224
864.083883	0.542241
864.269601	0.542986
864.455301	0.543299
864.640982	0.543176
864.826645	0.543259
865.012290	0.543674
865.197917	0.544459
865.383526	0.544640
865.569116	0.545417
865.754688	0.545607
865.940242	0.545710
866.125777	0.546807
866.311295	0.547659
866.496794	0.548252
866.682275	0.548308
866.867737	0.548424
867.053182	0.548757
867.238608	0.549172
867.424016	0.549346
867.609406	0.549785
867.794778	0.549320
867.980131	0.549376
868.165466	0.549821
868.350783	0.550913
868.536082	0.550684
868.721362	0.551356
868.906625	0.551109
869.091869	0.551561
869.277094	0.551984
869.462302	0.553007
869.647491	0.554042
869.832662	0.554925
870.017815	0.554610
870.202950	0.555148
870.388066	0.555258
870.573165	0.556340
870.758245	0.556494
870.943306	0.556557
871.128350	0.556718
871.313375	0.556743
871.498382	0.557040
871.683371	0.557889
871.868342	0.558347
872.053294	0.558872
872.238229	0.558894
872.423144	0.559779
872.608042	0.559883
872.792922	0.560787
872.977783	0.561394
873.162626	0.561449
873.347451	0.561360
873.532258	0.561828
873.717046	0.562045
873.901816	0.562791
874.086568	0.562799
874.271302	0.563781
874.456017	0.563970
874.640715	0.564203
874.825394	0.564560
875.010055	0.565171
875.194697	0.565689
875.379322	0.565989
875.563928	0.565965
875.748516	0.566633
875.933085	0.566662
876.117637	0.566615
876.302170	0.567191
876.486685	0.567840
876.671182	0.567885
876.855661	0.567522
877.040121	0.567905
877.224563	0.568393
877.408987	0.568641
877.593393	0.569205
877.777780	0.570151
877.962150	0.570388
878.146501	0.570710
878.330833	0.571318
878.515148	0.571983
878.699444	0.572745
878.883722	0.573898
879.067982	0.573432
879.252224	0.573767
879.436447	0.573547
879.620653	0.573098
879.804840	0.573115
879.989008	0.573076
880.173159	0.573882
880.357291	0.573704
880.541405	0.573141
880.725501	0.574077
880.909579	0.574613
881.093638	0.573933
881.277680	0.574609
881.461703	0.574567
881.645707	0.574657
881.829694	0.574299
882.013662	0.574423
882.197612	0.573912
882.381544	0.573614
882.565458	0.573928
882.749353	0.574181
882.933230	0.574077
883.117089	0.574364
883.300930	0.574567
883.484753	0.574366
883.668557	0.574303
883.852343	0.574411
884.036111	0.573980
884.219861	0.573645
884.403592	0.574240
884.587305	0.574479
884.771000	0.575076
884.954677	0.575676
885.138335	0.575689
885.321976	0.576259
885.505598	0.576662
885.689201	0.576751
885.872787	0.576185
886.056354	0.576432
886.239904	0.576390
886.423434	0.576103
886.606947	0.575460
886.790442	0.575569
886.973918	0.575516
887.157376	0.575565
887.340816	0.576076
887.524237	0.576566
887.707641	0.576593
887.891026	0.576409
888.074393	0.575861
888.257741	0.575876
888.441072	0.575480
888.624384	0.575071
888.807678	0.574468
888.990954	0.574686
889.174211	0.574359
889.357451	0.574091
889.540672	0.574499
889.723875	0.574989
889.907059	0.575611
890.090226	0.576544
890.273374	0.577271
890.456504	0.578333
890.639616	0.577911
890.822709	0.578428
891.005785	0.577928
891.188842	0.578156
891.371881	0.578435
891.554901	0.578317
891.737904	0.577636
891.920888	0.576525
892.103854	0.575667
892.286802	0.576357
892.469731	0.575724
892.652643	0.576483
892.835536	0.575644
893.018410	0.575136
893.201267	0.574560
893.384106	0.574851
893.566926	0.574958
893.749728	0.574953
893.932511	0.573849
894.115277	0.574063
894.298024	0.574222
894.480753	0.573958
894.663464	0.573356
894.846157	0.572727
895.028831	0.572276
895.211487	0.572781
895.394125	0.573211
895.576745	0.574119
895.759346	0.573828
895.941930	0.572677
896.124495	0.572928
896.307041	0.573155
896.489570	0.573980
896.672080	0.573837
896.854573	0.573081
897.037046	0.572545
897.219502	0.571686
897.401940	0.571190
897.584359	0.571276
897.766760	0.571469
897.949143	0.571866
898.131507	0.571153
898.313854	0.571524
898.496182	0.571310
898.678492	0.570998
898.860783	0.570340
899.043057	0.570502
899.225312	0.570701
899.407549	0.570084
899.589768	0.569193
899.771968	0.568669
899.954151	0.567478
900.136315	0.566740
900.318461	0.566787
900.500588	0.566592
900.682698	0.565681
900.864789	0.565256
901.046862	0.565032
901.228917	0.564575
901.410953	0.564077
901.592971	0.564517
901.774972	0.564162
901.956953	0.562761
902.138917	0.562638
902.320862	0.562212
902.502790	0.560897
902.684699	0.560206
902.866589	0.559704
903.048462	0.560149
903.230316	0.558515
903.412152	0.558750
903.593970	0.558838
903.775770	0.558261
903.957551	0.558287
904.139314	0.559103
904.321059	0.558577
904.502786	0.557138
904.684494	0.556543
904.866185	0.556904
905.047857	0.556223
905.229510	0.555382
905.411146	0.554566
905.592763	0.553626
905.774363	0.552562
905.955943	0.551994
906.137506	0.552702
906.319051	0.552243
906.500577	0.551917
906.682085	0.551118
906.863575	0.551388
907.045046	0.551462
907.226500	0.551077
907.407935	0.550337
907.589352	0.549260
907.770750	0.548699
907.952131	0.547798
908.133493	0.547413
908.314837	0.546997
908.496163	0.546574
908.677470	0.546076
908.858760	0.546306
909.040031	0.545721
909.221284	0.545966
909.402518	0.544733
909.583735	0.544422
909.764933	0.543992
909.946113	0.544006
910.127275	0.542530
910.308418	0.541855
910.489544	0.541035
910.670651	0.539571
910.851740	0.538462
911.032810	0.538426
911.213863	0.537383
911.394897	0.536235
911.575913	0.534668
911.756911	0.534284
911.937890	0.533809
912.118851	0.532585
912.299794	0.532832
912.480719	0.532269
912.661626	0.531423
912.842514	0.530943
913.023384	0.530266
913.204236	0.529976
913.385070	0.529252
913.565886	0.527773
913.746683	0.526829
913.927462	0.526490
914.108223	0.525624
914.288965	0.524999
914.469690	0.524077
914.650396	0.523155
914.831084	0.521785
915.011754	0.520869
915.192405	0.520915
915.373038	0.520283
915.553653	0.518957
915.734250	0.517662
915.914829	0.516533
916.095389	0.516190
916.275931	0.514960
916.456455	0.514189
916.636961	0.513758
916.817448	0.511601
916.997917	0.510610
917.178368	0.509033
917.358801	0.508760
917.539216	0.507465
917.719612	0.506395
917.899990	0.505693
918.080350	0.505324
918.260692	0.504331
918.441015	0.504313
918.621320	0.503620
918.801607	0.502836
918.981876	0.501873
919.162127	0.501727
919.342359	0.500559
919.522573	0.499925
919.702769	0.498584
919.882947	0.497523
920.063106	0.496428
920.243247	0.495783
920.423370	0.495458
920.603475	0.494919
920.783562	0.494034
920.963630	0.493506
921.143680	0.492350
921.323712	0.491933
921.503725	0.491269
921.683721	0.491526
921.863698	0.489855
922.043657	0.489335
922.223598	0.488162
922.403520	0.487322
922.583424	0.485773
922.763311	0.485238
922.943178	0.484299
923.123028	0.482871
923.302859	0.480566
923.482673	0.480549
923.662467	0.479054
923.842244	0.477468
924.022003	0.475887
924.201743	0.474603
924.381465	0.472462
924.561169	0.471594
924.740854	0.470209
924.920522	0.469065
925.100171	0.467720
925.279802	0.466381
925.459414	0.465089
925.639009	0.463799
925.818585	0.463079
925.998143	0.462963
926.177683	0.460883
926.357205	0.460435
926.536708	0.459240
926.716193	0.458291
926.895660	0.457635
927.075109	0.457791
927.254539	0.456945
927.433951	0.455449
927.613345	0.453705
927.792721	0.452657
927.972079	0.450730
928.151418	0.449552
928.330739	0.448148
928.510042	0.447258
928.689327	0.445493
928.868593	0.445088
929.047841	0.442913
929.227071	0.442268
929.406283	0.441095
929.585476	0.440295
929.764652	0.439225
929.943809	0.438238
930.122948	0.437230
930.302068	0.436607
930.481171	0.434563
930.660255	0.434595
930.839321	0.433881
931.018369	0.434258
931.197398	0.433058
931.376409	0.432860
931.555402	0.430453
931.734377	0.428999
931.913334	0.427006
932.092272	0.425328
932.271192	0.424294
932.450094	0.422246
932.628978	0.420565
932.807844	0.419748
932.986691	0.416661
933.165520	0.415596
933.344331	0.413640
933.523123	0.412620
933.701898	0.411894
933.880654	0.410984
934.059392	0.409366
934.238111	0.407904
934.416813	0.405516
934.595496	0.405221
934.774161	0.404113
934.952808	0.401936
935.131437	0.400245
935.310047	0.399075
935.488639	0.397174
935.667213	0.395824
935.845769	0.392844
936.024306	0.392929
936.202825	0.391587
936.381326	0.391039
936.559809	0.391140
936.738274	0.390736
936.916720	0.390126
937.095148	0.389214
937.273558	0.387770
937.451950	0.387768
937.630323	0.385530
937.808678	0.383655
937.987015	0.381549
938.165334	0.379263
938.343635	0.376054
938.521917	0.373539
938.700181	0.371673
938.878427	0.372458
939.056655	0.371866
939.234864	0.370557
939.413055	0.369591
939.591228	0.368922
939.769383	0.369018
939.947519	0.368554
940.125638	0.366030
940.303738	0.363957
940.481820	0.360917
940.659883	0.357552
940.837929	0.356413
941.015956	0.354359
941.193965	0.351417
941.371955	0.349879
941.549928	0.348002
941.727882	0.347613
941.905818	0.347263
942.083736	0.346449
942.261636	0.345020
942.439517	0.341999
942.617380	0.341519
942.795225	0.340842
942.973052	0.338579
943.150860	0.338477
943.328651	0.337032
943.506423	0.334529
943.684176	0.332201
943.861912	0.330662
944.039629	0.330243
944.217328	0.328428
944.395009	0.326567
944.572672	0.324602
944.750317	0.321438
944.927943	0.319495
945.105551	0.318970
945.283141	0.317464
945.460712	0.316670
945.638265	0.316990
945.815801	0.314954
945.993317	0.314677
946.170816	0.312458
946.348297	0.313637
946.525759	0.312886
946.703203	0.310983
946.880629	0.310262
947.058036	0.309595
947.235425	0.306132
947.412797	0.304398
947.590149	0.300144
947.767484	0.299574
947.944800	0.296992
948.122099	0.293918
948.299379	0.291976
948.476640	0.289410
948.653884	0.287694
948.831109	0.288049
949.008316	0.287626
949.185505	0.288199
949.362676	0.285129
949.539828	0.282989
949.716962	0.283320
949.894078	0.282935
950.071176	0.280445
950.248256	0.278042
950.425317	0.274751
950.602360	0.271487
950.779385	0.271685
950.956391	0.271942
951.133380	0.271124
951.310350	0.269965
951.487302	0.268668
951.664235	0.267649
951.841151	0.265721
952.018048	0.263512
952.194927	0.262574
952.371788	0.259907
952.548631	0.259076
952.725455	0.255358
952.902261	0.253703
953.079049	0.251052
953.255819	0.251688
953.432570	0.252054
953.609303	0.252148
953.786018	0.252571
953.962715	0.251824
954.139394	0.250239
954.316054	0.251234
954.492696	0.250596
954.669320	0.250997
954.845926	0.248451
955.022513	0.245450
955.199083	0.245108
955.375634	0.243007
955.552166	0.242081
955.728681	0.239568
955.905177	0.237900
956.081655	0.235625
956.258115	0.233438
956.434557	0.234028
956.610980	0.232567
956.787385	0.229577
956.963772	0.229004
957.140141	0.227520
957.316492	0.227579
957.492824	0.226853
957.669138	0.226356
957.845434	0.225543
958.021712	0.222784
958.197971	0.222337
958.374212	0.220766
958.550435	0.217410
958.726640	0.215373
958.902826	0.213793
959.078995	0.211270
959.255145	0.210577
959.431277	0.210306
959.607390	0.207695
959.783486	0.206240
959.959563	0.205232
960.135622	0.207970
960.311662	0.208172
960.487685	0.207385
960.663689	0.207980
960.839675	0.206809
961.015643	0.203636
961.191593	0.207975
961.367524	0.206993
961.543437	0.207363
961.719332	0.204906
961.895209	0.203902
962.071067	0.203886
962.246907	0.203310
962.422730	0.200550
962.598533	0.204675
962.774319	0.200561
962.950086	0.198950
963.125835	0.197127
963.301566	0.197173
963.477279	0.195699
963.652973	0.194223
963.828650	0.196492
964.004308	0.197604
964.179947	0.193241
964.355569	0.193587
964.531172	0.197978
964.706757	0.197791
964.882324	0.197029
965.057873	0.197683
965.233403	0.197656
965.408916	0.194488
965.584410	0.193656
965.759885	0.195370
965.935343	0.193142
966.110782	0.191760
966.286203	0.193881
966.461606	0.192572
966.636991	0.192309
966.812357	0.193349
966.987705	0.192185
967.163035	0.193313
967.338347	0.191882
967.513641	0.192233
967.688916	0.190377
967.864173	0.188113
968.039412	0.188811
968.214632	0.187186
968.389835	0.186937
968.565019	0.188431
968.740185	0.185017
968.915333	0.185199
969.090462	0.185437
969.265573	0.187567
969.440667	0.186955
969.615741	0.188649
969.790798	0.188796
969.965836	0.186485
970.140856	0.185972
970.315858	0.188289
970.490842	0.187140
970.665808	0.187995
970.840755	0.184970
971.015684	0.187779
971.190595	0.186330
971.365487	0.187817
971.540362	0.190304
971.715218	0.190428
971.890056	0.190927
972.064875	0.192146
972.239677	0.191599
972.414460	0.192665
972.589225	0.189980
972.763972	0.191429
972.938700	0.188442
973.113411	0.185676
973.288103	0.184731
973.462777	0.182122
973.637432	0.182295
973.812070	0.181496
973.986689	0.181358
974.161290	0.184209
974.335873	0.182813
974.510437	0.185564
974.684984	0.185685
974.859512	0.185896
975.034022	0.188033
975.208513	0.184540
975.382987	0.184030
975.557442	0.184430
975.731879	0.182858
975.906298	0.182235
976.080698	0.181131
976.255080	0.181581
976.429445	0.182657
976.603790	0.179920
976.778118	0.181721
976.952427	0.181365
977.126719	0.181489
977.300992	0.181241
977.475246	0.179858
977.649483	0.176942
977.823701	0.176552
977.997901	0.174578
978.172083	0.177574
978.346247	0.176376
978.520392	0.179623
978.694519	0.179694
978.868628	0.180297
979.042719	0.180806
979.216791	0.184392
979.390845	0.189231
979.564882	0.192378
979.738899	0.191893
979.912899	0.195442
980.086880	0.193788
980.260843	0.192825
980.434788	0.193485
980.608715	0.193041
980.782623	0.191247
980.956514	0.189276
981.130386	0.189102
981.304240	0.190251
981.478075	0.188452
981.651892	0.186965
981.825692	0.186059
981.999472	0.183956
982.173235	0.184197
982.346980	0.186377
982.520706	0.183931
982.694414	0.181748
982.868104	0.179756
983.041775	0.181224
983.215428	0.182503
983.389064	0.183783
983.562680	0.183279
983.736279	0.184954
983.909860	0.183413
984.083422	0.185547
984.256966	0.185485
984.430491	0.187508
984.603999	0.186818
984.777488	0.187566
984.950959	0.187710
985.124412	0.188489
985.297847	0.187126
985.471263	0.188306
985.644661	0.188174
985.818041	0.188585
985.991403	0.188020
986.164747	0.186088
986.338072	0.184824
986.511379	0.184591
986.684668	0.185694
986.857938	0.187778
987.031191	0.186902
987.204425	0.186654
987.377641	0.187194
987.550839	0.185566
987.724018	0.187206
987.897179	0.188077
988.070322	0.188364
988.243447	0.186339
988.416554	0.184150
988.589642	0.183645
988.762712	0.181834
988.935764	0.179674
989.108798	0.181346
989.281813	0.179997
989.454811	0.179370
989.627790	0.180500
989.800751	0.184270
989.973693	0.185631
990.146617	0.187517
990.319524	0.190842
990.492412	0.191359
990.665281	0.189178
990.838133	0.189721
991.010966	0.189989
991.183781	0.188753
991.356578	0.188626
991.529356	0.188769
991.702117	0.188752
991.874859	0.185052
992.047583	0.183759
992.220288	0.185189
992.392976	0.186743
992.565645	0.186326
992.738296	0.187375
992.910929	0.186835
993.083543	0.186898
993.256139	0.185787
993.428718	0.187652
993.601277	0.190233
993.773819	0.190418
993.946342	0.189266
994.118848	0.189945
994.291335	0.189087
994.463803	0.187385
994.636254	0.186912
994.808686	0.184657
994.981100	0.183990
995.153496	0.183501
995.325874	0.183585
995.498233	0.182678
995.670574	0.182008
995.842897	0.182907
996.015202	0.184996
996.187488	0.185269
996.359757	0.187992
996.532007	0.190765
996.704239	0.189869
996.876452	0.191761
997.048648	0.193225
997.220825	0.193886
997.392984	0.192390
997.565124	0.190932
997.737247	0.191386
997.909351	0.191560
998.081437	0.188915
998.253505	0.189537
998.425554	0.188155
998.597586	0.187983
998.769599	0.188315
998.941594	0.187460
999.113571	0.185862
999.285529	0.185074
999.457469	0.184240
999.629391	0.182157
999.801295	0.179429
999.973181	0.180811
1000.145048	0.180476
1000.316897	0.182022
1000.488728	0.185190
1000.660541	0.185125
1000.832335	0.185910
1001.004111	0.187266
1001.175869	0.188806
1001.347609	0.190188
1001.519331	0.188186
1001.691034	0.189542
1001.862719	0.187238
1002.034386	0.185957
1002.206035	0.188433
1002.377665	0.188920
1002.549277	0.187259
1002.720871	0.187920
1002.892447	0.189369
1003.064004	0.191182
1003.235544	0.189227
1003.407065	0.188748
1003.578568	0.189572
1003.750052	0.190202
1003.921519	0.189787
1004.092967	0.189644
1004.264397	0.189192
1004.435809	0.189368
1004.607202	0.187591
1004.778577	0.188528
1004.949934	0.189953
1005.121273	0.188585
1005.292594	0.186296
1005.463896	0.184504
1005.635180	0.184207
1005.806446	0.183816
1005.977694	0.183303
1006.148923	0.181799
1006.320135	0.182992
1006.491328	0.181634
1006.662503	0.182244
1006.833659	0.182501
1007.004798	0.182527
1007.175918	0.183605
1007.347020	0.186019
1007.518103	0.188044
1007.689169	0.189605
1007.860216	0.188799
1008.031245	0.189982
1008.202256	0.190000
1008.373248	0.189455
1008.544223	0.189464
1008.715179	0.187980
1008.886117	0.186819
1009.057036	0.184275
1009.227938	0.184428
1009.398821	0.183589
1009.569686	0.181470
1009.740533	0.182285
1009.911361	0.182358
1010.082172	0.185217
1010.252964	0.186568
1010.423738	0.188184
1010.594493	0.187957
1010.765231	0.188439
1010.935950	0.189352
1011.106651	0.191577
1011.277334	0.190395
1011.447998	0.190458
1011.618645	0.189166
1011.789273	0.189540
1011.959882	0.186981
1012.130474	0.188064
1012.301048	0.186044
1012.471603	0.185649
1012.642140	0.184462
1012.812658	0.184218
1012.983159	0.182913
1013.153641	0.183283
1013.324105	0.184135
1013.494551	0.185518
1013.664979	0.186497
1013.835388	0.191263
1014.005779	0.190213
1014.176152	0.191704
1014.346507	0.192168
1014.516843	0.195834
1014.687162	0.194761
1014.857462	0.193123
1015.027744	0.191890
1015.198007	0.189904
1015.368252	0.187185
1015.538480	0.186620
1015.708689	0.184380
1015.878879	0.182634
1016.049052	0.180240
1016.219206	0.181948
1016.389342	0.181718
1016.559460	0.181369
1016.729559	0.182238
1016.899641	0.182412
1017.069704	0.183833
1017.239749	0.186352
1017.409775	0.188518
1017.579784	0.190644
1017.749774	0.187787
1017.919746	0.187041
1018.089700	0.187738
1018.259635	0.187452
1018.429553	0.185807
1018.599452	0.186115
1018.769333	0.186246
1018.939195	0.183902
1019.109040	0.182648
1019.278866	0.184276
1019.448674	0.185830
1019.618464	0.186769
1019.788235	0.187871
1019.957989	0.190714
1020.127724	0.189001
1020.297441	0.186877
1020.467139	0.188402
1020.636820	0.187670
1020.806482	0.188589
1020.976126	0.188382
1021.145752	0.187027
1021.315359	0.185484
1021.484948	0.183153
1021.654519	0.183994
1021.824072	0.184896
1021.993607	0.185713
1022.163123	0.187290
1022.332621	0.187301
1022.502101	0.186326
1022.671563	0.187053
1022.841007	0.188555
1023.010432	0.188507
1023.179839	0.189810
1023.349228	0.189674
1023.518598	0.187444
1023.687951	0.184256
1023.857285	0.180118
1024.026601	0.180136
1024.195899	0.179444
1024.365178	0.179988
1024.534439	0.181517
1024.703682	0.177698
1024.872907	0.176548
1025.042114	0.178320
1025.211302	0.179000
1025.380472	0.180897
1025.549624	0.181799
1025.718758	0.181559
1025.887873	0.180414
1026.056970	0.178182
1026.226049	0.181697
1026.395110	0.181641
1026.564153	0.179615
1026.733177	0.180862
1026.902183	0.181053
1027.071171	0.181831
1027.240141	0.181584
1027.409092	0.182255
1027.578026	0.182071
1027.746940	0.181097
1027.915837	0.181805
1028.084716	0.182773
1028.253576	0.182830
1028.422418	0.183344
1028.591242	0.182407
1028.760048	0.181109
1028.928835	0.179985
1029.097604	0.179211
1029.266355	0.180025
1029.435088	0.179636
1029.603803	0.178840
1029.772499	0.176853
1029.941177	0.177106
1030.109837	0.178845
1030.278478	0.178989
1030.447102	0.179568
1030.615707	0.180405
1030.784294	0.178045
1030.952863	0.179377
1031.121413	0.179929
1031.289945	0.182193
1031.458460	0.181098
1031.626955	0.179272
1031.795433	0.179621
1031.963892	0.179955
1032.132334	0.182155
1032.300756	0.183239
1032.469161	0.183276
1032.637548	0.182532
1032.805916	0.180146
1032.974266	0.183013
1033.142598	0.182175
1033.310911	0.184182
1033.479207	0.182275
1033.647484	0.180888
1033.815743	0.180055
1033.983983	0.179174
1034.152206	0.180273
1034.320410	0.182400
1034.488596	0.180338
1034.656764	0.181918
1034.824914	0.179789
1034.993045	0.179872
1035.161158	0.180339
1035.329253	0.180904
1035.497330	0.181259
1035.665388	0.183014
1035.833428	0.180526
1036.001450	0.182599
1036.169454	0.180474
1036.337440	0.180963
1036.505407	0.182835
1036.673356	0.182469
1036.841287	0.184359
1037.009200	0.184069
1037.177094	0.182738
1037.344970	0.183841
1037.512828	0.181370
1037.680668	0.183189
1037.848489	0.184494
1038.016293	0.182316
1038.184078	0.183319
1038.351845	0.182049
1038.519593	0.181444
1038.687324	0.179912
1038.855036	0.181530
1039.022730	0.182948
1039.190406	0.184116
1039.358063	0.184961
1039.525702	0.185473
1039.693323	0.183951
1039.860926	0.184714
1040.028511	0.184113
1040.196077	0.186230
1040.363625	0.185426
1040.531155	0.185434
1040.698667	0.183986
1040.866161	0.180913
1041.033636	0.181206
1041.201093	0.180829
1041.368532	0.180739
1041.535952	0.182974
1041.703355	0.180644
1041.870739	0.180631
1042.038105	0.178594
1042.205452	0.176220
1042.372782	0.179061
1042.540093	0.179020
1042.707386	0.178883
1042.874661	0.178453
1043.041918	0.177806
1043.209156	0.179425
1043.376376	0.180207
1043.543578	0.180035
1043.710762	0.181484
1043.877927	0.178070
1044.045074	0.177685
1044.212203	0.178192
1044.379314	0.178944
1044.546407	0.178146
1044.713481	0.179419
1044.880537	0.178674
1045.047575	0.179701
1045.214595	0.180669
1045.381596	0.181975
1045.548579	0.183944
1045.715544	0.183603
1045.882491	0.183738
1046.049420	0.182348
1046.216330	0.179513
1046.383222	0.179927
1046.550096	0.181736
1046.716951	0.181566
1046.883789	0.181224
1047.050608	0.181322
1047.217409	0.182433
1047.384192	0.180983
1047.550956	0.183472
1047.717703	0.183373
1047.884431	0.183716
1048.051140	0.181382
1048.217832	0.182439
1048.384505	0.184231
1048.551161	0.181661
1048.717798	0.180439
1048.884416	0.181733
1049.051017	0.180884
1049.217599	0.181542
1049.384163	0.179356
1049.550709	0.179410
1049.717237	0.178186
1049.883746	0.178004
1050.050237	0.178088
1050.216710	0.177886
1050.383165	0.177031
1050.549601	0.175057
1050.716019	0.175595
1050.882420	0.177566
1051.048801	0.178160
1051.215165	0.178610
1051.381510	0.180390
1051.547837	0.181219
1051.714146	0.181764
1051.880437	0.179596
1052.046709	0.180703
1052.212964	0.180468
1052.379200	0.179874
1052.545417	0.180900
1052.711617	0.183069
1052.877798	0.182328
1053.043961	0.181479
1053.210106	0.181248
1053.376233	0.183041
1053.542341	0.183263
1053.708432	0.183020
1053.874504	0.181247
1054.040557	0.177574
1054.206593	0.174793
1054.372610	0.172143
1054.538609	0.173537
1054.704590	0.175465
1054.870553	0.173238
1055.036497	0.173543
1055.202424	0.174917
1055.368331	0.177542
1055.534221	0.179501
1055.700093	0.180169
1055.865946	0.181518
1056.031781	0.181996
1056.197598	0.180813
1056.363397	0.182854
1056.529177	0.182730
1056.694939	0.182663
1056.860683	0.181009
1057.026409	0.180532
1057.192116	0.178785
1057.357806	0.177343
1057.523477	0.176552
1057.689130	0.176078
1057.854764	0.175033
1058.020381	0.176971
1058.185979	0.176425
1058.351559	0.178236
1058.517120	0.178097
1058.682664	0.178989
1058.848189	0.179493
1059.013696	0.178978
1059.179185	0.177791
1059.344656	0.178024
1059.510108	0.175793
1059.675542	0.175156
1059.840958	0.174181
1060.006356	0.173018
1060.171735	0.173612
1060.337096	0.173821
1060.502439	0.175552
1060.667764	0.177651
1060.833071	0.178105
1060.998359	0.178234
1061.163629	0.177875
1061.328881	0.178926
1061.494115	0.181051
1061.659330	0.179973
1061.824527	0.180668
1061.989706	0.177010
1062.154867	0.176035
1062.320010	0.177745
1062.485134	0.179371
1062.650240	0.181317
1062.815328	0.180834
1062.980398	0.181665
1063.145449	0.180494
1063.310482	0.181189
1063.475497	0.182217
1063.640494	0.180589
1063.805473	0.180775
1063.970433	0.181830
1064.135375	0.182719
1064.300299	0.180840
1064.465204	0.180680
1064.630092	0.182797
1064.794961	0.181554
1064.959812	0.184131
1065.124645	0.186379
1065.289459	0.185057
1065.454256	0.184669
1065.619034	0.182164
1065.783793	0.183883
1065.948535	0.184995
1066.113258	0.186614
1066.277964	0.187308
1066.442651	0.185851
1066.607319	0.187211
1066.771970	0.189135
1066.936602	0.186467
1067.101216	0.187590
1067.265812	0.186563
1067.430389	0.182090
1067.594949	0.178427
1067.759490	0.179331
1067.924013	0.179417
1068.088518	0.178688
1068.253004	0.177863
1068.417472	0.179525
1068.581922	0.181904
1068.746354	0.182723
1068.910768	0.186156
1069.075163	0.189028
1069.239540	0.188548
1069.403899	0.189532
1069.568240	0.190142
1069.732562	0.189817
1069.896866	0.192045
1070.061152	0.189346
1070.225420	0.191118
1070.389670	0.192732
1070.553901	0.191751
1070.718114	0.191725
1070.882309	0.189862
1071.046486	0.189323
1071.210644	0.188807
1071.374784	0.184264
1071.538906	0.185791
1071.703010	0.183007
1071.867096	0.182527
1072.031163	0.183516
1072.195212	0.183236
1072.359243	0.185332
1072.523256	0.186805
1072.687250	0.186295
1072.851226	0.187084
1073.015184	0.184422
1073.179124	0.186078
1073.343045	0.183843
1073.506949	0.184595
1073.670834	0.183375
1073.834701	0.182365
1073.998549	0.181695
1074.162380	0.183621
1074.326192	0.185466
1074.489986	0.187478
1074.653761	0.185989
1074.817519	0.185150
1074.981258	0.182553
1075.144979	0.182820
1075.308682	0.182038
1075.472367	0.179988
1075.636033	0.181958
1075.799681	0.179340
1075.963311	0.181031
1076.126923	0.183739
1076.290516	0.186902
1076.454092	0.188550
1076.617649	0.191292
1076.781187	0.195313
1076.944708	0.196286
1077.108210	0.193080
1077.271695	0.195707
1077.435160	0.190849
1077.598608	0.191161
1077.762038	0.189905
1077.925449	0.188856
1078.088842	0.188122
1078.252217	0.184682
1078.415573	0.181646
1078.578912	0.182626
1078.742232	0.179941
1078.905534	0.181464
1079.068817	0.182176
1079.232083	0.183917
1079.395330	0.186606
1079.558559	0.185840
1079.721770	0.185914
1079.884962	0.188109
1080.048136	0.189902
1080.211293	0.193832
1080.374430	0.197349
1080.537550	0.197105
1080.700651	0.198332
1080.863735	0.197305
1081.026800	0.200018
1081.189846	0.202244
1081.352875	0.205438
1081.515885	0.201817
1081.678877	0.200986
1081.841851	0.196184
1082.004807	0.194056
1082.167744	0.194795
1082.330663	0.194091
1082.493564	0.191303
1082.656447	0.190131
1082.819312	0.187778
1082.982158	0.187507
1083.144986	0.188139
1083.307796	0.192917
1083.470587	0.190794
1083.633361	0.188012
1083.796116	0.188260
1083.958853	0.190114
1084.121571	0.190104
1084.284272	0.190728
1084.446954	0.192446
1084.609618	0.191149
1084.772264	0.189221
1084.934892	0.192427
1085.097501	0.190216
1085.260092	0.190368
1085.422665	0.188951
1085.585220	0.189105
1085.747756	0.187339
1085.910274	0.186911
1086.072774	0.186763
1086.235256	0.188271
1086.397720	0.189327
1086.560165	0.190719
1086.722592	0.190615
1086.885001	0.189860
1087.047392	0.189322
1087.209764	0.189901
1087.372119	0.188987
1087.534455	0.189408
1087.696772	0.190686
1087.859072	0.189549
1088.021353	0.187908
1088.183616	0.186340
1088.345861	0.186691
1088.508088	0.185917
1088.670296	0.186704
1088.832486	0.188169
1088.994658	0.187994
1089.156812	0.183432
1089.318948	0.182774
1089.481065	0.184288
1089.643164	0.188834
1089.805245	0.187546
1089.967308	0.189448
1090.129352	0.187010
1090.291378	0.184517
1090.453386	0.184187
1090.615376	0.186708
1090.777347	0.187869
1090.939301	0.186678
1091.101236	0.187006
1091.263153	0.188829
1091.425051	0.187050
1091.586932	0.187286
1091.748794	0.191235
1091.910638	0.194065
1092.072463	0.192449
1092.234271	0.193464
1092.396060	0.195664
1092.557831	0.192983
1092.719584	0.192061
1092.881319	0.195981
1093.043035	0.201601
1093.204733	0.197598
1093.366413	0.193209
1093.528075	0.192089
1093.689718	0.190043
1093.851343	0.190951
1094.012950	0.190151
1094.174539	0.189404
1094.336110	0.189489
1094.497662	0.185534
1094.659196	0.185993
1094.820712	0.187265
1094.982210	0.186760
1095.143689	0.186357
1095.305151	0.187445
1095.466594	0.187157
1095.628018	0.188872
1095.789425	0.190529
1095.950813	0.193795
1096.112183	0.193135
1096.273535	0.191325
1096.434869	0.193017
1096.596184	0.193583
1096.757482	0.192722
1096.918761	0.191307
1097.080021	0.191069
1097.241264	0.191794
1097.402488	0.189924
1097.563694	0.192023
1097.724882	0.196767
1097.886052	0.194568
1098.047203	0.195564
1098.208336	0.191174
1098.369451	0.193408
1098.530548	0.195848
1098.691627	0.190730
1098.852687	0.189971
1099.013729	0.192824
1099.174753	0.185227
1099.335758	0.189381
1099.496746	0.187361
1099.657715	0.191826
1099.818666	0.189833
1099.979599	0.185338
1100.140513	0.186174
1100.301409	0.186657
1100.462287	0.180484
1100.623147	0.189317
1100.783989	0.186889
1100.944812	0.185181
1101.105617	0.184359
1101.266404	0.184906
1101.427173	0.189746
1101.587923	0.189414
1101.748656	0.188271
1101.909370	0.189451
1102.070066	0.185384
1102.230743	0.185279
1102.391403	0.189397
1102.552044	0.188662
1102.712667	0.191083
1102.873271	0.186534
1103.033858	0.183699
1103.194426	0.185446
1103.354976	0.184705
1103.515508	0.186094
1103.676021	0.192851
1103.836517	0.193502
1103.996994	0.199228
1104.157453	0.199635
1104.317893	0.198756
1104.478316	0.197935
1104.638720	0.198230
1104.799106	0.200606
1104.959474	0.202294
1105.119823	0.196142
1105.280155	0.188788
1105.440468	0.180113
1105.600763	0.177739
1105.761039	0.187118
1105.921298	0.186631
1106.081538	0.183047
1106.241760	0.187875
1106.401964	0.189583
1106.562149	0.189781
1106.722316	0.200396
1106.882465	0.200119
1107.042596	0.202737
1107.202709	0.197255
1107.362803	0.203734
1107.522879	0.200964
1107.682937	0.194931
1107.842977	0.191210
1108.002999	0.186902
1108.163002	0.183505
1108.322987	0.187168
1108.482954	0.182410
1108.642902	0.182196
1108.802833	0.181269
1108.962745	0.191042
1109.122639	0.194987
1109.282515	0.194910
1109.442372	0.194932
1109.602211	0.191810
1109.762032	0.194927
1109.921835	0.196955
1110.081620	0.197994
1110.241386	0.194479
1110.401134	0.188761
1110.560864	0.189596
1110.720576	0.188492
1110.880269	0.196873
1111.039945	0.203612
1111.199602	0.200291
1111.359240	0.200144
1111.518861	0.200466
1111.678463	0.205408
1111.838047	0.207193
1111.997613	0.205165
1112.157161	0.205261
1112.316690	0.201878
1112.476202	0.194582
1112.635695	0.188777
1112.795169	0.189891
1112.954626	0.190393
1113.114064	0.185586
1113.273484	0.185015
1113.432886	0.181817
1113.592270	0.181080
1113.751635	0.179248
1113.910983	0.184442
1114.070312	0.187614
1114.229622	0.192684
1114.388915	0.188293
1114.548189	0.191103
1114.707445	0.194776
1114.866683	0.199771
1115.025903	0.203241
1115.185104	0.203740
1115.344287	0.206247
1115.503452	0.208103
1115.662599	0.200881
1115.821727	0.205069
1115.980838	0.199376
1116.139930	0.200947
1116.299004	0.197277
1116.458059	0.192141
1116.617097	0.197502
1116.776116	0.192734
1116.935117	0.193606
1117.094099	0.196231
1117.253064	0.193913
1117.412010	0.198353
1117.570938	0.194432
1117.729848	0.203620
1117.888740	0.211596
1118.047613	0.203961
1118.206468	0.200245
1118.365305	0.200759
1118.524124	0.201228
1118.682924	0.195000
1118.841707	0.194726
1119.000471	0.196256
1119.159216	0.188186
1119.317944	0.184110
1119.476653	0.187791
1119.635344	0.182978
1119.794017	0.182592
1119.952672	0.183013
1120.111308	0.192869
1120.269927	0.194924
1120.428527	0.189561
1120.587108	0.192695
1120.745672	0.192507
1120.904217	0.191395
1121.062744	0.201194
1121.221253	0.195974
1121.379744	0.199753
1121.538216	0.197372
1121.696671	0.197394
1121.855107	0.198983
1122.013524	0.191961
1122.171924	0.194865
1122.330305	0.196593
1122.488668	0.194857
1122.647013	0.202173
1122.805340	0.192907
1122.963648	0.188659
1123.121938	0.186339
1123.280210	0.185678
1123.438464	0.188018
1123.596700	0.181139
1123.754917	0.181057
1123.913116	0.177686
1124.071297	0.172223
1124.229459	0.177768
1124.387604	0.184437
1124.545730	0.178550
1124.703838	0.181692
1124.861928	0.190059
1125.019999	0.193958
1125.178052	0.194373
1125.336088	0.196613
1125.494104	0.197567
1125.652103	0.198142
1125.810083	0.194844
1125.968045	0.202075
1126.125989	0.203174
1126.283915	0.198439
1126.441823	0.201220
1126.599712	0.199232
1126.757583	0.199423
1126.915436	0.206436
1127.073270	0.202504
1127.231087	0.199989
1127.388885	0.200939
1127.546665	0.193333
1127.704426	0.192842
1127.862170	0.193836
1128.019895	0.193258
1128.177602	0.193913
1128.335291	0.187673
1128.492961	0.187568
1128.650614	0.189776
1128.808248	0.194302
1128.965864	0.193342
1129.123461	0.196555
1129.281041	0.187520
1129.438602	0.192349
1129.596145	0.186587
1129.753670	0.187587
1129.911176	0.188856
1130.068665	0.188343
1130.226135	0.183197
1130.383587	0.182994
1130.541020	0.173585
1130.698436	0.179351
1130.855833	0.175704
1131.013212	0.184563
1131.170573	0.190581
1131.327915	0.194561
1131.485239	0.192255
1131.642545	0.185067
1131.799833	0.194908
1131.957103	0.200549
1132.114354	0.201122
1132.271588	0.207032
1132.428803	0.202367
1132.585999	0.198973
1132.743178	0.189717
1132.900338	0.193319
1133.057480	0.205111
1133.214604	0.198346
1133.371710	0.195289
1133.528797	0.193420
1133.685866	0.181803
1133.842917	0.183616
1133.999950	0.179985
1134.156964	0.182617
1134.313960	0.173117
1134.470938	0.167242
1134.627898	0.174297
1134.784840	0.170863
1134.941763	0.171039
1135.098668	0.174550
1135.255555	0.171552
1135.412424	0.167930
1135.569274	0.176510
1135.726107	0.187106
1135.882921	0.185894
1136.039716	0.180717
1136.196494	0.186578
1136.353253	0.197725
1136.509995	0.201519
1136.666717	0.206859
1136.823422	0.208639
1136.980109	0.205776
1137.136777	0.204442
1137.293427	0.205824
1137.450059	0.203961
1137.606672	0.200602
1137.763267	0.195060
1137.919844	0.190797
1138.076403	0.195289
1138.232944	0.201944
1138.389466	0.194738
1138.545971	0.192681
1138.702457	0.197747
1138.858924	0.196226
1139.015374	0.203950
1139.171805	0.194017
1139.328218	0.193026
1139.484613	0.180877
1139.640990	0.178215
1139.797348	0.178980
1139.953688	0.182294
1140.110010	0.182061
1140.266314	0.186143
1140.422600	0.184194
1140.578867	0.189992
1140.735116	0.192535
1140.891347	0.191002
1141.047559	0.192209
1141.203754	0.196820
1141.359930	0.194564
1141.516088	0.190321
1141.672228	0.192050
1141.828349	0.182407
1141.984452	0.185386
1142.140537	0.182787
1142.296604	0.188105
1142.452653	0.181285
1142.608683	0.177723
1142.764695	0.176935
1142.920689	0.179536
1143.076665	0.182658
1143.232622	0.191499
1143.388562	0.188828
1143.544483	0.186799
1143.700385	0.184373
1143.856270	0.186962
1144.012136	0.179170
1144.167985	0.171783
1144.323814	0.173673
1144.479626	0.164263
1144.635420	0.156904
1144.791195	0.161936
1144.946952	0.172273
1145.102691	0.162716
1145.258411	0.172497
1145.414113	0.180899
1145.569798	0.188908
1145.725463	0.183356
1145.881111	0.190015
1146.036741	0.195489
1146.192352	0.184550
1146.347945	0.182821
1146.503519	0.196578
1146.659076	0.191959
1146.814614	0.201537
1146.970134	0.203076
1147.125636	0.204482
1147.281120	0.205187
1147.436585	0.207154
1147.592032	0.210951
1147.747461	0.205176
1147.902872	0.204951
1148.058265	0.206317
1148.213639	0.196628
1148.368995	0.194948
1148.524333	0.184595
1148.679653	0.187595
1148.834954	0.191012
1148.990237	0.193520
1149.145502	0.196031
1149.300749	0.188879
1149.455977	0.176543
1149.611188	0.175372
1149.766380	0.169324
1149.921553	0.177860
1150.076709	0.165624
1150.231846	0.157866
1150.386966	0.152026
1150.542066	0.154781
1150.697149	0.162507
1150.852214	0.167288
1151.007260	0.174601
1151.162288	0.180941
1151.317298	0.189415
1151.472289	0.204815
1151.627263	0.200818
1151.782218	0.200097
1151.937155	0.197801
1152.092073	0.191486
1152.246974	0.188232
1152.401856	0.183397
1152.556720	0.184986
1152.711566	0.177924
1152.866393	0.172591
1153.021203	0.178514
1153.175994	0.179588
1153.330767	0.176907
1153.485521	0.191258
1153.640258	0.199262
1153.794976	0.188318
1153.949676	0.189294
1154.104358	0.179839
1154.259021	0.174783
1154.413667	0.182005
1154.568294	0.183632
1154.722903	0.174158
1154.877493	0.161124
1155.032066	0.154479
1155.186620	0.165143
1155.341156	0.161064
1155.495674	0.169997
1155.650173	0.173683
1155.804654	0.165893
1155.959118	0.166683
1156.113562	0.179431
1156.267989	0.189211
1156.422397	0.194912
1156.576788	0.191588
1156.731160	0.195909
1156.885513	0.190903
1157.039849	0.187403
1157.194166	0.195356
1157.348465	0.206561
1157.502746	0.195685
1157.657009	0.191893
1157.811253	0.201012
1157.965479	0.197008
1158.119687	0.187794
1158.273877	0.205670
1158.428048	0.199192
1158.582201	0.192709
1158.736337	0.181337
1158.890453	0.194953
1159.044552	0.190066
1159.198632	0.185593
1159.352694	0.193323
1159.506738	0.197234
1159.660764	0.187669
1159.814771	0.193077
1159.968761	0.188813
1160.122732	0.188983
1160.276685	0.188266
1160.430619	0.181949
1160.584535	0.178956
1160.738434	0.173146
1160.892313	0.176691
1161.046175	0.162409
1161.200019	0.164108
1161.353844	0.165115
1161.507651	0.164938
1161.661440	0.154982
1161.815210	0.154636
1161.968962	0.145173
1162.122697	0.140047
1162.276412	0.142814
1162.430110	0.150842
1162.583789	0.150184
1162.737451	0.155697
1162.891094	0.164241
1163.044718	0.159613
1163.198325	0.166053
1163.351913	0.173415
1163.505483	0.176708
1163.659035	0.154297
1163.812569	0.153868
1163.966084	0.147786
1164.119581	0.141949
1164.273060	0.131059
1164.426521	0.125941
1164.579964	0.121027
1164.733388	0.116590
1164.886794	0.116367
1165.040182	0.131337
1165.193551	0.128572
1165.346903	0.138418
1165.500236	0.133915
1165.653551	0.131864
1165.806848	0.146017
1165.960126	0.146791
1166.113386	0.139399
1166.266628	0.142255
1166.419852	0.131996
1166.573058	0.135673
1166.726245	0.132810
1166.879414	0.141938
1167.032565	0.135697
1167.185698	0.127697
1167.338812	0.121602
1167.491909	0.135543
1167.644987	0.125688
1167.798046	0.136772
1167.951088	0.129038
1168.104111	0.125651
1168.257117	0.127678
1168.410103	0.129429
1168.563072	0.129840
1168.716023	0.144945
1168.868955	0.128434
1169.021869	0.149554
1169.174765	0.145113
1169.327642	0.155367
1169.480501	0.147143
1169.633343	0.137602
1169.786165	0.128855
1169.938970	0.136084
1170.091757	0.114881
1170.244525	0.118105
1170.397275	0.117386
1170.550007	0.107455
1170.702720	0.101947
1170.855415	0.106639
1171.008092	0.107011
1171.160751	0.117825
1171.313392	0.112412
1171.466014	0.121760
1171.618619	0.122794
1171.771205	0.122794
1171.923772	0.122794
