sample name	sample
index	1179
start time	 04-26-2021  11:37:20 AM


Wavelength (nm)	Absorbance
494.344910	-0.167449
494.563924	-0.167449
494.782919	-0.167449
495.001897	0.796461
495.220856	-0.069472
495.439797	-0.028605
495.658719	0.093134
495.877624	0.054821
496.096510	-0.007155
496.315378	-0.024083
496.534227	0.082587
496.753059	0.190586
496.971872	0.065954
497.190667	0.049368
497.409444	0.059285
497.628203	0.056483
497.846943	0.057994
498.065665	0.058085
498.284369	0.056348
498.503055	0.056896
498.721723	0.056116
498.940372	0.056278
499.159003	0.057471
499.377616	0.056300
499.596210	0.055355
499.814787	0.056145
500.033345	0.056032
500.251885	0.055741
500.470406	0.055368
500.688910	0.056893
500.907395	0.058482
501.125862	0.056676
501.344311	0.056148
501.562742	0.055493
501.781154	0.054892
501.999548	0.054424
502.217924	0.055308
502.436282	0.055205
502.654621	0.054327
502.872942	0.054065
503.091245	0.055306
503.309530	0.056278
503.527797	0.058348
503.746045	0.058222
503.964275	0.058454
504.182487	0.058714
504.400681	0.058728
504.618856	0.059277
504.837013	0.058702
505.055152	0.059640
505.273273	0.059081
505.491376	0.058296
505.709460	0.058288
505.927526	0.058293
506.145574	0.058385
506.363604	0.058782
506.581615	0.058972
506.799608	0.059185
507.017583	0.057647
507.235540	0.058583
507.453478	0.058639
507.671399	0.059043
507.889301	0.059006
508.107185	0.059126
508.325050	0.058530
508.542898	0.058003
508.760727	0.057693
508.978538	0.057614
509.196330	0.057919
509.414105	0.058062
509.631861	0.058394
509.849599	0.059249
510.067319	0.058520
510.285021	0.059425
510.502704	0.060136
510.720369	0.060569
510.938016	0.061663
511.155645	0.061919
511.373255	0.061323
511.590848	0.061202
511.808422	0.061186
512.025977	0.062470
512.243515	0.062381
512.461034	0.061691
512.678536	0.062391
512.896018	0.061837
513.113483	0.061029
513.330930	0.062296
513.548358	0.062231
513.765768	0.061746
513.983160	0.061753
514.200533	0.061775
514.417889	0.062355
514.635226	0.061879
514.852545	0.062000
515.069845	0.062134
515.287128	0.061482
515.504392	0.061594
515.721638	0.061742
515.938866	0.061398
516.156075	0.061153
516.373267	0.061114
516.590440	0.061671
516.807594	0.061892
517.024731	0.061563
517.241850	0.061660
517.458950	0.061655
517.676032	0.062008
517.893095	0.062887
518.110141	0.062940
518.327168	0.062321
518.544177	0.061600
518.761168	0.062421
518.978141	0.062390
519.195095	0.061707
519.412031	0.061868
519.628949	0.061788
519.845849	0.060493
520.062731	0.060876
520.279594	0.061061
520.496439	0.061448
520.713266	0.060893
520.930074	0.061705
521.146865	0.062747
521.363637	0.063211
521.580391	0.063194
521.797127	0.063748
522.013844	0.063309
522.230543	0.064028
522.447224	0.064367
522.663887	0.064633
522.880532	0.064622
523.097158	0.064866
523.313766	0.065409
523.530356	0.065724
523.746928	0.065768
523.963481	0.066790
524.180017	0.066190
524.396534	0.066502
524.613032	0.066687
524.829513	0.066671
525.045975	0.066516
525.262420	0.065952
525.478845	0.066014
525.695253	0.066960
525.911643	0.066804
526.128014	0.068251
526.344367	0.068121
526.560702	0.068703
526.777018	0.069308
526.993316	0.069452
527.209597	0.070631
527.425858	0.070874
527.642102	0.070576
527.858328	0.070857
528.074535	0.070115
528.290724	0.070510
528.506894	0.070732
528.723047	0.070433
528.939181	0.070689
529.155297	0.069814
529.371395	0.070906
529.587475	0.070749
529.803536	0.071226
530.019579	0.071778
530.235604	0.071897
530.451611	0.071763
530.667600	0.072258
530.883570	0.073143
531.099522	0.073818
531.315456	0.073211
531.531372	0.073764
531.747269	0.073154
531.963148	0.073693
532.179009	0.074041
532.394852	0.074176
532.610676	0.074611
532.826482	0.074736
533.042271	0.074637
533.258040	0.074839
533.473792	0.075278
533.689525	0.076007
533.905240	0.076068
534.120937	0.076447
534.336616	0.076681
534.552277	0.076578
534.767919	0.076657
534.983543	0.077399
535.199149	0.077794
535.414736	0.077752
535.630306	0.077779
535.845857	0.077872
536.061390	0.078414
536.276904	0.078513
536.492401	0.078785
536.707879	0.078395
536.923339	0.078295
537.138781	0.078629
537.354204	0.079127
537.569610	0.079286
537.784997	0.079345
538.000366	0.079238
538.215716	0.079559
538.431049	0.080009
538.646363	0.080524
538.861659	0.081157
539.076937	0.081502
539.292196	0.082013
539.507438	0.082083
539.722661	0.082922
539.937866	0.082850
540.153052	0.082657
540.368221	0.082293
540.583371	0.081974
540.798503	0.081662
541.013617	0.081552
541.228712	0.081629
541.443789	0.081832
541.658848	0.081521
541.873889	0.081783
542.088912	0.082324
542.303916	0.082891
542.518902	0.083677
542.733870	0.084094
542.948820	0.084393
543.163752	0.084293
543.378665	0.084747
543.593560	0.084874
543.808437	0.085169
544.023295	0.085564
544.238136	0.085459
544.452958	0.085410
544.667762	0.085440
544.882548	0.085830
545.097315	0.086604
545.312064	0.086817
545.526795	0.086956
545.741508	0.086933
545.956203	0.087033
546.170879	0.086982
546.385537	0.087409
546.600177	0.087520
546.814799	0.087248
547.029402	0.086887
547.243988	0.087372
547.458555	0.088003
547.673103	0.088428
547.887634	0.088755
548.102146	0.089615
548.316640	0.089533
548.531116	0.089587
548.745574	0.090009
548.960013	0.090278
549.174435	0.089893
549.388838	0.090200
549.603222	0.090119
549.817589	0.090522
550.031937	0.090477
550.246267	0.091222
550.460579	0.091404
550.674873	0.091625
550.889148	0.091994
551.103405	0.092278
551.317644	0.092033
551.531865	0.092100
551.746068	0.091631
551.960252	0.091708
552.174418	0.091222
552.388566	0.092013
552.602696	0.092247
552.816807	0.092354
553.030900	0.092256
553.244975	0.092447
553.459032	0.092842
553.673070	0.092860
553.887091	0.093284
554.101093	0.093704
554.315077	0.093634
554.529042	0.093383
554.742990	0.093572
554.956919	0.094338
555.170830	0.094352
555.384722	0.094510
555.598597	0.095084
555.812453	0.095271
556.026291	0.095337
556.240111	0.095754
556.453913	0.096408
556.667696	0.096072
556.881461	0.096209
557.095208	0.096402
557.308937	0.096789
557.522647	0.097293
557.736339	0.097824
557.950013	0.098122
558.163669	0.097804
558.377307	0.098097
558.590926	0.098631
558.804527	0.098850
559.018110	0.099201
559.231675	0.099588
559.445221	0.099493
559.658749	0.099046
559.872259	0.099001
560.085751	0.099366
560.299225	0.099384
560.512680	0.098965
560.726117	0.098896
560.939536	0.099138
561.152937	0.098679
561.366319	0.098852
561.579683	0.099197
561.793029	0.099502
562.006357	0.099630
562.219667	0.099770
562.432958	0.100327
562.646231	0.100476
562.859486	0.100719
563.072723	0.101491
563.285941	0.101597
563.499141	0.101853
563.712323	0.102075
563.925487	0.102324
564.138632	0.102401
564.351760	0.102894
564.564869	0.103354
564.777960	0.103416
564.991032	0.103091
565.204087	0.103313
565.417123	0.103341
565.630141	0.103671
565.843140	0.103774
566.056122	0.104232
566.269085	0.103871
566.482030	0.103656
566.694957	0.104048
566.907866	0.104418
567.120756	0.104350
567.333628	0.104236
567.546482	0.104301
567.759318	0.104434
567.972135	0.104504
568.184935	0.104896
568.397716	0.105228
568.610478	0.105183
568.823223	0.105256
569.035949	0.105324
569.248657	0.105658
569.461347	0.105756
569.674019	0.106158
569.886672	0.106270
570.099308	0.106379
570.311925	0.106271
570.524523	0.106058
570.737104	0.105959
570.949666	0.106125
571.162210	0.106284
571.374736	0.106492
571.587244	0.106320
571.799733	0.106226
572.012205	0.106555
572.224658	0.106910
572.437092	0.107496
572.649509	0.107773
572.861907	0.108405
573.074287	0.108716
573.286649	0.108803
573.498993	0.108831
573.711318	0.109187
573.923625	0.109115
574.135914	0.108723
574.348185	0.108578
574.560438	0.108906
574.772672	0.108565
574.984888	0.108391
575.197086	0.108581
575.409266	0.108896
575.621427	0.109129
575.833570	0.109427
576.045695	0.109822
576.257802	0.110118
576.469890	0.110178
576.681961	0.110344
576.894013	0.111036
577.106046	0.110864
577.318062	0.110980
577.530059	0.110896
577.742039	0.110992
577.954000	0.111205
578.165942	0.111263
578.377867	0.111420
578.589773	0.111914
578.801661	0.112066
579.013531	0.112628
579.225382	0.112687
579.437216	0.112315
579.649031	0.112712
579.860828	0.113039
580.072606	0.113294
580.284367	0.113505
580.496109	0.113165
580.707833	0.113202
580.919539	0.113522
581.131227	0.113643
581.342896	0.114124
581.554547	0.113794
581.766180	0.113756
581.977795	0.114002
582.189391	0.113967
582.400969	0.114466
582.612529	0.114077
582.824071	0.113873
583.035595	0.114217
583.247100	0.114587
583.458587	0.115139
583.670056	0.115551
583.881506	0.115711
584.092939	0.115907
584.304353	0.115812
584.515749	0.116357
584.727127	0.116691
584.938486	0.116819
585.149828	0.116868
585.361151	0.116757
585.572456	0.116816
585.783742	0.116950
585.995011	0.117195
586.206261	0.118140
586.417493	0.118428
586.628706	0.118915
586.839902	0.119297
587.051079	0.119500
587.262238	0.119801
587.473379	0.120010
587.684502	0.120163
587.895606	0.120516
588.106692	0.120026
588.317760	0.119904
588.528810	0.119601
588.739841	0.119919
588.950855	0.120232
589.161850	0.120291
589.372827	0.120544
589.583785	0.120574
589.794726	0.120224
590.005648	0.120578
590.216552	0.120602
590.427437	0.120883
590.638305	0.120620
590.849154	0.120773
591.059985	0.120910
591.270798	0.121070
591.481592	0.121733
591.692369	0.122276
591.903127	0.121892
592.113867	0.122296
592.324588	0.123020
592.535292	0.123469
592.745977	0.123416
592.956644	0.123755
593.167293	0.123823
593.377923	0.123479
593.588536	0.123740
593.799130	0.124531
594.009706	0.124814
594.220263	0.123983
594.430803	0.124241
594.641324	0.124450
594.851827	0.124367
595.062312	0.124519
595.272778	0.124613
595.483227	0.124634
595.693657	0.124586
595.904069	0.124522
596.114462	0.125287
596.324838	0.125226
596.535195	0.125455
596.745534	0.125915
596.955855	0.126238
597.166157	0.126532
597.376441	0.126861
597.586707	0.127172
597.796955	0.127510
598.007185	0.127238
598.217396	0.127390
598.427589	0.127476
598.637764	0.127542
598.847921	0.127644
599.058060	0.127942
599.268180	0.128050
599.478282	0.127868
599.688366	0.128046
599.898431	0.128560
600.108479	0.128786
600.318508	0.129199
600.528519	0.129486
600.738511	0.129606
600.948486	0.129497
601.158442	0.129503
601.368380	0.129945
601.578300	0.130084
601.788202	0.130432
601.998085	0.130571
602.207950	0.130899
602.417797	0.131215
602.627626	0.131340
602.837436	0.131638
603.047228	0.131776
603.257002	0.131912
603.466758	0.131975
603.676496	0.131828
603.886215	0.131848
604.095916	0.132047
604.305599	0.131720
604.515264	0.132014
604.724910	0.132363
604.934538	0.132705
605.144148	0.132858
605.353740	0.132990
605.563314	0.133217
605.772869	0.133446
605.982406	0.133178
606.191925	0.133494
606.401425	0.133692
606.610908	0.133648
606.820372	0.133903
607.029818	0.134206
607.239246	0.134647
607.448655	0.134768
607.658047	0.134769
607.867420	0.134879
608.076775	0.135231
608.286111	0.135375
608.495430	0.135490
608.704730	0.135447
608.914012	0.135491
609.123275	0.135436
609.332521	0.135460
609.541748	0.135435
609.750957	0.135575
609.960148	0.135703
610.169321	0.135649
610.378475	0.135907
610.587611	0.136019
610.796729	0.136239
611.005829	0.136251
611.214910	0.136559
611.423974	0.136928
611.633019	0.137090
611.842045	0.137128
612.051054	0.137106
612.260044	0.137210
612.469017	0.137484
612.677970	0.137463
612.886906	0.137657
613.095824	0.137434
613.304723	0.137846
613.513604	0.138305
613.722467	0.138496
613.931311	0.138868
614.140138	0.139080
614.348946	0.139060
614.557736	0.139358
614.766507	0.139638
614.975261	0.140032
615.183996	0.139875
615.392713	0.139936
615.601412	0.140041
615.810092	0.139931
616.018754	0.140115
616.227399	0.140501
616.436024	0.140611
616.644632	0.140935
616.853222	0.141285
617.061793	0.141608
617.270346	0.141825
617.478880	0.141920
617.687397	0.142370
617.895895	0.142446
618.104375	0.142452
618.312837	0.142778
618.521281	0.142675
618.729706	0.142948
618.938113	0.143108
619.146502	0.142931
619.354873	0.143242
619.563226	0.143200
619.771560	0.143247
619.979876	0.143375
620.188174	0.143211
620.396453	0.143419
620.604715	0.143463
620.812958	0.143410
621.021183	0.143519
621.229390	0.143330
621.437578	0.143369
621.645748	0.143500
621.853900	0.143555
622.062034	0.143857
622.270150	0.144052
622.478247	0.144181
622.686326	0.144380
622.894387	0.144638
623.102430	0.144995
623.310454	0.145391
623.518461	0.145816
623.726449	0.146107
623.934418	0.146156
624.142370	0.146256
624.350303	0.146204
624.558218	0.146321
624.766115	0.146396
624.973994	0.146272
625.181855	0.146236
625.389697	0.146085
625.597521	0.146255
625.805327	0.146444
626.013114	0.146450
626.220883	0.146629
626.428634	0.147016
626.636367	0.147137
626.844082	0.147371
627.051778	0.147608
627.259457	0.147911
627.467117	0.147908
627.674758	0.147827
627.882382	0.148076
628.089987	0.148028
628.297574	0.148062
628.505143	0.148300
628.712694	0.148357
628.920226	0.148615
629.127740	0.148783
629.335236	0.148808
629.542714	0.149043
629.750174	0.149129
629.957615	0.149426
630.165038	0.149502
630.372443	0.149641
630.579829	0.150184
630.787198	0.150127
630.994548	0.150207
631.201880	0.150339
631.409194	0.150645
631.616489	0.150926
631.823766	0.151190
632.031025	0.151302
632.238266	0.151475
632.445489	0.151601
632.652693	0.151497
632.859879	0.151314
633.067047	0.151490
633.274197	0.151400
633.481329	0.151130
633.688442	0.151039
633.895537	0.151256
634.102614	0.151334
634.309672	0.151047
634.516713	0.151439
634.723735	0.151898
634.930739	0.152314
635.137724	0.152475
635.344692	0.153018
635.551641	0.153037
635.758572	0.153213
635.965485	0.153471
636.172379	0.153709
636.379256	0.153873
636.586114	0.153879
636.792954	0.153870
636.999775	0.154104
637.206579	0.154110
637.413364	0.154660
637.620131	0.154754
637.826880	0.154801
638.033610	0.155018
638.240323	0.155250
638.447017	0.155460
638.653692	0.155384
638.860350	0.155608
639.066990	0.155607
639.273611	0.155610
639.480214	0.155642
639.686798	0.155722
639.893365	0.156107
640.099913	0.156278
640.306443	0.156635
640.512955	0.156996
640.719449	0.157118
640.925924	0.157637
641.132381	0.157916
641.338820	0.158254
641.545241	0.158595
641.751644	0.158703
641.958028	0.159194
642.164394	0.159318
642.370742	0.159762
642.577071	0.160041
642.783383	0.160125
642.989676	0.160350
643.195951	0.160570
643.402207	0.160896
643.608446	0.161094
643.814666	0.161188
644.020868	0.161414
644.227052	0.161567
644.433218	0.161817
644.639365	0.162138
644.845494	0.162222
645.051605	0.162361
645.257698	0.162410
645.463772	0.162636
645.669828	0.162798
645.875866	0.163077
646.081886	0.163254
646.287888	0.163546
646.493871	0.163597
646.699836	0.163807
646.905783	0.164012
647.111712	0.164185
647.317622	0.164333
647.523514	0.164459
647.729388	0.164312
647.935244	0.164321
648.141082	0.164253
648.346901	0.164484
648.552702	0.164589
648.758485	0.164610
648.964250	0.164953
649.169996	0.165252
649.375724	0.165366
649.581434	0.165662
649.787126	0.165887
649.992800	0.166031
650.198455	0.166194
650.404092	0.166124
650.609711	0.166470
650.815311	0.166555
651.020894	0.166582
651.226458	0.166857
651.432004	0.166876
651.637532	0.167051
651.843041	0.167436
652.048532	0.167611
652.254006	0.168117
652.459460	0.168476
652.664897	0.168749
652.870315	0.169014
653.075716	0.168963
653.281097	0.169372
653.486461	0.169529
653.691807	0.169567
653.897134	0.169677
654.102443	0.169641
654.307734	0.169562
654.513006	0.169698
654.718261	0.169782
654.923497	0.170196
655.128715	0.170316
655.333915	0.170705
655.539096	0.171087
655.744259	0.171173
655.949404	0.171436
656.154531	0.171794
656.359640	0.171792
656.564730	0.172139
656.769802	0.172333
656.974856	0.172434
657.179892	0.172537
657.384909	0.172754
657.589908	0.173189
657.794889	0.173610
657.999852	0.173723
658.204797	0.174037
658.409723	0.174308
658.614631	0.174412
658.819521	0.174819
659.024393	0.174987
659.229246	0.174756
659.434081	0.174922
659.638898	0.175153
659.843697	0.175331
660.048478	0.175661
660.253240	0.175819
660.457984	0.176131
660.662710	0.176291
660.867417	0.176781
661.072107	0.177211
661.276778	0.177564
661.481431	0.177653
661.686066	0.177977
661.890682	0.177937
662.095281	0.178066
662.299861	0.178131
662.504422	0.178236
662.708966	0.178107
662.913491	0.178381
663.117999	0.178254
663.322488	0.178475
663.526958	0.178603
663.731411	0.178836
663.935845	0.179079
664.140261	0.179550
664.344659	0.179792
664.549038	0.180083
664.753400	0.180214
664.957743	0.180675
665.162068	0.180905
665.366375	0.181184
665.570663	0.181525
665.774933	0.181665
665.979185	0.181815
666.183419	0.182247
666.387635	0.182583
666.591832	0.182872
666.796011	0.182909
667.000172	0.183088
667.204315	0.183068
667.408439	0.182995
667.612545	0.183285
667.816634	0.183432
668.020703	0.183341
668.224755	0.183489
668.428788	0.183952
668.632803	0.184434
668.836800	0.184753
669.040779	0.185127
669.244739	0.185612
669.448681	0.185892
669.652605	0.186103
669.856511	0.186486
670.060399	0.186777
670.264268	0.186665
670.468119	0.186685
670.671952	0.186518
670.875767	0.186694
671.079563	0.186789
671.283341	0.186880
671.487101	0.187016
671.690843	0.187091
671.894567	0.187218
672.098272	0.187406
672.301959	0.187510
672.505628	0.188029
672.709278	0.188318
672.912911	0.188711
673.116525	0.188976
673.320121	0.189432
673.523699	0.189740
673.727258	0.190089
673.930799	0.190472
674.134322	0.190763
674.337827	0.191035
674.541314	0.190952
674.744782	0.190889
674.948232	0.191075
675.151664	0.191079
675.355078	0.191385
675.558474	0.191501
675.761851	0.191761
675.965210	0.192114
676.168551	0.192401
676.371873	0.193052
676.575178	0.193469
676.778464	0.193709
676.981732	0.194124
677.184981	0.194474
677.388213	0.194929
677.591426	0.195022
677.794621	0.195285
677.997798	0.195442
678.200956	0.195583
678.404097	0.195930
678.607219	0.196157
678.810323	0.196277
679.013408	0.196166
679.216476	0.196044
679.419525	0.196376
679.622556	0.196576
679.825569	0.196778
680.028563	0.196902
680.231540	0.196915
680.434498	0.196943
680.637438	0.196877
680.840359	0.197195
681.043263	0.197318
681.246148	0.197549
681.449015	0.197442
681.651864	0.197592
681.854694	0.197648
682.057506	0.197742
682.260301	0.198100
682.463076	0.198335
682.665834	0.198524
682.868573	0.198677
683.071295	0.198768
683.273998	0.199210
683.476682	0.199477
683.679349	0.199897
683.881997	0.200345
684.084627	0.200541
684.287239	0.200618
684.489833	0.200712
684.692408	0.200942
684.894965	0.200994
685.097504	0.201137
685.300025	0.201322
685.502527	0.201259
685.705012	0.201316
685.907478	0.201449
686.109925	0.201685
686.312355	0.202047
686.514766	0.202368
686.717159	0.202557
686.919534	0.202670
687.121891	0.202665
687.324230	0.202851
687.526550	0.203089
687.728852	0.203342
687.931136	0.203546
688.133401	0.203691
688.335649	0.203920
688.537878	0.204122
688.740089	0.204434
688.942281	0.204964
689.144456	0.205334
689.346612	0.205613
689.548750	0.205524
689.750870	0.206142
689.952971	0.206139
690.155055	0.206034
690.357120	0.206221
690.559167	0.206172
690.761195	0.206125
690.963206	0.206437
691.165198	0.206433
691.367172	0.206930
691.569128	0.206679
691.771065	0.207183
691.972984	0.207467
692.174885	0.207806
692.376768	0.208267
692.578633	0.208370
692.780479	0.208363
692.982308	0.208661
693.184118	0.208856
693.385909	0.209219
693.587683	0.209103
693.789438	0.209412
693.991175	0.209300
694.192894	0.209190
694.394595	0.209410
694.596277	0.209461
694.797941	0.209421
694.999587	0.209454
695.201215	0.209359
695.402824	0.209487
695.604416	0.209494
695.805989	0.209649
696.007543	0.209816
696.209080	0.209898
696.410598	0.209920
696.612099	0.210024
696.813580	0.210095
697.015044	0.210282
697.216490	0.210617
697.417917	0.210643
697.619326	0.210999
697.820717	0.211404
698.022089	0.211540
698.223444	0.211776
698.424780	0.211957
698.626098	0.211790
698.827397	0.211951
699.028679	0.211856
699.229942	0.212018
699.431187	0.211934
699.632414	0.211866
699.833622	0.211900
700.034813	0.211859
700.235985	0.211868
700.437139	0.212253
700.638274	0.212214
700.839392	0.212443
701.040491	0.212556
701.241572	0.212824
701.442635	0.212908
701.643679	0.212871
701.844706	0.213265
702.045714	0.213567
702.246704	0.213514
702.447675	0.213677
702.648629	0.213653
702.849564	0.213746
703.050481	0.213708
703.251380	0.213634
703.452260	0.213784
703.653122	0.213809
703.853966	0.213565
704.054792	0.213825
704.255600	0.214037
704.456389	0.214142
704.657160	0.214192
704.857913	0.214252
705.058648	0.214416
705.259365	0.214490
705.460063	0.214351
705.660743	0.214529
705.861405	0.214527
706.062048	0.214497
706.262674	0.214439
706.463281	0.214313
706.663870	0.214408
706.864441	0.214382
707.064993	0.214568
707.265527	0.214894
707.466043	0.215108
707.666541	0.215061
707.867021	0.215151
708.067482	0.215382
708.267925	0.215711
708.468350	0.215736
708.668757	0.215800
708.869145	0.215957
709.069516	0.215813
709.269868	0.215743
709.470201	0.215817
709.670517	0.215831
709.870814	0.215801
710.071093	0.215665
710.271354	0.215502
710.471597	0.215537
710.671821	0.215252
710.872028	0.215154
711.072216	0.215199
711.272385	0.215175
711.472537	0.215100
711.672670	0.215001
711.872785	0.214933
712.072882	0.215226
712.272961	0.215173
712.473021	0.215141
712.673063	0.215102
712.873087	0.214938
713.073093	0.215173
713.273081	0.214925
713.473050	0.215019
713.673001	0.215161
713.872934	0.214961
714.072849	0.214893
714.272745	0.215109
714.472623	0.215378
714.672483	0.215567
714.872325	0.215221
715.072148	0.215431
715.271954	0.215288
715.471741	0.215042
715.671509	0.214863
715.871260	0.214897
716.070992	0.214744
716.270707	0.214555
716.470403	0.214359
716.670080	0.214320
716.869740	0.214298
717.069381	0.214244
717.269004	0.214238
717.468609	0.214115
717.668195	0.214040
717.867764	0.213924
718.067314	0.213638
718.266846	0.213774
718.466360	0.213799
718.665855	0.213405
718.865332	0.213141
719.064791	0.213059
719.264232	0.213072
719.463655	0.213048
719.663059	0.212989
719.862445	0.213159
720.061813	0.212936
720.261163	0.212839
720.460494	0.212901
720.659807	0.212933
720.859102	0.212749
721.058379	0.212791
721.257638	0.212591
721.456878	0.212429
721.656100	0.212130
721.855304	0.211864
722.054490	0.211819
722.253657	0.211783
722.452806	0.211688
722.651937	0.211729
722.851050	0.211634
723.050145	0.211602
723.249221	0.211327
723.448279	0.211377
723.647319	0.211345
723.846340	0.211221
724.045344	0.211236
724.244329	0.211293
724.443296	0.211176
724.642245	0.211183
724.841175	0.211219
725.040088	0.211625
725.238982	0.211687
725.437857	0.211787
725.636715	0.211783
725.835554	0.211502
726.034376	0.211438
726.233179	0.211383
726.431963	0.211037
726.630730	0.210631
726.829478	0.210063
727.028208	0.209662
727.226920	0.209321
727.425614	0.209048
727.624289	0.208868
727.822946	0.208391
728.021585	0.208351
728.220206	0.208372
728.418808	0.208181
728.617392	0.208274
728.815958	0.208385
729.014506	0.208139
729.213036	0.207915
729.411547	0.207585
729.610040	0.207695
729.808515	0.207405
730.006972	0.207055
730.205410	0.207040
730.403831	0.206757
730.602233	0.206472
730.800616	0.206375
730.998982	0.206191
731.197329	0.206188
731.395658	0.205952
731.593969	0.205832
731.792262	0.205671
731.990536	0.205592
732.188793	0.205509
732.387031	0.205198
732.585250	0.205001
732.783452	0.204811
732.981635	0.204779
733.179800	0.204509
733.377947	0.204495
733.576076	0.204512
733.774186	0.204481
733.972278	0.204137
734.170352	0.203911
734.368408	0.203883
734.566446	0.203785
734.764465	0.203798
734.962466	0.203859
735.160449	0.203576
735.358413	0.203197
735.556360	0.202841
735.754288	0.202864
735.952198	0.202960
736.150090	0.202788
736.347963	0.202666
736.545818	0.202499
736.743655	0.202225
736.941474	0.201884
737.139275	0.201909
737.337057	0.201716
737.534821	0.201422
737.732567	0.201199
737.930295	0.201119
738.128005	0.200890
738.325696	0.200666
738.523369	0.200589
738.721024	0.200405
738.918660	0.200101
739.116279	0.199958
739.313879	0.199937
739.511461	0.199583
739.709024	0.199367
739.906570	0.199206
740.104097	0.198903
740.301606	0.198555
740.499097	0.198518
740.696569	0.198482
740.894024	0.198156
741.091460	0.197684
741.288878	0.197606
741.486277	0.197703
741.683659	0.197719
741.881022	0.197756
742.078367	0.197536
742.275694	0.197506
742.473002	0.197191
742.670293	0.197180
742.867565	0.197334
743.064819	0.197070
743.262054	0.196705
743.459272	0.196571
743.656471	0.196159
743.853652	0.196206
744.050815	0.196084
744.247959	0.195962
744.445085	0.195812
744.642194	0.195839
744.839283	0.195824
745.036355	0.195801
745.233408	0.195503
745.430444	0.195568
745.627461	0.195341
745.824459	0.195137
746.021440	0.195130
746.218402	0.194949
746.415346	0.194479
746.612272	0.194063
746.809180	0.193704
747.006069	0.193646
747.202940	0.193275
747.399793	0.193003
747.596628	0.192576
747.793444	0.192304
747.990243	0.191901
748.187023	0.191640
748.383784	0.191861
748.580528	0.191778
748.777253	0.191280
748.973960	0.191093
749.170649	0.190761
749.367320	0.190584
749.563973	0.190149
749.760607	0.189930
749.957223	0.189843
750.153821	0.189419
750.350400	0.188935
750.546962	0.188898
750.743505	0.188713
750.940030	0.188538
751.136536	0.188552
751.333025	0.188421
751.529495	0.188367
751.725947	0.188119
751.922381	0.187887
752.118796	0.188008
752.315194	0.187744
752.511573	0.187694
752.707934	0.187723
752.904276	0.187475
753.100601	0.187347
753.296907	0.187095
753.493195	0.187078
753.689465	0.186865
753.885716	0.186551
754.081949	0.186679
754.278164	0.186446
754.474361	0.186170
754.670540	0.185925
754.866700	0.185953
755.062843	0.185959
755.258967	0.185677
755.455072	0.185797
755.651160	0.185814
755.847229	0.185420
756.043280	0.185482
756.239313	0.185611
756.435328	0.185734
756.631324	0.185535
756.827302	0.185181
757.023262	0.185124
757.219204	0.184634
757.415127	0.184204
757.611033	0.184144
757.806920	0.183666
758.002788	0.183316
758.198639	0.182805
758.394471	0.182427
758.590286	0.182239
758.786081	0.182039
758.981859	0.182028
759.177619	0.181949
759.373360	0.181505
759.569083	0.181578
759.764788	0.181516
759.960474	0.181516
760.156143	0.181493
760.351793	0.181536
760.547425	0.181315
760.743038	0.181388
760.938634	0.181370
761.134211	0.181543
761.329770	0.181313
761.525311	0.181234
761.720833	0.181076
761.916338	0.180942
762.111824	0.181007
762.307292	0.180980
762.502741	0.180543
762.698173	0.180292
762.893586	0.180155
763.088981	0.179898
763.284358	0.179571
763.479716	0.179403
763.675057	0.179412
763.870379	0.179214
764.065683	0.179073
764.260968	0.178901
764.456236	0.178872
764.651485	0.178821
764.846716	0.178850
765.041929	0.178864
765.237123	0.178929
765.432299	0.178723
765.627457	0.178775
765.822597	0.178879
766.017719	0.179061
766.212822	0.179045
766.407907	0.178877
766.602974	0.178833
766.798023	0.178939
766.993054	0.178697
767.188066	0.178651
767.383060	0.178367
767.578036	0.177892
767.772993	0.177848
767.967933	0.177583
768.162854	0.177594
768.357757	0.177616
768.552642	0.177382
768.747508	0.177344
768.942356	0.177244
769.137186	0.177252
769.331998	0.177343
769.526792	0.177142
769.721567	0.177387
769.916324	0.177311
770.111063	0.177269
770.305784	0.177348
770.500486	0.177393
770.695171	0.177435
770.889837	0.177529
771.084484	0.177488
771.279114	0.177539
771.473725	0.177292
771.668318	0.177218
771.862893	0.177129
772.057450	0.177125
772.251988	0.176907
772.446509	0.176908
772.641011	0.176578
772.835494	0.176437
773.029960	0.176501
773.224407	0.176469
773.418836	0.176568
773.613247	0.176400
773.807640	0.176096
774.002014	0.176208
774.196370	0.176126
774.390708	0.176382
774.585028	0.176240
774.779330	0.176258
774.973613	0.176501
775.167878	0.176471
775.362125	0.176606
775.556354	0.176784
775.750564	0.176807
775.944756	0.177012
776.138930	0.177017
776.333086	0.177434
776.527223	0.177242
776.721343	0.177165
776.915444	0.177122
777.109526	0.177055
777.303591	0.176817
777.497637	0.176712
777.691666	0.176344
777.885676	0.176167
778.079667	0.176153
778.273641	0.176284
778.467596	0.175872
778.661533	0.175598
778.855452	0.175457
779.049352	0.175305
779.243235	0.175363
779.437099	0.175476
779.630945	0.175442
779.824773	0.175117
780.018582	0.174899
780.212373	0.175229
780.406146	0.175381
780.599901	0.175623
780.793638	0.175989
780.987356	0.176011
781.181056	0.176001
781.374738	0.176044
781.568402	0.176264
781.762047	0.176476
781.955674	0.176228
782.149283	0.176373
782.342874	0.176380
782.536447	0.176395
782.730001	0.176602
782.923537	0.176630
783.117055	0.176606
783.310555	0.176604
783.504036	0.176487
783.697499	0.176758
783.890944	0.176813
784.084371	0.176818
784.277780	0.176788
784.471170	0.176752
784.664542	0.177192
784.857896	0.177583
785.051231	0.177776
785.244549	0.178035
785.437848	0.178163
785.631129	0.178428
785.824392	0.178621
786.017636	0.178586
786.210863	0.178627
786.404071	0.178719
786.597260	0.178664
786.790432	0.178717
786.983585	0.178852
787.176721	0.178945
787.369838	0.178798
787.562936	0.178952
787.756017	0.179233
787.949079	0.179726
788.142123	0.179666
788.335149	0.179854
788.528156	0.180060
788.721146	0.179902
788.914117	0.180245
789.107070	0.180651
789.300005	0.180740
789.492921	0.180784
789.685819	0.180740
789.878699	0.181045
790.071561	0.181394
790.264405	0.181337
790.457230	0.181595
790.650037	0.181408
790.842826	0.181385
791.035597	0.181375
791.228349	0.181663
791.421084	0.181598
791.613800	0.181411
791.806497	0.181313
791.999177	0.181581
792.191838	0.181814
792.384481	0.181954
792.577106	0.182230
792.769713	0.182461
792.962301	0.182587
793.154871	0.182872
793.347423	0.183338
793.539957	0.183732
793.732473	0.184210
793.924970	0.184474
794.117449	0.184947
794.309910	0.185033
794.502353	0.185474
794.694777	0.185710
794.887183	0.186000
795.079571	0.186080
795.271941	0.185961
795.464293	0.185695
795.656626	0.185857
795.848941	0.185891
796.041238	0.185884
796.233516	0.185928
796.425777	0.186085
796.618019	0.186251
796.810243	0.186433
797.002449	0.186479
797.194636	0.186922
797.386805	0.187171
797.578956	0.187419
797.771089	0.187867
797.963204	0.187763
798.155300	0.187946
798.347378	0.187896
798.539438	0.188133
798.731480	0.188245
798.923503	0.188231
799.115509	0.188325
799.307496	0.188471
799.499465	0.188583
799.691415	0.188849
799.883348	0.189305
800.075262	0.189543
800.267158	0.189718
800.459035	0.190366
800.650895	0.190593
800.842736	0.190690
801.034559	0.191017
801.226364	0.191089
801.418150	0.191535
801.609919	0.191750
801.801669	0.192214
801.993401	0.192388
802.185114	0.192563
802.376810	0.193003
802.568487	0.193400
802.760146	0.193366
802.951787	0.193555
803.143409	0.193561
803.335014	0.193499
803.526600	0.193563
803.718168	0.193716
803.909717	0.193691
804.101249	0.193604
804.292762	0.193900
804.484257	0.194168
804.675734	0.194307
804.867192	0.194697
805.058632	0.194956
805.250054	0.195140
805.441458	0.195434
805.632844	0.195683
805.824211	0.196098
806.015561	0.196149
806.206891	0.196447
806.398204	0.196900
806.589499	0.197217
806.780775	0.197312
806.972033	0.197697
807.163273	0.197862
807.354495	0.198389
807.545698	0.198474
807.736883	0.198542
807.928050	0.198873
808.119199	0.198946
808.310329	0.199245
808.501441	0.199969
808.692535	0.200203
808.883611	0.200747
809.074669	0.201044
809.265708	0.201738
809.456729	0.202317
809.647732	0.202519
809.838717	0.203038
810.029683	0.203317
810.220632	0.203470
810.411562	0.203836
810.602474	0.203945
810.793367	0.203935
810.984242	0.204367
811.175100	0.204920
811.365938	0.205568
811.556759	0.206048
811.747562	0.206619
811.938346	0.206971
812.129112	0.207235
812.319860	0.207726
812.510589	0.208365
812.701300	0.208662
812.891994	0.208918
813.082668	0.209332
813.273325	0.209706
813.463964	0.209997
813.654584	0.210272
813.845186	0.210858
814.035769	0.211369
814.226335	0.211918
814.416882	0.212023
814.607411	0.212354
814.797922	0.212568
814.988415	0.212921
815.178889	0.213210
815.369345	0.213832
815.559783	0.214075
815.750203	0.214529
815.940605	0.214683
816.130988	0.215515
816.321353	0.215919
816.511700	0.216207
816.702028	0.216741
816.892339	0.217021
817.082631	0.217257
817.272905	0.217742
817.463161	0.218168
817.653398	0.218681
817.843617	0.219163
818.033819	0.219698
818.224001	0.220118
818.414166	0.220541
818.604312	0.220826
818.794440	0.221290
818.984550	0.221769
819.174642	0.221848
819.364716	0.221937
819.554771	0.221979
819.744808	0.222304
819.934827	0.222779
820.124827	0.222948
820.314810	0.223583
820.504774	0.223859
820.694720	0.224024
820.884647	0.224521
821.074557	0.225255
821.264448	0.225717
821.454321	0.225995
821.644176	0.226449
821.834012	0.226869
822.023831	0.227283
822.213631	0.227653
822.403413	0.227825
822.593176	0.228049
822.782922	0.228571
822.972649	0.228887
823.162358	0.229236
823.352049	0.229292
823.541721	0.229639
823.731376	0.229967
823.921012	0.230078
824.110629	0.230767
824.300229	0.231309
824.489811	0.231372
824.679374	0.231684
824.868919	0.232045
825.058445	0.232585
825.247954	0.232861
825.437444	0.232770
825.626916	0.233234
825.816370	0.233315
826.005806	0.233531
826.195223	0.233858
826.384622	0.234346
826.574003	0.234617
826.763366	0.234868
826.952711	0.235015
827.142037	0.235773
827.331345	0.236420
827.520635	0.237074
827.709906	0.237639
827.899160	0.237970
828.088395	0.238181
828.277612	0.238851
828.466810	0.239718
828.655991	0.240507
828.845153	0.240923
829.034297	0.241523
829.223423	0.241872
829.412531	0.242200
829.601620	0.242639
829.790691	0.243054
829.979744	0.243183
830.168779	0.243198
830.357795	0.243460
830.546793	0.243995
830.735773	0.244204
830.924735	0.244710
831.113679	0.245255
831.302604	0.245710
831.491511	0.246268
831.680400	0.246943
831.869271	0.247609
832.058123	0.248251
832.246957	0.248630
832.435773	0.249184
832.624571	0.249710
832.813351	0.250269
833.002112	0.251027
833.190855	0.251652
833.379580	0.252305
833.568287	0.252947
833.756975	0.253346
833.945645	0.253722
834.134297	0.254341
834.322931	0.254952
834.511547	0.255092
834.700144	0.255607
834.888723	0.256009
835.077284	0.256290
835.265826	0.256407
835.454351	0.256963
835.642857	0.257572
835.831345	0.257681
836.019815	0.257957
836.208266	0.258680
836.396699	0.258994
836.585114	0.259545
836.773511	0.260266
836.961890	0.261161
837.150250	0.261898
837.338592	0.262702
837.526916	0.263549
837.715222	0.264123
837.903510	0.264728
838.091779	0.265584
838.280030	0.266063
838.468263	0.266419
838.656477	0.266575
838.844674	0.266817
839.032852	0.267050
839.221012	0.267670
839.409153	0.268177
839.597277	0.268541
839.785382	0.268722
839.973469	0.268883
840.161538	0.269080
840.349589	0.269594
840.537621	0.269702
840.725635	0.269946
840.913631	0.270267
841.101609	0.270436
841.289568	0.270764
841.477509	0.271029
841.665432	0.271505
841.853337	0.272098
842.041224	0.272317
842.229092	0.273323
842.416942	0.273775
842.604774	0.274362
842.792588	0.274828
842.980383	0.275348
843.168160	0.275968
843.355919	0.276627
843.543660	0.277120
843.731382	0.278039
843.919087	0.278247
844.106773	0.278795
844.294441	0.278934
844.482090	0.279838
844.669722	0.280350
844.857335	0.280635
845.044930	0.281289
845.232507	0.282184
845.420065	0.282832
845.607605	0.283507
845.795127	0.284380
845.982631	0.285107
846.170117	0.285337
846.357584	0.285727
846.545033	0.286379
846.732464	0.286881
846.919877	0.287008
847.107272	0.287405
847.294648	0.287966
847.482006	0.288292
847.669346	0.289024
847.856667	0.289910
848.043971	0.291000
848.231256	0.291998
848.418523	0.292029
848.605771	0.292560
848.793002	0.292874
848.980214	0.293066
849.167408	0.293551
849.354584	0.293970
849.541742	0.294472
849.728881	0.294622
849.916002	0.294865
850.103105	0.296207
850.290190	0.297248
850.477256	0.297846
850.664304	0.298487
850.851334	0.299061
851.038346	0.299119
851.225340	0.299513
851.412315	0.300221
851.599272	0.300508
851.786211	0.300573
851.973132	0.300767
852.160034	0.301096
852.346918	0.301643
852.533784	0.302011
852.720632	0.302596
852.907462	0.302768
853.094273	0.302807
853.281066	0.303474
853.467841	0.303731
853.654598	0.303881
853.841336	0.304695
854.028056	0.305331
854.214758	0.305670
854.401442	0.306259
854.588107	0.307148
854.774755	0.307673
854.961384	0.308128
855.147995	0.308603
855.334587	0.309194
855.521162	0.309581
855.707718	0.309702
855.894256	0.310031
856.080775	0.310609
856.267277	0.310636
856.453760	0.310956
856.640225	0.311231
856.826672	0.311407
857.013101	0.311881
857.199511	0.312322
857.385903	0.312992
857.572277	0.313696
857.758633	0.313866
857.944970	0.314709
858.131290	0.315270
858.317591	0.315588
858.503873	0.316742
858.690138	0.317370
858.876384	0.317703
859.062612	0.318111
859.248822	0.318611
859.435014	0.319285
859.621188	0.319223
859.807343	0.319876
859.993480	0.320410
860.179599	0.320677
860.365699	0.320858
860.551781	0.320952
860.737846	0.321321
860.923891	0.321722
861.109919	0.322429
861.295929	0.322907
861.481920	0.323325
861.667893	0.323641
861.853848	0.323848
862.039784	0.324424
862.225702	0.325173
862.411603	0.325599
862.597484	0.326150
862.783348	0.326120
862.969193	0.326813
863.155021	0.327556
863.340830	0.328417
863.526620	0.329045
863.712393	0.329544
863.898147	0.330244
864.083883	0.330535
864.269601	0.330819
864.455301	0.331924
864.640982	0.332517
864.826645	0.332570
865.012290	0.332626
865.197917	0.332658
865.383526	0.332809
865.569116	0.333070
865.754688	0.333228
865.940242	0.333687
866.125777	0.333217
866.311295	0.333248
866.496794	0.333660
866.682275	0.334321
866.867737	0.335126
867.053182	0.335536
867.238608	0.335661
867.424016	0.336586
867.609406	0.336898
867.794778	0.337431
867.980131	0.337395
868.165466	0.337734
868.350783	0.337764
868.536082	0.337979
868.721362	0.338188
868.906625	0.338593
869.091869	0.338875
869.277094	0.339285
869.462302	0.339673
869.647491	0.340754
869.832662	0.341099
870.017815	0.341588
870.202950	0.341878
870.388066	0.342428
870.573165	0.342691
870.758245	0.342979
870.943306	0.343011
871.128350	0.343008
871.313375	0.342837
871.498382	0.342679
871.683371	0.342688
871.868342	0.343227
872.053294	0.343298
872.238229	0.343602
872.423144	0.343768
872.608042	0.344016
872.792922	0.344203
872.977783	0.344594
873.162626	0.345291
873.347451	0.345958
873.532258	0.345935
873.717046	0.346317
873.901816	0.346653
874.086568	0.347106
874.271302	0.348001
874.456017	0.348590
874.640715	0.349347
874.825394	0.349709
875.010055	0.349652
875.194697	0.350378
875.379322	0.350967
875.563928	0.351285
875.748516	0.351198
875.933085	0.350977
876.117637	0.351053
876.302170	0.351004
876.486685	0.351026
876.671182	0.351404
876.855661	0.351344
877.040121	0.351485
877.224563	0.351397
877.408987	0.351802
877.593393	0.351858
877.777780	0.352516
877.962150	0.352722
878.146501	0.353107
878.330833	0.353220
878.515148	0.353304
878.699444	0.353482
878.883722	0.353595
879.067982	0.353734
879.252224	0.354283
879.436447	0.354017
879.620653	0.354168
879.804840	0.354196
879.989008	0.354607
880.173159	0.354645
880.357291	0.354565
880.541405	0.354832
880.725501	0.355701
880.909579	0.355862
881.093638	0.356507
881.277680	0.356438
881.461703	0.356799
881.645707	0.356978
881.829694	0.357083
882.013662	0.357533
882.197612	0.357948
882.381544	0.357592
882.565458	0.357464
882.749353	0.357429
882.933230	0.358028
883.117089	0.357595
883.300930	0.357543
883.484753	0.358133
883.668557	0.358666
883.852343	0.358643
884.036111	0.358526
884.219861	0.358536
884.403592	0.358676
884.587305	0.358863
884.771000	0.359723
884.954677	0.360070
885.138335	0.359671
885.321976	0.359223
885.505598	0.359318
885.689201	0.359502
885.872787	0.359826
886.056354	0.360140
886.239904	0.359826
886.423434	0.359530
886.606947	0.359455
886.790442	0.360040
886.973918	0.360214
887.157376	0.360273
887.340816	0.360671
887.524237	0.360869
887.707641	0.360724
887.891026	0.360503
888.074393	0.360755
888.257741	0.361054
888.441072	0.361355
888.624384	0.361227
888.807678	0.361171
888.990954	0.360817
889.174211	0.360890
889.357451	0.360844
889.540672	0.361348
889.723875	0.360994
889.907059	0.360713
890.090226	0.360219
890.273374	0.360272
890.456504	0.361002
890.639616	0.360472
890.822709	0.360327
891.005785	0.359963
891.188842	0.360092
891.371881	0.360551
891.554901	0.360385
891.737904	0.360538
891.920888	0.360508
892.103854	0.360138
892.286802	0.360684
892.469731	0.360594
892.652643	0.360712
892.835536	0.360282
893.018410	0.359591
893.201267	0.360079
893.384106	0.360020
893.566926	0.359368
893.749728	0.358624
893.932511	0.358034
894.115277	0.357887
894.298024	0.357655
894.480753	0.357683
894.663464	0.357888
894.846157	0.357183
895.028831	0.357030
895.211487	0.357286
895.394125	0.356665
895.576745	0.356935
895.759346	0.356160
895.941930	0.356139
896.124495	0.356082
896.307041	0.355778
896.489570	0.355957
896.672080	0.355502
896.854573	0.355565
897.037046	0.356351
897.219502	0.356149
897.401940	0.357093
897.584359	0.356700
897.766760	0.356179
897.949143	0.356325
898.131507	0.355761
898.313854	0.355559
898.496182	0.355217
898.678492	0.354832
898.860783	0.354294
899.043057	0.353966
899.225312	0.354126
899.407549	0.354141
899.589768	0.353627
899.771968	0.353712
899.954151	0.353126
900.136315	0.352824
900.318461	0.352647
900.500588	0.352835
900.682698	0.352468
900.864789	0.351917
901.046862	0.351620
901.228917	0.350951
901.410953	0.350400
901.592971	0.350178
901.774972	0.350104
901.956953	0.349728
902.138917	0.348733
902.320862	0.347635
902.502790	0.348129
902.684699	0.347454
902.866589	0.347637
903.048462	0.347176
903.230316	0.346952
903.412152	0.346614
903.593970	0.345823
903.775770	0.346041
903.957551	0.346275
904.139314	0.345200
904.321059	0.344946
904.502786	0.344337
904.684494	0.343651
904.866185	0.343116
905.047857	0.342256
905.229510	0.342144
905.411146	0.342205
905.592763	0.341633
905.774363	0.341285
905.955943	0.340958
906.137506	0.340429
906.319051	0.340487
906.500577	0.340363
906.682085	0.340142
906.863575	0.340022
907.045046	0.338921
907.226500	0.338205
907.407935	0.337995
907.589352	0.337387
907.770750	0.337423
907.952131	0.336936
908.133493	0.336529
908.314837	0.336337
908.496163	0.335698
908.677470	0.335467
908.858760	0.334929
909.040031	0.334125
909.221284	0.333660
909.402518	0.333148
909.583735	0.333160
909.764933	0.332412
909.946113	0.332090
910.127275	0.331437
910.308418	0.330970
910.489544	0.330594
910.670651	0.330059
910.851740	0.329239
911.032810	0.328383
911.213863	0.327457
911.394897	0.327017
911.575913	0.325827
911.756911	0.325563
911.937890	0.324647
912.118851	0.324369
912.299794	0.324042
912.480719	0.324039
912.661626	0.323523
912.842514	0.322794
913.023384	0.322466
913.204236	0.322010
913.385070	0.321765
913.565886	0.321836
913.746683	0.320823
913.927462	0.320077
914.108223	0.319283
914.288965	0.319253
914.469690	0.319162
914.650396	0.317862
914.831084	0.317605
915.011754	0.316322
915.192405	0.314848
915.373038	0.314560
915.553653	0.314228
915.734250	0.313787
915.914829	0.312452
916.095389	0.311324
916.275931	0.310742
916.456455	0.309431
916.636961	0.308958
916.817448	0.308101
916.997917	0.307442
917.178368	0.305941
917.358801	0.304707
917.539216	0.304494
917.719612	0.303622
917.899990	0.303433
918.080350	0.303423
918.260692	0.302149
918.441015	0.301921
918.621320	0.301274
918.801607	0.301149
918.981876	0.301277
919.162127	0.300659
919.342359	0.300037
919.522573	0.299516
919.702769	0.298513
919.882947	0.298674
920.063106	0.298320
920.243247	0.297710
920.423370	0.296101
920.603475	0.295171
920.783562	0.294498
920.963630	0.294151
921.143680	0.292771
921.323712	0.292006
921.503725	0.291333
921.683721	0.290374
921.863698	0.289592
922.043657	0.289197
922.223598	0.287984
922.403520	0.287292
922.583424	0.286174
922.763311	0.285575
922.943178	0.284750
923.123028	0.283683
923.302859	0.282654
923.482673	0.281951
923.662467	0.281126
923.842244	0.280312
924.022003	0.278754
924.201743	0.277651
924.381465	0.277359
924.561169	0.276681
924.740854	0.276318
924.920522	0.276388
925.100171	0.275306
925.279802	0.275173
925.459414	0.274734
925.639009	0.274170
925.818585	0.273575
925.998143	0.272513
926.177683	0.272266
926.357205	0.271610
926.536708	0.269675
926.716193	0.268780
926.895660	0.267687
927.075109	0.266765
927.254539	0.266256
927.433951	0.265724
927.613345	0.265108
927.792721	0.263061
927.972079	0.261259
928.151418	0.260764
928.330739	0.259923
928.510042	0.259518
928.689327	0.258466
928.868593	0.256816
929.047841	0.255773
929.227071	0.254896
929.406283	0.254430
929.585476	0.253293
929.764652	0.252739
929.943809	0.251543
930.122948	0.249833
930.302068	0.249132
930.481171	0.248406
930.660255	0.247304
930.839321	0.245911
931.018369	0.244963
931.197398	0.244135
931.376409	0.242726
931.555402	0.241791
931.734377	0.241277
931.913334	0.239941
932.092272	0.238810
932.271192	0.238398
932.450094	0.237090
932.628978	0.236352
932.807844	0.236327
932.986691	0.234626
933.165520	0.233678
933.344331	0.232613
933.523123	0.232111
933.701898	0.231312
933.880654	0.230493
934.059392	0.228923
934.238111	0.228378
934.416813	0.226277
934.595496	0.226592
934.774161	0.225816
934.952808	0.225133
935.131437	0.223882
935.310047	0.222617
935.488639	0.220794
935.667213	0.221401
935.845769	0.219765
936.024306	0.219242
936.202825	0.217671
936.381326	0.216274
936.559809	0.214702
936.738274	0.213279
936.916720	0.212658
937.095148	0.212198
937.273558	0.210497
937.451950	0.209170
937.630323	0.208090
937.808678	0.207621
937.987015	0.206196
938.165334	0.205301
938.343635	0.204608
938.521917	0.203373
938.700181	0.201679
938.878427	0.200057
939.056655	0.199193
939.234864	0.197796
939.413055	0.195408
939.591228	0.194599
939.769383	0.193057
939.947519	0.191593
940.125638	0.189816
940.303738	0.189611
940.481820	0.188153
940.659883	0.186747
940.837929	0.185736
941.015956	0.185724
941.193965	0.185455
941.371955	0.184583
941.549928	0.182713
941.727882	0.182337
941.905818	0.180290
942.083736	0.179268
942.261636	0.178631
942.439517	0.177153
942.617380	0.176241
942.795225	0.174004
942.973052	0.173417
943.150860	0.173340
943.328651	0.172848
943.506423	0.172177
943.684176	0.171968
943.861912	0.170180
944.039629	0.169363
944.217328	0.168326
944.395009	0.168260
944.572672	0.167000
944.750317	0.166329
944.927943	0.164323
945.105551	0.162481
945.283141	0.160872
945.460712	0.159983
945.638265	0.158118
945.815801	0.155937
945.993317	0.154217
946.170816	0.153129
946.348297	0.151212
946.525759	0.150148
946.703203	0.149394
946.880629	0.148396
947.058036	0.147235
947.235425	0.145577
947.412797	0.144443
947.590149	0.143936
947.767484	0.142031
947.944800	0.141983
948.122099	0.141980
948.299379	0.141951
948.476640	0.141736
948.653884	0.139831
948.831109	0.139562
949.008316	0.138118
949.185505	0.134936
949.362676	0.134671
949.539828	0.133812
949.716962	0.129797
949.894078	0.128161
950.071176	0.126297
950.248256	0.126152
950.425317	0.125801
950.602360	0.124720
950.779385	0.125109
950.956391	0.124300
951.133380	0.122132
951.310350	0.121407
951.487302	0.119688
951.664235	0.117795
951.841151	0.116330
952.018048	0.115302
952.194927	0.114201
952.371788	0.113887
952.548631	0.112160
952.725455	0.110677
952.902261	0.109901
953.079049	0.109112
953.255819	0.108729
953.432570	0.107808
953.609303	0.106487
953.786018	0.106403
953.962715	0.104292
954.139394	0.102921
954.316054	0.100911
954.492696	0.100707
954.669320	0.099678
954.845926	0.098778
955.022513	0.097246
955.199083	0.097199
955.375634	0.095870
955.552166	0.095042
955.728681	0.094146
955.905177	0.093700
956.081655	0.093292
956.258115	0.092540
956.434557	0.091646
956.610980	0.091046
956.787385	0.090404
956.963772	0.090449
957.140141	0.091872
957.316492	0.090952
957.492824	0.089543
957.669138	0.089962
957.845434	0.087793
958.021712	0.086517
958.197971	0.086433
958.374212	0.084033
958.550435	0.082381
958.726640	0.078969
958.902826	0.079840
959.078995	0.080700
959.255145	0.078481
959.431277	0.077463
959.607390	0.077448
959.783486	0.078039
959.959563	0.077821
960.135622	0.076518
960.311662	0.078152
960.487685	0.075673
960.663689	0.073493
960.839675	0.071093
961.015643	0.068702
961.191593	0.068456
961.367524	0.068045
961.543437	0.069100
961.719332	0.069205
961.895209	0.068196
962.071067	0.067611
962.246907	0.068335
962.422730	0.070421
962.598533	0.073049
962.774319	0.072764
962.950086	0.071854
963.125835	0.068986
963.301566	0.069701
963.477279	0.069065
963.652973	0.070724
963.828650	0.072485
964.004308	0.070718
964.179947	0.072928
964.355569	0.070379
964.531172	0.067711
964.706757	0.067742
964.882324	0.067497
965.057873	0.066307
965.233403	0.064097
965.408916	0.061879
965.584410	0.062313
965.759885	0.059044
965.935343	0.059134
966.110782	0.059338
966.286203	0.058237
966.461606	0.060533
966.636991	0.059257
966.812357	0.059800
966.987705	0.060987
967.163035	0.061452
967.338347	0.061597
967.513641	0.062432
967.688916	0.063090
967.864173	0.063312
968.039412	0.060536
968.214632	0.061172
968.389835	0.061673
968.565019	0.060955
968.740185	0.062075
968.915333	0.062566
969.090462	0.064144
969.265573	0.063441
969.440667	0.065110
969.615741	0.064132
969.790798	0.064869
969.965836	0.064006
970.140856	0.063346
970.315858	0.058789
970.490842	0.058746
970.665808	0.055996
970.840755	0.057029
971.015684	0.056702
971.190595	0.057574
971.365487	0.055641
971.540362	0.056299
971.715218	0.055452
971.890056	0.058189
972.064875	0.057526
972.239677	0.058833
972.414460	0.056495
972.589225	0.055551
972.763972	0.054421
972.938700	0.056849
973.113411	0.055961
973.288103	0.057385
973.462777	0.056912
973.637432	0.053207
973.812070	0.052230
973.986689	0.051670
974.161290	0.052449
974.335873	0.054511
974.510437	0.054542
974.684984	0.055575
974.859512	0.055560
975.034022	0.055148
975.208513	0.059634
975.382987	0.059299
975.557442	0.062087
975.731879	0.061836
975.906298	0.061156
976.080698	0.062329
976.255080	0.062406
976.429445	0.061901
976.603790	0.063715
976.778118	0.063769
976.952427	0.065700
977.126719	0.064283
977.300992	0.065063
977.475246	0.064358
977.649483	0.061952
977.823701	0.059267
977.997901	0.058260
978.172083	0.056314
978.346247	0.053582
978.520392	0.051419
978.694519	0.050342
978.868628	0.048823
979.042719	0.048092
979.216791	0.048100
979.390845	0.051603
979.564882	0.051501
979.738899	0.052045
979.912899	0.053296
980.086880	0.054354
980.260843	0.057976
980.434788	0.058304
980.608715	0.058251
980.782623	0.057822
980.956514	0.055338
981.130386	0.057325
981.304240	0.056263
981.478075	0.056314
981.651892	0.055553
981.825692	0.053604
981.999472	0.055232
982.173235	0.053415
982.346980	0.054748
982.520706	0.054685
982.694414	0.052810
982.868104	0.055051
983.041775	0.057202
983.215428	0.057181
983.389064	0.057591
983.562680	0.057152
983.736279	0.059066
983.909860	0.056701
984.083422	0.057360
984.256966	0.058253
984.430491	0.057208
984.603999	0.054190
984.777488	0.055476
984.950959	0.056146
985.124412	0.055108
985.297847	0.054453
985.471263	0.056763
985.644661	0.055176
985.818041	0.054528
985.991403	0.055856
986.164747	0.056554
986.338072	0.054708
986.511379	0.053073
986.684668	0.052421
986.857938	0.052232
987.031191	0.052185
987.204425	0.052999
987.377641	0.052986
987.550839	0.051346
987.724018	0.052955
987.897179	0.053689
988.070322	0.054124
988.243447	0.053307
988.416554	0.053445
988.589642	0.052950
988.762712	0.053358
988.935764	0.051408
989.108798	0.051677
989.281813	0.049994
989.454811	0.050751
989.627790	0.051163
989.800751	0.053070
989.973693	0.053400
990.146617	0.051925
990.319524	0.051755
990.492412	0.055021
990.665281	0.053313
990.838133	0.053324
991.010966	0.053953
991.183781	0.055306
991.356578	0.056044
991.529356	0.055195
991.702117	0.053948
991.874859	0.054266
992.047583	0.050681
992.220288	0.052314
992.392976	0.052321
992.565645	0.052456
992.738296	0.052071
992.910929	0.050674
993.083543	0.051357
993.256139	0.054705
993.428718	0.054996
993.601277	0.055820
993.773819	0.055476
993.946342	0.057197
994.118848	0.054940
994.291335	0.054620
994.463803	0.053669
994.636254	0.055295
994.808686	0.053292
994.981100	0.052858
995.153496	0.053979
995.325874	0.054489
995.498233	0.053485
995.670574	0.054072
995.842897	0.052961
996.015202	0.053971
996.187488	0.053310
996.359757	0.055154
996.532007	0.055469
996.704239	0.054863
996.876452	0.054276
997.048648	0.054693
997.220825	0.055097
997.392984	0.056905
997.565124	0.057185
997.737247	0.056603
997.909351	0.055501
998.081437	0.054634
998.253505	0.055343
998.425554	0.056727
998.597586	0.055588
998.769599	0.056972
998.941594	0.055160
999.113571	0.055601
999.285529	0.055023
999.457469	0.054342
999.629391	0.053343
999.801295	0.052690
999.973181	0.050673
1000.145048	0.051885
1000.316897	0.050120
1000.488728	0.049010
1000.660541	0.048106
1000.832335	0.047692
1001.004111	0.047389
1001.175869	0.048515
1001.347609	0.047716
1001.519331	0.049016
1001.691034	0.047415
1001.862719	0.046600
1002.034386	0.048201
1002.206035	0.048701
1002.377665	0.048890
1002.549277	0.050364
1002.720871	0.050854
1002.892447	0.052175
1003.064004	0.052503
1003.235544	0.050622
1003.407065	0.051189
1003.578568	0.049373
1003.750052	0.047695
1003.921519	0.048770
1004.092967	0.047110
1004.264397	0.045785
1004.435809	0.044944
1004.607202	0.043579
1004.778577	0.045787
1004.949934	0.045559
1005.121273	0.047266
1005.292594	0.047539
1005.463896	0.046092
1005.635180	0.048307
1005.806446	0.048305
1005.977694	0.049045
1006.148923	0.050159
1006.320135	0.050165
1006.491328	0.050737
1006.662503	0.050114
1006.833659	0.050333
1007.004798	0.052177
1007.175918	0.051274
1007.347020	0.051837
1007.518103	0.051090
1007.689169	0.051086
1007.860216	0.050072
1008.031245	0.048900
1008.202256	0.049951
1008.373248	0.049959
1008.544223	0.050467
1008.715179	0.049458
1008.886117	0.048604
1009.057036	0.048397
1009.227938	0.048191
1009.398821	0.049917
1009.569686	0.050914
1009.740533	0.049364
1009.911361	0.049416
1010.082172	0.047868
1010.252964	0.050412
1010.423738	0.050854
1010.594493	0.051490
1010.765231	0.049376
1010.935950	0.047647
1011.106651	0.047261
1011.277334	0.047495
1011.447998	0.047616
1011.618645	0.047944
1011.789273	0.045718
1011.959882	0.047190
1012.130474	0.047625
1012.301048	0.049214
1012.471603	0.050356
1012.642140	0.051514
1012.812658	0.049406
1012.983159	0.049755
1013.153641	0.048178
1013.324105	0.050560
1013.494551	0.049792
1013.664979	0.049422
1013.835388	0.050877
1014.005779	0.051060
1014.176152	0.050088
1014.346507	0.051412
1014.516843	0.051456
1014.687162	0.051744
1014.857462	0.048433
1015.027744	0.049430
1015.198007	0.050132
1015.368252	0.047000
1015.538480	0.046372
1015.708689	0.047459
1015.878879	0.048487
1016.049052	0.047825
1016.219206	0.047559
1016.389342	0.047798
1016.559460	0.046059
1016.729559	0.046198
1016.899641	0.046208
1017.069704	0.047330
1017.239749	0.047965
1017.409775	0.050540
1017.579784	0.051489
1017.749774	0.053416
1017.919746	0.053986
1018.089700	0.053671
1018.259635	0.052838
1018.429553	0.054914
1018.599452	0.053631
1018.769333	0.052789
1018.939195	0.051044
1019.109040	0.049488
1019.278866	0.048353
1019.448674	0.048469
1019.618464	0.048128
1019.788235	0.047724
1019.957989	0.046335
1020.127724	0.045572
1020.297441	0.044826
1020.467139	0.045020
1020.636820	0.046390
1020.806482	0.045809
1020.976126	0.047614
1021.145752	0.048210
1021.315359	0.047368
1021.484948	0.048159
1021.654519	0.048765
1021.824072	0.047771
1021.993607	0.046428
1022.163123	0.045401
1022.332621	0.044934
1022.502101	0.042874
1022.671563	0.043186
1022.841007	0.044421
1023.010432	0.043560
1023.179839	0.043053
1023.349228	0.044559
1023.518598	0.044273
1023.687951	0.045684
1023.857285	0.047455
1024.026601	0.047466
1024.195899	0.046617
1024.365178	0.045393
1024.534439	0.045855
1024.703682	0.045143
1024.872907	0.046544
1025.042114	0.047090
1025.211302	0.045449
1025.380472	0.045386
1025.549624	0.044669
1025.718758	0.044840
1025.887873	0.045351
1026.056970	0.046177
1026.226049	0.049432
1026.395110	0.047039
1026.564153	0.046623
1026.733177	0.047610
1026.902183	0.045981
1027.071171	0.046534
1027.240141	0.047663
1027.409092	0.047996
1027.578026	0.047655
1027.746940	0.045085
1027.915837	0.044954
1028.084716	0.045148
1028.253576	0.044214
1028.422418	0.045558
1028.591242	0.046361
1028.760048	0.046828
1028.928835	0.046701
1029.097604	0.047464
1029.266355	0.047834
1029.435088	0.046521
1029.603803	0.046525
1029.772499	0.045538
1029.941177	0.043672
1030.109837	0.041625
1030.278478	0.039793
1030.447102	0.039508
1030.615707	0.038514
1030.784294	0.039881
1030.952863	0.041723
1031.121413	0.039592
1031.289945	0.039845
1031.458460	0.040978
1031.626955	0.042705
1031.795433	0.043172
1031.963892	0.043083
1032.132334	0.041570
1032.300756	0.039362
1032.469161	0.038601
1032.637548	0.040236
1032.805916	0.042013
1032.974266	0.040797
1033.142598	0.039863
1033.310911	0.040263
1033.479207	0.040832
1033.647484	0.041184
1033.815743	0.041288
1033.983983	0.041133
1034.152206	0.039916
1034.320410	0.038313
1034.488596	0.040951
1034.656764	0.041668
1034.824914	0.040452
1034.993045	0.039214
1035.161158	0.038515
1035.329253	0.040028
1035.497330	0.041160
1035.665388	0.042699
1035.833428	0.042467
1036.001450	0.039680
1036.169454	0.039316
1036.337440	0.039172
1036.505407	0.039999
1036.673356	0.040859
1036.841287	0.039605
1037.009200	0.039284
1037.177094	0.039886
1037.344970	0.041622
1037.512828	0.042973
1037.680668	0.040950
1037.848489	0.042257
1038.016293	0.041020
1038.184078	0.040746
1038.351845	0.040526
1038.519593	0.038766
1038.687324	0.037885
1038.855036	0.037221
1039.022730	0.037807
1039.190406	0.041665
1039.358063	0.039287
1039.525702	0.040558
1039.693323	0.041391
1039.860926	0.042907
1040.028511	0.043759
1040.196077	0.042497
1040.363625	0.041988
1040.531155	0.041104
1040.698667	0.039159
1040.866161	0.041403
1041.033636	0.040034
1041.201093	0.038588
1041.368532	0.037588
1041.535952	0.038560
1041.703355	0.040334
1041.870739	0.039207
1042.038105	0.039346
1042.205452	0.039555
1042.372782	0.039104
1042.540093	0.040369
1042.707386	0.041633
1042.874661	0.042036
1043.041918	0.042045
1043.209156	0.041109
1043.376376	0.043254
1043.543578	0.043076
1043.710762	0.041399
1043.877927	0.040706
1044.045074	0.041917
1044.212203	0.043049
1044.379314	0.041307
1044.546407	0.040472
1044.713481	0.040751
1044.880537	0.039642
1045.047575	0.038770
1045.214595	0.040262
1045.381596	0.041589
1045.548579	0.040534
1045.715544	0.040833
1045.882491	0.041578
1046.049420	0.041435
1046.216330	0.039721
1046.383222	0.039936
1046.550096	0.040712
1046.716951	0.042553
1046.883789	0.039822
1047.050608	0.038092
1047.217409	0.037890
1047.384192	0.037873
1047.550956	0.039363
1047.717703	0.040833
1047.884431	0.039477
1048.051140	0.039032
1048.217832	0.037418
1048.384505	0.039994
1048.551161	0.041033
1048.717798	0.039910
1048.884416	0.041771
1049.051017	0.041129
1049.217599	0.040659
1049.384163	0.042370
1049.550709	0.041647
1049.717237	0.039749
1049.883746	0.038267
1050.050237	0.037986
1050.216710	0.038481
1050.383165	0.037497
1050.549601	0.036502
1050.716019	0.037095
1050.882420	0.036278
1051.048801	0.036177
1051.215165	0.038884
1051.381510	0.039425
1051.547837	0.039639
1051.714146	0.039393
1051.880437	0.040492
1052.046709	0.041859
1052.212964	0.041109
1052.379200	0.042270
1052.545417	0.043556
1052.711617	0.043224
1052.877798	0.043079
1053.043961	0.044324
1053.210106	0.043748
1053.376233	0.042473
1053.542341	0.040032
1053.708432	0.039463
1053.874504	0.038657
1054.040557	0.039896
1054.206593	0.038868
1054.372610	0.038694
1054.538609	0.038874
1054.704590	0.037447
1054.870553	0.036264
1055.036497	0.037289
1055.202424	0.040020
1055.368331	0.040304
1055.534221	0.039722
1055.700093	0.041059
1055.865946	0.043872
1056.031781	0.041648
1056.197598	0.044656
1056.363397	0.046225
1056.529177	0.048006
1056.694939	0.047039
1056.860683	0.048400
1057.026409	0.047869
1057.192116	0.046932
1057.357806	0.045941
1057.523477	0.046914
1057.689130	0.046360
1057.854764	0.046806
1058.020381	0.046184
1058.185979	0.044847
1058.351559	0.044646
1058.517120	0.045072
1058.682664	0.044207
1058.848189	0.043918
1059.013696	0.044671
1059.179185	0.045422
1059.344656	0.045214
1059.510108	0.044719
1059.675542	0.046991
1059.840958	0.047624
1060.006356	0.047286
1060.171735	0.048739
1060.337096	0.047707
1060.502439	0.049093
1060.667764	0.046767
1060.833071	0.046281
1060.998359	0.047126
1061.163629	0.046955
1061.328881	0.046824
1061.494115	0.045745
1061.659330	0.044626
1061.824527	0.044229
1061.989706	0.043102
1062.154867	0.044879
1062.320010	0.046361
1062.485134	0.047111
1062.650240	0.047419
1062.815328	0.045000
1062.980398	0.047245
1063.145449	0.047544
1063.310482	0.048254
1063.475497	0.048516
1063.640494	0.047167
1063.805473	0.046397
1063.970433	0.046332
1064.135375	0.045154
1064.300299	0.045412
1064.465204	0.045253
1064.630092	0.045228
1064.794961	0.045597
1064.959812	0.045791
1065.124645	0.044442
1065.289459	0.044086
1065.454256	0.042823
1065.619034	0.042792
1065.783793	0.045071
1065.948535	0.044644
1066.113258	0.046427
1066.277964	0.048293
1066.442651	0.048917
1066.607319	0.050203
1066.771970	0.051755
1066.936602	0.052598
1067.101216	0.053751
1067.265812	0.054458
1067.430389	0.054869
1067.594949	0.053895
1067.759490	0.053541
1067.924013	0.052207
1068.088518	0.052523
1068.253004	0.050748
1068.417472	0.051033
1068.581922	0.050825
1068.746354	0.049245
1068.910768	0.049379
1069.075163	0.049153
1069.239540	0.048557
1069.403899	0.047603
1069.568240	0.049042
1069.732562	0.049410
1069.896866	0.049067
1070.061152	0.050671
1070.225420	0.051993
1070.389670	0.053448
1070.553901	0.051278
1070.718114	0.053206
1070.882309	0.053430
1071.046486	0.053311
1071.210644	0.054406
1071.374784	0.054532
1071.538906	0.051237
1071.703010	0.049684
1071.867096	0.048744
1072.031163	0.051788
1072.195212	0.048666
1072.359243	0.049702
1072.523256	0.051014
1072.687250	0.049484
1072.851226	0.050027
1073.015184	0.053086
1073.179124	0.052952
1073.343045	0.051812
1073.506949	0.053025
1073.670834	0.051863
1073.834701	0.052829
1073.998549	0.052253
1074.162380	0.053455
1074.326192	0.050157
1074.489986	0.049032
1074.653761	0.049156
1074.817519	0.050047
1074.981258	0.046647
1075.144979	0.049491
1075.308682	0.047415
1075.472367	0.046049
1075.636033	0.046352
1075.799681	0.048989
1075.963311	0.047000
1076.126923	0.047908
1076.290516	0.046258
1076.454092	0.047385
1076.617649	0.048479
1076.781187	0.051057
1076.944708	0.051822
1077.108210	0.050322
1077.271695	0.049711
1077.435160	0.053670
1077.598608	0.053047
1077.762038	0.053972
1077.925449	0.056986
1078.088842	0.055080
1078.252217	0.052315
1078.415573	0.051026
1078.578912	0.052573
1078.742232	0.054408
1078.905534	0.051607
1079.068817	0.050836
1079.232083	0.051040
1079.395330	0.048065
1079.558559	0.050448
1079.721770	0.051233
1079.884962	0.053241
1080.048136	0.052862
1080.211293	0.053615
1080.374430	0.052553
1080.537550	0.053626
1080.700651	0.055100
1080.863735	0.055050
1081.026800	0.051261
1081.189846	0.054875
1081.352875	0.053983
1081.515885	0.052129
1081.678877	0.051996
1081.841851	0.055191
1082.004807	0.058042
1082.167744	0.057938
1082.330663	0.059810
1082.493564	0.061824
1082.656447	0.059350
1082.819312	0.059099
1082.982158	0.061917
1083.144986	0.061685
1083.307796	0.061518
1083.470587	0.058019
1083.633361	0.057978
1083.796116	0.055720
1083.958853	0.055956
1084.121571	0.055866
1084.284272	0.059055
1084.446954	0.060170
1084.609618	0.058109
1084.772264	0.058154
1084.934892	0.058768
1085.097501	0.060617
1085.260092	0.063862
1085.422665	0.066045
1085.585220	0.067416
1085.747756	0.064082
1085.910274	0.066703
1086.072774	0.066898
1086.235256	0.067372
1086.397720	0.068812
1086.560165	0.066825
1086.722592	0.066827
1086.885001	0.063822
1087.047392	0.063179
1087.209764	0.064418
1087.372119	0.059635
1087.534455	0.061692
1087.696772	0.060206
1087.859072	0.059313
1088.021353	0.058617
1088.183616	0.059821
1088.345861	0.062302
1088.508088	0.061324
1088.670296	0.064587
1088.832486	0.065037
1088.994658	0.064185
1089.156812	0.065761
1089.318948	0.067714
1089.481065	0.068217
1089.643164	0.067474
1089.805245	0.065052
1089.967308	0.064199
1090.129352	0.060590
1090.291378	0.060878
1090.453386	0.062296
1090.615376	0.063055
1090.777347	0.061889
1090.939301	0.061438
1091.101236	0.057798
1091.263153	0.060623
1091.425051	0.063846
1091.586932	0.065286
1091.748794	0.067401
1091.910638	0.065671
1092.072463	0.063583
1092.234271	0.064786
1092.396060	0.063412
1092.557831	0.064146
1092.719584	0.059215
1092.881319	0.055360
1093.043035	0.058029
1093.204733	0.053945
1093.366413	0.055210
1093.528075	0.056377
1093.689718	0.052663
1093.851343	0.057870
1094.012950	0.060289
1094.174539	0.062864
1094.336110	0.066061
1094.497662	0.060446
1094.659196	0.064418
1094.820712	0.064028
1094.982210	0.063381
1095.143689	0.066849
1095.305151	0.063470
1095.466594	0.065147
1095.628018	0.068718
1095.789425	0.070208
1095.950813	0.072853
1096.112183	0.070305
1096.273535	0.072434
1096.434869	0.072238
1096.596184	0.071977
1096.757482	0.071073
1096.918761	0.068507
1097.080021	0.069348
1097.241264	0.069569
1097.402488	0.069646
1097.563694	0.071922
1097.724882	0.068216
1097.886052	0.069259
1098.047203	0.070677
1098.208336	0.074029
1098.369451	0.073153
1098.530548	0.071556
1098.691627	0.071300
1098.852687	0.069685
1099.013729	0.066496
1099.174753	0.066907
1099.335758	0.069800
1099.496746	0.068947
1099.657715	0.064728
1099.818666	0.066511
1099.979599	0.066508
1100.140513	0.063624
1100.301409	0.065020
1100.462287	0.067939
1100.623147	0.068965
1100.783989	0.067860
1100.944812	0.067890
1101.105617	0.073630
1101.266404	0.071216
1101.427173	0.070370
1101.587923	0.073137
1101.748656	0.072165
1101.909370	0.070310
1102.070066	0.069849
1102.230743	0.066236
1102.391403	0.066004
1102.552044	0.066442
1102.712667	0.067056
1102.873271	0.063218
1103.033858	0.060745
1103.194426	0.063702
1103.354976	0.067798
1103.515508	0.066781
1103.676021	0.066711
1103.836517	0.066550
1103.996994	0.063650
1104.157453	0.064038
1104.317893	0.064859
1104.478316	0.065452
1104.638720	0.062969
1104.799106	0.058691
1104.959474	0.060946
1105.119823	0.062503
1105.280155	0.062321
1105.440468	0.065547
1105.600763	0.068911
1105.761039	0.077456
1105.921298	0.080602
1106.081538	0.084029
1106.241760	0.087412
1106.401964	0.088245
1106.562149	0.088764
1106.722316	0.088881
1106.882465	0.083830
1107.042596	0.080128
1107.202709	0.075702
1107.362803	0.076868
1107.522879	0.076146
1107.682937	0.075926
1107.842977	0.075796
1108.002999	0.076505
1108.163002	0.079468
1108.322987	0.078913
1108.482954	0.081865
1108.642902	0.079477
1108.802833	0.075214
1108.962745	0.074465
1109.122639	0.076170
1109.282515	0.075973
1109.442372	0.075794
1109.602211	0.074730
1109.762032	0.075356
1109.921835	0.077722
1110.081620	0.079602
1110.241386	0.085662
1110.401134	0.087083
1110.560864	0.083952
1110.720576	0.080843
1110.880269	0.081188
1111.039945	0.077210
1111.199602	0.084662
1111.359240	0.082314
1111.518861	0.084327
1111.678463	0.083034
1111.838047	0.079237
1111.997613	0.078459
1112.157161	0.079435
1112.316690	0.080972
1112.476202	0.085384
1112.635695	0.081127
1112.795169	0.083012
1112.954626	0.080719
1113.114064	0.080974
1113.273484	0.081193
1113.432886	0.087164
1113.592270	0.092743
1113.751635	0.089783
1113.910983	0.087944
1114.070312	0.089478
1114.229622	0.087237
1114.388915	0.085291
1114.548189	0.079930
1114.707445	0.087917
1114.866683	0.083813
1115.025903	0.080801
1115.185104	0.082390
1115.344287	0.082734
1115.503452	0.080966
1115.662599	0.082412
1115.821727	0.087155
1115.980838	0.090713
1116.139930	0.085580
1116.299004	0.085836
1116.458059	0.086697
1116.617097	0.086356
1116.776116	0.087909
1116.935117	0.090616
1117.094099	0.089497
1117.253064	0.087734
1117.412010	0.085071
1117.570938	0.085216
1117.729848	0.083249
1117.888740	0.088202
1118.047613	0.086505
1118.206468	0.087513
1118.365305	0.087140
1118.524124	0.086419
1118.682924	0.081566
1118.841707	0.087915
1119.000471	0.090825
1119.159216	0.095369
1119.317944	0.094066
1119.476653	0.092130
1119.635344	0.089889
1119.794017	0.087399
1119.952672	0.087978
1120.111308	0.090172
1120.269927	0.089251
1120.428527	0.088653
1120.587108	0.093407
1120.745672	0.087623
1120.904217	0.094326
1121.062744	0.092294
1121.221253	0.087972
1121.379744	0.086438
1121.538216	0.093788
1121.696671	0.090917
1121.855107	0.089739
1122.013524	0.082676
1122.171924	0.087972
1122.330305	0.087895
1122.488668	0.088809
1122.647013	0.096828
1122.805340	0.100431
1122.963648	0.094521
1123.121938	0.093856
1123.280210	0.083804
1123.438464	0.085667
1123.596700	0.081684
1123.754917	0.079286
1123.913116	0.084554
1124.071297	0.078355
1124.229459	0.080091
1124.387604	0.087861
1124.545730	0.088020
1124.703838	0.100653
1124.861928	0.099184
1125.019999	0.098009
1125.178052	0.098983
1125.336088	0.092979
1125.494104	0.096759
1125.652103	0.098300
1125.810083	0.091186
1125.968045	0.095165
1126.125989	0.090796
1126.283915	0.090576
1126.441823	0.095725
1126.599712	0.098960
1126.757583	0.094757
1126.915436	0.087298
1127.073270	0.079448
1127.231087	0.078731
1127.388885	0.074855
1127.546665	0.074170
1127.704426	0.075262
1127.862170	0.078525
1128.019895	0.074055
1128.177602	0.083508
1128.335291	0.089561
1128.492961	0.093939
1128.650614	0.098202
1128.808248	0.102737
1128.965864	0.106697
1129.123461	0.108730
1129.281041	0.101905
1129.438602	0.104352
1129.596145	0.104935
1129.753670	0.104044
1129.911176	0.104764
1130.068665	0.105114
1130.226135	0.104368
1130.383587	0.102015
1130.541020	0.100166
1130.698436	0.099745
1130.855833	0.098794
1131.013212	0.096446
1131.170573	0.097871
1131.327915	0.098587
1131.485239	0.099187
1131.642545	0.095496
1131.799833	0.096726
1131.957103	0.093809
1132.114354	0.094418
1132.271588	0.093512
1132.428803	0.091770
1132.585999	0.096869
1132.743178	0.098316
1132.900338	0.087537
1133.057480	0.086964
1133.214604	0.089669
1133.371710	0.095257
1133.528797	0.092346
1133.685866	0.092210
1133.842917	0.089978
1133.999950	0.085846
1134.156964	0.080262
1134.313960	0.090286
1134.470938	0.095023
1134.627898	0.093839
1134.784840	0.090640
1134.941763	0.094875
1135.098668	0.098017
1135.255555	0.103936
1135.412424	0.105151
1135.569274	0.115610
1135.726107	0.114325
1135.882921	0.107807
1136.039716	0.108617
1136.196494	0.108596
1136.353253	0.106660
1136.509995	0.096703
1136.666717	0.091010
1136.823422	0.086983
1136.980109	0.086705
1137.136777	0.091746
1137.293427	0.090424
1137.450059	0.089014
1137.606672	0.089545
1137.763267	0.087387
1137.919844	0.095364
1138.076403	0.097754
1138.232944	0.105728
1138.389466	0.110189
1138.545971	0.105560
1138.702457	0.112217
1138.858924	0.112186
1139.015374	0.114131
1139.171805	0.111592
1139.328218	0.112013
1139.484613	0.116889
1139.640990	0.111788
1139.797348	0.092771
1139.953688	0.090393
1140.110010	0.090528
1140.266314	0.082590
1140.422600	0.080051
1140.578867	0.081051
1140.735116	0.083624
1140.891347	0.083260
1141.047559	0.089139
1141.203754	0.095429
1141.359930	0.094873
1141.516088	0.101596
1141.672228	0.112501
1141.828349	0.109391
1141.984452	0.111181
1142.140537	0.101205
1142.296604	0.101464
1142.452653	0.093328
1142.608683	0.096710
1142.764695	0.097232
1142.920689	0.097778
1143.076665	0.091604
1143.232622	0.097830
1143.388562	0.094865
1143.544483	0.100476
1143.700385	0.101232
1143.856270	0.102478
1144.012136	0.097947
1144.167985	0.101626
1144.323814	0.098102
1144.479626	0.099181
1144.635420	0.098629
1144.791195	0.105002
1144.946952	0.106679
1145.102691	0.105016
1145.258411	0.100314
1145.414113	0.101697
1145.569798	0.096089
1145.725463	0.091907
1145.881111	0.100145
1146.036741	0.097812
1146.192352	0.099578
1146.347945	0.100667
1146.503519	0.091801
1146.659076	0.097643
1146.814614	0.105476
1146.970134	0.102483
1147.125636	0.098000
1147.281120	0.090107
1147.436585	0.087885
1147.592032	0.079438
1147.747461	0.074496
1147.902872	0.077146
1148.058265	0.076944
1148.213639	0.065312
1148.368995	0.068706
1148.524333	0.068128
1148.679653	0.072203
1148.834954	0.076131
1148.990237	0.085049
1149.145502	0.094924
1149.300749	0.101692
1149.455977	0.099373
1149.611188	0.098441
1149.766380	0.109954
1149.921553	0.111381
1150.076709	0.100619
1150.231846	0.096631
1150.386966	0.099999
1150.542066	0.094032
1150.697149	0.082996
1150.852214	0.084147
1151.007260	0.088562
1151.162288	0.069415
1151.317298	0.074380
1151.472289	0.083512
1151.627263	0.083337
1151.782218	0.081278
1151.937155	0.081850
1152.092073	0.093352
1152.246974	0.088777
1152.401856	0.087791
1152.556720	0.098720
1152.711566	0.097393
1152.866393	0.096835
1153.021203	0.099771
1153.175994	0.095130
1153.330767	0.087945
1153.485521	0.074853
1153.640258	0.078725
1153.794976	0.082116
1153.949676	0.076734
1154.104358	0.084157
1154.259021	0.088439
1154.413667	0.085539
1154.568294	0.081176
1154.722903	0.091054
1154.877493	0.096803
1155.032066	0.108893
1155.186620	0.116634
1155.341156	0.127663
1155.495674	0.117047
1155.650173	0.101036
1155.804654	0.097719
1155.959118	0.097053
1156.113562	0.087283
1156.267989	0.094844
1156.422397	0.078847
1156.576788	0.062078
1156.731160	0.060560
1156.885513	0.054539
1157.039849	0.067338
1157.194166	0.079416
1157.348465	0.075889
1157.502746	0.086079
1157.657009	0.081439
1157.811253	0.085588
1157.965479	0.097852
1158.119687	0.081933
1158.273877	0.083186
1158.428048	0.086045
1158.582201	0.081786
1158.736337	0.087320
1158.890453	0.086372
1159.044552	0.085709
1159.198632	0.085377
1159.352694	0.082519
1159.506738	0.087830
1159.660764	0.098487
1159.814771	0.098355
1159.968761	0.100804
1160.122732	0.111601
1160.276685	0.100375
1160.430619	0.106519
1160.584535	0.103853
1160.738434	0.102214
1160.892313	0.113846
1161.046175	0.096572
1161.200019	0.088112
1161.353844	0.080115
1161.507651	0.070685
1161.661440	0.073796
1161.815210	0.064937
1161.968962	0.072156
1162.122697	0.069666
1162.276412	0.073145
1162.430110	0.085580
1162.583789	0.084523
1162.737451	0.083271
1162.891094	0.087808
1163.044718	0.088673
1163.198325	0.099739
1163.351913	0.095844
1163.505483	0.089912
1163.659035	0.088884
1163.812569	0.086042
1163.966084	0.075141
1164.119581	0.078570
1164.273060	0.080628
1164.426521	0.080588
1164.579964	0.059387
1164.733388	0.058896
1164.886794	0.072045
1165.040182	0.079123
1165.193551	0.077019
1165.346903	0.084009
1165.500236	0.085892
1165.653551	0.077107
1165.806848	0.082882
1165.960126	0.101329
1166.113386	0.105621
1166.266628	0.101202
1166.419852	0.096936
1166.573058	0.094211
1166.726245	0.115103
1166.879414	0.107653
1167.032565	0.125245
1167.185698	0.111759
1167.338812	0.117535
1167.491909	0.114989
1167.644987	0.126350
1167.798046	0.108749
1167.951088	0.118898
1168.104111	0.098581
1168.257117	0.109756
1168.410103	0.095452
1168.563072	0.102525
1168.716023	0.088670
1168.868955	0.074559
1169.021869	0.069568
1169.174765	0.079154
1169.327642	0.071524
1169.480501	0.065933
1169.633343	0.042319
1169.786165	0.050754
1169.938970	0.068763
1170.091757	0.065500
1170.244525	0.104938
1170.397275	0.096467
1170.550007	0.087837
1170.702720	0.092071
1170.855415	0.103206
1171.008092	0.120108
1171.160751	0.113937
1171.313392	0.097073
1171.466014	0.112577
1171.618619	0.087026
1171.771205	0.087026
1171.923772	0.087026
