sample name	sample
index	958
start time	 04-12-2021  04:01:12 PM


Wavelength (nm)	Absorbance
494.344910	-0.193606
494.563924	-0.193606
494.782919	-0.193606
495.001897	-0.323012
495.220856	-0.139099
495.439797	-0.116534
495.658719	-0.106894
495.877624	-0.062872
496.096510	0.009325
496.315378	0.028793
496.534227	0.087309
496.753059	0.081230
496.971872	0.060167
497.190667	0.077019
497.409444	0.081842
497.628203	0.083739
497.846943	0.082816
498.065665	0.083373
498.284369	0.083122
498.503055	0.082739
498.721723	0.083319
498.940372	0.084386
499.159003	0.084871
499.377616	0.084845
499.596210	0.084812
499.814787	0.085231
500.033345	0.084350
500.251885	0.084811
500.470406	0.086012
500.688910	0.085278
500.907395	0.085490
501.125862	0.085026
501.344311	0.085205
501.562742	0.085386
501.781154	0.086459
501.999548	0.087721
502.217924	0.088125
502.436282	0.087246
502.654621	0.088507
502.872942	0.088312
503.091245	0.089030
503.309530	0.090176
503.527797	0.090224
503.746045	0.089480
503.964275	0.088193
504.182487	0.087943
504.400681	0.088640
504.618856	0.087686
504.837013	0.088499
505.055152	0.087853
505.273273	0.087369
505.491376	0.087239
505.709460	0.087665
505.927526	0.088626
506.145574	0.087926
506.363604	0.088295
506.581615	0.088556
506.799608	0.087976
507.017583	0.088612
507.235540	0.088407
507.453478	0.089599
507.671399	0.089548
507.889301	0.089530
508.107185	0.091179
508.325050	0.090545
508.542898	0.091235
508.760727	0.091812
508.978538	0.091890
509.196330	0.092307
509.414105	0.092126
509.631861	0.092592
509.849599	0.092952
510.067319	0.092363
510.285021	0.092294
510.502704	0.092411
510.720369	0.091554
510.938016	0.091852
511.155645	0.092444
511.373255	0.092267
511.590848	0.091861
511.808422	0.091551
512.025977	0.091867
512.243515	0.092904
512.461034	0.092899
512.678536	0.093804
512.896018	0.093998
513.113483	0.093250
513.330930	0.092919
513.548358	0.093711
513.765768	0.094413
513.983160	0.094185
514.200533	0.093721
514.417889	0.092611
514.635226	0.092879
514.852545	0.092931
515.069845	0.093949
515.287128	0.094613
515.504392	0.094211
515.721638	0.093988
515.938866	0.094705
516.156075	0.094664
516.373267	0.095650
516.590440	0.096278
516.807594	0.095788
517.024731	0.095210
517.241850	0.095858
517.458950	0.096292
517.676032	0.096865
517.893095	0.096913
518.110141	0.097128
518.327168	0.097219
518.544177	0.096949
518.761168	0.097459
518.978141	0.097821
519.195095	0.096982
519.412031	0.097088
519.628949	0.097361
519.845849	0.097391
520.062731	0.097371
520.279594	0.098230
520.496439	0.097991
520.713266	0.098143
520.930074	0.097897
521.146865	0.098046
521.363637	0.097741
521.580391	0.097384
521.797127	0.097042
522.013844	0.097327
522.230543	0.096957
522.447224	0.097064
522.663887	0.097532
522.880532	0.098240
523.097158	0.099279
523.313766	0.099260
523.530356	0.099053
523.746928	0.099773
523.963481	0.100006
524.180017	0.100738
524.396534	0.100907
524.613032	0.100667
524.829513	0.100131
525.045975	0.099698
525.262420	0.100102
525.478845	0.100526
525.695253	0.100749
525.911643	0.100746
526.128014	0.100240
526.344367	0.100300
526.560702	0.101008
526.777018	0.101467
526.993316	0.101805
527.209597	0.102338
527.425858	0.102114
527.642102	0.102146
527.858328	0.102223
528.074535	0.102680
528.290724	0.103447
528.506894	0.103297
528.723047	0.103531
528.939181	0.103691
529.155297	0.104006
529.371395	0.104378
529.587475	0.104663
529.803536	0.104985
530.019579	0.105104
530.235604	0.105265
530.451611	0.105364
530.667600	0.105904
530.883570	0.105800
531.099522	0.105637
531.315456	0.106292
531.531372	0.106403
531.747269	0.106521
531.963148	0.106468
532.179009	0.106485
532.394852	0.106834
532.610676	0.107042
532.826482	0.107767
533.042271	0.107931
533.258040	0.108055
533.473792	0.108579
533.689525	0.108760
533.905240	0.109160
534.120937	0.109242
534.336616	0.109127
534.552277	0.109046
534.767919	0.108545
534.983543	0.108358
535.199149	0.108422
535.414736	0.108278
535.630306	0.108989
535.845857	0.109236
536.061390	0.108978
536.276904	0.109385
536.492401	0.109824
536.707879	0.110397
536.923339	0.110966
537.138781	0.111269
537.354204	0.111366
537.569610	0.111565
537.784997	0.112080
538.000366	0.112362
538.215716	0.112423
538.431049	0.112252
538.646363	0.112148
538.861659	0.112796
539.076937	0.112751
539.292196	0.112898
539.507438	0.112471
539.722661	0.112329
539.937866	0.112883
540.153052	0.113081
540.368221	0.113020
540.583371	0.113358
540.798503	0.112846
541.013617	0.113338
541.228712	0.113640
541.443789	0.114089
541.658848	0.113930
541.873889	0.113701
542.088912	0.113639
542.303916	0.114054
542.518902	0.114262
542.733870	0.114647
542.948820	0.114968
543.163752	0.115603
543.378665	0.115678
543.593560	0.116381
543.808437	0.116611
544.023295	0.116819
544.238136	0.117134
544.452958	0.117226
544.667762	0.117367
544.882548	0.117024
545.097315	0.117018
545.312064	0.117254
545.526795	0.117329
545.741508	0.117012
545.956203	0.117413
546.170879	0.117366
546.385537	0.117791
546.600177	0.117751
546.814799	0.117528
547.029402	0.117207
547.243988	0.117234
547.458555	0.117355
547.673103	0.117845
547.887634	0.118186
548.102146	0.118530
548.316640	0.118535
548.531116	0.118720
548.745574	0.119037
548.960013	0.118827
549.174435	0.119174
549.388838	0.119517
549.603222	0.119664
549.817589	0.119882
550.031937	0.119803
550.246267	0.120024
550.460579	0.120059
550.674873	0.120501
550.889148	0.121424
551.103405	0.121171
551.317644	0.121418
551.531865	0.121515
551.746068	0.121323
551.960252	0.121607
552.174418	0.121617
552.388566	0.121885
552.602696	0.121631
552.816807	0.121634
553.030900	0.121803
553.244975	0.121327
553.459032	0.121510
553.673070	0.121679
553.887091	0.121387
554.101093	0.121463
554.315077	0.121465
554.529042	0.121789
554.742990	0.121571
554.956919	0.121964
555.170830	0.121897
555.384722	0.122091
555.598597	0.122278
555.812453	0.122814
556.026291	0.122859
556.240111	0.122581
556.453913	0.122775
556.667696	0.123359
556.881461	0.123355
557.095208	0.124108
557.308937	0.123979
557.522647	0.123959
557.736339	0.123977
557.950013	0.124027
558.163669	0.124797
558.377307	0.124879
558.590926	0.124467
558.804527	0.124423
559.018110	0.124109
559.231675	0.124427
559.445221	0.124285
559.658749	0.124417
559.872259	0.124725
560.085751	0.124731
560.299225	0.125006
560.512680	0.125490
560.726117	0.125589
560.939536	0.125826
561.152937	0.125540
561.366319	0.125805
561.579683	0.125588
561.793029	0.125614
562.006357	0.125464
562.219667	0.125103
562.432958	0.124701
562.646231	0.125142
562.859486	0.125036
563.072723	0.125546
563.285941	0.125303
563.499141	0.125433
563.712323	0.126027
563.925487	0.126268
564.138632	0.126659
564.351760	0.127035
564.564869	0.126752
564.777960	0.127045
564.991032	0.126970
565.204087	0.127475
565.417123	0.127544
565.630141	0.126856
565.843140	0.127231
566.056122	0.127404
566.269085	0.127056
566.482030	0.127269
566.694957	0.127062
566.907866	0.127215
567.120756	0.127241
567.333628	0.127721
567.546482	0.128122
567.759318	0.127806
567.972135	0.127855
568.184935	0.128304
568.397716	0.128368
568.610478	0.128371
568.823223	0.128602
569.035949	0.128430
569.248657	0.128060
569.461347	0.128019
569.674019	0.128166
569.886672	0.128273
570.099308	0.128589
570.311925	0.128749
570.524523	0.129338
570.737104	0.129499
570.949666	0.130003
571.162210	0.130019
571.374736	0.130102
571.587244	0.130360
571.799733	0.130274
572.012205	0.130251
572.224658	0.130318
572.437092	0.130162
572.649509	0.130232
572.861907	0.130041
573.074287	0.130515
573.286649	0.130822
573.498993	0.131024
573.711318	0.131232
573.923625	0.131386
574.135914	0.131326
574.348185	0.131166
574.560438	0.131120
574.772672	0.131096
574.984888	0.130805
575.197086	0.130585
575.409266	0.130412
575.621427	0.130166
575.833570	0.130254
576.045695	0.130144
576.257802	0.130317
576.469890	0.130457
576.681961	0.130340
576.894013	0.130750
577.106046	0.130825
577.318062	0.130894
577.530059	0.131303
577.742039	0.131486
577.954000	0.131831
578.165942	0.132183
578.377867	0.132209
578.589773	0.132819
578.801661	0.133190
579.013531	0.133389
579.225382	0.133464
579.437216	0.133531
579.649031	0.133408
579.860828	0.133325
580.072606	0.133406
580.284367	0.133592
580.496109	0.133434
580.707833	0.133173
580.919539	0.133475
581.131227	0.133549
581.342896	0.133559
581.554547	0.133569
581.766180	0.133575
581.977795	0.133588
582.189391	0.133968
582.400969	0.134211
582.612529	0.134276
582.824071	0.133980
583.035595	0.134166
583.247100	0.134466
583.458587	0.134537
583.670056	0.134988
583.881506	0.135106
584.092939	0.134611
584.304353	0.134797
584.515749	0.134882
584.727127	0.135402
584.938486	0.135402
585.149828	0.135385
585.361151	0.135560
585.572456	0.135720
585.783742	0.135820
585.995011	0.136166
586.206261	0.136108
586.417493	0.136379
586.628706	0.136098
586.839902	0.136157
587.051079	0.136298
587.262238	0.136442
587.473379	0.136290
587.684502	0.136466
587.895606	0.136446
588.106692	0.136712
588.317760	0.136771
588.528810	0.137004
588.739841	0.137343
588.950855	0.137432
589.161850	0.137290
589.372827	0.137443
589.583785	0.137594
589.794726	0.137791
590.005648	0.137662
590.216552	0.137537
590.427437	0.137082
590.638305	0.137255
590.849154	0.137416
591.059985	0.137831
591.270798	0.138136
591.481592	0.138173
591.692369	0.138183
591.903127	0.138307
592.113867	0.138596
592.324588	0.139231
592.535292	0.139038
592.745977	0.138804
592.956644	0.138690
593.167293	0.138733
593.377923	0.138802
593.588536	0.138736
593.799130	0.138832
594.009706	0.138857
594.220263	0.139152
594.430803	0.139449
594.641324	0.139872
594.851827	0.139892
595.062312	0.139710
595.272778	0.139447
595.483227	0.139666
595.693657	0.139762
595.904069	0.139730
596.114462	0.139588
596.324838	0.139554
596.535195	0.139334
596.745534	0.139577
596.955855	0.139958
597.166157	0.140226
597.376441	0.140501
597.586707	0.140394
597.796955	0.140405
598.007185	0.140557
598.217396	0.140810
598.427589	0.140858
598.637764	0.141042
598.847921	0.140836
599.058060	0.140993
599.268180	0.140880
599.478282	0.141062
599.688366	0.141242
599.898431	0.141214
600.108479	0.140852
600.318508	0.140935
600.528519	0.140853
600.738511	0.140975
600.948486	0.140665
601.158442	0.140770
601.368380	0.140662
601.578300	0.140702
601.788202	0.140628
601.998085	0.140798
602.207950	0.141001
602.417797	0.140942
602.627626	0.140829
602.837436	0.141213
603.047228	0.140900
603.257002	0.141342
603.466758	0.141394
603.676496	0.141775
603.886215	0.142013
604.095916	0.141973
604.305599	0.141833
604.515264	0.142028
604.724910	0.141866
604.934538	0.142336
605.144148	0.142202
605.353740	0.142432
605.563314	0.142366
605.772869	0.142459
605.982406	0.142800
606.191925	0.143291
606.401425	0.143599
606.610908	0.143683
606.820372	0.143681
607.029818	0.143902
607.239246	0.143838
607.448655	0.143698
607.658047	0.143725
607.867420	0.143611
608.076775	0.143121
608.286111	0.143048
608.495430	0.143318
608.704730	0.143413
608.914012	0.143470
609.123275	0.143814
609.332521	0.144254
609.541748	0.144394
609.750957	0.144467
609.960148	0.144808
610.169321	0.144712
610.378475	0.144778
610.587611	0.144690
610.796729	0.144681
611.005829	0.144503
611.214910	0.144209
611.423974	0.144061
611.633019	0.144213
611.842045	0.144440
612.051054	0.144831
612.260044	0.144924
612.469017	0.145135
612.677970	0.145164
612.886906	0.145213
613.095824	0.145603
613.304723	0.145649
613.513604	0.145766
613.722467	0.146021
613.931311	0.146128
614.140138	0.146040
614.348946	0.146162
614.557736	0.146398
614.766507	0.146348
614.975261	0.146180
615.183996	0.146431
615.392713	0.146607
615.601412	0.146380
615.810092	0.146503
616.018754	0.146746
616.227399	0.146734
616.436024	0.146846
616.644632	0.147017
616.853222	0.147128
617.061793	0.147201
617.270346	0.147038
617.478880	0.147439
617.687397	0.147256
617.895895	0.147617
618.104375	0.147779
618.312837	0.147730
618.521281	0.147874
618.729706	0.147944
618.938113	0.147737
619.146502	0.147937
619.354873	0.147562
619.563226	0.147721
619.771560	0.147510
619.979876	0.147709
620.188174	0.148000
620.396453	0.148278
620.604715	0.148538
620.812958	0.148857
621.021183	0.148748
621.229390	0.148944
621.437578	0.148741
621.645748	0.148726
621.853900	0.148625
622.062034	0.148496
622.270150	0.148195
622.478247	0.148352
622.686326	0.148250
622.894387	0.148382
623.102430	0.148797
623.310454	0.149385
623.518461	0.149569
623.726449	0.149669
623.934418	0.149815
624.142370	0.149996
624.350303	0.149869
624.558218	0.150141
624.766115	0.150305
624.973994	0.150152
625.181855	0.149911
625.389697	0.149993
625.597521	0.150193
625.805327	0.150025
626.013114	0.150293
626.220883	0.150344
626.428634	0.150492
626.636367	0.150442
626.844082	0.150333
627.051778	0.150176
627.259457	0.150017
627.467117	0.149806
627.674758	0.149710
627.882382	0.149733
628.089987	0.149682
628.297574	0.149395
628.505143	0.149415
628.712694	0.149645
628.920226	0.150121
629.127740	0.150494
629.335236	0.150529
629.542714	0.150830
629.750174	0.150923
629.957615	0.151144
630.165038	0.151439
630.372443	0.151331
630.579829	0.151307
630.787198	0.151236
630.994548	0.151352
631.201880	0.151550
631.409194	0.151660
631.616489	0.151574
631.823766	0.151835
632.031025	0.151828
632.238266	0.152002
632.445489	0.152152
632.652693	0.152072
632.859879	0.151979
633.067047	0.152203
633.274197	0.152143
633.481329	0.152435
633.688442	0.152575
633.895537	0.152646
634.102614	0.152867
634.309672	0.153071
634.516713	0.153153
634.723735	0.153251
634.930739	0.153298
635.137724	0.153642
635.344692	0.153356
635.551641	0.153220
635.758572	0.153638
635.965485	0.153862
636.172379	0.153814
636.379256	0.154158
636.586114	0.154326
636.792954	0.154360
636.999775	0.154355
637.206579	0.154634
637.413364	0.154705
637.620131	0.154538
637.826880	0.154559
638.033610	0.154859
638.240323	0.154861
638.447017	0.154758
638.653692	0.154675
638.860350	0.154646
639.066990	0.154946
639.273611	0.155167
639.480214	0.155379
639.686798	0.155359
639.893365	0.155414
640.099913	0.155441
640.306443	0.155691
640.512955	0.155822
640.719449	0.155870
640.925924	0.155683
641.132381	0.155942
641.338820	0.155928
641.545241	0.156097
641.751644	0.156141
641.958028	0.156351
642.164394	0.156326
642.370742	0.156600
642.577071	0.156676
642.783383	0.156897
642.989676	0.156604
643.195951	0.156548
643.402207	0.156591
643.608446	0.156556
643.814666	0.156508
644.020868	0.156443
644.227052	0.156427
644.433218	0.156448
644.639365	0.156540
644.845494	0.156439
645.051605	0.156613
645.257698	0.156502
645.463772	0.156562
645.669828	0.156623
645.875866	0.156916
646.081886	0.156996
646.287888	0.157389
646.493871	0.157413
646.699836	0.157695
646.905783	0.157902
647.111712	0.158196
647.317622	0.158210
647.523514	0.158291
647.729388	0.158223
647.935244	0.158127
648.141082	0.158113
648.346901	0.158074
648.552702	0.158071
648.758485	0.158137
648.964250	0.158215
649.169996	0.158452
649.375724	0.158596
649.581434	0.158718
649.787126	0.159019
649.992800	0.159029
650.198455	0.159132
650.404092	0.159413
650.609711	0.159490
650.815311	0.159687
651.020894	0.159711
651.226458	0.159765
651.432004	0.159993
651.637532	0.160145
651.843041	0.160474
652.048532	0.160644
652.254006	0.160878
652.459460	0.161198
652.664897	0.161322
652.870315	0.161510
653.075716	0.161621
653.281097	0.161686
653.486461	0.161670
653.691807	0.161609
653.897134	0.161866
654.102443	0.161879
654.307734	0.161869
654.513006	0.161981
654.718261	0.162334
654.923497	0.162458
655.128715	0.162649
655.333915	0.162842
655.539096	0.162988
655.744259	0.162982
655.949404	0.162997
656.154531	0.163107
656.359640	0.163206
656.564730	0.163026
656.769802	0.163002
656.974856	0.163115
657.179892	0.163386
657.384909	0.163588
657.589908	0.163681
657.794889	0.163757
657.999852	0.163727
658.204797	0.163870
658.409723	0.163945
658.614631	0.164343
658.819521	0.164332
659.024393	0.164127
659.229246	0.164015
659.434081	0.163855
659.638898	0.164166
659.843697	0.164328
660.048478	0.164261
660.253240	0.164424
660.457984	0.164320
660.662710	0.164652
660.867417	0.164683
661.072107	0.164976
661.276778	0.165545
661.481431	0.165540
661.686066	0.165547
661.890682	0.165520
662.095281	0.165689
662.299861	0.166106
662.504422	0.166129
662.708966	0.166512
662.913491	0.166555
663.117999	0.166523
663.322488	0.166603
663.526958	0.166917
663.731411	0.167467
663.935845	0.167694
664.140261	0.167829
664.344659	0.167940
664.549038	0.167877
664.753400	0.167979
664.957743	0.168313
665.162068	0.168554
665.366375	0.168572
665.570663	0.168597
665.774933	0.168716
665.979185	0.168661
666.183419	0.168832
666.387635	0.168887
666.591832	0.168940
666.796011	0.168704
667.000172	0.168566
667.204315	0.168706
667.408439	0.168540
667.612545	0.168573
667.816634	0.168565
668.020703	0.168448
668.224755	0.168799
668.428788	0.169106
668.632803	0.169581
668.836800	0.169804
669.040779	0.169784
669.244739	0.169990
669.448681	0.169833
669.652605	0.169885
669.856511	0.170081
670.060399	0.170163
670.264268	0.170030
670.468119	0.169762
670.671952	0.169782
670.875767	0.169651
671.079563	0.169801
671.283341	0.170132
671.487101	0.170176
671.690843	0.170185
671.894567	0.170080
672.098272	0.170224
672.301959	0.170367
672.505628	0.170500
672.709278	0.170804
672.912911	0.170707
673.116525	0.170485
673.320121	0.170686
673.523699	0.170869
673.727258	0.171066
673.930799	0.171124
674.134322	0.171171
674.337827	0.171236
674.541314	0.171411
674.744782	0.171707
674.948232	0.171840
675.151664	0.172076
675.355078	0.172141
675.558474	0.172428
675.761851	0.172603
675.965210	0.172744
676.168551	0.173030
676.371873	0.173320
676.575178	0.173343
676.778464	0.173687
676.981732	0.173719
677.184981	0.173910
677.388213	0.173724
677.591426	0.173928
677.794621	0.174179
677.997798	0.174075
678.200956	0.173933
678.404097	0.174087
678.607219	0.174024
678.810323	0.174029
679.013408	0.173992
679.216476	0.174387
679.419525	0.174467
679.622556	0.174515
679.825569	0.174783
680.028563	0.174853
680.231540	0.175009
680.434498	0.175176
680.637438	0.175514
680.840359	0.175593
681.043263	0.175567
681.246148	0.175615
681.449015	0.175740
681.651864	0.175774
681.854694	0.175870
682.057506	0.175747
682.260301	0.175935
682.463076	0.175729
682.665834	0.175872
682.868573	0.175897
683.071295	0.175994
683.273998	0.175945
683.476682	0.176166
683.679349	0.176511
683.881997	0.176746
684.084627	0.176957
684.287239	0.177297
684.489833	0.177305
684.692408	0.177539
684.894965	0.177799
685.097504	0.178109
685.300025	0.178322
685.502527	0.178301
685.705012	0.178208
685.907478	0.178258
686.109925	0.178129
686.312355	0.178254
686.514766	0.178216
686.717159	0.178132
686.919534	0.177986
687.121891	0.177669
687.324230	0.177617
687.526550	0.177762
687.728852	0.177860
687.931136	0.178004
688.133401	0.178141
688.335649	0.178408
688.537878	0.178483
688.740089	0.178793
688.942281	0.178983
689.144456	0.179281
689.346612	0.179512
689.548750	0.179538
689.750870	0.179716
689.952971	0.179689
690.155055	0.179578
690.357120	0.179692
690.559167	0.179633
690.761195	0.179658
690.963206	0.179596
691.165198	0.179602
691.367172	0.179583
691.569128	0.179552
691.771065	0.179916
691.972984	0.180036
692.174885	0.180113
692.376768	0.180126
692.578633	0.180175
692.780479	0.180023
692.982308	0.180168
693.184118	0.180334
693.385909	0.180105
693.587683	0.180062
693.789438	0.180213
693.991175	0.180274
694.192894	0.180225
694.394595	0.180383
694.596277	0.180674
694.797941	0.180732
694.999587	0.180813
695.201215	0.181241
695.402824	0.181501
695.604416	0.181476
695.805989	0.181783
696.007543	0.182133
696.209080	0.182308
696.410598	0.182513
696.612099	0.182739
696.813580	0.182509
697.015044	0.182600
697.216490	0.182481
697.417917	0.182592
697.619326	0.182747
697.820717	0.182886
698.022089	0.182759
698.223444	0.182689
698.424780	0.182793
698.626098	0.182976
698.827397	0.182993
699.028679	0.182987
699.229942	0.183252
699.431187	0.182900
699.632414	0.182916
699.833622	0.183185
700.034813	0.183367
700.235985	0.183449
700.437139	0.183706
700.638274	0.183865
700.839392	0.184171
701.040491	0.184273
701.241572	0.184495
701.442635	0.184571
701.643679	0.184664
701.844706	0.184575
702.045714	0.184333
702.246704	0.184511
702.447675	0.184681
702.648629	0.184385
702.849564	0.184022
703.050481	0.184123
703.251380	0.184052
703.452260	0.184238
703.653122	0.184321
703.853966	0.184389
704.054792	0.184313
704.255600	0.184143
704.456389	0.184295
704.657160	0.184451
704.857913	0.184468
705.058648	0.184375
705.259365	0.184239
705.460063	0.184236
705.660743	0.184317
705.861405	0.184206
706.062048	0.184317
706.262674	0.184271
706.463281	0.184229
706.663870	0.184131
706.864441	0.184174
707.064993	0.184235
707.265527	0.184140
707.466043	0.184054
707.666541	0.184245
707.867021	0.184361
708.067482	0.184422
708.267925	0.184562
708.468350	0.184786
708.668757	0.184786
708.869145	0.184620
709.069516	0.184682
709.269868	0.184839
709.470201	0.184866
709.670517	0.184702
709.870814	0.184792
710.071093	0.184843
710.271354	0.184584
710.471597	0.184731
710.671821	0.184812
710.872028	0.185025
711.072216	0.184936
711.272385	0.184785
711.472537	0.184856
711.672670	0.184913
711.872785	0.184906
712.072882	0.184928
712.272961	0.184853
712.473021	0.185015
712.673063	0.184694
712.873087	0.184704
713.073093	0.184664
713.273081	0.184522
713.473050	0.184458
713.673001	0.184361
713.872934	0.184472
714.072849	0.184629
714.272745	0.184483
714.472623	0.184429
714.672483	0.184417
714.872325	0.184508
715.072148	0.184508
715.271954	0.184451
715.471741	0.184365
715.671509	0.184145
715.871260	0.183901
716.070992	0.183952
716.270707	0.184105
716.470403	0.184157
716.670080	0.184123
716.869740	0.184133
717.069381	0.184160
717.269004	0.184387
717.468609	0.184468
717.668195	0.184700
717.867764	0.184604
718.067314	0.184598
718.266846	0.184629
718.466360	0.184496
718.665855	0.184552
718.865332	0.184365
719.064791	0.183971
719.264232	0.184084
719.463655	0.184048
719.663059	0.183981
719.862445	0.184300
720.061813	0.184267
720.261163	0.184386
720.460494	0.184384
720.659807	0.184404
720.859102	0.184667
721.058379	0.184547
721.257638	0.184096
721.456878	0.184113
721.656100	0.183818
721.855304	0.183682
722.054490	0.183479
722.253657	0.183287
722.452806	0.183426
722.651937	0.183443
722.851050	0.183391
723.050145	0.183701
723.249221	0.183743
723.448279	0.183588
723.647319	0.183487
723.846340	0.183394
724.045344	0.183573
724.244329	0.183413
724.443296	0.183144
724.642245	0.183165
724.841175	0.183231
725.040088	0.183020
725.238982	0.183123
725.437857	0.183083
725.636715	0.182729
725.835554	0.182521
726.034376	0.182353
726.233179	0.182280
726.431963	0.181976
726.630730	0.181638
726.829478	0.181536
727.028208	0.181156
727.226920	0.181152
727.425614	0.181477
727.624289	0.181181
727.822946	0.181180
728.021585	0.181085
728.220206	0.181077
728.418808	0.180975
728.617392	0.181115
728.815958	0.181413
729.014506	0.181250
729.213036	0.181127
729.411547	0.181171
729.610040	0.180900
729.808515	0.180832
730.006972	0.180620
730.205410	0.180483
730.403831	0.180286
730.602233	0.180085
730.800616	0.180008
730.998982	0.179888
731.197329	0.179974
731.395658	0.180242
731.593969	0.180287
731.792262	0.180403
731.990536	0.180467
732.188793	0.180349
732.387031	0.180115
732.585250	0.180082
732.783452	0.179973
732.981635	0.179796
733.179800	0.179557
733.377947	0.179436
733.576076	0.179192
733.774186	0.179201
733.972278	0.179023
734.170352	0.179061
734.368408	0.178961
734.566446	0.179053
734.764465	0.178818
734.962466	0.178855
735.160449	0.178688
735.358413	0.178691
735.556360	0.178287
735.754288	0.178230
735.952198	0.177922
736.150090	0.178054
736.347963	0.178049
736.545818	0.178090
736.743655	0.177917
736.941474	0.177812
737.139275	0.177662
737.337057	0.177767
737.534821	0.177615
737.732567	0.177820
737.930295	0.177583
738.128005	0.177448
738.325696	0.177400
738.523369	0.177401
738.721024	0.177472
738.918660	0.177536
739.116279	0.177508
739.313879	0.177481
739.511461	0.177465
739.709024	0.177398
739.906570	0.177182
740.104097	0.177034
740.301606	0.176762
740.499097	0.176321
740.696569	0.176109
740.894024	0.176054
741.091460	0.175977
741.288878	0.175553
741.486277	0.175252
741.683659	0.175416
741.881022	0.175271
742.078367	0.175093
742.275694	0.175252
742.473002	0.175262
742.670293	0.174982
742.867565	0.174865
743.064819	0.174807
743.262054	0.174921
743.459272	0.174747
743.656471	0.174735
743.853652	0.174887
744.050815	0.174658
744.247959	0.174743
744.445085	0.174621
744.642194	0.174432
744.839283	0.174543
745.036355	0.174264
745.233408	0.173926
745.430444	0.173759
745.627461	0.173437
745.824459	0.173426
746.021440	0.173163
746.218402	0.173335
746.415346	0.173533
746.612272	0.173094
746.809180	0.173216
747.006069	0.173402
747.202940	0.173498
747.399793	0.173443
747.596628	0.173311
747.793444	0.173108
747.990243	0.172895
748.187023	0.172515
748.383784	0.172627
748.580528	0.172386
748.777253	0.172166
748.973960	0.171692
749.170649	0.171561
749.367320	0.171541
749.563973	0.171383
749.760607	0.171337
749.957223	0.171295
750.153821	0.171248
750.350400	0.171213
750.546962	0.171008
750.743505	0.171147
750.940030	0.171344
751.136536	0.171035
751.333025	0.170832
751.529495	0.170637
751.725947	0.170427
751.922381	0.170234
752.118796	0.169913
752.315194	0.169798
752.511573	0.169521
752.707934	0.169096
752.904276	0.168990
753.100601	0.169129
753.296907	0.168980
753.493195	0.168791
753.689465	0.168717
753.885716	0.168766
754.081949	0.168688
754.278164	0.168669
754.474361	0.168744
754.670540	0.168988
754.866700	0.168975
755.062843	0.168919
755.258967	0.168996
755.455072	0.168686
755.651160	0.168489
755.847229	0.168508
756.043280	0.168624
756.239313	0.168589
756.435328	0.168445
756.631324	0.168338
756.827302	0.168354
757.023262	0.168272
757.219204	0.168467
757.415127	0.168457
757.611033	0.168059
757.806920	0.167681
758.002788	0.167439
758.198639	0.167163
758.394471	0.166708
758.590286	0.166523
758.786081	0.166423
758.981859	0.166075
759.177619	0.165977
759.373360	0.166023
759.569083	0.166011
759.764788	0.165788
759.960474	0.165606
760.156143	0.165560
760.351793	0.165331
760.547425	0.165273
760.743038	0.165518
760.938634	0.165446
761.134211	0.165390
761.329770	0.165096
761.525311	0.165268
761.720833	0.165322
761.916338	0.165435
762.111824	0.165612
762.307292	0.165742
762.502741	0.165491
762.698173	0.165104
762.893586	0.164823
763.088981	0.164833
763.284358	0.164502
763.479716	0.164366
763.675057	0.164538
763.870379	0.164346
764.065683	0.164179
764.260968	0.164073
764.456236	0.164390
764.651485	0.164582
764.846716	0.164738
765.041929	0.164862
765.237123	0.165135
765.432299	0.164979
765.627457	0.164833
765.822597	0.164694
766.017719	0.164757
766.212822	0.164603
766.407907	0.164617
766.602974	0.164419
766.798023	0.164292
766.993054	0.163763
767.188066	0.163529
767.383060	0.163398
767.578036	0.163312
767.772993	0.163232
767.967933	0.163384
768.162854	0.163242
768.357757	0.163423
768.552642	0.163471
768.747508	0.163644
768.942356	0.163575
769.137186	0.163642
769.331998	0.163514
769.526792	0.163376
769.721567	0.162838
769.916324	0.162766
770.111063	0.162521
770.305784	0.162385
770.500486	0.162238
770.695171	0.162285
770.889837	0.162242
771.084484	0.162350
771.279114	0.162460
771.473725	0.162687
771.668318	0.162556
771.862893	0.162498
772.057450	0.162473
772.251988	0.162413
772.446509	0.162346
772.641011	0.162493
772.835494	0.162486
773.029960	0.162306
773.224407	0.162283
773.418836	0.162295
773.613247	0.162460
773.807640	0.162477
774.002014	0.162660
774.196370	0.162623
774.390708	0.162618
774.585028	0.162481
774.779330	0.162710
774.973613	0.162730
775.167878	0.162643
775.362125	0.162483
775.556354	0.162292
775.750564	0.162150
775.944756	0.162047
776.138930	0.161921
776.333086	0.161849
776.527223	0.161489
776.721343	0.161332
776.915444	0.161311
777.109526	0.161206
777.303591	0.161155
777.497637	0.161164
777.691666	0.161292
777.885676	0.161254
778.079667	0.161259
778.273641	0.161395
778.467596	0.161414
778.661533	0.161358
778.855452	0.161382
779.049352	0.161553
779.243235	0.161405
779.437099	0.161333
779.630945	0.161251
779.824773	0.161393
780.018582	0.161275
780.212373	0.161220
780.406146	0.161486
780.599901	0.161521
780.793638	0.161454
780.987356	0.161370
781.181056	0.161250
781.374738	0.161213
781.568402	0.161124
781.762047	0.161201
781.955674	0.161383
782.149283	0.161214
782.342874	0.161214
782.536447	0.161338
782.730001	0.161518
782.923537	0.161705
783.117055	0.161719
783.310555	0.161938
783.504036	0.162067
783.697499	0.162234
783.890944	0.162235
784.084371	0.162555
784.277780	0.162668
784.471170	0.162726
784.664542	0.162795
784.857896	0.162798
785.051231	0.162587
785.244549	0.162417
785.437848	0.162219
785.631129	0.162389
785.824392	0.162073
786.017636	0.161759
786.210863	0.161933
786.404071	0.161836
786.597260	0.161715
786.790432	0.161699
786.983585	0.161657
787.176721	0.161696
787.369838	0.161699
787.562936	0.161828
787.756017	0.162075
787.949079	0.162039
788.142123	0.162032
788.335149	0.162179
788.528156	0.162117
788.721146	0.162265
788.914117	0.162309
789.107070	0.162603
789.300005	0.162507
789.492921	0.162538
789.685819	0.162572
789.878699	0.162767
790.071561	0.162638
790.264405	0.162940
790.457230	0.163102
790.650037	0.163113
790.842826	0.162854
791.035597	0.162923
791.228349	0.162929
791.421084	0.162888
791.613800	0.162835
791.806497	0.163258
791.999177	0.163104
792.191838	0.163177
792.384481	0.163259
792.577106	0.163233
792.769713	0.163333
792.962301	0.163498
793.154871	0.163654
793.347423	0.163722
793.539957	0.163768
793.732473	0.164091
793.924970	0.164410
794.117449	0.164600
794.309910	0.164764
794.502353	0.164931
794.694777	0.164992
794.887183	0.165025
795.079571	0.164996
795.271941	0.165127
795.464293	0.165024
795.656626	0.164596
795.848941	0.164578
796.041238	0.164536
796.233516	0.164624
796.425777	0.164694
796.618019	0.164947
796.810243	0.165164
797.002449	0.165148
797.194636	0.165173
797.386805	0.165382
797.578956	0.165339
797.771089	0.165556
797.963204	0.165378
798.155300	0.165357
798.347378	0.165381
798.539438	0.165419
798.731480	0.165470
798.923503	0.165534
799.115509	0.165517
799.307496	0.165555
799.499465	0.165419
799.691415	0.165563
799.883348	0.165911
800.075262	0.165874
800.267158	0.165964
800.459035	0.165959
800.650895	0.166372
800.842736	0.166768
801.034559	0.166934
801.226364	0.167335
801.418150	0.167629
801.609919	0.167445
801.801669	0.167371
801.993401	0.167477
802.185114	0.167644
802.376810	0.167591
802.568487	0.167554
802.760146	0.167708
802.951787	0.167829
803.143409	0.168027
803.335014	0.168175
803.526600	0.168507
803.718168	0.168784
803.909717	0.169070
804.101249	0.169079
804.292762	0.169277
804.484257	0.169573
804.675734	0.169780
804.867192	0.170027
805.058632	0.170429
805.250054	0.170550
805.441458	0.170755
805.632844	0.170818
805.824211	0.171116
806.015561	0.171502
806.206891	0.171816
806.398204	0.171814
806.589499	0.171680
806.780775	0.171638
806.972033	0.171803
807.163273	0.171859
807.354495	0.172052
807.545698	0.172072
807.736883	0.172037
807.928050	0.171873
808.119199	0.172113
808.310329	0.172597
808.501441	0.172631
808.692535	0.172874
808.883611	0.172850
809.074669	0.172995
809.265708	0.173129
809.456729	0.173176
809.647732	0.173514
809.838717	0.173522
810.029683	0.173569
810.220632	0.173923
810.411562	0.173998
810.602474	0.174179
810.793367	0.174344
810.984242	0.174469
811.175100	0.174813
811.365938	0.174959
811.556759	0.175354
811.747562	0.175413
811.938346	0.175522
812.129112	0.175831
812.319860	0.176200
812.510589	0.176344
812.701300	0.176762
812.891994	0.176671
813.082668	0.176534
813.273325	0.176417
813.463964	0.176601
813.654584	0.176898
813.845186	0.176938
814.035769	0.176924
814.226335	0.177040
814.416882	0.177168
814.607411	0.177637
814.797922	0.178083
814.988415	0.178505
815.178889	0.178734
815.369345	0.178919
815.559783	0.179323
815.750203	0.179755
815.940605	0.180138
816.130988	0.180431
816.321353	0.180407
816.511700	0.180589
816.702028	0.180882
816.892339	0.180884
817.082631	0.181046
817.272905	0.181198
817.463161	0.181094
817.653398	0.181054
817.843617	0.180833
818.033819	0.180940
818.224001	0.181128
818.414166	0.181298
818.604312	0.181461
818.794440	0.181738
818.984550	0.181953
819.174642	0.182687
819.364716	0.182828
819.554771	0.183207
819.744808	0.183676
819.934827	0.183917
820.124827	0.184069
820.314810	0.184295
820.504774	0.184333
820.694720	0.184530
820.884647	0.184648
821.074557	0.185036
821.264448	0.185407
821.454321	0.185661
821.644176	0.185991
821.834012	0.185943
822.023831	0.186315
822.213631	0.186309
822.403413	0.186194
822.593176	0.186017
822.782922	0.186133
822.972649	0.186297
823.162358	0.186218
823.352049	0.186219
823.541721	0.186620
823.731376	0.186852
823.921012	0.187419
824.110629	0.187757
824.300229	0.188044
824.489811	0.188486
824.679374	0.188618
824.868919	0.188821
825.058445	0.189316
825.247954	0.189658
825.437444	0.189880
825.626916	0.189983
825.816370	0.190176
826.005806	0.190423
826.195223	0.190327
826.384622	0.190489
826.574003	0.190906
826.763366	0.190654
826.952711	0.190692
827.142037	0.190969
827.331345	0.191239
827.520635	0.191383
827.709906	0.191692
827.899160	0.192032
828.088395	0.192447
828.277612	0.192489
828.466810	0.192638
828.655991	0.192973
828.845153	0.193091
829.034297	0.193094
829.223423	0.193542
829.412531	0.193574
829.601620	0.193841
829.790691	0.194033
829.979744	0.194265
830.168779	0.194730
830.357795	0.194892
830.546793	0.195287
830.735773	0.195796
830.924735	0.195919
831.113679	0.196437
831.302604	0.197100
831.491511	0.197425
831.680400	0.197902
831.869271	0.198580
832.058123	0.198846
832.246957	0.198963
832.435773	0.199355
832.624571	0.199895
832.813351	0.199992
833.002112	0.200062
833.190855	0.200417
833.379580	0.200714
833.568287	0.200683
833.756975	0.201043
833.945645	0.201738
834.134297	0.201989
834.322931	0.202250
834.511547	0.202584
834.700144	0.202549
834.888723	0.202883
835.077284	0.203210
835.265826	0.203498
835.454351	0.203829
835.642857	0.203753
835.831345	0.203940
836.019815	0.203968
836.208266	0.204139
836.396699	0.204398
836.585114	0.204468
836.773511	0.204648
836.961890	0.204871
837.150250	0.205171
837.338592	0.205223
837.526916	0.205605
837.715222	0.206153
837.903510	0.206356
838.091779	0.206881
838.280030	0.206998
838.468263	0.207197
838.656477	0.207530
838.844674	0.207642
839.032852	0.208219
839.221012	0.208435
839.409153	0.208621
839.597277	0.209143
839.785382	0.209365
839.973469	0.209727
840.161538	0.209992
840.349589	0.210175
840.537621	0.210367
840.725635	0.210547
840.913631	0.210680
841.101609	0.210682
841.289568	0.210833
841.477509	0.211193
841.665432	0.211238
841.853337	0.211606
842.041224	0.212093
842.229092	0.212660
842.416942	0.213080
842.604774	0.213310
842.792588	0.213802
842.980383	0.214366
843.168160	0.214874
843.355919	0.215736
843.543660	0.215986
843.731382	0.216214
843.919087	0.216451
844.106773	0.216669
844.294441	0.216982
844.482090	0.217216
844.669722	0.217558
844.857335	0.217538
845.044930	0.217856
845.232507	0.218523
845.420065	0.218721
845.607605	0.218938
845.795127	0.219266
845.982631	0.219729
846.170117	0.219933
846.357584	0.219820
846.545033	0.220061
846.732464	0.220280
846.919877	0.220294
847.107272	0.220536
847.294648	0.220786
847.482006	0.220718
847.669346	0.220875
847.856667	0.221395
848.043971	0.221935
848.231256	0.222290
848.418523	0.222217
848.605771	0.222655
848.793002	0.222938
848.980214	0.222988
849.167408	0.223765
849.354584	0.223965
849.541742	0.224276
849.728881	0.224382
849.916002	0.224800
850.103105	0.225296
850.290190	0.225189
850.477256	0.225753
850.664304	0.226378
850.851334	0.226756
851.038346	0.227090
851.225340	0.227449
851.412315	0.227707
851.599272	0.228041
851.786211	0.228478
851.973132	0.229074
852.160034	0.229390
852.346918	0.229872
852.533784	0.229781
852.720632	0.230284
852.907462	0.230181
853.094273	0.230815
853.281066	0.231215
853.467841	0.231543
853.654598	0.231603
853.841336	0.231914
854.028056	0.231864
854.214758	0.232150
854.401442	0.232102
854.588107	0.232583
854.774755	0.232691
854.961384	0.233034
855.147995	0.233065
855.334587	0.233668
855.521162	0.234098
855.707718	0.234575
855.894256	0.235127
856.080775	0.235565
856.267277	0.235981
856.453760	0.236203
856.640225	0.236413
856.826672	0.236911
857.013101	0.237140
857.199511	0.237437
857.385903	0.237690
857.572277	0.237970
857.758633	0.238344
857.944970	0.238615
858.131290	0.239147
858.317591	0.239371
858.503873	0.239778
858.690138	0.239962
858.876384	0.240039
859.062612	0.240178
859.248822	0.240500
859.435014	0.240781
859.621188	0.240968
859.807343	0.241119
859.993480	0.241231
860.179599	0.241137
860.365699	0.241462
860.551781	0.241532
860.737846	0.241726
860.923891	0.241535
861.109919	0.242079
861.295929	0.242385
861.481920	0.242853
861.667893	0.243210
861.853848	0.243584
862.039784	0.244157
862.225702	0.244707
862.411603	0.245496
862.597484	0.246132
862.783348	0.246205
862.969193	0.246540
863.155021	0.246716
863.340830	0.246970
863.526620	0.247183
863.712393	0.247082
863.898147	0.247004
864.083883	0.246658
864.269601	0.246946
864.455301	0.247123
864.640982	0.247291
864.826645	0.247303
865.012290	0.247581
865.197917	0.247957
865.383526	0.248502
865.569116	0.248997
865.754688	0.249480
865.940242	0.249538
866.125777	0.250017
866.311295	0.250099
866.496794	0.250462
866.682275	0.250737
866.867737	0.251250
867.053182	0.251184
867.238608	0.251776
867.424016	0.251759
867.609406	0.251929
867.794778	0.252026
867.980131	0.252481
868.165466	0.252785
868.350783	0.252983
868.536082	0.253094
868.721362	0.253322
868.906625	0.253021
869.091869	0.253480
869.277094	0.253812
869.462302	0.253968
869.647491	0.254006
869.832662	0.254294
870.017815	0.254398
870.202950	0.254264
870.388066	0.254615
870.573165	0.255048
870.758245	0.255229
870.943306	0.255631
871.128350	0.255967
871.313375	0.256314
871.498382	0.256638
871.683371	0.256991
871.868342	0.257225
872.053294	0.257663
872.238229	0.257682
872.423144	0.257826
872.608042	0.258214
872.792922	0.258345
872.977783	0.258720
873.162626	0.258678
873.347451	0.258862
873.532258	0.258901
873.717046	0.258676
873.901816	0.259110
874.086568	0.259386
874.271302	0.259304
874.456017	0.259758
874.640715	0.259838
874.825394	0.259996
875.010055	0.259784
875.194697	0.260005
875.379322	0.260292
875.563928	0.260243
875.748516	0.260240
875.933085	0.260314
876.117637	0.259926
876.302170	0.260033
876.486685	0.260042
876.671182	0.260360
876.855661	0.260689
877.040121	0.260628
877.224563	0.260966
877.408987	0.261288
877.593393	0.261096
877.777780	0.261450
877.962150	0.261438
878.146501	0.261633
878.330833	0.261708
878.515148	0.261820
878.699444	0.261901
878.883722	0.261536
879.067982	0.261399
879.252224	0.261999
879.436447	0.261616
879.620653	0.261798
879.804840	0.261899
879.989008	0.262381
880.173159	0.262260
880.357291	0.262521
880.541405	0.262789
880.725501	0.263033
880.909579	0.263256
881.093638	0.263986
881.277680	0.264171
881.461703	0.264554
881.645707	0.264148
881.829694	0.264396
882.013662	0.264382
882.197612	0.264276
882.381544	0.264242
882.565458	0.263797
882.749353	0.263490
882.933230	0.263522
883.117089	0.263377
883.300930	0.263566
883.484753	0.263503
883.668557	0.263760
883.852343	0.264127
884.036111	0.264530
884.219861	0.265066
884.403592	0.265097
884.587305	0.265023
884.771000	0.265405
884.954677	0.265832
885.138335	0.266096
885.321976	0.266101
885.505598	0.265915
885.689201	0.265808
885.872787	0.265694
886.056354	0.265810
886.239904	0.265784
886.423434	0.265566
886.606947	0.265264
886.790442	0.265356
886.973918	0.264980
887.157376	0.265217
887.340816	0.265404
887.524237	0.265349
887.707641	0.265474
887.891026	0.265390
888.074393	0.264761
888.257741	0.264778
888.441072	0.264899
888.624384	0.265270
888.807678	0.265194
888.990954	0.264824
889.174211	0.264735
889.357451	0.264504
889.540672	0.264629
889.723875	0.265118
889.907059	0.265074
890.090226	0.264852
890.273374	0.264888
890.456504	0.265147
890.639616	0.265605
890.822709	0.265279
891.005785	0.265372
891.188842	0.265009
891.371881	0.264723
891.554901	0.264711
891.737904	0.264752
891.920888	0.264726
892.103854	0.264631
892.286802	0.264235
892.469731	0.264706
892.652643	0.264502
892.835536	0.264867
893.018410	0.264847
893.201267	0.264964
893.384106	0.265040
893.566926	0.265228
893.749728	0.265009
893.932511	0.265085
894.115277	0.265000
894.298024	0.265273
894.480753	0.265131
894.663464	0.265447
894.846157	0.265134
895.028831	0.264807
895.211487	0.264494
895.394125	0.264595
895.576745	0.264949
895.759346	0.264971
895.941930	0.264616
896.124495	0.264630
896.307041	0.264740
896.489570	0.264135
896.672080	0.264036
896.854573	0.263591
897.037046	0.263193
897.219502	0.262550
897.401940	0.262222
897.584359	0.261824
897.766760	0.261707
897.949143	0.261001
898.131507	0.261300
898.313854	0.261344
898.496182	0.261479
898.678492	0.261809
898.860783	0.261990
899.043057	0.261567
899.225312	0.262128
899.407549	0.262161
899.589768	0.262410
899.771968	0.262453
899.954151	0.261990
900.136315	0.261942
900.318461	0.261677
900.500588	0.261492
900.682698	0.261816
900.864789	0.261141
901.046862	0.260696
901.228917	0.260721
901.410953	0.260526
901.592971	0.260272
901.774972	0.259836
901.956953	0.259219
902.138917	0.258932
902.320862	0.258154
902.502790	0.258293
902.684699	0.258345
902.866589	0.257653
903.048462	0.257411
903.230316	0.257324
903.412152	0.257250
903.593970	0.256897
903.775770	0.257177
903.957551	0.257215
904.139314	0.257354
904.321059	0.256598
904.502786	0.256614
904.684494	0.256445
904.866185	0.256489
905.047857	0.256065
905.229510	0.256269
905.411146	0.255636
905.592763	0.255949
905.774363	0.255192
905.955943	0.254983
906.137506	0.254863
906.319051	0.254617
906.500577	0.254458
906.682085	0.254415
906.863575	0.253834
907.045046	0.253036
907.226500	0.252078
907.407935	0.252036
907.589352	0.252437
907.770750	0.251931
907.952131	0.251577
908.133493	0.251230
908.314837	0.250873
908.496163	0.250910
908.677470	0.251094
908.858760	0.251390
909.040031	0.250617
909.221284	0.249854
909.402518	0.249509
909.583735	0.249685
909.764933	0.249229
909.946113	0.248883
910.127275	0.248536
910.308418	0.248208
910.489544	0.247554
910.670651	0.247850
910.851740	0.248106
911.032810	0.247786
911.213863	0.247637
911.394897	0.247447
911.575913	0.247458
911.756911	0.247152
911.937890	0.246904
912.118851	0.246429
912.299794	0.246122
912.480719	0.245321
912.661626	0.245146
912.842514	0.244334
913.023384	0.243812
913.204236	0.243784
913.385070	0.243227
913.565886	0.242791
913.746683	0.242807
913.927462	0.242106
914.108223	0.242254
914.288965	0.241506
914.469690	0.240795
914.650396	0.240311
914.831084	0.239429
915.011754	0.239381
915.192405	0.239275
915.373038	0.238906
915.553653	0.238628
915.734250	0.237747
915.914829	0.237595
916.095389	0.237873
916.275931	0.237576
916.456455	0.236989
916.636961	0.236810
916.817448	0.236385
916.997917	0.235440
917.178368	0.235183
917.358801	0.235065
917.539216	0.234134
917.719612	0.232896
917.899990	0.232602
918.080350	0.232347
918.260692	0.231459
918.441015	0.230478
918.621320	0.230297
918.801607	0.229839
918.981876	0.229323
919.162127	0.229429
919.342359	0.229715
919.522573	0.229386
919.702769	0.228934
919.882947	0.228377
920.063106	0.228900
920.243247	0.228741
920.423370	0.228321
920.603475	0.227625
920.783562	0.226996
920.963630	0.226460
921.143680	0.226085
921.323712	0.225384
921.503725	0.225472
921.683721	0.224159
921.863698	0.223455
922.043657	0.222713
922.223598	0.222118
922.403520	0.221576
922.583424	0.221154
922.763311	0.221176
922.943178	0.221119
923.123028	0.220165
923.302859	0.219520
923.482673	0.219328
923.662467	0.219457
923.842244	0.219521
924.022003	0.219396
924.201743	0.218402
924.381465	0.217292
924.561169	0.216190
924.740854	0.215501
924.920522	0.215155
925.100171	0.214260
925.279802	0.213305
925.459414	0.212629
925.639009	0.211926
925.818585	0.211386
925.998143	0.210623
926.177683	0.210488
926.357205	0.210412
926.536708	0.209453
926.716193	0.209112
926.895660	0.207905
927.075109	0.206751
927.254539	0.205731
927.433951	0.204883
927.613345	0.203900
927.792721	0.203290
927.972079	0.202280
928.151418	0.201852
928.330739	0.201078
928.510042	0.201207
928.689327	0.201234
928.868593	0.201032
929.047841	0.200849
929.227071	0.200355
929.406283	0.199523
929.585476	0.198726
929.764652	0.197854
929.943809	0.197123
930.122948	0.195916
930.302068	0.195104
930.481171	0.194172
930.660255	0.193169
930.839321	0.193019
931.018369	0.192719
931.197398	0.192051
931.376409	0.191599
931.555402	0.191064
931.734377	0.190729
931.913334	0.189858
932.092272	0.189609
932.271192	0.189489
932.450094	0.188762
932.628978	0.187747
932.807844	0.186931
932.986691	0.186162
933.165520	0.185268
933.344331	0.184639
933.523123	0.183626
933.701898	0.182944
933.880654	0.181858
934.059392	0.180842
934.238111	0.180152
934.416813	0.179868
934.595496	0.178605
934.774161	0.177133
934.952808	0.176132
935.131437	0.175769
935.310047	0.175199
935.488639	0.174378
935.667213	0.173567
935.845769	0.173009
936.024306	0.172176
936.202825	0.172471
936.381326	0.172323
936.559809	0.171529
936.738274	0.171006
936.916720	0.169548
937.095148	0.169077
937.273558	0.168813
937.451950	0.168098
937.630323	0.167380
937.808678	0.166674
937.987015	0.166518
938.165334	0.166539
938.343635	0.165150
938.521917	0.165337
938.700181	0.165509
938.878427	0.164784
939.056655	0.164092
939.234864	0.163482
939.413055	0.162428
939.591228	0.162046
939.769383	0.160880
939.947519	0.160443
940.125638	0.158909
940.303738	0.157930
940.481820	0.156787
940.659883	0.155698
940.837929	0.155367
941.015956	0.154352
941.193965	0.153081
941.371955	0.152833
941.549928	0.152338
941.727882	0.152086
941.905818	0.150954
942.083736	0.150570
942.261636	0.150296
942.439517	0.150244
942.617380	0.150758
942.795225	0.150372
942.973052	0.148606
943.150860	0.146594
943.328651	0.145418
943.506423	0.145018
943.684176	0.144227
943.861912	0.143256
944.039629	0.141522
944.217328	0.139849
944.395009	0.138514
944.572672	0.138276
944.750317	0.139702
944.927943	0.138870
945.105551	0.137594
945.283141	0.136523
945.460712	0.135981
945.638265	0.134054
945.815801	0.133957
945.993317	0.133627
946.170816	0.132769
946.348297	0.131014
946.525759	0.130425
946.703203	0.128636
946.880629	0.128647
947.058036	0.127994
947.235425	0.128034
947.412797	0.126761
947.590149	0.125871
947.767484	0.125418
947.944800	0.125270
948.122099	0.124569
948.299379	0.123427
948.476640	0.121691
948.653884	0.119627
948.831109	0.119927
949.008316	0.119540
949.185505	0.119291
949.362676	0.118666
949.539828	0.117801
949.716962	0.117543
949.894078	0.118625
950.071176	0.117584
950.248256	0.118637
950.425317	0.117452
950.602360	0.115700
950.779385	0.114243
950.956391	0.113165
951.133380	0.112783
951.310350	0.111416
951.487302	0.108373
951.664235	0.108140
951.841151	0.106752
952.018048	0.106228
952.194927	0.106276
952.371788	0.105885
952.548631	0.105502
952.725455	0.103466
952.902261	0.102693
953.079049	0.103589
953.255819	0.101882
953.432570	0.101209
953.609303	0.099976
953.786018	0.098106
953.962715	0.097148
954.139394	0.095476
954.316054	0.093717
954.492696	0.093766
954.669320	0.093056
954.845926	0.092540
955.022513	0.092385
955.199083	0.090840
955.375634	0.091017
955.552166	0.088674
955.728681	0.089919
955.905177	0.091134
956.081655	0.090348
956.258115	0.089996
956.434557	0.089933
956.610980	0.088702
956.787385	0.089261
956.963772	0.089740
957.140141	0.089204
957.316492	0.086961
957.492824	0.086135
957.669138	0.085696
957.845434	0.083642
958.021712	0.084951
958.197971	0.085423
958.374212	0.086209
958.550435	0.084352
958.726640	0.085999
958.902826	0.084599
959.078995	0.085285
959.255145	0.083391
959.431277	0.085735
959.607390	0.085137
959.783486	0.081220
959.959563	0.078582
960.135622	0.078103
960.311662	0.077639
960.487685	0.079707
960.663689	0.077265
960.839675	0.078828
961.015643	0.077973
961.191593	0.076857
961.367524	0.079141
961.543437	0.081754
961.719332	0.082664
961.895209	0.082611
962.071067	0.081189
962.246907	0.083771
962.422730	0.084035
962.598533	0.081901
962.774319	0.080814
962.950086	0.080610
963.125835	0.080073
963.301566	0.079181
963.477279	0.078574
963.652973	0.079814
963.828650	0.078232
964.004308	0.076612
964.179947	0.078240
964.355569	0.078312
964.531172	0.077647
964.706757	0.074736
964.882324	0.074442
965.057873	0.075057
965.233403	0.075972
965.408916	0.075283
965.584410	0.075427
965.759885	0.074965
965.935343	0.074969
966.110782	0.076683
966.286203	0.078019
966.461606	0.077567
966.636991	0.075049
966.812357	0.074917
966.987705	0.073961
967.163035	0.075219
967.338347	0.076581
967.513641	0.078357
967.688916	0.077635
967.864173	0.077023
968.039412	0.079517
968.214632	0.082979
968.389835	0.080286
968.565019	0.082238
968.740185	0.080437
968.915333	0.078630
969.090462	0.076614
969.265573	0.076711
969.440667	0.076627
969.615741	0.075570
969.790798	0.076705
969.965836	0.078712
970.140856	0.078728
970.315858	0.080669
970.490842	0.081110
970.665808	0.082707
970.840755	0.081638
971.015684	0.083715
971.190595	0.083014
971.365487	0.080286
971.540362	0.079563
971.715218	0.079545
971.890056	0.077742
972.064875	0.078680
972.239677	0.077395
972.414460	0.077820
972.589225	0.075708
972.763972	0.078096
972.938700	0.075053
973.113411	0.074190
973.288103	0.073917
973.462777	0.075069
973.637432	0.076242
973.812070	0.076399
973.986689	0.075481
974.161290	0.077463
974.335873	0.076399
974.510437	0.080206
974.684984	0.081637
974.859512	0.083300
975.034022	0.084422
975.208513	0.083160
975.382987	0.083715
975.557442	0.083727
975.731879	0.082614
975.906298	0.081454
976.080698	0.080434
976.255080	0.080085
976.429445	0.079675
976.603790	0.078166
976.778118	0.078087
976.952427	0.078544
977.126719	0.080891
977.300992	0.081054
977.475246	0.081084
977.649483	0.082275
977.823701	0.081536
977.997901	0.081716
978.172083	0.083790
978.346247	0.084144
978.520392	0.084284
978.694519	0.082351
978.868628	0.083139
979.042719	0.085194
979.216791	0.085447
979.390845	0.085749
979.564882	0.084918
979.738899	0.084746
979.912899	0.084179
980.086880	0.084915
980.260843	0.086630
980.434788	0.085561
980.608715	0.084697
980.782623	0.085292
980.956514	0.085347
981.130386	0.084892
981.304240	0.082655
981.478075	0.083112
981.651892	0.081859
981.825692	0.081596
981.999472	0.080892
982.173235	0.080595
982.346980	0.078919
982.520706	0.078737
982.694414	0.077549
982.868104	0.076686
983.041775	0.076820
983.215428	0.075568
983.389064	0.075782
983.562680	0.075301
983.736279	0.076494
983.909860	0.077229
984.083422	0.078690
984.256966	0.079796
984.430491	0.080130
984.603999	0.079494
984.777488	0.081440
984.950959	0.080409
985.124412	0.080711
985.297847	0.078039
985.471263	0.077205
985.644661	0.074898
985.818041	0.074615
985.991403	0.077688
986.164747	0.077965
986.338072	0.076830
986.511379	0.076755
986.684668	0.077037
986.857938	0.077981
987.031191	0.078989
987.204425	0.078892
987.377641	0.078969
987.550839	0.076684
987.724018	0.077051
987.897179	0.077239
988.070322	0.078161
988.243447	0.077092
988.416554	0.077101
988.589642	0.078876
988.762712	0.079090
988.935764	0.080159
989.108798	0.081393
989.281813	0.081142
989.454811	0.081286
989.627790	0.080403
989.800751	0.081931
989.973693	0.081418
990.146617	0.079430
990.319524	0.080252
990.492412	0.078397
990.665281	0.078996
990.838133	0.079098
991.010966	0.079207
991.183781	0.079379
991.356578	0.078995
991.529356	0.078403
991.702117	0.076339
991.874859	0.077562
992.047583	0.076999
992.220288	0.075659
992.392976	0.074386
992.565645	0.074854
992.738296	0.074233
992.910929	0.074086
993.083543	0.075858
993.256139	0.077614
993.428718	0.076914
993.601277	0.077854
993.773819	0.077353
993.946342	0.077607
994.118848	0.077061
994.291335	0.077820
994.463803	0.079694
994.636254	0.079480
994.808686	0.078962
994.981100	0.078668
995.153496	0.079441
995.325874	0.081055
995.498233	0.082289
995.670574	0.083273
995.842897	0.082903
996.015202	0.080874
996.187488	0.079486
996.359757	0.079770
996.532007	0.081622
996.704239	0.081878
996.876452	0.080891
997.048648	0.079951
997.220825	0.080606
997.392984	0.082507
997.565124	0.082621
997.737247	0.084146
997.909351	0.083346
998.081437	0.082484
998.253505	0.082400
998.425554	0.082904
998.597586	0.084775
998.769599	0.085445
998.941594	0.085462
999.113571	0.085995
999.285529	0.085544
999.457469	0.085894
999.629391	0.086286
999.801295	0.086829
999.973181	0.086596
1000.145048	0.086066
1000.316897	0.084056
1000.488728	0.082573
1000.660541	0.082099
1000.832335	0.082045
1001.004111	0.083104
1001.175869	0.082303
1001.347609	0.080590
1001.519331	0.080764
1001.691034	0.080133
1001.862719	0.081261
1002.034386	0.080958
1002.206035	0.081259
1002.377665	0.081173
1002.549277	0.080378
1002.720871	0.079576
1002.892447	0.079772
1003.064004	0.079581
1003.235544	0.079404
1003.407065	0.078720
1003.578568	0.079502
1003.750052	0.080063
1003.921519	0.079929
1004.092967	0.080376
1004.264397	0.081508
1004.435809	0.082038
1004.607202	0.082303
1004.778577	0.082521
1004.949934	0.083218
1005.121273	0.083274
1005.292594	0.083796
1005.463896	0.084405
1005.635180	0.083791
1005.806446	0.083821
1005.977694	0.084580
1006.148923	0.082809
1006.320135	0.082604
1006.491328	0.082402
1006.662503	0.082669
1006.833659	0.081743
1007.004798	0.079370
1007.175918	0.078223
1007.347020	0.076435
1007.518103	0.076179
1007.689169	0.077007
1007.860216	0.078474
1008.031245	0.077918
1008.202256	0.077029
1008.373248	0.077167
1008.544223	0.079371
1008.715179	0.082242
1008.886117	0.082744
1009.057036	0.080567
1009.227938	0.081351
1009.398821	0.081429
1009.569686	0.081220
1009.740533	0.082252
1009.911361	0.082032
1010.082172	0.080820
1010.252964	0.079572
1010.423738	0.079627
1010.594493	0.081608
1010.765231	0.080482
1010.935950	0.080453
1011.106651	0.080332
1011.277334	0.078749
1011.447998	0.078819
1011.618645	0.081050
1011.789273	0.079621
1011.959882	0.080306
1012.130474	0.080849
1012.301048	0.080610
1012.471603	0.080654
1012.642140	0.080952
1012.812658	0.083666
1012.983159	0.083799
1013.153641	0.084055
1013.324105	0.085824
1013.494551	0.085941
1013.664979	0.085119
1013.835388	0.085452
1014.005779	0.083726
1014.176152	0.083579
1014.346507	0.082661
1014.516843	0.083889
1014.687162	0.083209
1014.857462	0.083192
1015.027744	0.082173
1015.198007	0.082039
1015.368252	0.082689
1015.538480	0.082652
1015.708689	0.084058
1015.878879	0.083822
1016.049052	0.082061
1016.219206	0.082604
1016.389342	0.083988
1016.559460	0.083139
1016.729559	0.083793
1016.899641	0.084896
1017.069704	0.085697
1017.239749	0.083439
1017.409775	0.082942
1017.579784	0.082432
1017.749774	0.081982
1017.919746	0.079793
1018.089700	0.080620
1018.259635	0.079424
1018.429553	0.080619
1018.599452	0.081763
1018.769333	0.082665
1018.939195	0.083229
1019.109040	0.086081
1019.278866	0.086842
1019.448674	0.085941
1019.618464	0.085936
1019.788235	0.087008
1019.957989	0.085476
1020.127724	0.083255
1020.297441	0.083804
1020.467139	0.082832
1020.636820	0.081415
1020.806482	0.081827
1020.976126	0.083133
1021.145752	0.082706
1021.315359	0.082883
1021.484948	0.082342
1021.654519	0.083101
1021.824072	0.082859
1021.993607	0.084641
1022.163123	0.083986
1022.332621	0.081267
1022.502101	0.080932
1022.671563	0.081454
1022.841007	0.079604
1023.010432	0.080589
1023.179839	0.078514
1023.349228	0.078009
1023.518598	0.077651
1023.687951	0.078157
1023.857285	0.077179
1024.026601	0.077676
1024.195899	0.078923
1024.365178	0.080275
1024.534439	0.078628
1024.703682	0.079284
1024.872907	0.078889
1025.042114	0.077862
1025.211302	0.076727
1025.380472	0.078405
1025.549624	0.078469
1025.718758	0.078274
1025.887873	0.078094
1026.056970	0.078246
1026.226049	0.078801
1026.395110	0.079878
1026.564153	0.078835
1026.733177	0.080009
1026.902183	0.080071
1027.071171	0.079196
1027.240141	0.078283
1027.409092	0.078045
1027.578026	0.078086
1027.746940	0.079510
1027.915837	0.080366
1028.084716	0.081950
1028.253576	0.080460
1028.422418	0.080539
1028.591242	0.081770
1028.760048	0.081471
1028.928835	0.080148
1029.097604	0.080320
1029.266355	0.080175
1029.435088	0.078332
1029.603803	0.077012
1029.772499	0.075921
1029.941177	0.076391
1030.109837	0.074933
1030.278478	0.073755
1030.447102	0.075200
1030.615707	0.073918
1030.784294	0.071428
1030.952863	0.072513
1031.121413	0.071263
1031.289945	0.072076
1031.458460	0.070801
1031.626955	0.071072
1031.795433	0.072577
1031.963892	0.073068
1032.132334	0.074187
1032.300756	0.076343
1032.469161	0.075275
1032.637548	0.076952
1032.805916	0.077269
1032.974266	0.078726
1033.142598	0.077133
1033.310911	0.075809
1033.479207	0.078179
1033.647484	0.079513
1033.815743	0.079268
1033.983983	0.079764
1034.152206	0.080300
1034.320410	0.081183
1034.488596	0.080760
1034.656764	0.083397
1034.824914	0.084036
1034.993045	0.080998
1035.161158	0.080884
1035.329253	0.081216
1035.497330	0.080525
1035.665388	0.078763
1035.833428	0.078091
1036.001450	0.078118
1036.169454	0.078186
1036.337440	0.077009
1036.505407	0.077860
1036.673356	0.076158
1036.841287	0.075989
1037.009200	0.075609
1037.177094	0.077989
1037.344970	0.078807
1037.512828	0.077759
1037.680668	0.077720
1037.848489	0.079700
1038.016293	0.077941
1038.184078	0.077525
1038.351845	0.077376
1038.519593	0.077747
1038.687324	0.075647
1038.855036	0.076303
1039.022730	0.077090
1039.190406	0.077600
1039.358063	0.077948
1039.525702	0.079104
1039.693323	0.081051
1039.860926	0.081017
1040.028511	0.082519
1040.196077	0.083482
1040.363625	0.081195
1040.531155	0.081646
1040.698667	0.080786
1040.866161	0.080017
1041.033636	0.080533
1041.201093	0.080959
1041.368532	0.080517
1041.535952	0.078432
1041.703355	0.077696
1041.870739	0.077226
1042.038105	0.077348
1042.205452	0.078196
1042.372782	0.078896
1042.540093	0.078513
1042.707386	0.077421
1042.874661	0.077450
1043.041918	0.080232
1043.209156	0.081194
1043.376376	0.083949
1043.543578	0.083402
1043.710762	0.082218
1043.877927	0.082109
1044.045074	0.081173
1044.212203	0.080851
1044.379314	0.080826
1044.546407	0.079488
1044.713481	0.081652
1044.880537	0.080186
1045.047575	0.079503
1045.214595	0.078626
1045.381596	0.078447
1045.548579	0.079153
1045.715544	0.079271
1045.882491	0.079942
1046.049420	0.080641
1046.216330	0.078001
1046.383222	0.079429
1046.550096	0.079772
1046.716951	0.079629
1046.883789	0.080159
1047.050608	0.080885
1047.217409	0.080916
1047.384192	0.080704
1047.550956	0.078352
1047.717703	0.077973
1047.884431	0.078518
1048.051140	0.079960
1048.217832	0.080283
1048.384505	0.080064
1048.551161	0.080529
1048.717798	0.080220
1048.884416	0.081026
1049.051017	0.082376
1049.217599	0.082479
1049.384163	0.081509
1049.550709	0.080632
1049.717237	0.082749
1049.883746	0.081295
1050.050237	0.078963
1050.216710	0.078833
1050.383165	0.077927
1050.549601	0.077388
1050.716019	0.077231
1050.882420	0.076736
1051.048801	0.077778
1051.215165	0.076358
1051.381510	0.077986
1051.547837	0.078833
1051.714146	0.078869
1051.880437	0.079245
1052.046709	0.079701
1052.212964	0.080787
1052.379200	0.081732
1052.545417	0.081338
1052.711617	0.080742
1052.877798	0.081220
1053.043961	0.081553
1053.210106	0.081589
1053.376233	0.079990
1053.542341	0.080360
1053.708432	0.079618
1053.874504	0.078437
1054.040557	0.076028
1054.206593	0.077313
1054.372610	0.075709
1054.538609	0.075437
1054.704590	0.074678
1054.870553	0.077500
1055.036497	0.077674
1055.202424	0.078645
1055.368331	0.079495
1055.534221	0.081172
1055.700093	0.081338
1055.865946	0.081945
1056.031781	0.083104
1056.197598	0.083623
1056.363397	0.082607
1056.529177	0.081946
1056.694939	0.080675
1056.860683	0.079808
1057.026409	0.079710
1057.192116	0.079407
1057.357806	0.080534
1057.523477	0.080545
1057.689130	0.081246
1057.854764	0.079888
1058.020381	0.079330
1058.185979	0.079157
1058.351559	0.080856
1058.517120	0.083015
1058.682664	0.082753
1058.848189	0.082235
1059.013696	0.082675
1059.179185	0.082781
1059.344656	0.083774
1059.510108	0.085460
1059.675542	0.086383
1059.840958	0.086485
1060.006356	0.084169
1060.171735	0.084225
1060.337096	0.082371
1060.502439	0.082409
1060.667764	0.085020
1060.833071	0.083720
1060.998359	0.081838
1061.163629	0.082735
1061.328881	0.080336
1061.494115	0.079995
1061.659330	0.081313
1061.824527	0.082911
1061.989706	0.081996
1062.154867	0.078609
1062.320010	0.078859
1062.485134	0.080132
1062.650240	0.078453
1062.815328	0.079596
1062.980398	0.079807
1063.145449	0.077024
1063.310482	0.076729
1063.475497	0.076408
1063.640494	0.076639
1063.805473	0.077644
1063.970433	0.077253
1064.135375	0.077657
1064.300299	0.078647
1064.465204	0.080437
1064.630092	0.081565
1064.794961	0.080932
1064.959812	0.080878
1065.124645	0.080426
1065.289459	0.080391
1065.454256	0.081473
1065.619034	0.081333
1065.783793	0.080470
1065.948535	0.081107
1066.113258	0.083268
1066.277964	0.084639
1066.442651	0.084320
1066.607319	0.087141
1066.771970	0.086398
1066.936602	0.084914
1067.101216	0.085010
1067.265812	0.085914
1067.430389	0.085815
1067.594949	0.084546
1067.759490	0.081883
1067.924013	0.082098
1068.088518	0.081106
1068.253004	0.080700
1068.417472	0.081473
1068.581922	0.082700
1068.746354	0.080401
1068.910768	0.078298
1069.075163	0.080313
1069.239540	0.082622
1069.403899	0.082501
1069.568240	0.080857
1069.732562	0.079831
1069.896866	0.079064
1070.061152	0.075749
1070.225420	0.079589
1070.389670	0.079824
1070.553901	0.078652
1070.718114	0.079337
1070.882309	0.080320
1071.046486	0.080149
1071.210644	0.081550
1071.374784	0.081909
1071.538906	0.084625
1071.703010	0.081385
1071.867096	0.081464
1072.031163	0.080240
1072.195212	0.079584
1072.359243	0.081996
1072.523256	0.083435
1072.687250	0.084639
1072.851226	0.084947
1073.015184	0.085275
1073.179124	0.087717
1073.343045	0.087751
1073.506949	0.088706
1073.670834	0.089295
1073.834701	0.088935
1073.998549	0.089855
1074.162380	0.091058
1074.326192	0.089342
1074.489986	0.087993
1074.653761	0.087949
1074.817519	0.088753
1074.981258	0.088417
1075.144979	0.086376
1075.308682	0.083025
1075.472367	0.083106
1075.636033	0.080799
1075.799681	0.084748
1075.963311	0.087868
1076.126923	0.086793
1076.290516	0.086371
1076.454092	0.084448
1076.617649	0.086219
1076.781187	0.090885
1076.944708	0.090500
1077.108210	0.091725
1077.271695	0.091288
1077.435160	0.089007
1077.598608	0.088215
1077.762038	0.088509
1077.925449	0.089529
1078.088842	0.088728
1078.252217	0.085965
1078.415573	0.084592
1078.578912	0.085442
1078.742232	0.083066
1078.905534	0.085472
1079.068817	0.085073
1079.232083	0.082628
1079.395330	0.083628
1079.558559	0.086289
1079.721770	0.085612
1079.884962	0.088380
1080.048136	0.087298
1080.211293	0.086406
1080.374430	0.084624
1080.537550	0.086359
1080.700651	0.085389
1080.863735	0.083353
1081.026800	0.082452
1081.189846	0.082214
1081.352875	0.079282
1081.515885	0.080926
1081.678877	0.081686
1081.841851	0.082040
1082.004807	0.082306
1082.167744	0.083296
1082.330663	0.084374
1082.493564	0.081666
1082.656447	0.083083
1082.819312	0.083422
1082.982158	0.082653
1083.144986	0.082786
1083.307796	0.083725
1083.470587	0.084973
1083.633361	0.088490
1083.796116	0.090425
1083.958853	0.094713
1084.121571	0.093291
1084.284272	0.093915
1084.446954	0.093838
1084.609618	0.093514
1084.772264	0.091606
1084.934892	0.089908
1085.097501	0.087620
1085.260092	0.086291
1085.422665	0.083955
1085.585220	0.085745
1085.747756	0.085138
1085.910274	0.083131
1086.072774	0.081968
1086.235256	0.083145
1086.397720	0.083589
1086.560165	0.082792
1086.722592	0.081920
1086.885001	0.082510
1087.047392	0.081060
1087.209764	0.080840
1087.372119	0.081207
1087.534455	0.087548
1087.696772	0.085361
1087.859072	0.086824
1088.021353	0.089282
1088.183616	0.087638
1088.345861	0.087098
1088.508088	0.087429
1088.670296	0.089493
1088.832486	0.091332
1088.994658	0.088655
1089.156812	0.090744
1089.318948	0.088990
1089.481065	0.087016
1089.643164	0.090560
1089.805245	0.088781
1089.967308	0.086626
1090.129352	0.087035
1090.291378	0.085282
1090.453386	0.084096
1090.615376	0.084686
1090.777347	0.086161
1090.939301	0.088105
1091.101236	0.086505
1091.263153	0.085755
1091.425051	0.088450
1091.586932	0.085745
1091.748794	0.087751
1091.910638	0.088296
1092.072463	0.085159
1092.234271	0.083723
1092.396060	0.083123
1092.557831	0.085480
1092.719584	0.092561
1092.881319	0.092283
1093.043035	0.094581
1093.204733	0.094599
1093.366413	0.095186
1093.528075	0.097287
1093.689718	0.095267
1093.851343	0.095656
1094.012950	0.094940
1094.174539	0.089889
1094.336110	0.091525
1094.497662	0.092302
1094.659196	0.092191
1094.820712	0.091439
1094.982210	0.092406
1095.143689	0.093167
1095.305151	0.094096
1095.466594	0.093068
1095.628018	0.095626
1095.789425	0.094330
1095.950813	0.092459
1096.112183	0.093758
1096.273535	0.092582
1096.434869	0.091744
1096.596184	0.092545
1096.757482	0.088597
1096.918761	0.090747
1097.080021	0.090200
1097.241264	0.090754
1097.402488	0.091252
1097.563694	0.091679
1097.724882	0.094182
1097.886052	0.092622
1098.047203	0.093882
1098.208336	0.095474
1098.369451	0.095030
1098.530548	0.094324
1098.691627	0.091832
1098.852687	0.092224
1099.013729	0.089351
1099.174753	0.088241
1099.335758	0.092420
1099.496746	0.091628
1099.657715	0.093574
1099.818666	0.090049
1099.979599	0.089845
1100.140513	0.091623
1100.301409	0.097420
1100.462287	0.095501
1100.623147	0.093336
1100.783989	0.089922
1100.944812	0.090236
1101.105617	0.091573
1101.266404	0.100447
1101.427173	0.099443
1101.587923	0.096703
1101.748656	0.086906
1101.909370	0.091044
1102.070066	0.091811
1102.230743	0.090671
1102.391403	0.089727
1102.552044	0.087922
1102.712667	0.085020
1102.873271	0.086127
1103.033858	0.090603
1103.194426	0.093668
1103.354976	0.096844
1103.515508	0.100207
1103.676021	0.098850
1103.836517	0.095794
1103.996994	0.097013
1104.157453	0.092034
1104.317893	0.095581
1104.478316	0.095752
1104.638720	0.095888
1104.799106	0.091807
1104.959474	0.091798
1105.119823	0.097646
1105.280155	0.100647
1105.440468	0.100138
1105.600763	0.104489
1105.761039	0.101480
1105.921298	0.102894
1106.081538	0.101172
1106.241760	0.103406
1106.401964	0.099996
1106.562149	0.097446
1106.722316	0.099097
1106.882465	0.096973
1107.042596	0.093786
1107.202709	0.093297
1107.362803	0.093427
1107.522879	0.097374
1107.682937	0.093023
1107.842977	0.098386
1108.002999	0.098435
1108.163002	0.099770
1108.322987	0.100734
1108.482954	0.103025
1108.642902	0.101709
1108.802833	0.097150
1108.962745	0.098571
1109.122639	0.101628
1109.282515	0.097814
1109.442372	0.102861
1109.602211	0.097945
1109.762032	0.094969
1109.921835	0.092522
1110.081620	0.093098
1110.241386	0.092608
1110.401134	0.089436
1110.560864	0.089556
1110.720576	0.091248
1110.880269	0.085411
1111.039945	0.088953
1111.199602	0.097608
1111.359240	0.100675
1111.518861	0.099614
1111.678463	0.104606
1111.838047	0.104748
1111.997613	0.103193
1112.157161	0.102603
1112.316690	0.105023
1112.476202	0.106386
1112.635695	0.100813
1112.795169	0.102840
1112.954626	0.105239
1113.114064	0.100442
1113.273484	0.099614
1113.432886	0.098504
1113.592270	0.093432
1113.751635	0.093659
1113.910983	0.092489
1114.070312	0.095309
1114.229622	0.094384
1114.388915	0.094922
1114.548189	0.095644
1114.707445	0.096740
1114.866683	0.099091
1115.025903	0.106846
1115.185104	0.107564
1115.344287	0.108148
1115.503452	0.103880
1115.662599	0.100601
1115.821727	0.097961
1115.980838	0.102244
1116.139930	0.105446
1116.299004	0.105540
1116.458059	0.101838
1116.617097	0.097414
1116.776116	0.099994
1116.935117	0.101995
1117.094099	0.100323
1117.253064	0.103823
1117.412010	0.097993
1117.570938	0.096779
1117.729848	0.098712
1117.888740	0.096645
1118.047613	0.099431
1118.206468	0.090026
1118.365305	0.088045
1118.524124	0.095056
1118.682924	0.091645
1118.841707	0.092851
1119.000471	0.088480
1119.159216	0.087838
1119.317944	0.091941
1119.476653	0.091299
1119.635344	0.095511
1119.794017	0.098107
1119.952672	0.091489
1120.111308	0.097787
1120.269927	0.098464
1120.428527	0.101774
1120.587108	0.099483
1120.745672	0.100398
1120.904217	0.099201
1121.062744	0.101796
1121.221253	0.099166
1121.379744	0.100442
1121.538216	0.099189
1121.696671	0.102425
1121.855107	0.102573
1122.013524	0.104900
1122.171924	0.101676
1122.330305	0.102394
1122.488668	0.101300
1122.647013	0.102662
1122.805340	0.106554
1122.963648	0.104692
1123.121938	0.106235
1123.280210	0.106375
1123.438464	0.103515
1123.596700	0.107379
1123.754917	0.109334
1123.913116	0.110510
1124.071297	0.112726
1124.229459	0.109018
1124.387604	0.107205
1124.545730	0.098424
1124.703838	0.099399
1124.861928	0.097220
1125.019999	0.093939
1125.178052	0.093053
1125.336088	0.089459
1125.494104	0.090313
1125.652103	0.087757
1125.810083	0.086660
1125.968045	0.090644
1126.125989	0.090382
1126.283915	0.095412
1126.441823	0.094338
1126.599712	0.100002
1126.757583	0.103755
1126.915436	0.099659
1127.073270	0.101734
1127.231087	0.106285
1127.388885	0.107063
1127.546665	0.108140
1127.704426	0.107834
1127.862170	0.112062
1128.019895	0.107473
1128.177602	0.105659
1128.335291	0.106641
1128.492961	0.107320
1128.650614	0.104466
1128.808248	0.104952
1128.965864	0.106018
1129.123461	0.098945
1129.281041	0.098625
1129.438602	0.095796
1129.596145	0.095006
1129.753670	0.093470
1129.911176	0.094091
1130.068665	0.093168
1130.226135	0.093296
1130.383587	0.092287
1130.541020	0.101667
1130.698436	0.089806
1130.855833	0.089756
1131.013212	0.093555
1131.170573	0.097545
1131.327915	0.099469
1131.485239	0.101255
1131.642545	0.100729
1131.799833	0.096852
1131.957103	0.086987
1132.114354	0.094977
1132.271588	0.097597
1132.428803	0.096756
1132.585999	0.098160
1132.743178	0.095853
1132.900338	0.090508
1133.057480	0.092467
1133.214604	0.091566
1133.371710	0.096378
1133.528797	0.103051
1133.685866	0.105039
1133.842917	0.104032
1133.999950	0.098305
1134.156964	0.094500
1134.313960	0.104614
1134.470938	0.107575
1134.627898	0.114733
1134.784840	0.116435
1134.941763	0.107601
1135.098668	0.108260
1135.255555	0.102364
1135.412424	0.100141
1135.569274	0.102425
1135.726107	0.100301
1135.882921	0.099894
1136.039716	0.093160
1136.196494	0.093415
1136.353253	0.095611
1136.509995	0.092162
1136.666717	0.095457
1136.823422	0.105756
1136.980109	0.103494
1137.136777	0.096206
1137.293427	0.088409
1137.450059	0.092937
1137.606672	0.090444
1137.763267	0.093013
1137.919844	0.098129
1138.076403	0.096730
1138.232944	0.097138
1138.389466	0.103616
1138.545971	0.111062
1138.702457	0.116517
1138.858924	0.114132
1139.015374	0.118053
1139.171805	0.113985
1139.328218	0.104647
1139.484613	0.106149
1139.640990	0.099083
1139.797348	0.095901
1139.953688	0.091457
1140.110010	0.086174
1140.266314	0.085993
1140.422600	0.084095
1140.578867	0.086329
1140.735116	0.089584
1140.891347	0.093451
1141.047559	0.101000
1141.203754	0.108665
1141.359930	0.111525
1141.516088	0.116356
1141.672228	0.121688
1141.828349	0.128415
1141.984452	0.133927
1142.140537	0.129951
1142.296604	0.135717
1142.452653	0.130837
1142.608683	0.124245
1142.764695	0.123393
1142.920689	0.124683
1143.076665	0.127779
1143.232622	0.118240
1143.388562	0.116545
1143.544483	0.124896
1143.700385	0.119144
1143.856270	0.119780
1144.012136	0.123163
1144.167985	0.122674
1144.323814	0.124678
1144.479626	0.116235
1144.635420	0.117202
1144.791195	0.109616
1144.946952	0.110219
1145.102691	0.107067
1145.258411	0.108034
1145.414113	0.106226
1145.569798	0.106220
1145.725463	0.105775
1145.881111	0.104687
1146.036741	0.108595
1146.192352	0.114167
1146.347945	0.112148
1146.503519	0.116848
1146.659076	0.112252
1146.814614	0.106890
1146.970134	0.108869
1147.125636	0.102340
1147.281120	0.104448
1147.436585	0.107026
1147.592032	0.108559
1147.747461	0.102774
1147.902872	0.093164
1148.058265	0.095806
1148.213639	0.096270
1148.368995	0.093303
1148.524333	0.094333
1148.679653	0.100009
1148.834954	0.094720
1148.990237	0.094685
1149.145502	0.105284
1149.300749	0.108632
1149.455977	0.105737
1149.611188	0.097150
1149.766380	0.096587
1149.921553	0.093137
1150.076709	0.084723
1150.231846	0.082912
1150.386966	0.075612
1150.542066	0.072302
1150.697149	0.073153
1150.852214	0.075296
1151.007260	0.082910
1151.162288	0.085234
1151.317298	0.094817
1151.472289	0.093342
1151.627263	0.097278
1151.782218	0.095413
1151.937155	0.087305
1152.092073	0.084209
1152.246974	0.087956
1152.401856	0.095136
1152.556720	0.088800
1152.711566	0.079166
1152.866393	0.079638
1153.021203	0.080408
1153.175994	0.087719
1153.330767	0.101291
1153.485521	0.105042
1153.640258	0.101126
1153.794976	0.097717
1153.949676	0.103855
1154.104358	0.113193
1154.259021	0.116385
1154.413667	0.108149
1154.568294	0.105199
1154.722903	0.100039
1154.877493	0.100130
1155.032066	0.106156
1155.186620	0.109540
1155.341156	0.103632
1155.495674	0.100781
1155.650173	0.092552
1155.804654	0.096829
1155.959118	0.103729
1156.113562	0.099756
1156.267989	0.099984
1156.422397	0.096188
1156.576788	0.084832
1156.731160	0.089634
1156.885513	0.086162
1157.039849	0.090091
1157.194166	0.102538
1157.348465	0.091203
1157.502746	0.092979
1157.657009	0.090631
1157.811253	0.085616
1157.965479	0.090482
1158.119687	0.094606
1158.273877	0.098869
1158.428048	0.095321
1158.582201	0.088334
1158.736337	0.097514
1158.890453	0.094826
1159.044552	0.093555
1159.198632	0.091142
1159.352694	0.095508
1159.506738	0.086172
1159.660764	0.082673
1159.814771	0.091599
1159.968761	0.086647
1160.122732	0.086923
1160.276685	0.085537
1160.430619	0.086929
1160.584535	0.094796
1160.738434	0.092901
1160.892313	0.092282
1161.046175	0.092259
1161.200019	0.093858
1161.353844	0.094926
1161.507651	0.096532
1161.661440	0.102006
1161.815210	0.114603
1161.968962	0.112258
1162.122697	0.117536
1162.276412	0.122062
1162.430110	0.128371
1162.583789	0.129967
1162.737451	0.132472
1162.891094	0.120475
1163.044718	0.110555
1163.198325	0.104794
1163.351913	0.099945
1163.505483	0.093895
1163.659035	0.093497
1163.812569	0.093321
1163.966084	0.085251
1164.119581	0.075035
1164.273060	0.075056
1164.426521	0.073777
1164.579964	0.076761
1164.733388	0.075304
1164.886794	0.077856
1165.040182	0.079595
1165.193551	0.067249
1165.346903	0.067445
1165.500236	0.080159
1165.653551	0.093955
1165.806848	0.102839
1165.960126	0.102366
1166.113386	0.107661
1166.266628	0.103041
1166.419852	0.114330
1166.573058	0.115206
1166.726245	0.122160
1166.879414	0.126398
1167.032565	0.116565
1167.185698	0.111187
1167.338812	0.104703
1167.491909	0.100132
1167.644987	0.108929
1167.798046	0.089336
1167.951088	0.100940
1168.104111	0.098608
1168.257117	0.092541
1168.410103	0.098807
1168.563072	0.097359
1168.716023	0.100744
1168.868955	0.099713
1169.021869	0.090538
1169.174765	0.100492
1169.327642	0.095805
1169.480501	0.086957
1169.633343	0.093895
1169.786165	0.089822
1169.938970	0.100752
1170.091757	0.100945
1170.244525	0.102159
1170.397275	0.105567
1170.550007	0.101815
1170.702720	0.099690
1170.855415	0.100902
1171.008092	0.091099
1171.160751	0.091481
1171.313392	0.088747
1171.466014	0.038005
1171.618619	0.111164
1171.771205	0.111164
1171.923772	0.111164
