sample name	sample
index	617
start time	 03-19-2021  02:16:13 PM


Wavelength (nm)	Absorbance
494.344910	-0.041856
494.563924	-0.041856
494.782919	-0.041856
495.001897	-0.277145
495.220856	-0.053049
495.439797	-0.062528
495.658719	-0.049927
495.877624	-0.028754
496.096510	0.057256
496.315378	0.059092
496.534227	0.065137
496.753059	0.063744
496.971872	0.070398
497.190667	0.131825
497.409444	0.135251
497.628203	0.137415
497.846943	0.136663
498.065665	0.135848
498.284369	0.134896
498.503055	0.135082
498.721723	0.136292
498.940372	0.135955
499.159003	0.136052
499.377616	0.136665
499.596210	0.136048
499.814787	0.136279
500.033345	0.136506
500.251885	0.136669
500.470406	0.136293
500.688910	0.135679
500.907395	0.135591
501.125862	0.135280
501.344311	0.135999
501.562742	0.136317
501.781154	0.135935
501.999548	0.136610
502.217924	0.137244
502.436282	0.137935
502.654621	0.137676
502.872942	0.138689
503.091245	0.139455
503.309530	0.138829
503.527797	0.138601
503.746045	0.138378
503.964275	0.138365
504.182487	0.138662
504.400681	0.138829
504.618856	0.139319
504.837013	0.139709
505.055152	0.140031
505.273273	0.139799
505.491376	0.139760
505.709460	0.140323
505.927526	0.139263
506.145574	0.139766
506.363604	0.139176
506.581615	0.138591
506.799608	0.137719
507.017583	0.137200
507.235540	0.137690
507.453478	0.138657
507.671399	0.139433
507.889301	0.140424
508.107185	0.139782
508.325050	0.140681
508.542898	0.141954
508.760727	0.142972
508.978538	0.143832
509.196330	0.144339
509.414105	0.143961
509.631861	0.143327
509.849599	0.142817
510.067319	0.142856
510.285021	0.143288
510.502704	0.142834
510.720369	0.142382
510.938016	0.141630
511.155645	0.141383
511.373255	0.141590
511.590848	0.141762
511.808422	0.142646
512.025977	0.143013
512.243515	0.142658
512.461034	0.143187
512.678536	0.142791
512.896018	0.142397
513.113483	0.142599
513.330930	0.142552
513.548358	0.142019
513.765768	0.142347
513.983160	0.142966
514.200533	0.143197
514.417889	0.142745
514.635226	0.143221
514.852545	0.143975
515.069845	0.144279
515.287128	0.145409
515.504392	0.146185
515.721638	0.145878
515.938866	0.146016
516.156075	0.146187
516.373267	0.146697
516.590440	0.147375
516.807594	0.147355
517.024731	0.146957
517.241850	0.145869
517.458950	0.145885
517.676032	0.146237
517.893095	0.145556
518.110141	0.146115
518.327168	0.146451
518.544177	0.145897
518.761168	0.145959
518.978141	0.146020
519.195095	0.146995
519.412031	0.147011
519.628949	0.146844
519.845849	0.147679
520.062731	0.147775
520.279594	0.147536
520.496439	0.148204
520.713266	0.148751
520.930074	0.148912
521.146865	0.148582
521.363637	0.149269
521.580391	0.149737
521.797127	0.150190
522.013844	0.150241
522.230543	0.150770
522.447224	0.150917
522.663887	0.151000
522.880532	0.151891
523.097158	0.152217
523.313766	0.153278
523.530356	0.152776
523.746928	0.152296
523.963481	0.152091
524.180017	0.152258
524.396534	0.152404
524.613032	0.152152
524.829513	0.152100
525.045975	0.152265
525.262420	0.151449
525.478845	0.152336
525.695253	0.153026
525.911643	0.153526
526.128014	0.153609
526.344367	0.153931
526.560702	0.154656
526.777018	0.155228
526.993316	0.155178
527.209597	0.155639
527.425858	0.155846
527.642102	0.156435
527.858328	0.156304
528.074535	0.157210
528.290724	0.157042
528.506894	0.157602
528.723047	0.157558
528.939181	0.158142
529.155297	0.158279
529.371395	0.157809
529.587475	0.157695
529.803536	0.157706
530.019579	0.157745
530.235604	0.158463
530.451611	0.158271
530.667600	0.158792
530.883570	0.159157
531.099522	0.159616
531.315456	0.160762
531.531372	0.160916
531.747269	0.161822
531.963148	0.162251
532.179009	0.162709
532.394852	0.163009
532.610676	0.163015
532.826482	0.163101
533.042271	0.163384
533.258040	0.163234
533.473792	0.163873
533.689525	0.163636
533.905240	0.163740
534.120937	0.163449
534.336616	0.163335
534.552277	0.163698
534.767919	0.164163
534.983543	0.163953
535.199149	0.164357
535.414736	0.164022
535.630306	0.164586
535.845857	0.165019
536.061390	0.165382
536.276904	0.166151
536.492401	0.166098
536.707879	0.166185
536.923339	0.166612
537.138781	0.167067
537.354204	0.167435
537.569610	0.168191
537.784997	0.168019
538.000366	0.168256
538.215716	0.168713
538.431049	0.168750
538.646363	0.169219
538.861659	0.170002
539.076937	0.170125
539.292196	0.170351
539.507438	0.169849
539.722661	0.170071
539.937866	0.170425
540.153052	0.170535
540.368221	0.170964
540.583371	0.171114
540.798503	0.171162
541.013617	0.171610
541.228712	0.171797
541.443789	0.172031
541.658848	0.172584
541.873889	0.172495
542.088912	0.172159
542.303916	0.171915
542.518902	0.172204
542.733870	0.172412
542.948820	0.172497
543.163752	0.173107
543.378665	0.173610
543.593560	0.173452
543.808437	0.174281
544.023295	0.174739
544.238136	0.175317
544.452958	0.175213
544.667762	0.175013
544.882548	0.175383
545.097315	0.175480
545.312064	0.175664
545.526795	0.176081
545.741508	0.176110
545.956203	0.176507
546.170879	0.176801
546.385537	0.177218
546.600177	0.177635
546.814799	0.177425
547.029402	0.177616
547.243988	0.177743
547.458555	0.178112
547.673103	0.178509
547.887634	0.178829
548.102146	0.178874
548.316640	0.179092
548.531116	0.179034
548.745574	0.179628
548.960013	0.179720
549.174435	0.180039
549.388838	0.180074
549.603222	0.180189
549.817589	0.180364
550.031937	0.181034
550.246267	0.181245
550.460579	0.181820
550.674873	0.181814
550.889148	0.181779
551.103405	0.181665
551.317644	0.181173
551.531865	0.181194
551.746068	0.181375
551.960252	0.181677
552.174418	0.181898
552.388566	0.181962
552.602696	0.181997
552.816807	0.182723
553.030900	0.183319
553.244975	0.184142
553.459032	0.184324
553.673070	0.184574
553.887091	0.184989
554.101093	0.185047
554.315077	0.185400
554.529042	0.185757
554.742990	0.185502
554.956919	0.185898
555.170830	0.186255
555.384722	0.186786
555.598597	0.186838
555.812453	0.186919
556.026291	0.187387
556.240111	0.187408
556.453913	0.188098
556.667696	0.188158
556.881461	0.188355
557.095208	0.188446
557.308937	0.188035
557.522647	0.187769
557.736339	0.187675
557.950013	0.187811
558.163669	0.187917
558.377307	0.187525
558.590926	0.188096
558.804527	0.187874
559.018110	0.188054
559.231675	0.188632
559.445221	0.189233
559.658749	0.189593
559.872259	0.190069
560.085751	0.190865
560.299225	0.191108
560.512680	0.191335
560.726117	0.192020
560.939536	0.192205
561.152937	0.192071
561.366319	0.192096
561.579683	0.191989
561.793029	0.191675
562.006357	0.191321
562.219667	0.191368
562.432958	0.191328
562.646231	0.191198
562.859486	0.190901
563.072723	0.191592
563.285941	0.192136
563.499141	0.192415
563.712323	0.192740
563.925487	0.193152
564.138632	0.193537
564.351760	0.193782
564.564869	0.193803
564.777960	0.194600
564.991032	0.194773
565.204087	0.194904
565.417123	0.194936
565.630141	0.194823
565.843140	0.194615
566.056122	0.195082
566.269085	0.195267
566.482030	0.195372
566.694957	0.194961
566.907866	0.194853
567.120756	0.194861
567.333628	0.194724
567.546482	0.194948
567.759318	0.195431
567.972135	0.195243
568.184935	0.195065
568.397716	0.195489
568.610478	0.195698
568.823223	0.195934
569.035949	0.196205
569.248657	0.196851
569.461347	0.197027
569.674019	0.196753
569.886672	0.196807
570.099308	0.197246
570.311925	0.197168
570.524523	0.197465
570.737104	0.197646
570.949666	0.197353
571.162210	0.196856
571.374736	0.197198
571.587244	0.197468
571.799733	0.197627
572.012205	0.197757
572.224658	0.197822
572.437092	0.198086
572.649509	0.198098
572.861907	0.198548
573.074287	0.199162
573.286649	0.199200
573.498993	0.199090
573.711318	0.199360
573.923625	0.199236
574.135914	0.199372
574.348185	0.199174
574.560438	0.199338
574.772672	0.199635
574.984888	0.199637
575.197086	0.199521
575.409266	0.200251
575.621427	0.200256
575.833570	0.200669
576.045695	0.200854
576.257802	0.201414
576.469890	0.201503
576.681961	0.201519
576.894013	0.201694
577.106046	0.202102
577.318062	0.202071
577.530059	0.201930
577.742039	0.202059
577.954000	0.202095
578.165942	0.202064
578.377867	0.202256
578.589773	0.202309
578.801661	0.202451
579.013531	0.202281
579.225382	0.202407
579.437216	0.202764
579.649031	0.203111
579.860828	0.203218
580.072606	0.203709
580.284367	0.203424
580.496109	0.203691
580.707833	0.203614
580.919539	0.203853
581.131227	0.203537
581.342896	0.203641
581.554547	0.203458
581.766180	0.203735
581.977795	0.203459
582.189391	0.204327
582.400969	0.204492
582.612529	0.204856
582.824071	0.205305
583.035595	0.205958
583.247100	0.206186
583.458587	0.206548
583.670056	0.206802
583.881506	0.206469
584.092939	0.205880
584.304353	0.205851
584.515749	0.205741
584.727127	0.205865
584.938486	0.205604
585.149828	0.205533
585.361151	0.205500
585.572456	0.205398
585.783742	0.205808
585.995011	0.206359
586.206261	0.206222
586.417493	0.206529
586.628706	0.206267
586.839902	0.206729
587.051079	0.206807
587.262238	0.206744
587.473379	0.206873
587.684502	0.207007
587.895606	0.207033
588.106692	0.207309
588.317760	0.207365
588.528810	0.207784
588.739841	0.207768
588.950855	0.208112
589.161850	0.208365
589.372827	0.208751
589.583785	0.208787
589.794726	0.208906
590.005648	0.209365
590.216552	0.209717
590.427437	0.209908
590.638305	0.210100
590.849154	0.210131
591.059985	0.210192
591.270798	0.210109
591.481592	0.210478
591.692369	0.210681
591.903127	0.210697
592.113867	0.210911
592.324588	0.210835
592.535292	0.211091
592.745977	0.211180
592.956644	0.211751
593.167293	0.211931
593.377923	0.212111
593.588536	0.212372
593.799130	0.212483
594.009706	0.212539
594.220263	0.212621
594.430803	0.212866
594.641324	0.213102
594.851827	0.212939
595.062312	0.212992
595.272778	0.213258
595.483227	0.213316
595.693657	0.213182
595.904069	0.213222
596.114462	0.213570
596.324838	0.213403
596.535195	0.213825
596.745534	0.214154
596.955855	0.214007
597.166157	0.213949
597.376441	0.214090
597.586707	0.214241
597.796955	0.214720
598.007185	0.214634
598.217396	0.214835
598.427589	0.214807
598.637764	0.214618
598.847921	0.215232
599.058060	0.215135
599.268180	0.215021
599.478282	0.215144
599.688366	0.214882
599.898431	0.214916
600.108479	0.214907
600.318508	0.214854
600.528519	0.214914
600.738511	0.214778
600.948486	0.215378
601.158442	0.215542
601.368380	0.215581
601.578300	0.215829
601.788202	0.215750
601.998085	0.215757
602.207950	0.215990
602.417797	0.216279
602.627626	0.216390
602.837436	0.216231
603.047228	0.216221
603.257002	0.216506
603.466758	0.216537
603.676496	0.216922
603.886215	0.217222
604.095916	0.217171
604.305599	0.217336
604.515264	0.217605
604.724910	0.217553
604.934538	0.217889
605.144148	0.217988
605.353740	0.218019
605.563314	0.218218
605.772869	0.218206
605.982406	0.218783
606.191925	0.218809
606.401425	0.218693
606.610908	0.218809
606.820372	0.218736
607.029818	0.218852
607.239246	0.218956
607.448655	0.218984
607.658047	0.219278
607.867420	0.218808
608.076775	0.219085
608.286111	0.219363
608.495430	0.219692
608.704730	0.219848
608.914012	0.219907
609.123275	0.220384
609.332521	0.220485
609.541748	0.220455
609.750957	0.220710
609.960148	0.220774
610.169321	0.220999
610.378475	0.221406
610.587611	0.221469
610.796729	0.221899
611.005829	0.221571
611.214910	0.221889
611.423974	0.221837
611.633019	0.222161
611.842045	0.222213
612.051054	0.222178
612.260044	0.221874
612.469017	0.221624
612.677970	0.221477
612.886906	0.221818
613.095824	0.221647
613.304723	0.221784
613.513604	0.221594
613.722467	0.221901
613.931311	0.222415
614.140138	0.222546
614.348946	0.223027
614.557736	0.223194
614.766507	0.223343
614.975261	0.223784
615.183996	0.224240
615.392713	0.224741
615.601412	0.224786
615.810092	0.224547
616.018754	0.224754
616.227399	0.224768
616.436024	0.224773
616.644632	0.224556
616.853222	0.224550
617.061793	0.224549
617.270346	0.224321
617.478880	0.224142
617.687397	0.223848
617.895895	0.223964
618.104375	0.224133
618.312837	0.224157
618.521281	0.224315
618.729706	0.224329
618.938113	0.224252
619.146502	0.224686
619.354873	0.225004
619.563226	0.225423
619.771560	0.225567
619.979876	0.225891
620.188174	0.226204
620.396453	0.226292
620.604715	0.226473
620.812958	0.226644
621.021183	0.226625
621.229390	0.226753
621.437578	0.226966
621.645748	0.227050
621.853900	0.227126
622.062034	0.226993
622.270150	0.227367
622.478247	0.227489
622.686326	0.227630
622.894387	0.227574
623.102430	0.227558
623.310454	0.227911
623.518461	0.227982
623.726449	0.228052
623.934418	0.228278
624.142370	0.228264
624.350303	0.228244
624.558218	0.228257
624.766115	0.228532
624.973994	0.228674
625.181855	0.228235
625.389697	0.228023
625.597521	0.228036
625.805327	0.228289
626.013114	0.228269
626.220883	0.228215
626.428634	0.228298
626.636367	0.228446
626.844082	0.228462
627.051778	0.228864
627.259457	0.229075
627.467117	0.229363
627.674758	0.229244
627.882382	0.229300
628.089987	0.229732
628.297574	0.230058
628.505143	0.230158
628.712694	0.230236
628.920226	0.229959
629.127740	0.230241
629.335236	0.230143
629.542714	0.230466
629.750174	0.230614
629.957615	0.230675
630.165038	0.230781
630.372443	0.230721
630.579829	0.230798
630.787198	0.231592
630.994548	0.231686
631.201880	0.231879
631.409194	0.231934
631.616489	0.232026
631.823766	0.231973
632.031025	0.232167
632.238266	0.232398
632.445489	0.232461
632.652693	0.232406
632.859879	0.232503
633.067047	0.232565
633.274197	0.232823
633.481329	0.233255
633.688442	0.233232
633.895537	0.233329
634.102614	0.233387
634.309672	0.233701
634.516713	0.233595
634.723735	0.233780
634.930739	0.233905
635.137724	0.233810
635.344692	0.233707
635.551641	0.234302
635.758572	0.234306
635.965485	0.234523
636.172379	0.234973
636.379256	0.235094
636.586114	0.235328
636.792954	0.235294
636.999775	0.235439
637.206579	0.235872
637.413364	0.235647
637.620131	0.235866
637.826880	0.236043
638.033610	0.235838
638.240323	0.236096
638.447017	0.235892
638.653692	0.236390
638.860350	0.236494
639.066990	0.236230
639.273611	0.236661
639.480214	0.236669
639.686798	0.236674
639.893365	0.236803
640.099913	0.236850
640.306443	0.237170
640.512955	0.237077
640.719449	0.237260
640.925924	0.237670
641.132381	0.237615
641.338820	0.237833
641.545241	0.237973
641.751644	0.238037
641.958028	0.238101
642.164394	0.238225
642.370742	0.238413
642.577071	0.238514
642.783383	0.238275
642.989676	0.238452
643.195951	0.238497
643.402207	0.238603
643.608446	0.238724
643.814666	0.239092
644.020868	0.239500
644.227052	0.239599
644.433218	0.239911
644.639365	0.239971
644.845494	0.240144
645.051605	0.240442
645.257698	0.240801
645.463772	0.240962
645.669828	0.241063
645.875866	0.240887
646.081886	0.241112
646.287888	0.241074
646.493871	0.241711
646.699836	0.241862
646.905783	0.241888
647.111712	0.241690
647.317622	0.241887
647.523514	0.241686
647.729388	0.241731
647.935244	0.241698
648.141082	0.241811
648.346901	0.241551
648.552702	0.241587
648.758485	0.241727
648.964250	0.242075
649.169996	0.242079
649.375724	0.242606
649.581434	0.242832
649.787126	0.243002
649.992800	0.243307
650.198455	0.243589
650.404092	0.243562
650.609711	0.243700
650.815311	0.243731
651.020894	0.244026
651.226458	0.243761
651.432004	0.243934
651.637532	0.244074
651.843041	0.244046
652.048532	0.244155
652.254006	0.244456
652.459460	0.244742
652.664897	0.244963
652.870315	0.244895
653.075716	0.245290
653.281097	0.245583
653.486461	0.245739
653.691807	0.245964
653.897134	0.246246
654.102443	0.246462
654.307734	0.246375
654.513006	0.246398
654.718261	0.246735
654.923497	0.246935
655.128715	0.247123
655.333915	0.247093
655.539096	0.247308
655.744259	0.247493
655.949404	0.247567
656.154531	0.248065
656.359640	0.248162
656.564730	0.248257
656.769802	0.248420
656.974856	0.248488
657.179892	0.248901
657.384909	0.249122
657.589908	0.249291
657.794889	0.249503
657.999852	0.249228
658.204797	0.249447
658.409723	0.249643
658.614631	0.249709
658.819521	0.249671
659.024393	0.249832
659.229246	0.249779
659.434081	0.249690
659.638898	0.249954
659.843697	0.250318
660.048478	0.250667
660.253240	0.250786
660.457984	0.250986
660.662710	0.251313
660.867417	0.251576
661.072107	0.251802
661.276778	0.252010
661.481431	0.251735
661.686066	0.251690
661.890682	0.251829
662.095281	0.252310
662.299861	0.252532
662.504422	0.252733
662.708966	0.252584
662.913491	0.252871
663.117999	0.253237
663.322488	0.253686
663.526958	0.253869
663.731411	0.253946
663.935845	0.253690
664.140261	0.253868
664.344659	0.253864
664.549038	0.254085
664.753400	0.254148
664.957743	0.254256
665.162068	0.254442
665.366375	0.254921
665.570663	0.254821
665.774933	0.255163
665.979185	0.255435
666.183419	0.255681
666.387635	0.256095
666.591832	0.256227
666.796011	0.256380
667.000172	0.256528
667.204315	0.256499
667.408439	0.256703
667.612545	0.256838
667.816634	0.256961
668.020703	0.256902
668.224755	0.256790
668.428788	0.256882
668.632803	0.257050
668.836800	0.257281
669.040779	0.257417
669.244739	0.257682
669.448681	0.257775
669.652605	0.257703
669.856511	0.257962
670.060399	0.258225
670.264268	0.258320
670.468119	0.258591
670.671952	0.258646
670.875767	0.258826
671.079563	0.259107
671.283341	0.259317
671.487101	0.259730
671.690843	0.259967
671.894567	0.260343
672.098272	0.260632
672.301959	0.260711
672.505628	0.260929
672.709278	0.261087
672.912911	0.261164
673.116525	0.261331
673.320121	0.261327
673.523699	0.261594
673.727258	0.261530
673.930799	0.261701
674.134322	0.261732
674.337827	0.261876
674.541314	0.262200
674.744782	0.262426
674.948232	0.262633
675.151664	0.262944
675.355078	0.263043
675.558474	0.263351
675.761851	0.263342
675.965210	0.263593
676.168551	0.263696
676.371873	0.263758
676.575178	0.263898
676.778464	0.263988
676.981732	0.263988
677.184981	0.264198
677.388213	0.264294
677.591426	0.264688
677.794621	0.265098
677.997798	0.265228
678.200956	0.265368
678.404097	0.265535
678.607219	0.265799
678.810323	0.265984
679.013408	0.265979
679.216476	0.266113
679.419525	0.266223
679.622556	0.266079
679.825569	0.266418
680.028563	0.266655
680.231540	0.266870
680.434498	0.266967
680.637438	0.267025
680.840359	0.267382
681.043263	0.267495
681.246148	0.267656
681.449015	0.267747
681.651864	0.267766
681.854694	0.267997
682.057506	0.268131
682.260301	0.268172
682.463076	0.268512
682.665834	0.268451
682.868573	0.268806
683.071295	0.268852
683.273998	0.269078
683.476682	0.269230
683.679349	0.269113
683.881997	0.269257
684.084627	0.269405
684.287239	0.269041
684.489833	0.269203
684.692408	0.269060
684.894965	0.269179
685.097504	0.269322
685.300025	0.269599
685.502527	0.269882
685.705012	0.270122
685.907478	0.270244
686.109925	0.270885
686.312355	0.271075
686.514766	0.271168
686.717159	0.271296
686.919534	0.271497
687.121891	0.271650
687.324230	0.271677
687.526550	0.271773
687.728852	0.271944
687.931136	0.272058
688.133401	0.272077
688.335649	0.272484
688.537878	0.272692
688.740089	0.272771
688.942281	0.272849
689.144456	0.273144
689.346612	0.273248
689.548750	0.273626
689.750870	0.273715
689.952971	0.273930
690.155055	0.274026
690.357120	0.274319
690.559167	0.274413
690.761195	0.274386
690.963206	0.274244
691.165198	0.274122
691.367172	0.274109
691.569128	0.274101
691.771065	0.274416
691.972984	0.274370
692.174885	0.274436
692.376768	0.274572
692.578633	0.274775
692.780479	0.275114
692.982308	0.275418
693.184118	0.275510
693.385909	0.275565
693.587683	0.275831
693.789438	0.276150
693.991175	0.276037
694.192894	0.276189
694.394595	0.276203
694.596277	0.276239
694.797941	0.276460
694.999587	0.276558
695.201215	0.276608
695.402824	0.276575
695.604416	0.276522
695.805989	0.276711
696.007543	0.276588
696.209080	0.276732
696.410598	0.276663
696.612099	0.276617
696.813580	0.276432
697.015044	0.276449
697.216490	0.276340
697.417917	0.276538
697.619326	0.276703
697.820717	0.276992
698.022089	0.277056
698.223444	0.277302
698.424780	0.277267
698.626098	0.277559
698.827397	0.277790
699.028679	0.278146
699.229942	0.278191
699.431187	0.278227
699.632414	0.278541
699.833622	0.278557
700.034813	0.278673
700.235985	0.279059
700.437139	0.279371
700.638274	0.279586
700.839392	0.279673
701.040491	0.279944
701.241572	0.280143
701.442635	0.280072
701.643679	0.280392
701.844706	0.280650
702.045714	0.280365
702.246704	0.280503
702.447675	0.280570
702.648629	0.280618
702.849564	0.280533
703.050481	0.280418
703.251380	0.280482
703.452260	0.280636
703.653122	0.280541
703.853966	0.280806
704.054792	0.280594
704.255600	0.280518
704.456389	0.280542
704.657160	0.280583
704.857913	0.280506
705.058648	0.280511
705.259365	0.280110
705.460063	0.279997
705.660743	0.279939
705.861405	0.280059
706.062048	0.280004
706.262674	0.279955
706.463281	0.280052
706.663870	0.280413
706.864441	0.280296
707.064993	0.280671
707.265527	0.280869
707.466043	0.280806
707.666541	0.280808
707.867021	0.281198
708.067482	0.280859
708.267925	0.280912
708.468350	0.280852
708.668757	0.281009
708.869145	0.280977
709.069516	0.281035
709.269868	0.281339
709.470201	0.281467
709.670517	0.281380
709.870814	0.281579
710.071093	0.281425
710.271354	0.281370
710.471597	0.281350
710.671821	0.281642
710.872028	0.281626
711.072216	0.281865
711.272385	0.281899
711.472537	0.281760
711.672670	0.281878
711.872785	0.281943
712.072882	0.282075
712.272961	0.281971
712.473021	0.281581
712.673063	0.281444
712.873087	0.281213
713.073093	0.281156
713.273081	0.281391
713.473050	0.281559
713.673001	0.281301
713.872934	0.281422
714.072849	0.281662
714.272745	0.281983
714.472623	0.282072
714.672483	0.281984
714.872325	0.281905
715.072148	0.281811
715.271954	0.281604
715.471741	0.282001
715.671509	0.281835
715.871260	0.281707
716.070992	0.281498
716.270707	0.281419
716.470403	0.281572
716.670080	0.281665
716.869740	0.281562
717.069381	0.281685
717.269004	0.281390
717.468609	0.281295
717.668195	0.281191
717.867764	0.281192
718.067314	0.281146
718.266846	0.280929
718.466360	0.280810
718.665855	0.280718
718.865332	0.280479
719.064791	0.280495
719.264232	0.280385
719.463655	0.280509
719.663059	0.280345
719.862445	0.280276
720.061813	0.280290
720.261163	0.280277
720.460494	0.280201
720.659807	0.280257
720.859102	0.280320
721.058379	0.280480
721.257638	0.280305
721.456878	0.280366
721.656100	0.280329
721.855304	0.280220
722.054490	0.280249
722.253657	0.280133
722.452806	0.279991
722.651937	0.279798
722.851050	0.279595
723.050145	0.279507
723.249221	0.279267
723.448279	0.279094
723.647319	0.278857
723.846340	0.278731
724.045344	0.278910
724.244329	0.278886
724.443296	0.278974
724.642245	0.278899
724.841175	0.278815
725.040088	0.279066
725.238982	0.279405
725.437857	0.279321
725.636715	0.279165
725.835554	0.278858
726.034376	0.278843
726.233179	0.278796
726.431963	0.278605
726.630730	0.278682
726.829478	0.278464
727.028208	0.278069
727.226920	0.278044
727.425614	0.277961
727.624289	0.278008
727.822946	0.277829
728.021585	0.277495
728.220206	0.277414
728.418808	0.277210
728.617392	0.277425
728.815958	0.277389
729.014506	0.277646
729.213036	0.277332
729.411547	0.277220
729.610040	0.277261
729.808515	0.277344
730.006972	0.277367
730.205410	0.276979
730.403831	0.276495
730.602233	0.276582
730.800616	0.276305
730.998982	0.276455
731.197329	0.276317
731.395658	0.275943
731.593969	0.275589
731.792262	0.275571
731.990536	0.275610
732.188793	0.275330
732.387031	0.274885
732.585250	0.274649
732.783452	0.274600
732.981635	0.274416
733.179800	0.274505
733.377947	0.274307
733.576076	0.274007
733.774186	0.273916
733.972278	0.273995
734.170352	0.273765
734.368408	0.273585
734.566446	0.273131
734.764465	0.273077
734.962466	0.272888
735.160449	0.272864
735.358413	0.272696
735.556360	0.272669
735.754288	0.272529
735.952198	0.272756
736.150090	0.272560
736.347963	0.272505
736.545818	0.272316
736.743655	0.271913
736.941474	0.271630
737.139275	0.271398
737.337057	0.271354
737.534821	0.270828
737.732567	0.270608
737.930295	0.270452
738.128005	0.270262
738.325696	0.270002
738.523369	0.269892
738.721024	0.269925
738.918660	0.269932
739.116279	0.269447
739.313879	0.269652
739.511461	0.269391
739.709024	0.269310
739.906570	0.269173
740.104097	0.269127
740.301606	0.269121
740.499097	0.269002
740.696569	0.268924
740.894024	0.269082
741.091460	0.268946
741.288878	0.268833
741.486277	0.268822
741.683659	0.268628
741.881022	0.268279
742.078367	0.268099
742.275694	0.268053
742.473002	0.268120
742.670293	0.267694
742.867565	0.267329
743.064819	0.266934
743.262054	0.266753
743.459272	0.266635
743.656471	0.266547
743.853652	0.266464
744.050815	0.266224
744.247959	0.265853
744.445085	0.265775
744.642194	0.265611
744.839283	0.265730
745.036355	0.265558
745.233408	0.265160
745.430444	0.265343
745.627461	0.265258
745.824459	0.264985
746.021440	0.264615
746.218402	0.264265
746.415346	0.264264
746.612272	0.264058
746.809180	0.263953
747.006069	0.264019
747.202940	0.263913
747.399793	0.263727
747.596628	0.263622
747.793444	0.263438
747.990243	0.263546
748.187023	0.263054
748.383784	0.262858
748.580528	0.262697
748.777253	0.262702
748.973960	0.262202
749.170649	0.261942
749.367320	0.261691
749.563973	0.261633
749.760607	0.261408
749.957223	0.261601
750.153821	0.261642
750.350400	0.261351
750.546962	0.261126
750.743505	0.260893
750.940030	0.260563
751.136536	0.260290
751.333025	0.259885
751.529495	0.259782
751.725947	0.259542
751.922381	0.259023
752.118796	0.258717
752.315194	0.258403
752.511573	0.258339
752.707934	0.258381
752.904276	0.258266
753.100601	0.258201
753.296907	0.257690
753.493195	0.257544
753.689465	0.257350
753.885716	0.257259
754.081949	0.257155
754.278164	0.256957
754.474361	0.256759
754.670540	0.256588
754.866700	0.256616
755.062843	0.256741
755.258967	0.256615
755.455072	0.256575
755.651160	0.256505
755.847229	0.256321
756.043280	0.256330
756.239313	0.256066
756.435328	0.256272
756.631324	0.255979
756.827302	0.255962
757.023262	0.255906
757.219204	0.255745
757.415127	0.255768
757.611033	0.255815
757.806920	0.255507
758.002788	0.255549
758.198639	0.255474
758.394471	0.255371
758.590286	0.255219
758.786081	0.255016
758.981859	0.255057
759.177619	0.254636
759.373360	0.254571
759.569083	0.254681
759.764788	0.254713
759.960474	0.254432
760.156143	0.254601
760.351793	0.254423
760.547425	0.254275
760.743038	0.254159
760.938634	0.254131
761.134211	0.253842
761.329770	0.253759
761.525311	0.253465
761.720833	0.253150
761.916338	0.252717
762.111824	0.252598
762.307292	0.252707
762.502741	0.252620
762.698173	0.252617
762.893586	0.252615
763.088981	0.252326
763.284358	0.252322
763.479716	0.252579
763.675057	0.252603
763.870379	0.252766
764.065683	0.252373
764.260968	0.252132
764.456236	0.251701
764.651485	0.251647
764.846716	0.251716
765.041929	0.251557
765.237123	0.251210
765.432299	0.251251
765.627457	0.251009
765.822597	0.250891
766.017719	0.250868
766.212822	0.251078
766.407907	0.250563
766.602974	0.250456
766.798023	0.250184
766.993054	0.250177
767.188066	0.250028
767.383060	0.249945
767.578036	0.250085
767.772993	0.249902
767.967933	0.249471
768.162854	0.249817
768.357757	0.249508
768.552642	0.249739
768.747508	0.249499
768.942356	0.249221
769.137186	0.249091
769.331998	0.248827
769.526792	0.248703
769.721567	0.248810
769.916324	0.248522
770.111063	0.248706
770.305784	0.248430
770.500486	0.248408
770.695171	0.248495
770.889837	0.248408
771.084484	0.248341
771.279114	0.248542
771.473725	0.248632
771.668318	0.248631
771.862893	0.248368
772.057450	0.248266
772.251988	0.247985
772.446509	0.247948
772.641011	0.248044
772.835494	0.248018
773.029960	0.247738
773.224407	0.247625
773.418836	0.247742
773.613247	0.247636
773.807640	0.247796
774.002014	0.248180
774.196370	0.248238
774.390708	0.248071
774.585028	0.248067
774.779330	0.248186
774.973613	0.248355
775.167878	0.248229
775.362125	0.248195
775.556354	0.247989
775.750564	0.247719
775.944756	0.247736
776.138930	0.247713
776.333086	0.247604
776.527223	0.247619
776.721343	0.247425
776.915444	0.247349
777.109526	0.247257
777.303591	0.247462
777.497637	0.247553
777.691666	0.247338
777.885676	0.247355
778.079667	0.247352
778.273641	0.247291
778.467596	0.247260
778.661533	0.247177
778.855452	0.247630
779.049352	0.247588
779.243235	0.247669
779.437099	0.247671
779.630945	0.247588
779.824773	0.247695
780.018582	0.247469
780.212373	0.247533
780.406146	0.247705
780.599901	0.247501
780.793638	0.247561
780.987356	0.247661
781.181056	0.247876
781.374738	0.247870
781.568402	0.247698
781.762047	0.248036
781.955674	0.248178
782.149283	0.248010
782.342874	0.248152
782.536447	0.247737
782.730001	0.247776
782.923537	0.247782
783.117055	0.247967
783.310555	0.248363
783.504036	0.248277
783.697499	0.248301
783.890944	0.248487
784.084371	0.248508
784.277780	0.248876
784.471170	0.248773
784.664542	0.248602
784.857896	0.248803
785.051231	0.248899
785.244549	0.249122
785.437848	0.249096
785.631129	0.249218
785.824392	0.249084
786.017636	0.249230
786.210863	0.249311
786.404071	0.249273
786.597260	0.249327
786.790432	0.249364
786.983585	0.249311
787.176721	0.249382
787.369838	0.249218
787.562936	0.249514
787.756017	0.249512
787.949079	0.249374
788.142123	0.249673
788.335149	0.249648
788.528156	0.249584
788.721146	0.249766
788.914117	0.250042
789.107070	0.250488
789.300005	0.250656
789.492921	0.250781
789.685819	0.251227
789.878699	0.251307
790.071561	0.251349
790.264405	0.251441
790.457230	0.251472
790.650037	0.251412
790.842826	0.251495
791.035597	0.251464
791.228349	0.251495
791.421084	0.251360
791.613800	0.251562
791.806497	0.251746
791.999177	0.251872
792.191838	0.251829
792.384481	0.251943
792.577106	0.251674
792.769713	0.251911
792.962301	0.252310
793.154871	0.252670
793.347423	0.252827
793.539957	0.253001
793.732473	0.253148
793.924970	0.253425
794.117449	0.253600
794.309910	0.253799
794.502353	0.253762
794.694777	0.253659
794.887183	0.253828
795.079571	0.253971
795.271941	0.253812
795.464293	0.253925
795.656626	0.254096
795.848941	0.254009
796.041238	0.254340
796.233516	0.254516
796.425777	0.254773
796.618019	0.254882
796.810243	0.254996
797.002449	0.255439
797.194636	0.255781
797.386805	0.256082
797.578956	0.256244
797.771089	0.256578
797.963204	0.256625
798.155300	0.256535
798.347378	0.256658
798.539438	0.256626
798.731480	0.256659
798.923503	0.256736
799.115509	0.256919
799.307496	0.257252
799.499465	0.257382
799.691415	0.257676
799.883348	0.258008
800.075262	0.258205
800.267158	0.258478
800.459035	0.258567
800.650895	0.258576
800.842736	0.258658
801.034559	0.258699
801.226364	0.258653
801.418150	0.258796
801.609919	0.258986
801.801669	0.259091
801.993401	0.259285
802.185114	0.259646
802.376810	0.259949
802.568487	0.260149
802.760146	0.260645
802.951787	0.261011
803.143409	0.261348
803.335014	0.261516
803.526600	0.261800
803.718168	0.261901
803.909717	0.261983
804.101249	0.262224
804.292762	0.262391
804.484257	0.262605
804.675734	0.262689
804.867192	0.262866
805.058632	0.263286
805.250054	0.263611
805.441458	0.264057
805.632844	0.264476
805.824211	0.264581
806.015561	0.265190
806.206891	0.265243
806.398204	0.265662
806.589499	0.265918
806.780775	0.266112
806.972033	0.266257
807.163273	0.266464
807.354495	0.266726
807.545698	0.267054
807.736883	0.267045
807.928050	0.267535
808.119199	0.267696
808.310329	0.267955
808.501441	0.268174
808.692535	0.268415
808.883611	0.268719
809.074669	0.268956
809.265708	0.269396
809.456729	0.269391
809.647732	0.269556
809.838717	0.269831
810.029683	0.270298
810.220632	0.270403
810.411562	0.270657
810.602474	0.270895
810.793367	0.271225
810.984242	0.271353
811.175100	0.271894
811.365938	0.271982
811.556759	0.272388
811.747562	0.272538
811.938346	0.272704
812.129112	0.272951
812.319860	0.273082
812.510589	0.273283
812.701300	0.273616
812.891994	0.273984
813.082668	0.274649
813.273325	0.274940
813.463964	0.274998
813.654584	0.275556
813.845186	0.276138
814.035769	0.276941
814.226335	0.277353
814.416882	0.277793
814.607411	0.277976
814.797922	0.278077
814.988415	0.278365
815.178889	0.278879
815.369345	0.279501
815.559783	0.279573
815.750203	0.279683
815.940605	0.279856
816.130988	0.279948
816.321353	0.280310
816.511700	0.280902
816.702028	0.281381
816.892339	0.281927
817.082631	0.282135
817.272905	0.282368
817.463161	0.282739
817.653398	0.283220
817.843617	0.283721
818.033819	0.284118
818.224001	0.284143
818.414166	0.284304
818.604312	0.284476
818.794440	0.284592
818.984550	0.285075
819.174642	0.285292
819.364716	0.285325
819.554771	0.285648
819.744808	0.285742
819.934827	0.286082
820.124827	0.286315
820.314810	0.286517
820.504774	0.286790
820.694720	0.287084
820.884647	0.287312
821.074557	0.287879
821.264448	0.288051
821.454321	0.288567
821.644176	0.288869
821.834012	0.289153
822.023831	0.289339
822.213631	0.289719
822.403413	0.290089
822.593176	0.290575
822.782922	0.290685
822.972649	0.290931
823.162358	0.291084
823.352049	0.291497
823.541721	0.292032
823.731376	0.292651
823.921012	0.293289
824.110629	0.293695
824.300229	0.294133
824.489811	0.294830
824.679374	0.295532
824.868919	0.296014
825.058445	0.296161
825.247954	0.296473
825.437444	0.296885
825.626916	0.297253
825.816370	0.297674
826.005806	0.297663
826.195223	0.297845
826.384622	0.297786
826.574003	0.298160
826.763366	0.298839
826.952711	0.299052
827.142037	0.299183
827.331345	0.299304
827.520635	0.299496
827.709906	0.300013
827.899160	0.300481
828.088395	0.301192
828.277612	0.301580
828.466810	0.301869
828.655991	0.302378
828.845153	0.302884
829.034297	0.303410
829.223423	0.303899
829.412531	0.304160
829.601620	0.304724
829.790691	0.305237
829.979744	0.305463
830.168779	0.305958
830.357795	0.306399
830.546793	0.306855
830.735773	0.307122
830.924735	0.307487
831.113679	0.308080
831.302604	0.307946
831.491511	0.308326
831.680400	0.308985
831.869271	0.309333
832.058123	0.309941
832.246957	0.310495
832.435773	0.311200
832.624571	0.311671
832.813351	0.311990
833.002112	0.312797
833.190855	0.312835
833.379580	0.312742
833.568287	0.313248
833.756975	0.313515
833.945645	0.313550
834.134297	0.313440
834.322931	0.313827
834.511547	0.314282
834.700144	0.314640
834.888723	0.315334
835.077284	0.316190
835.265826	0.316370
835.454351	0.317062
835.642857	0.317869
835.831345	0.318188
836.019815	0.318460
836.208266	0.318760
836.396699	0.319248
836.585114	0.319714
836.773511	0.320006
836.961890	0.320507
837.150250	0.320465
837.338592	0.320662
837.526916	0.321333
837.715222	0.322001
837.903510	0.322406
838.091779	0.322856
838.280030	0.323379
838.468263	0.323789
838.656477	0.324294
838.844674	0.324717
839.032852	0.324900
839.221012	0.325387
839.409153	0.325657
839.597277	0.326533
839.785382	0.326783
839.973469	0.326932
840.161538	0.327673
840.349589	0.327893
840.537621	0.328553
840.725635	0.329490
840.913631	0.329882
841.101609	0.330284
841.289568	0.330441
841.477509	0.330883
841.665432	0.331772
841.853337	0.332146
842.041224	0.332473
842.229092	0.332992
842.416942	0.333116
842.604774	0.333829
842.792588	0.334425
842.980383	0.334787
843.168160	0.335408
843.355919	0.335939
843.543660	0.336142
843.731382	0.336816
843.919087	0.337111
844.106773	0.337481
844.294441	0.337936
844.482090	0.338142
844.669722	0.338909
844.857335	0.339003
845.044930	0.338822
845.232507	0.339273
845.420065	0.339509
845.607605	0.340109
845.795127	0.340479
845.982631	0.340726
846.170117	0.341524
846.357584	0.341881
846.545033	0.342236
846.732464	0.342751
846.919877	0.343046
847.107272	0.343873
847.294648	0.343991
847.482006	0.344639
847.669346	0.344849
847.856667	0.345014
848.043971	0.345443
848.231256	0.346131
848.418523	0.346778
848.605771	0.347469
848.793002	0.348030
848.980214	0.348476
849.167408	0.348853
849.354584	0.349622
849.541742	0.350113
849.728881	0.350573
849.916002	0.351065
850.103105	0.351240
850.290190	0.351476
850.477256	0.351675
850.664304	0.351956
850.851334	0.352536
851.038346	0.353121
851.225340	0.353711
851.412315	0.353590
851.599272	0.354331
851.786211	0.354923
851.973132	0.355554
852.160034	0.356054
852.346918	0.356524
852.533784	0.356941
852.720632	0.356976
852.907462	0.357185
853.094273	0.357992
853.281066	0.358246
853.467841	0.358566
853.654598	0.359030
853.841336	0.359359
854.028056	0.359969
854.214758	0.360180
854.401442	0.360788
854.588107	0.361229
854.774755	0.361592
854.961384	0.361747
855.147995	0.362331
855.334587	0.362551
855.521162	0.362853
855.707718	0.363093
855.894256	0.363755
856.080775	0.364088
856.267277	0.364509
856.453760	0.364578
856.640225	0.365308
856.826672	0.365526
857.013101	0.365910
857.199511	0.366383
857.385903	0.367218
857.572277	0.367324
857.758633	0.367692
857.944970	0.367843
858.131290	0.368745
858.317591	0.368901
858.503873	0.369225
858.690138	0.369697
858.876384	0.370149
859.062612	0.370526
859.248822	0.370914
859.435014	0.371182
859.621188	0.371557
859.807343	0.372006
859.993480	0.372664
860.179599	0.372995
860.365699	0.373419
860.551781	0.373657
860.737846	0.373846
860.923891	0.374114
861.109919	0.374518
861.295929	0.375640
861.481920	0.375984
861.667893	0.376080
861.853848	0.376737
862.039784	0.376909
862.225702	0.377168
862.411603	0.377468
862.597484	0.378045
862.783348	0.378473
862.969193	0.377946
863.155021	0.378143
863.340830	0.378763
863.526620	0.379026
863.712393	0.379809
863.898147	0.380763
864.083883	0.381387
864.269601	0.381637
864.455301	0.381734
864.640982	0.382248
864.826645	0.382735
865.012290	0.382446
865.197917	0.383004
865.383526	0.383280
865.569116	0.383455
865.754688	0.383333
865.940242	0.383290
866.125777	0.384369
866.311295	0.384619
866.496794	0.384996
866.682275	0.385730
866.867737	0.385529
867.053182	0.385393
867.238608	0.385050
867.424016	0.385581
867.609406	0.386301
867.794778	0.386351
867.980131	0.387330
868.165466	0.387599
868.350783	0.388336
868.536082	0.388917
868.721362	0.389259
868.906625	0.390196
869.091869	0.390720
869.277094	0.391379
869.462302	0.391775
869.647491	0.391554
869.832662	0.392186
870.017815	0.391964
870.202950	0.392806
870.388066	0.393508
870.573165	0.393526
870.758245	0.393850
870.943306	0.394198
871.128350	0.394201
871.313375	0.394343
871.498382	0.393932
871.683371	0.394213
871.868342	0.394054
872.053294	0.394266
872.238229	0.394732
872.423144	0.394561
872.608042	0.394247
872.792922	0.394335
872.977783	0.394653
873.162626	0.394877
873.347451	0.395225
873.532258	0.395444
873.717046	0.395546
873.901816	0.395567
874.086568	0.395735
874.271302	0.396705
874.456017	0.396788
874.640715	0.397209
874.825394	0.397529
875.010055	0.397286
875.194697	0.397176
875.379322	0.397380
875.563928	0.397631
875.748516	0.397996
875.933085	0.397651
876.117637	0.397987
876.302170	0.398064
876.486685	0.398591
876.671182	0.399433
876.855661	0.399508
877.040121	0.399784
877.224563	0.400264
877.408987	0.400553
877.593393	0.400675
877.777780	0.401007
877.962150	0.401758
878.146501	0.401967
878.330833	0.402156
878.515148	0.402684
878.699444	0.403015
878.883722	0.402840
879.067982	0.403077
879.252224	0.403492
879.436447	0.403631
879.620653	0.403359
879.804840	0.403287
879.989008	0.403329
880.173159	0.403500
880.357291	0.403834
880.541405	0.404084
880.725501	0.404381
880.909579	0.404714
881.093638	0.404942
881.277680	0.405834
881.461703	0.406052
881.645707	0.406122
881.829694	0.406360
882.013662	0.406142
882.197612	0.406240
882.381544	0.405795
882.565458	0.405514
882.749353	0.405949
882.933230	0.405069
883.117089	0.404946
883.300930	0.405042
883.484753	0.405226
883.668557	0.405657
883.852343	0.406178
884.036111	0.406588
884.219861	0.406878
884.403592	0.406760
884.587305	0.407117
884.771000	0.407657
884.954677	0.407738
885.138335	0.407686
885.321976	0.407639
885.505598	0.407341
885.689201	0.407541
885.872787	0.407804
886.056354	0.407428
886.239904	0.407259
886.423434	0.407801
886.606947	0.407820
886.790442	0.408075
886.973918	0.407997
887.157376	0.408081
887.340816	0.407252
887.524237	0.406904
887.707641	0.407148
887.891026	0.407281
888.074393	0.406671
888.257741	0.406893
888.441072	0.407095
888.624384	0.407310
888.807678	0.407538
888.990954	0.408372
889.174211	0.408877
889.357451	0.408905
889.540672	0.409107
889.723875	0.409189
889.907059	0.408725
890.090226	0.408124
890.273374	0.408084
890.456504	0.407837
890.639616	0.408023
890.822709	0.407737
891.005785	0.408173
891.188842	0.408012
891.371881	0.407964
891.554901	0.408265
891.737904	0.408958
891.920888	0.408753
892.103854	0.408791
892.286802	0.408186
892.469731	0.408123
892.652643	0.408006
892.835536	0.408073
893.018410	0.408004
893.201267	0.407529
893.384106	0.406233
893.566926	0.406163
893.749728	0.405965
893.932511	0.406439
894.115277	0.406097
894.298024	0.405500
894.480753	0.405506
894.663464	0.404937
894.846157	0.405091
895.028831	0.405799
895.211487	0.405510
895.394125	0.405788
895.576745	0.405682
895.759346	0.405476
895.941930	0.405545
896.124495	0.405406
896.307041	0.405286
896.489570	0.405110
896.672080	0.405256
896.854573	0.405186
897.037046	0.405104
897.219502	0.404689
897.401940	0.404788
897.584359	0.405243
897.766760	0.404775
897.949143	0.405124
898.131507	0.405295
898.313854	0.404500
898.496182	0.404594
898.678492	0.403710
898.860783	0.403627
899.043057	0.403533
899.225312	0.402641
899.407549	0.402947
899.589768	0.403017
899.771968	0.402456
899.954151	0.402709
900.136315	0.402705
900.318461	0.402468
900.500588	0.402010
900.682698	0.401917
900.864789	0.401706
901.046862	0.401170
901.228917	0.400307
901.410953	0.400558
901.592971	0.400760
901.774972	0.400029
901.956953	0.400196
902.138917	0.400276
902.320862	0.399898
902.502790	0.399374
902.684699	0.399584
902.866589	0.399124
903.048462	0.398449
903.230316	0.397747
903.412152	0.397379
903.593970	0.397148
903.775770	0.396406
903.957551	0.396316
904.139314	0.396320
904.321059	0.395503
904.502786	0.395367
904.684494	0.394730
904.866185	0.393848
905.047857	0.393741
905.229510	0.393243
905.411146	0.393118
905.592763	0.392580
905.774363	0.393048
905.955943	0.392867
906.137506	0.393056
906.319051	0.392665
906.500577	0.392342
906.682085	0.392024
906.863575	0.391539
907.045046	0.391442
907.226500	0.390776
907.407935	0.389416
907.589352	0.388829
907.770750	0.388031
907.952131	0.387391
908.133493	0.387012
908.314837	0.386156
908.496163	0.385454
908.677470	0.385301
908.858760	0.385481
909.040031	0.385310
909.221284	0.384982
909.402518	0.383965
909.583735	0.384342
909.764933	0.383678
909.946113	0.383126
910.127275	0.382949
910.308418	0.382486
910.489544	0.381390
910.670651	0.381143
910.851740	0.380504
911.032810	0.380149
911.213863	0.379123
911.394897	0.379732
911.575913	0.379898
911.756911	0.380067
911.937890	0.379240
912.118851	0.379151
912.299794	0.378535
912.480719	0.378626
912.661626	0.378992
912.842514	0.378846
913.023384	0.377576
913.204236	0.376765
913.385070	0.376331
913.565886	0.375645
913.746683	0.375232
913.927462	0.374717
914.108223	0.373707
914.288965	0.372453
914.469690	0.372126
914.650396	0.371234
914.831084	0.370881
915.011754	0.370160
915.192405	0.369339
915.373038	0.367459
915.553653	0.366835
915.734250	0.366485
915.914829	0.366729
916.095389	0.366563
916.275931	0.366752
916.456455	0.365961
916.636961	0.364711
916.817448	0.363842
916.997917	0.364654
917.178368	0.364698
917.358801	0.364216
917.539216	0.363285
917.719612	0.362248
917.899990	0.361024
918.080350	0.360648
918.260692	0.359795
918.441015	0.359780
918.621320	0.359157
918.801607	0.358057
918.981876	0.358037
919.162127	0.356757
919.342359	0.356046
919.522573	0.355523
919.702769	0.354779
919.882947	0.354462
920.063106	0.354312
920.243247	0.353421
920.423370	0.352401
920.603475	0.350226
920.783562	0.349779
920.963630	0.349436
921.143680	0.348883
921.323712	0.348536
921.503725	0.347883
921.683721	0.346253
921.863698	0.344974
922.043657	0.344504
922.223598	0.344482
922.403520	0.344270
922.583424	0.342856
922.763311	0.343329
922.943178	0.342196
923.123028	0.341599
923.302859	0.341488
923.482673	0.341289
923.662467	0.340685
923.842244	0.340088
924.022003	0.339397
924.201743	0.338604
924.381465	0.336318
924.561169	0.335533
924.740854	0.335153
924.920522	0.334411
925.100171	0.333816
925.279802	0.332836
925.459414	0.332292
925.639009	0.331310
925.818585	0.330882
925.998143	0.330993
926.177683	0.330588
926.357205	0.329230
926.536708	0.328550
926.716193	0.327159
926.895660	0.326308
927.075109	0.325302
927.254539	0.324770
927.433951	0.324406
927.613345	0.322683
927.792721	0.321303
927.972079	0.321031
928.151418	0.320351
928.330739	0.320115
928.510042	0.319336
928.689327	0.318057
928.868593	0.317516
929.047841	0.315805
929.227071	0.315554
929.406283	0.315074
929.585476	0.314000
929.764652	0.312804
929.943809	0.312271
930.122948	0.311746
930.302068	0.311527
930.481171	0.310077
930.660255	0.309693
930.839321	0.308923
931.018369	0.307518
931.197398	0.307149
931.376409	0.306192
931.555402	0.304736
931.734377	0.303875
931.913334	0.302679
932.092272	0.301125
932.271192	0.300273
932.450094	0.300045
932.628978	0.299656
932.807844	0.297991
932.986691	0.297154
933.165520	0.296364
933.344331	0.295562
933.523123	0.295024
933.701898	0.295308
933.880654	0.293733
934.059392	0.291913
934.238111	0.291304
934.416813	0.290298
934.595496	0.290037
934.774161	0.288654
934.952808	0.287421
935.131437	0.286426
935.310047	0.285595
935.488639	0.284673
935.667213	0.284025
935.845769	0.282874
936.024306	0.282111
936.202825	0.280394
936.381326	0.279554
936.559809	0.278673
936.738274	0.278064
936.916720	0.276923
937.095148	0.277042
937.273558	0.276319
937.451950	0.275135
937.630323	0.274342
937.808678	0.273726
937.987015	0.273595
938.165334	0.271366
938.343635	0.269574
938.521917	0.268190
938.700181	0.267008
938.878427	0.265819
939.056655	0.264356
939.234864	0.262469
939.413055	0.260536
939.591228	0.259700
939.769383	0.259077
939.947519	0.258571
940.125638	0.257555
940.303738	0.255958
940.481820	0.255631
940.659883	0.255174
940.837929	0.255093
941.015956	0.254830
941.193965	0.252313
941.371955	0.252313
941.549928	0.250429
941.727882	0.248859
941.905818	0.248326
942.083736	0.245834
942.261636	0.244628
942.439517	0.243125
942.617380	0.242073
942.795225	0.242108
942.973052	0.240415
943.150860	0.240396
943.328651	0.239500
943.506423	0.238106
943.684176	0.237057
943.861912	0.237668
944.039629	0.237808
944.217328	0.237999
944.395009	0.236650
944.572672	0.236560
944.750317	0.235248
944.927943	0.235406
945.105551	0.234501
945.283141	0.233486
945.460712	0.230169
945.638265	0.228514
945.815801	0.226236
945.993317	0.223796
946.170816	0.221395
946.348297	0.219766
946.525759	0.217696
946.703203	0.216690
946.880629	0.215590
947.058036	0.216378
947.235425	0.214823
947.412797	0.214833
947.590149	0.215426
947.767484	0.214898
947.944800	0.213990
948.122099	0.213023
948.299379	0.211649
948.476640	0.210416
948.653884	0.207109
948.831109	0.205746
949.008316	0.203537
949.185505	0.203057
949.362676	0.202550
949.539828	0.200743
949.716962	0.199965
949.894078	0.198385
950.071176	0.198166
950.248256	0.198479
950.425317	0.197644
950.602360	0.195961
950.779385	0.194204
950.956391	0.192728
951.133380	0.191509
951.310350	0.190337
951.487302	0.190738
951.664235	0.188973
951.841151	0.187862
952.018048	0.187398
952.194927	0.186469
952.371788	0.186432
952.548631	0.184270
952.725455	0.185203
952.902261	0.182495
953.079049	0.180117
953.255819	0.178652
953.432570	0.177694
953.609303	0.175830
953.786018	0.175063
953.962715	0.172131
954.139394	0.172294
954.316054	0.170493
954.492696	0.172145
954.669320	0.170667
954.845926	0.169817
955.022513	0.169590
955.199083	0.168569
955.375634	0.167815
955.552166	0.168019
955.728681	0.166475
955.905177	0.164403
956.081655	0.163640
956.258115	0.164316
956.434557	0.163180
956.610980	0.160046
956.787385	0.160711
956.963772	0.160890
957.140141	0.158963
957.316492	0.158052
957.492824	0.157060
957.669138	0.155153
957.845434	0.153100
958.021712	0.153386
958.197971	0.153561
958.374212	0.151743
958.550435	0.150177
958.726640	0.150329
958.902826	0.149450
959.078995	0.150702
959.255145	0.149688
959.431277	0.149628
959.607390	0.148860
959.783486	0.148945
959.959563	0.149560
960.135622	0.149222
960.311662	0.148974
960.487685	0.150938
960.663689	0.149328
960.839675	0.149806
961.015643	0.150314
961.191593	0.149494
961.367524	0.147395
961.543437	0.145629
961.719332	0.143593
961.895209	0.142353
962.071067	0.141089
962.246907	0.140261
962.422730	0.138561
962.598533	0.137927
962.774319	0.137679
962.950086	0.138379
963.125835	0.139598
963.301566	0.142130
963.477279	0.141937
963.652973	0.141043
963.828650	0.141176
964.004308	0.140942
964.179947	0.136813
964.355569	0.135633
964.531172	0.135705
964.706757	0.133594
964.882324	0.130638
965.057873	0.131799
965.233403	0.131974
965.408916	0.130843
965.584410	0.129386
965.759885	0.132211
965.935343	0.133373
966.110782	0.131746
966.286203	0.131581
966.461606	0.131929
966.636991	0.129486
966.812357	0.128589
966.987705	0.130114
967.163035	0.132830
967.338347	0.132881
967.513641	0.131570
967.688916	0.133385
967.864173	0.133385
968.039412	0.133859
968.214632	0.135854
968.389835	0.136276
968.565019	0.137440
968.740185	0.138379
968.915333	0.135803
969.090462	0.137200
969.265573	0.135582
969.440667	0.136213
969.615741	0.136906
969.790798	0.138147
969.965836	0.138886
970.140856	0.135346
970.315858	0.133363
970.490842	0.135994
970.665808	0.136199
970.840755	0.136722
971.015684	0.136927
971.190595	0.135076
971.365487	0.133886
971.540362	0.132321
971.715218	0.133314
971.890056	0.135144
972.064875	0.135279
972.239677	0.133099
972.414460	0.134141
972.589225	0.133867
972.763972	0.132752
972.938700	0.131022
973.113411	0.130460
973.288103	0.129225
973.462777	0.126050
973.637432	0.125214
973.812070	0.125746
973.986689	0.126121
974.161290	0.126236
974.335873	0.125949
974.510437	0.128074
974.684984	0.129741
974.859512	0.131727
975.034022	0.132244
975.208513	0.133442
975.382987	0.135058
975.557442	0.133380
975.731879	0.131869
975.906298	0.135217
976.080698	0.134005
976.255080	0.134439
976.429445	0.132950
976.603790	0.134148
976.778118	0.132937
976.952427	0.132234
977.126719	0.131186
977.300992	0.132994
977.475246	0.130879
977.649483	0.130948
977.823701	0.129748
977.997901	0.129618
978.172083	0.129555
978.346247	0.129964
978.520392	0.129884
978.694519	0.129082
978.868628	0.128571
979.042719	0.129361
979.216791	0.128068
979.390845	0.129105
979.564882	0.131520
979.738899	0.130556
979.912899	0.131458
980.086880	0.130360
980.260843	0.132538
980.434788	0.132554
980.608715	0.132438
980.782623	0.132140
980.956514	0.129904
981.130386	0.130272
981.304240	0.131580
981.478075	0.129967
981.651892	0.131444
981.825692	0.130331
981.999472	0.128148
982.173235	0.128187
982.346980	0.130028
982.520706	0.129569
982.694414	0.128405
982.868104	0.127540
983.041775	0.128982
983.215428	0.128753
983.389064	0.130499
983.562680	0.130857
983.736279	0.130943
983.909860	0.129752
984.083422	0.131525
984.256966	0.131086
984.430491	0.131761
984.603999	0.131288
984.777488	0.129886
984.950959	0.128929
985.124412	0.129815
985.297847	0.128361
985.471263	0.128217
985.644661	0.128202
985.818041	0.129714
985.991403	0.128825
986.164747	0.129483
986.338072	0.131208
986.511379	0.130478
986.684668	0.131299
986.857938	0.131390
987.031191	0.131975
987.204425	0.131484
987.377641	0.130431
987.550839	0.130396
987.724018	0.125967
987.897179	0.126656
988.070322	0.127279
988.243447	0.128459
988.416554	0.129609
988.589642	0.127956
988.762712	0.127431
988.935764	0.124240
989.108798	0.123508
989.281813	0.127080
989.454811	0.124779
989.627790	0.124583
989.800751	0.123544
989.973693	0.123169
990.146617	0.123311
990.319524	0.124659
990.492412	0.128006
990.665281	0.127367
990.838133	0.126833
991.010966	0.129187
991.183781	0.130221
991.356578	0.127415
991.529356	0.129376
991.702117	0.130125
991.874859	0.128751
992.047583	0.128482
992.220288	0.127024
992.392976	0.127654
992.565645	0.127618
992.738296	0.129207
992.910929	0.131471
993.083543	0.131174
993.256139	0.132689
993.428718	0.134523
993.601277	0.134544
993.773819	0.136974
993.946342	0.137210
994.118848	0.135622
994.291335	0.132707
994.463803	0.134189
994.636254	0.132918
994.808686	0.133323
994.981100	0.133450
995.153496	0.132336
995.325874	0.134590
995.498233	0.134300
995.670574	0.134480
995.842897	0.134525
996.015202	0.134443
996.187488	0.136983
996.359757	0.136015
996.532007	0.134162
996.704239	0.132789
996.876452	0.130095
997.048648	0.130261
997.220825	0.130720
997.392984	0.131616
997.565124	0.131147
997.737247	0.128634
997.909351	0.128774
998.081437	0.130346
998.253505	0.131289
998.425554	0.134221
998.597586	0.134400
998.769599	0.134755
998.941594	0.134665
999.113571	0.134808
999.285529	0.132775
999.457469	0.131178
999.629391	0.129673
999.801295	0.129933
999.973181	0.128783
1000.145048	0.127949
1000.316897	0.125223
1000.488728	0.123864
1000.660541	0.123103
1000.832335	0.125875
1001.004111	0.125178
1001.175869	0.125043
1001.347609	0.123750
1001.519331	0.123376
1001.691034	0.122867
1001.862719	0.125611
1002.034386	0.125875
1002.206035	0.126898
1002.377665	0.124635
1002.549277	0.126711
1002.720871	0.126273
1002.892447	0.128770
1003.064004	0.128196
1003.235544	0.130570
1003.407065	0.129690
1003.578568	0.130725
1003.750052	0.129410
1003.921519	0.130711
1004.092967	0.129032
1004.264397	0.130031
1004.435809	0.129134
1004.607202	0.129920
1004.778577	0.129499
1004.949934	0.128451
1005.121273	0.129704
1005.292594	0.129462
1005.463896	0.130021
1005.635180	0.133676
1005.806446	0.132662
1005.977694	0.132334
1006.148923	0.131089
1006.320135	0.130152
1006.491328	0.128990
1006.662503	0.128020
1006.833659	0.127650
1007.004798	0.127507
1007.175918	0.125475
1007.347020	0.125936
1007.518103	0.126742
1007.689169	0.127503
1007.860216	0.126051
1008.031245	0.127100
1008.202256	0.126059
1008.373248	0.127462
1008.544223	0.127188
1008.715179	0.126047
1008.886117	0.126265
1009.057036	0.126575
1009.227938	0.125693
1009.398821	0.125839
1009.569686	0.127570
1009.740533	0.127204
1009.911361	0.127055
1010.082172	0.126896
1010.252964	0.127721
1010.423738	0.129674
1010.594493	0.130443
1010.765231	0.131678
1010.935950	0.133805
1011.106651	0.133210
1011.277334	0.133332
1011.447998	0.133767
1011.618645	0.134807
1011.789273	0.135012
1011.959882	0.134133
1012.130474	0.134389
1012.301048	0.133763
1012.471603	0.133353
1012.642140	0.135806
1012.812658	0.136376
1012.983159	0.135986
1013.153641	0.135766
1013.324105	0.136083
1013.494551	0.135012
1013.664979	0.134415
1013.835388	0.133006
1014.005779	0.131708
1014.176152	0.128752
1014.346507	0.128895
1014.516843	0.127681
1014.687162	0.126935
1014.857462	0.126479
1015.027744	0.125874
1015.198007	0.125443
1015.368252	0.128721
1015.538480	0.129702
1015.708689	0.129687
1015.878879	0.129390
1016.049052	0.129056
1016.219206	0.129363
1016.389342	0.128060
1016.559460	0.129829
1016.729559	0.129367
1016.899641	0.127473
1017.069704	0.126395
1017.239749	0.126704
1017.409775	0.126794
1017.579784	0.127930
1017.749774	0.129624
1017.919746	0.132479
1018.089700	0.131495
1018.259635	0.132355
1018.429553	0.132995
1018.599452	0.134952
1018.769333	0.135322
1018.939195	0.136360
1019.109040	0.136908
1019.278866	0.134450
1019.448674	0.133980
1019.618464	0.134434
1019.788235	0.131896
1019.957989	0.130139
1020.127724	0.129872
1020.297441	0.130126
1020.467139	0.129713
1020.636820	0.127747
1020.806482	0.129420
1020.976126	0.128745
1021.145752	0.129820
1021.315359	0.131231
1021.484948	0.133596
1021.654519	0.132981
1021.824072	0.132282
1021.993607	0.132157
1022.163123	0.133264
1022.332621	0.132912
1022.502101	0.132956
1022.671563	0.132870
1022.841007	0.134038
1023.010432	0.132126
1023.179839	0.133255
1023.349228	0.132633
1023.518598	0.133897
1023.687951	0.132322
1023.857285	0.132039
1024.026601	0.131212
1024.195899	0.130160
1024.365178	0.128608
1024.534439	0.128532
1024.703682	0.126732
1024.872907	0.128635
1025.042114	0.126294
1025.211302	0.127257
1025.380472	0.125878
1025.549624	0.123965
1025.718758	0.123444
1025.887873	0.123248
1026.056970	0.125623
1026.226049	0.125339
1026.395110	0.123442
1026.564153	0.123688
1026.733177	0.124822
1026.902183	0.124848
1027.071171	0.127770
1027.240141	0.128429
1027.409092	0.128242
1027.578026	0.126741
1027.746940	0.126761
1027.915837	0.128143
1028.084716	0.128275
1028.253576	0.126327
1028.422418	0.126148
1028.591242	0.125077
1028.760048	0.124075
1028.928835	0.123892
1029.097604	0.122739
1029.266355	0.122925
1029.435088	0.123607
1029.603803	0.123656
1029.772499	0.124910
1029.941177	0.125825
1030.109837	0.126800
1030.278478	0.128190
1030.447102	0.129570
1030.615707	0.131325
1030.784294	0.133285
1030.952863	0.131736
1031.121413	0.132192
1031.289945	0.131807
1031.458460	0.130392
1031.626955	0.129482
1031.795433	0.127126
1031.963892	0.126670
1032.132334	0.126121
1032.300756	0.124714
1032.469161	0.125129
1032.637548	0.125197
1032.805916	0.126368
1032.974266	0.127526
1033.142598	0.128197
1033.310911	0.129591
1033.479207	0.131415
1033.647484	0.131655
1033.815743	0.131504
1033.983983	0.130147
1034.152206	0.130214
1034.320410	0.130877
1034.488596	0.132194
1034.656764	0.131607
1034.824914	0.131098
1034.993045	0.129710
1035.161158	0.129044
1035.329253	0.128755
1035.497330	0.129931
1035.665388	0.128314
1035.833428	0.125608
1036.001450	0.124569
1036.169454	0.125906
1036.337440	0.123907
1036.505407	0.123558
1036.673356	0.123208
1036.841287	0.122766
1037.009200	0.122890
1037.177094	0.123996
1037.344970	0.124793
1037.512828	0.123461
1037.680668	0.121587
1037.848489	0.124168
1038.016293	0.126369
1038.184078	0.127459
1038.351845	0.127288
1038.519593	0.127460
1038.687324	0.126496
1038.855036	0.129071
1039.022730	0.130205
1039.190406	0.130138
1039.358063	0.131182
1039.525702	0.129292
1039.693323	0.127857
1039.860926	0.128471
1040.028511	0.127575
1040.196077	0.129471
1040.363625	0.127413
1040.531155	0.127304
1040.698667	0.128849
1040.866161	0.127714
1041.033636	0.127568
1041.201093	0.126501
1041.368532	0.128056
1041.535952	0.128287
1041.703355	0.127114
1041.870739	0.126635
1042.038105	0.127156
1042.205452	0.126269
1042.372782	0.126282
1042.540093	0.122891
1042.707386	0.124763
1042.874661	0.122704
1043.041918	0.122943
1043.209156	0.125107
1043.376376	0.125289
1043.543578	0.124734
1043.710762	0.124407
1043.877927	0.122794
1044.045074	0.125277
1044.212203	0.126008
1044.379314	0.127944
1044.546407	0.127062
1044.713481	0.125981
1044.880537	0.124904
1045.047575	0.127222
1045.214595	0.126923
1045.381596	0.129881
1045.548579	0.131549
1045.715544	0.131238
1045.882491	0.129159
1046.049420	0.129386
1046.216330	0.128595
1046.383222	0.128065
1046.550096	0.125098
1046.716951	0.126495
1046.883789	0.125231
1047.050608	0.123977
1047.217409	0.125406
1047.384192	0.125451
1047.550956	0.128732
1047.717703	0.129221
1047.884431	0.128855
1048.051140	0.129808
1048.217832	0.128710
1048.384505	0.129018
1048.551161	0.129788
1048.717798	0.128641
1048.884416	0.129203
1049.051017	0.126695
1049.217599	0.126352
1049.384163	0.128073
1049.550709	0.129072
1049.717237	0.127905
1049.883746	0.127525
1050.050237	0.126137
1050.216710	0.125179
1050.383165	0.126939
1050.549601	0.127607
1050.716019	0.126499
1050.882420	0.128363
1051.048801	0.128300
1051.215165	0.128818
1051.381510	0.128452
1051.547837	0.129154
1051.714146	0.128025
1051.880437	0.127048
1052.046709	0.125047
1052.212964	0.125136
1052.379200	0.122316
1052.545417	0.123431
1052.711617	0.124832
1052.877798	0.124488
1053.043961	0.124598
1053.210106	0.125672
1053.376233	0.125227
1053.542341	0.127299
1053.708432	0.127596
1053.874504	0.129746
1054.040557	0.127859
1054.206593	0.126645
1054.372610	0.127689
1054.538609	0.127361
1054.704590	0.126847
1054.870553	0.127454
1055.036497	0.127289
1055.202424	0.127728
1055.368331	0.127301
1055.534221	0.127588
1055.700093	0.128437
1055.865946	0.129679
1056.031781	0.130320
1056.197598	0.131544
1056.363397	0.130167
1056.529177	0.128002
1056.694939	0.128763
1056.860683	0.130211
1057.026409	0.129716
1057.192116	0.129640
1057.357806	0.128084
1057.523477	0.127942
1057.689130	0.127358
1057.854764	0.126860
1058.020381	0.128378
1058.185979	0.129502
1058.351559	0.126630
1058.517120	0.127158
1058.682664	0.126192
1058.848189	0.126389
1059.013696	0.126677
1059.179185	0.127082
1059.344656	0.128432
1059.510108	0.127802
1059.675542	0.127317
1059.840958	0.128560
1060.006356	0.127001
1060.171735	0.128381
1060.337096	0.125599
1060.502439	0.125956
1060.667764	0.126672
1060.833071	0.125211
1060.998359	0.125718
1061.163629	0.125258
1061.328881	0.127977
1061.494115	0.128396
1061.659330	0.126210
1061.824527	0.128633
1061.989706	0.129492
1062.154867	0.129950
1062.320010	0.131107
1062.485134	0.131003
1062.650240	0.131722
1062.815328	0.127730
1062.980398	0.126108
1063.145449	0.128498
1063.310482	0.128327
1063.475497	0.127288
1063.640494	0.126944
1063.805473	0.125233
1063.970433	0.127302
1064.135375	0.126654
1064.300299	0.125252
1064.465204	0.126562
1064.630092	0.124576
1064.794961	0.126480
1064.959812	0.128470
1065.124645	0.127655
1065.289459	0.128431
1065.454256	0.126431
1065.619034	0.126454
1065.783793	0.129629
1065.948535	0.131384
1066.113258	0.134738
1066.277964	0.133068
1066.442651	0.131375
1066.607319	0.132090
1066.771970	0.132949
1066.936602	0.133442
1067.101216	0.133593
1067.265812	0.134096
1067.430389	0.134660
1067.594949	0.134644
1067.759490	0.134865
1067.924013	0.135687
1068.088518	0.133358
1068.253004	0.135972
1068.417472	0.136577
1068.581922	0.134629
1068.746354	0.133386
1068.910768	0.131587
1069.075163	0.130286
1069.239540	0.129791
1069.403899	0.128747
1069.568240	0.131307
1069.732562	0.129682
1069.896866	0.128611
1070.061152	0.129476
1070.225420	0.131468
1070.389670	0.132897
1070.553901	0.133493
1070.718114	0.134910
1070.882309	0.134466
1071.046486	0.135370
1071.210644	0.134514
1071.374784	0.135598
1071.538906	0.136630
1071.703010	0.133975
1071.867096	0.131308
1072.031163	0.130305
1072.195212	0.129572
1072.359243	0.129548
1072.523256	0.128061
1072.687250	0.131722
1072.851226	0.131583
1073.015184	0.131762
1073.179124	0.135128
1073.343045	0.137305
1073.506949	0.138425
1073.670834	0.136903
1073.834701	0.139150
1073.998549	0.138167
1074.162380	0.135747
1074.326192	0.136472
1074.489986	0.137227
1074.653761	0.136707
1074.817519	0.136890
1074.981258	0.135754
1075.144979	0.137943
1075.308682	0.136680
1075.472367	0.138591
1075.636033	0.137851
1075.799681	0.135380
1075.963311	0.133799
1076.126923	0.131420
1076.290516	0.130521
1076.454092	0.130535
1076.617649	0.130653
1076.781187	0.131207
1076.944708	0.128771
1077.108210	0.128843
1077.271695	0.130566
1077.435160	0.131887
1077.598608	0.133002
1077.762038	0.132695
1077.925449	0.132509
1078.088842	0.131391
1078.252217	0.129464
1078.415573	0.130121
1078.578912	0.128515
1078.742232	0.128370
1078.905534	0.125206
1079.068817	0.124625
1079.232083	0.126913
1079.395330	0.128750
1079.558559	0.128251
1079.721770	0.130305
1079.884962	0.133954
1080.048136	0.136267
1080.211293	0.136956
1080.374430	0.138708
1080.537550	0.142848
1080.700651	0.141057
1080.863735	0.141310
1081.026800	0.142301
1081.189846	0.142507
1081.352875	0.138400
1081.515885	0.138335
1081.678877	0.138252
1081.841851	0.140182
1082.004807	0.140068
1082.167744	0.139799
1082.330663	0.137916
1082.493564	0.138416
1082.656447	0.138180
1082.819312	0.140234
1082.982158	0.139582
1083.144986	0.140666
1083.307796	0.141360
1083.470587	0.137759
1083.633361	0.138316
1083.796116	0.139683
1083.958853	0.141080
1084.121571	0.142301
1084.284272	0.141473
1084.446954	0.141682
1084.609618	0.140840
1084.772264	0.138749
1084.934892	0.139976
1085.097501	0.140076
1085.260092	0.139084
1085.422665	0.137693
1085.585220	0.134408
1085.747756	0.137256
1085.910274	0.137286
1086.072774	0.137914
1086.235256	0.135913
1086.397720	0.136614
1086.560165	0.137105
1086.722592	0.135924
1086.885001	0.136282
1087.047392	0.136801
1087.209764	0.135031
1087.372119	0.137422
1087.534455	0.136940
1087.696772	0.143110
1087.859072	0.142030
1088.021353	0.143406
1088.183616	0.144212
1088.345861	0.145120
1088.508088	0.144414
1088.670296	0.145015
1088.832486	0.144240
1088.994658	0.146032
1089.156812	0.140247
1089.318948	0.143780
1089.481065	0.140002
1089.643164	0.139228
1089.805245	0.139584
1089.967308	0.141707
1090.129352	0.142605
1090.291378	0.140737
1090.453386	0.138540
1090.615376	0.140516
1090.777347	0.139229
1090.939301	0.141184
1091.101236	0.143113
1091.263153	0.144916
1091.425051	0.146394
1091.586932	0.143829
1091.748794	0.144643
1091.910638	0.144536
1092.072463	0.144418
1092.234271	0.141924
1092.396060	0.141311
1092.557831	0.139781
1092.719584	0.139438
1092.881319	0.136121
1093.043035	0.137822
1093.204733	0.139461
1093.366413	0.138934
1093.528075	0.139294
1093.689718	0.140683
1093.851343	0.143556
1094.012950	0.146165
1094.174539	0.144613
1094.336110	0.147680
1094.497662	0.147029
1094.659196	0.148123
1094.820712	0.147771
1094.982210	0.147761
1095.143689	0.147288
1095.305151	0.148384
1095.466594	0.147091
1095.628018	0.144872
1095.789425	0.141501
1095.950813	0.140219
1096.112183	0.140238
1096.273535	0.143200
1096.434869	0.145818
1096.596184	0.146066
1096.757482	0.145109
1096.918761	0.145643
1097.080021	0.147461
1097.241264	0.148913
1097.402488	0.149860
1097.563694	0.148269
1097.724882	0.149471
1097.886052	0.148278
1098.047203	0.146341
1098.208336	0.144649
1098.369451	0.145807
1098.530548	0.146379
1098.691627	0.145824
1098.852687	0.147742
1099.013729	0.147340
1099.174753	0.143541
1099.335758	0.142919
1099.496746	0.147737
1099.657715	0.150333
1099.818666	0.150775
1099.979599	0.148192
1100.140513	0.150334
1100.301409	0.145406
1100.462287	0.147456
1100.623147	0.148371
1100.783989	0.149119
1100.944812	0.143841
1101.105617	0.141395
1101.266404	0.141010
1101.427173	0.146327
1101.587923	0.145216
1101.748656	0.148902
1101.909370	0.149973
1102.070066	0.148878
1102.230743	0.150831
1102.391403	0.153931
1102.552044	0.152356
1102.712667	0.153402
1102.873271	0.151355
1103.033858	0.151299
1103.194426	0.151574
1103.354976	0.148405
1103.515508	0.152479
1103.676021	0.153084
1103.836517	0.154490
1103.996994	0.156039
1104.157453	0.150304
1104.317893	0.147325
1104.478316	0.147686
1104.638720	0.148788
1104.799106	0.149736
1104.959474	0.148441
1105.119823	0.143379
1105.280155	0.138971
1105.440468	0.137511
1105.600763	0.140318
1105.761039	0.145639
1105.921298	0.146062
1106.081538	0.142885
1106.241760	0.143389
1106.401964	0.143343
1106.562149	0.146214
1106.722316	0.146716
1106.882465	0.146875
1107.042596	0.146940
1107.202709	0.144001
1107.362803	0.143559
1107.522879	0.144875
1107.682937	0.140957
1107.842977	0.141752
1108.002999	0.140111
1108.163002	0.139367
1108.322987	0.142682
1108.482954	0.143320
1108.642902	0.142329
1108.802833	0.143057
1108.962745	0.144163
1109.122639	0.145203
1109.282515	0.146086
1109.442372	0.149339
1109.602211	0.155399
1109.762032	0.152792
1109.921835	0.153346
1110.081620	0.153049
1110.241386	0.153305
1110.401134	0.151508
1110.560864	0.151803
1110.720576	0.150197
1110.880269	0.151718
1111.039945	0.151579
1111.199602	0.152319
1111.359240	0.152464
1111.518861	0.154802
1111.678463	0.155061
1111.838047	0.155067
1111.997613	0.155029
1112.157161	0.158526
1112.316690	0.154181
1112.476202	0.152354
1112.635695	0.153623
1112.795169	0.153194
1112.954626	0.154760
1113.114064	0.154569
1113.273484	0.156140
1113.432886	0.158054
1113.592270	0.158882
1113.751635	0.161389
1113.910983	0.160273
1114.070312	0.158978
1114.229622	0.161478
1114.388915	0.161157
1114.548189	0.160110
1114.707445	0.159910
1114.866683	0.158527
1115.025903	0.156810
1115.185104	0.158065
1115.344287	0.157308
1115.503452	0.158415
1115.662599	0.156212
1115.821727	0.159170
1115.980838	0.158872
1116.139930	0.161327
1116.299004	0.162646
1116.458059	0.159727
1116.617097	0.157749
1116.776116	0.153853
1116.935117	0.156722
1117.094099	0.157638
1117.253064	0.151223
1117.412010	0.148668
1117.570938	0.147126
1117.729848	0.148925
1117.888740	0.148614
1118.047613	0.146254
1118.206468	0.150785
1118.365305	0.146728
1118.524124	0.145893
1118.682924	0.146022
1118.841707	0.148364
1119.000471	0.147225
1119.159216	0.145924
1119.317944	0.144951
1119.476653	0.145770
1119.635344	0.148584
1119.794017	0.149661
1119.952672	0.148436
1120.111308	0.152900
1120.269927	0.160484
1120.428527	0.164246
1120.587108	0.164711
1120.745672	0.171749
1120.904217	0.168486
1121.062744	0.168728
1121.221253	0.170198
1121.379744	0.167033
1121.538216	0.163228
1121.696671	0.154602
1121.855107	0.156516
1122.013524	0.156181
1122.171924	0.157593
1122.330305	0.160035
1122.488668	0.156614
1122.647013	0.154240
1122.805340	0.158419
1122.963648	0.158072
1123.121938	0.161725
1123.280210	0.155871
1123.438464	0.154881
1123.596700	0.151578
1123.754917	0.152659
1123.913116	0.153506
1124.071297	0.154420
1124.229459	0.152314
1124.387604	0.151034
1124.545730	0.152480
1124.703838	0.156003
1124.861928	0.156238
1125.019999	0.148498
1125.178052	0.147935
1125.336088	0.146545
1125.494104	0.149269
1125.652103	0.153035
1125.810083	0.150125
1125.968045	0.148906
1126.125989	0.149126
1126.283915	0.148904
1126.441823	0.156042
1126.599712	0.150362
1126.757583	0.152161
1126.915436	0.146517
1127.073270	0.144756
1127.231087	0.151444
1127.388885	0.150509
1127.546665	0.146411
1127.704426	0.142722
1127.862170	0.132941
1128.019895	0.143440
1128.177602	0.140595
1128.335291	0.143141
1128.492961	0.143651
1128.650614	0.138960
1128.808248	0.142655
1128.965864	0.140819
1129.123461	0.141615
1129.281041	0.150134
1129.438602	0.145069
1129.596145	0.146443
1129.753670	0.144392
1129.911176	0.145784
1130.068665	0.150192
1130.226135	0.141437
1130.383587	0.149036
1130.541020	0.152827
1130.698436	0.149527
1130.855833	0.148160
1131.013212	0.151202
1131.170573	0.153139
1131.327915	0.155161
1131.485239	0.150435
1131.642545	0.157157
1131.799833	0.154307
1131.957103	0.154756
1132.114354	0.155774
1132.271588	0.156199
1132.428803	0.158297
1132.585999	0.155938
1132.743178	0.157923
1132.900338	0.159663
1133.057480	0.155734
1133.214604	0.151018
1133.371710	0.151201
1133.528797	0.150664
1133.685866	0.150339
1133.842917	0.145023
1133.999950	0.151088
1134.156964	0.148618
1134.313960	0.145785
1134.470938	0.148345
1134.627898	0.152532
1134.784840	0.155330
1134.941763	0.150099
1135.098668	0.152818
1135.255555	0.153310
1135.412424	0.152753
1135.569274	0.151157
1135.726107	0.152917
1135.882921	0.155518
1136.039716	0.155638
1136.196494	0.150240
1136.353253	0.160351
1136.509995	0.160035
1136.666717	0.164882
1136.823422	0.164717
1136.980109	0.163364
1137.136777	0.162185
1137.293427	0.161894
1137.450059	0.161876
1137.606672	0.159220
1137.763267	0.149917
1137.919844	0.149608
1138.076403	0.141301
1138.232944	0.135492
1138.389466	0.137388
1138.545971	0.145588
1138.702457	0.144426
1138.858924	0.141036
1139.015374	0.142366
1139.171805	0.147639
1139.328218	0.147493
1139.484613	0.147715
1139.640990	0.150970
1139.797348	0.150684
1139.953688	0.144379
1140.110010	0.144358
1140.266314	0.145421
1140.422600	0.152073
1140.578867	0.155602
1140.735116	0.153099
1140.891347	0.155375
1141.047559	0.157836
1141.203754	0.153687
1141.359930	0.153292
1141.516088	0.150150
1141.672228	0.154930
1141.828349	0.155956
1141.984452	0.151269
1142.140537	0.152901
1142.296604	0.157013
1142.452653	0.151810
1142.608683	0.143279
1142.764695	0.139999
1142.920689	0.145408
1143.076665	0.144062
1143.232622	0.145007
1143.388562	0.144680
1143.544483	0.148888
1143.700385	0.147435
1143.856270	0.152298
1144.012136	0.161075
1144.167985	0.167150
1144.323814	0.163331
1144.479626	0.167059
1144.635420	0.168309
1144.791195	0.170714
1144.946952	0.167524
1145.102691	0.168140
1145.258411	0.170890
1145.414113	0.181690
1145.569798	0.182743
1145.725463	0.180700
1145.881111	0.175332
1146.036741	0.164747
1146.192352	0.164109
1146.347945	0.166179
1146.503519	0.163753
1146.659076	0.160910
1146.814614	0.163807
1146.970134	0.163785
1147.125636	0.164622
1147.281120	0.162198
1147.436585	0.174391
1147.592032	0.170602
1147.747461	0.170202
1147.902872	0.168439
1148.058265	0.164862
1148.213639	0.154966
1148.368995	0.155871
1148.524333	0.159375
1148.679653	0.165677
1148.834954	0.160538
1148.990237	0.161083
1149.145502	0.161029
1149.300749	0.163940
1149.455977	0.170920
1149.611188	0.168497
1149.766380	0.167349
1149.921553	0.168470
1150.076709	0.163690
1150.231846	0.155691
1150.386966	0.159688
1150.542066	0.157852
1150.697149	0.156913
1150.852214	0.149077
1151.007260	0.149254
1151.162288	0.144759
1151.317298	0.145143
1151.472289	0.152050
1151.627263	0.153779
1151.782218	0.149698
1151.937155	0.157088
1152.092073	0.147635
1152.246974	0.152248
1152.401856	0.154605
1152.556720	0.158097
1152.711566	0.162498
1152.866393	0.156378
1153.021203	0.161430
1153.175994	0.162535
1153.330767	0.150580
1153.485521	0.161075
1153.640258	0.164846
1153.794976	0.163930
1153.949676	0.168396
1154.104358	0.159862
1154.259021	0.153336
1154.413667	0.152807
1154.568294	0.159338
1154.722903	0.153806
1154.877493	0.150824
1155.032066	0.145849
1155.186620	0.147186
1155.341156	0.148544
1155.495674	0.151358
1155.650173	0.154137
1155.804654	0.149369
1155.959118	0.141514
1156.113562	0.142412
1156.267989	0.150059
1156.422397	0.154955
1156.576788	0.152736
1156.731160	0.139073
1156.885513	0.141670
1157.039849	0.147213
1157.194166	0.150088
1157.348465	0.156808
1157.502746	0.162440
1157.657009	0.158166
1157.811253	0.147165
1157.965479	0.147747
1158.119687	0.162224
1158.273877	0.150126
1158.428048	0.141984
1158.582201	0.142945
1158.736337	0.134703
1158.890453	0.140780
1159.044552	0.144313
1159.198632	0.146658
1159.352694	0.143755
1159.506738	0.135509
1159.660764	0.143226
1159.814771	0.151579
1159.968761	0.149065
1160.122732	0.156597
1160.276685	0.157660
1160.430619	0.160284
1160.584535	0.169649
1160.738434	0.166089
1160.892313	0.160478
1161.046175	0.162973
1161.200019	0.162335
1161.353844	0.163032
1161.507651	0.167278
1161.661440	0.163700
1161.815210	0.159495
1161.968962	0.153941
1162.122697	0.163936
1162.276412	0.185185
1162.430110	0.186485
1162.583789	0.193482
1162.737451	0.190864
1162.891094	0.177835
1163.044718	0.172345
1163.198325	0.163716
1163.351913	0.163559
1163.505483	0.164653
1163.659035	0.142614
1163.812569	0.144614
1163.966084	0.135686
1164.119581	0.133312
1164.273060	0.129116
1164.426521	0.132596
1164.579964	0.139152
1164.733388	0.141355
1164.886794	0.135890
1165.040182	0.151430
1165.193551	0.146309
1165.346903	0.142767
1165.500236	0.144421
1165.653551	0.155356
1165.806848	0.156596
1165.960126	0.147018
1166.113386	0.147401
1166.266628	0.144060
1166.419852	0.128924
1166.573058	0.126795
1166.726245	0.128146
1166.879414	0.136252
1167.032565	0.131345
1167.185698	0.132509
1167.338812	0.139124
1167.491909	0.136667
1167.644987	0.138642
1167.798046	0.146492
1167.951088	0.152149
1168.104111	0.145288
1168.257117	0.141047
1168.410103	0.148429
1168.563072	0.155350
1168.716023	0.155641
1168.868955	0.160067
1169.021869	0.165492
1169.174765	0.159423
1169.327642	0.159350
1169.480501	0.167935
1169.633343	0.167140
1169.786165	0.173447
1169.938970	0.164695
1170.091757	0.166563
1170.244525	0.158401
1170.397275	0.158518
1170.550007	0.154941
1170.702720	0.140325
1170.855415	0.138977
1171.008092	0.133539
1171.160751	0.118853
1171.313392	0.114206
1171.466014	0.123292
1171.618619	0.102759
1171.771205	0.102759
1171.923772	0.102759
