sample name	sample
index	1028
start time	 04-19-2021  12:30:50 PM


Wavelength (nm)	Absorbance
494.344910	-0.100226
494.563924	-0.100226
494.782919	-0.100226
495.001897	0.045953
495.220856	-0.037768
495.439797	-0.027944
495.658719	-0.011562
495.877624	-0.000571
496.096510	0.002279
496.315378	0.003682
496.534227	0.000346
496.753059	0.016021
496.971872	0.003006
497.190667	0.065378
497.409444	0.085757
497.628203	0.094019
497.846943	0.099053
498.065665	0.102272
498.284369	0.104034
498.503055	0.105916
498.721723	0.107277
498.940372	0.107696
499.159003	0.107135
499.377616	0.107912
499.596210	0.108652
499.814787	0.108695
500.033345	0.107752
500.251885	0.107618
500.470406	0.106765
500.688910	0.105395
500.907395	0.106510
501.125862	0.106673
501.344311	0.106555
501.562742	0.105262
501.781154	0.105424
501.999548	0.105585
502.217924	0.106272
502.436282	0.106140
502.654621	0.105538
502.872942	0.105415
503.091245	0.105387
503.309530	0.105095
503.527797	0.105564
503.746045	0.105095
503.964275	0.104767
504.182487	0.104532
504.400681	0.105283
504.618856	0.106130
504.837013	0.106569
505.055152	0.106350
505.273273	0.106304
505.491376	0.106066
505.709460	0.106292
505.927526	0.106942
506.145574	0.105991
506.363604	0.106076
506.581615	0.105848
506.799608	0.104999
507.017583	0.104815
507.235540	0.105578
507.453478	0.105501
507.671399	0.105796
507.889301	0.106314
508.107185	0.106913
508.325050	0.107170
508.542898	0.108178
508.760727	0.109396
508.978538	0.109818
509.196330	0.109951
509.414105	0.110294
509.631861	0.110718
509.849599	0.110072
510.067319	0.109949
510.285021	0.109282
510.502704	0.108584
510.720369	0.108249
510.938016	0.107490
511.155645	0.107517
511.373255	0.108449
511.590848	0.107870
511.808422	0.108106
512.025977	0.108329
512.243515	0.108858
512.461034	0.109695
512.678536	0.109336
512.896018	0.110371
513.113483	0.110009
513.330930	0.109193
513.548358	0.109032
513.765768	0.108894
513.983160	0.109868
514.200533	0.110036
514.417889	0.109603
514.635226	0.110379
514.852545	0.110677
515.069845	0.110889
515.287128	0.111296
515.504392	0.111641
515.721638	0.111728
515.938866	0.110821
516.156075	0.110788
516.373267	0.111152
516.590440	0.110972
516.807594	0.110900
517.024731	0.110825
517.241850	0.110558
517.458950	0.110679
517.676032	0.111346
517.893095	0.111698
518.110141	0.112223
518.327168	0.112088
518.544177	0.112216
518.761168	0.112269
518.978141	0.111976
519.195095	0.112335
519.412031	0.112672
519.628949	0.111886
519.845849	0.111854
520.062731	0.112342
520.279594	0.112834
520.496439	0.112775
520.713266	0.113045
520.930074	0.114204
521.146865	0.113843
521.363637	0.114297
521.580391	0.114708
521.797127	0.115424
522.013844	0.114851
522.230543	0.114539
522.447224	0.114630
522.663887	0.114198
522.880532	0.114104
523.097158	0.114755
523.313766	0.113907
523.530356	0.114051
523.746928	0.113992
523.963481	0.114628
524.180017	0.114666
524.396534	0.115209
524.613032	0.115742
524.829513	0.115981
525.045975	0.116410
525.262420	0.117062
525.478845	0.117645
525.695253	0.117491
525.911643	0.117147
526.128014	0.117900
526.344367	0.117819
526.560702	0.117957
526.777018	0.118222
526.993316	0.118163
527.209597	0.117985
527.425858	0.117816
527.642102	0.118319
527.858328	0.118469
528.074535	0.118158
528.290724	0.118224
528.506894	0.118289
528.723047	0.118083
528.939181	0.118216
529.155297	0.118415
529.371395	0.118446
529.587475	0.118247
529.803536	0.118491
530.019579	0.119111
530.235604	0.119890
530.451611	0.120709
530.667600	0.120846
530.883570	0.120670
531.099522	0.121395
531.315456	0.121835
531.531372	0.122253
531.747269	0.122148
531.963148	0.121207
532.179009	0.120422
532.394852	0.120285
532.610676	0.120973
532.826482	0.121191
533.042271	0.121057
533.258040	0.121581
533.473792	0.121834
533.689525	0.121987
533.905240	0.122561
534.120937	0.122891
534.336616	0.122715
534.552277	0.122873
534.767919	0.123007
534.983543	0.123321
535.199149	0.122848
535.414736	0.122930
535.630306	0.123443
535.845857	0.123762
536.061390	0.123920
536.276904	0.124433
536.492401	0.124076
536.707879	0.124407
536.923339	0.124012
537.138781	0.124147
537.354204	0.124224
537.569610	0.124506
537.784997	0.124504
538.000366	0.124874
538.215716	0.124516
538.431049	0.124721
538.646363	0.124571
538.861659	0.125030
539.076937	0.125040
539.292196	0.125128
539.507438	0.124873
539.722661	0.125367
539.937866	0.125534
540.153052	0.126059
540.368221	0.126269
540.583371	0.125855
540.798503	0.126059
541.013617	0.126528
541.228712	0.126565
541.443789	0.126757
541.658848	0.126706
541.873889	0.126594
542.088912	0.126384
542.303916	0.126081
542.518902	0.126986
542.733870	0.127188
542.948820	0.127164
543.163752	0.127276
543.378665	0.127010
543.593560	0.127044
543.808437	0.127411
544.023295	0.127679
544.238136	0.127605
544.452958	0.127625
544.667762	0.127306
544.882548	0.127115
545.097315	0.126907
545.312064	0.127187
545.526795	0.127082
545.741508	0.127010
545.956203	0.127427
546.170879	0.127526
546.385537	0.127783
546.600177	0.127987
546.814799	0.128392
547.029402	0.128816
547.243988	0.129070
547.458555	0.129801
547.673103	0.129533
547.887634	0.129113
548.102146	0.129348
548.316640	0.129422
548.531116	0.129739
548.745574	0.129603
548.960013	0.129606
549.174435	0.129826
549.388838	0.129449
549.603222	0.129866
549.817589	0.130336
550.031937	0.130930
550.246267	0.130653
550.460579	0.130799
550.674873	0.130920
550.889148	0.130884
551.103405	0.130876
551.317644	0.131097
551.531865	0.131111
551.746068	0.130826
551.960252	0.130758
552.174418	0.130915
552.388566	0.131003
552.602696	0.130911
552.816807	0.131094
553.030900	0.131367
553.244975	0.131200
553.459032	0.131048
553.673070	0.131607
553.887091	0.131991
554.101093	0.131881
554.315077	0.131538
554.529042	0.131818
554.742990	0.131753
554.956919	0.131694
555.170830	0.131892
555.384722	0.131874
555.598597	0.131326
555.812453	0.131216
556.026291	0.131654
556.240111	0.131947
556.453913	0.132264
556.667696	0.132812
556.881461	0.132822
557.095208	0.132812
557.308937	0.133184
557.522647	0.133277
557.736339	0.133077
557.950013	0.132879
558.163669	0.132879
558.377307	0.132780
558.590926	0.132863
558.804527	0.132769
559.018110	0.132603
559.231675	0.132643
559.445221	0.132849
559.658749	0.133228
559.872259	0.133422
560.085751	0.133529
560.299225	0.133361
560.512680	0.133144
560.726117	0.132733
560.939536	0.132930
561.152937	0.132959
561.366319	0.132807
561.579683	0.132725
561.793029	0.132612
562.006357	0.132782
562.219667	0.133232
562.432958	0.133385
562.646231	0.134198
562.859486	0.134074
563.072723	0.134134
563.285941	0.134511
563.499141	0.134318
563.712323	0.134428
563.925487	0.134055
564.138632	0.133948
564.351760	0.133576
564.564869	0.133282
564.777960	0.133472
564.991032	0.133523
565.204087	0.133294
565.417123	0.133350
565.630141	0.133502
565.843140	0.133576
566.056122	0.133623
566.269085	0.133755
566.482030	0.133867
566.694957	0.133484
566.907866	0.133473
567.120756	0.133661
567.333628	0.133496
567.546482	0.133568
567.759318	0.133466
567.972135	0.133015
568.184935	0.133205
568.397716	0.133112
568.610478	0.133742
568.823223	0.133830
569.035949	0.134069
569.248657	0.134340
569.461347	0.134343
569.674019	0.134260
569.886672	0.134530
570.099308	0.134584
570.311925	0.134604
570.524523	0.134619
570.737104	0.134454
570.949666	0.134132
571.162210	0.134316
571.374736	0.133835
571.587244	0.134619
571.799733	0.134690
572.012205	0.134680
572.224658	0.134633
572.437092	0.134380
572.649509	0.134574
572.861907	0.134799
573.074287	0.134588
573.286649	0.135099
573.498993	0.134878
573.711318	0.134644
573.923625	0.134747
574.135914	0.135027
574.348185	0.135353
574.560438	0.135133
574.772672	0.135264
574.984888	0.135009
575.197086	0.135239
575.409266	0.135426
575.621427	0.135606
575.833570	0.135472
576.045695	0.135500
576.257802	0.135525
576.469890	0.135678
576.681961	0.135881
576.894013	0.136350
577.106046	0.135979
577.318062	0.135735
577.530059	0.135941
577.742039	0.135881
577.954000	0.136203
578.165942	0.136214
578.377867	0.136442
578.589773	0.136131
578.801661	0.136225
579.013531	0.136574
579.225382	0.136545
579.437216	0.136496
579.649031	0.136933
579.860828	0.136699
580.072606	0.136867
580.284367	0.137130
580.496109	0.137142
580.707833	0.137285
580.919539	0.137153
581.131227	0.137230
581.342896	0.137163
581.554547	0.136889
581.766180	0.136872
581.977795	0.136796
582.189391	0.136567
582.400969	0.136869
582.612529	0.136710
582.824071	0.136838
583.035595	0.137230
583.247100	0.137361
583.458587	0.137469
583.670056	0.137326
583.881506	0.137417
584.092939	0.137713
584.304353	0.137708
584.515749	0.137588
584.727127	0.137874
584.938486	0.137715
585.149828	0.138192
585.361151	0.138546
585.572456	0.139079
585.783742	0.139349
585.995011	0.139353
586.206261	0.139463
586.417493	0.139710
586.628706	0.139274
586.839902	0.139481
587.051079	0.139634
587.262238	0.139758
587.473379	0.139757
587.684502	0.139607
587.895606	0.139821
588.106692	0.140220
588.317760	0.140426
588.528810	0.140805
588.739841	0.141092
588.950855	0.140982
589.161850	0.141120
589.372827	0.141416
589.583785	0.141461
589.794726	0.141465
590.005648	0.141305
590.216552	0.141529
590.427437	0.141912
590.638305	0.141797
590.849154	0.141995
591.059985	0.141584
591.270798	0.141620
591.481592	0.141849
591.692369	0.142073
591.903127	0.141932
592.113867	0.141878
592.324588	0.141888
592.535292	0.141905
592.745977	0.141829
592.956644	0.142090
593.167293	0.141954
593.377923	0.142072
593.588536	0.141724
593.799130	0.142093
594.009706	0.142179
594.220263	0.142335
594.430803	0.142182
594.641324	0.142260
594.851827	0.142237
595.062312	0.141859
595.272778	0.141691
595.483227	0.141962
595.693657	0.141735
595.904069	0.141571
596.114462	0.141958
596.324838	0.142535
596.535195	0.142609
596.745534	0.142901
596.955855	0.143714
597.166157	0.143842
597.376441	0.143891
597.586707	0.144017
597.796955	0.144254
598.007185	0.143871
598.217396	0.143919
598.427589	0.143923
598.637764	0.143910
598.847921	0.143331
599.058060	0.143406
599.268180	0.143415
599.478282	0.143565
599.688366	0.143666
599.898431	0.143794
600.108479	0.143568
600.318508	0.143714
600.528519	0.143934
600.738511	0.144460
600.948486	0.144856
601.158442	0.145138
601.368380	0.145550
601.578300	0.145503
601.788202	0.145396
601.998085	0.145677
602.207950	0.146130
602.417797	0.146222
602.627626	0.146272
602.837436	0.146189
603.047228	0.146207
603.257002	0.145905
603.466758	0.146312
603.676496	0.146566
603.886215	0.146508
604.095916	0.146459
604.305599	0.146085
604.515264	0.145775
604.724910	0.145627
604.934538	0.145401
605.144148	0.145429
605.353740	0.145043
605.563314	0.144654
605.772869	0.144644
605.982406	0.144100
606.191925	0.144243
606.401425	0.144305
606.610908	0.144492
606.820372	0.144758
607.029818	0.144843
607.239246	0.145032
607.448655	0.145119
607.658047	0.145175
607.867420	0.145587
608.076775	0.145711
608.286111	0.145911
608.495430	0.145906
608.704730	0.145825
608.914012	0.145841
609.123275	0.145844
609.332521	0.146118
609.541748	0.146160
609.750957	0.145869
609.960148	0.145955
610.169321	0.145932
610.378475	0.145822
610.587611	0.146004
610.796729	0.145894
611.005829	0.146015
611.214910	0.145785
611.423974	0.145920
611.633019	0.146115
611.842045	0.146035
612.051054	0.146066
612.260044	0.146086
612.469017	0.146075
612.677970	0.146190
612.886906	0.146169
613.095824	0.146408
613.304723	0.146154
613.513604	0.146233
613.722467	0.146299
613.931311	0.146523
614.140138	0.146442
614.348946	0.146416
614.557736	0.146383
614.766507	0.146686
614.975261	0.146873
615.183996	0.147162
615.392713	0.147084
615.601412	0.147117
615.810092	0.147301
616.018754	0.147583
616.227399	0.147692
616.436024	0.147888
616.644632	0.147747
616.853222	0.147710
617.061793	0.148021
617.270346	0.148008
617.478880	0.148273
617.687397	0.148136
617.895895	0.148223
618.104375	0.148171
618.312837	0.148268
618.521281	0.148217
618.729706	0.148392
618.938113	0.147944
619.146502	0.148352
619.354873	0.148148
619.563226	0.148221
619.771560	0.147952
619.979876	0.147982
620.188174	0.148086
620.396453	0.147996
620.604715	0.147871
620.812958	0.148091
621.021183	0.148016
621.229390	0.148109
621.437578	0.148030
621.645748	0.148234
621.853900	0.148324
622.062034	0.148565
622.270150	0.148895
622.478247	0.149092
622.686326	0.149108
622.894387	0.149222
623.102430	0.149699
623.310454	0.149799
623.518461	0.150072
623.726449	0.150432
623.934418	0.150267
624.142370	0.150188
624.350303	0.150033
624.558218	0.150131
624.766115	0.150189
624.973994	0.149935
625.181855	0.149929
625.389697	0.149955
625.597521	0.149887
625.805327	0.149737
626.013114	0.149784
626.220883	0.149832
626.428634	0.149802
626.636367	0.149708
626.844082	0.149823
627.051778	0.149847
627.259457	0.149888
627.467117	0.149763
627.674758	0.149694
627.882382	0.149975
628.089987	0.150023
628.297574	0.150085
628.505143	0.150436
628.712694	0.150369
628.920226	0.150625
629.127740	0.150743
629.335236	0.150866
629.542714	0.151210
629.750174	0.151165
629.957615	0.151230
630.165038	0.151462
630.372443	0.151406
630.579829	0.151615
630.787198	0.151901
630.994548	0.151936
631.201880	0.152289
631.409194	0.152302
631.616489	0.152374
631.823766	0.152674
632.031025	0.152848
632.238266	0.152904
632.445489	0.153107
632.652693	0.153014
632.859879	0.153134
633.067047	0.153157
633.274197	0.153470
633.481329	0.153446
633.688442	0.153767
633.895537	0.153811
634.102614	0.153922
634.309672	0.154061
634.516713	0.154128
634.723735	0.154301
634.930739	0.154373
635.137724	0.154124
635.344692	0.154441
635.551641	0.154506
635.758572	0.154427
635.965485	0.154379
636.172379	0.154363
636.379256	0.154405
636.586114	0.154468
636.792954	0.154420
636.999775	0.154549
637.206579	0.154439
637.413364	0.154133
637.620131	0.154352
637.826880	0.154510
638.033610	0.154158
638.240323	0.154215
638.447017	0.154076
638.653692	0.154075
638.860350	0.154000
639.066990	0.154115
639.273611	0.154191
639.480214	0.154298
639.686798	0.154445
639.893365	0.154834
640.099913	0.155027
640.306443	0.155294
640.512955	0.155286
640.719449	0.155781
640.925924	0.155786
641.132381	0.155688
641.338820	0.155452
641.545241	0.155539
641.751644	0.155708
641.958028	0.155783
642.164394	0.155605
642.370742	0.155900
642.577071	0.155722
642.783383	0.155787
642.989676	0.156196
643.195951	0.156459
643.402207	0.156615
643.608446	0.156462
643.814666	0.156513
644.020868	0.156754
644.227052	0.156834
644.433218	0.156956
644.639365	0.157124
644.845494	0.157111
645.051605	0.157185
645.257698	0.157188
645.463772	0.157561
645.669828	0.157529
645.875866	0.157703
646.081886	0.157672
646.287888	0.157695
646.493871	0.157728
646.699836	0.157743
646.905783	0.157718
647.111712	0.157861
647.317622	0.157839
647.523514	0.158055
647.729388	0.158017
647.935244	0.158154
648.141082	0.158345
648.346901	0.158383
648.552702	0.158654
648.758485	0.158991
648.964250	0.158822
649.169996	0.158805
649.375724	0.159010
649.581434	0.159264
649.787126	0.159345
649.992800	0.159333
650.198455	0.159430
650.404092	0.159543
650.609711	0.159378
650.815311	0.159744
651.020894	0.159759
651.226458	0.159692
651.432004	0.159550
651.637532	0.159562
651.843041	0.159701
652.048532	0.159709
652.254006	0.159711
652.459460	0.159916
652.664897	0.159716
652.870315	0.159940
653.075716	0.160016
653.281097	0.160191
653.486461	0.160321
653.691807	0.160571
653.897134	0.160876
654.102443	0.160803
654.307734	0.160811
654.513006	0.161004
654.718261	0.161107
654.923497	0.161124
655.128715	0.161107
655.333915	0.161314
655.539096	0.161136
655.744259	0.161199
655.949404	0.161468
656.154531	0.161714
656.359640	0.161927
656.564730	0.161805
656.769802	0.161952
656.974856	0.162332
657.179892	0.162315
657.384909	0.162685
657.589908	0.162719
657.794889	0.162964
657.999852	0.163087
658.204797	0.163106
658.409723	0.163378
658.614631	0.163613
658.819521	0.163462
659.024393	0.163583
659.229246	0.163515
659.434081	0.163658
659.638898	0.163644
659.843697	0.163649
660.048478	0.163966
660.253240	0.164166
660.457984	0.164075
660.662710	0.164211
660.867417	0.164457
661.072107	0.164583
661.276778	0.164878
661.481431	0.164881
661.686066	0.164851
661.890682	0.164829
662.095281	0.164862
662.299861	0.164952
662.504422	0.164984
662.708966	0.164923
662.913491	0.165098
663.117999	0.164902
663.322488	0.164808
663.526958	0.165059
663.731411	0.164782
663.935845	0.164719
664.140261	0.164973
664.344659	0.165063
664.549038	0.164916
664.753400	0.164961
664.957743	0.165010
665.162068	0.165342
665.366375	0.165344
665.570663	0.165555
665.774933	0.165830
665.979185	0.165577
666.183419	0.165703
666.387635	0.165817
666.591832	0.165792
666.796011	0.165725
667.000172	0.165758
667.204315	0.165634
667.408439	0.165789
667.612545	0.165839
667.816634	0.166307
668.020703	0.166344
668.224755	0.166593
668.428788	0.166830
668.632803	0.167379
668.836800	0.167325
669.040779	0.167593
669.244739	0.167748
669.448681	0.167802
669.652605	0.167529
669.856511	0.167648
670.060399	0.167683
670.264268	0.167701
670.468119	0.167646
670.671952	0.167887
670.875767	0.168002
671.079563	0.168006
671.283341	0.168033
671.487101	0.168282
671.690843	0.168399
671.894567	0.168588
672.098272	0.168479
672.301959	0.168476
672.505628	0.168509
672.709278	0.168699
672.912911	0.168814
673.116525	0.168963
673.320121	0.169071
673.523699	0.169187
673.727258	0.169313
673.930799	0.169385
674.134322	0.169413
674.337827	0.169311
674.541314	0.169098
674.744782	0.169179
674.948232	0.169135
675.151664	0.169241
675.355078	0.169250
675.558474	0.169257
675.761851	0.169371
675.965210	0.169616
676.168551	0.169888
676.371873	0.170201
676.575178	0.170266
676.778464	0.170416
676.981732	0.170363
677.184981	0.170543
677.388213	0.170499
677.591426	0.170705
677.794621	0.170571
677.997798	0.170670
678.200956	0.170682
678.404097	0.170783
678.607219	0.170913
678.810323	0.171196
679.013408	0.171182
679.216476	0.171335
679.419525	0.171419
679.622556	0.171432
679.825569	0.171381
680.028563	0.171347
680.231540	0.171373
680.434498	0.171363
680.637438	0.171268
680.840359	0.171513
681.043263	0.171500
681.246148	0.171629
681.449015	0.171778
681.651864	0.171740
681.854694	0.171982
682.057506	0.171971
682.260301	0.171947
682.463076	0.171995
682.665834	0.171988
682.868573	0.172015
683.071295	0.172011
683.273998	0.172078
683.476682	0.172268
683.679349	0.172195
683.881997	0.172543
684.084627	0.172677
684.287239	0.172725
684.489833	0.172627
684.692408	0.172741
684.894965	0.172950
685.097504	0.173117
685.300025	0.173365
685.502527	0.173461
685.705012	0.173531
685.907478	0.173627
686.109925	0.173857
686.312355	0.173897
686.514766	0.174106
686.717159	0.173943
686.919534	0.173953
687.121891	0.173973
687.324230	0.174251
687.526550	0.174252
687.728852	0.174333
687.931136	0.174318
688.133401	0.174666
688.335649	0.174672
688.537878	0.174765
688.740089	0.174782
688.942281	0.174520
689.144456	0.174466
689.346612	0.174382
689.548750	0.174402
689.750870	0.174605
689.952971	0.174625
690.155055	0.174575
690.357120	0.174568
690.559167	0.174614
690.761195	0.174810
690.963206	0.174543
691.165198	0.174588
691.367172	0.174553
691.569128	0.174223
691.771065	0.174158
691.972984	0.174155
692.174885	0.174225
692.376768	0.174395
692.578633	0.174708
692.780479	0.174988
692.982308	0.175088
693.184118	0.175322
693.385909	0.175521
693.587683	0.175480
693.789438	0.175493
693.991175	0.175493
694.192894	0.175647
694.394595	0.175408
694.596277	0.175350
694.797941	0.175525
694.999587	0.175630
695.201215	0.175714
695.402824	0.175957
695.604416	0.176032
695.805989	0.176201
696.007543	0.176000
696.209080	0.176103
696.410598	0.176380
696.612099	0.176386
696.813580	0.176156
697.015044	0.176230
697.216490	0.176109
697.417917	0.176103
697.619326	0.176173
697.820717	0.176129
698.022089	0.176078
698.223444	0.176234
698.424780	0.176176
698.626098	0.176429
698.827397	0.176544
699.028679	0.176733
699.229942	0.176859
699.431187	0.176881
699.632414	0.177233
699.833622	0.177351
700.034813	0.177230
700.235985	0.177114
700.437139	0.177223
700.638274	0.177301
700.839392	0.177292
701.040491	0.177705
701.241572	0.177850
701.442635	0.177806
701.643679	0.177995
701.844706	0.178119
702.045714	0.178319
702.246704	0.178286
702.447675	0.178373
702.648629	0.178315
702.849564	0.178213
703.050481	0.178246
703.251380	0.178365
703.452260	0.178610
703.653122	0.178685
703.853966	0.178684
704.054792	0.178761
704.255600	0.178781
704.456389	0.178985
704.657160	0.178974
704.857913	0.178981
705.058648	0.178954
705.259365	0.178819
705.460063	0.178452
705.660743	0.178441
705.861405	0.178449
706.062048	0.178350
706.262674	0.178373
706.463281	0.178303
706.663870	0.178191
706.864441	0.178127
707.064993	0.177980
707.265527	0.178404
707.466043	0.178608
707.666541	0.178415
707.867021	0.178470
708.067482	0.178410
708.267925	0.178366
708.468350	0.178670
708.668757	0.178694
708.869145	0.179094
709.069516	0.178830
709.269868	0.178827
709.470201	0.178844
709.670517	0.178740
709.870814	0.178610
710.071093	0.178748
710.271354	0.178673
710.471597	0.178681
710.671821	0.178472
710.872028	0.178576
711.072216	0.178784
711.272385	0.179003
711.472537	0.179233
711.672670	0.179377
711.872785	0.179419
712.072882	0.179211
712.272961	0.179205
712.473021	0.179212
712.673063	0.179302
712.873087	0.178959
713.073093	0.178935
713.273081	0.178832
713.473050	0.178785
713.673001	0.178510
713.872934	0.178633
714.072849	0.178741
714.272745	0.178541
714.472623	0.178449
714.672483	0.178523
714.872325	0.178547
715.072148	0.178581
715.271954	0.178611
715.471741	0.178879
715.671509	0.178717
715.871260	0.178484
716.070992	0.178641
716.270707	0.178684
716.470403	0.178622
716.670080	0.178560
716.869740	0.178500
717.069381	0.178398
717.269004	0.178165
717.468609	0.178149
717.668195	0.178084
717.867764	0.177852
718.067314	0.177524
718.266846	0.177557
718.466360	0.177508
718.665855	0.177228
718.865332	0.177320
719.064791	0.177315
719.264232	0.177507
719.463655	0.177653
719.663059	0.177751
719.862445	0.177933
720.061813	0.177897
720.261163	0.177837
720.460494	0.178022
720.659807	0.177837
720.859102	0.177824
721.058379	0.177690
721.257638	0.177752
721.456878	0.177679
721.656100	0.177827
721.855304	0.177663
722.054490	0.177521
722.253657	0.177372
722.452806	0.177288
722.651937	0.176990
722.851050	0.176817
723.050145	0.176552
723.249221	0.176452
723.448279	0.176052
723.647319	0.176105
723.846340	0.176131
724.045344	0.175881
724.244329	0.175853
724.443296	0.175823
724.642245	0.175795
724.841175	0.175669
725.040088	0.175341
725.238982	0.175383
725.437857	0.174989
725.636715	0.174811
725.835554	0.174975
726.034376	0.174652
726.233179	0.174844
726.431963	0.174703
726.630730	0.174640
726.829478	0.174808
727.028208	0.174748
727.226920	0.174718
727.425614	0.174487
727.624289	0.174235
727.822946	0.174226
728.021585	0.173964
728.220206	0.173863
728.418808	0.173923
728.617392	0.173806
728.815958	0.173816
729.014506	0.173821
729.213036	0.174030
729.411547	0.174110
729.610040	0.174365
729.808515	0.174494
730.006972	0.174622
730.205410	0.174428
730.403831	0.174519
730.602233	0.174102
730.800616	0.174208
730.998982	0.174094
731.197329	0.174048
731.395658	0.173824
731.593969	0.173470
731.792262	0.173306
731.990536	0.173495
732.188793	0.173304
732.387031	0.173302
732.585250	0.173082
732.783452	0.172817
732.981635	0.172620
733.179800	0.172428
733.377947	0.172627
733.576076	0.172366
733.774186	0.172142
733.972278	0.172014
734.170352	0.171883
734.368408	0.171736
734.566446	0.171753
734.764465	0.171843
734.962466	0.171791
735.160449	0.171630
735.358413	0.171594
735.556360	0.171376
735.754288	0.171450
735.952198	0.171871
736.150090	0.171956
736.347963	0.171933
736.545818	0.171796
736.743655	0.172043
736.941474	0.171952
737.139275	0.172114
737.337057	0.171952
737.534821	0.171853
737.732567	0.171518
737.930295	0.171386
738.128005	0.171483
738.325696	0.171190
738.523369	0.170850
738.721024	0.170888
738.918660	0.170853
739.116279	0.170993
739.313879	0.171018
739.511461	0.170979
739.709024	0.170968
739.906570	0.170837
740.104097	0.171017
740.301606	0.170945
740.499097	0.170989
740.696569	0.170964
740.894024	0.170927
741.091460	0.170851
741.288878	0.171025
741.486277	0.170860
741.683659	0.170917
741.881022	0.170878
742.078367	0.171153
742.275694	0.170962
742.473002	0.170760
742.670293	0.170833
742.867565	0.170823
743.064819	0.170835
743.262054	0.170999
743.459272	0.170775
743.656471	0.170735
743.853652	0.170570
744.050815	0.170837
744.247959	0.170855
744.445085	0.170757
744.642194	0.170697
744.839283	0.170458
745.036355	0.170427
745.233408	0.170326
745.430444	0.170139
745.627461	0.169984
745.824459	0.169568
746.021440	0.169480
746.218402	0.169146
746.415346	0.168981
746.612272	0.168913
746.809180	0.168851
747.006069	0.168516
747.202940	0.168442
747.399793	0.168111
747.596628	0.167935
747.793444	0.167661
747.990243	0.167908
748.187023	0.167912
748.383784	0.167563
748.580528	0.167379
748.777253	0.167537
748.973960	0.167570
749.170649	0.167682
749.367320	0.167736
749.563973	0.167772
749.760607	0.167305
749.957223	0.167098
750.153821	0.167151
750.350400	0.166860
750.546962	0.166634
750.743505	0.166399
750.940030	0.166069
751.136536	0.165601
751.333025	0.165344
751.529495	0.165313
751.725947	0.165085
751.922381	0.164987
752.118796	0.164890
752.315194	0.164746
752.511573	0.164420
752.707934	0.164331
752.904276	0.164312
753.100601	0.164264
753.296907	0.164033
753.493195	0.163796
753.689465	0.163599
753.885716	0.163474
754.081949	0.163163
754.278164	0.163356
754.474361	0.163370
754.670540	0.163408
754.866700	0.163166
755.062843	0.163159
755.258967	0.163060
755.455072	0.162896
755.651160	0.162980
755.847229	0.163212
756.043280	0.163051
756.239313	0.162691
756.435328	0.162543
756.631324	0.162514
756.827302	0.162475
757.023262	0.162477
757.219204	0.162265
757.415127	0.161973
757.611033	0.161822
757.806920	0.161564
758.002788	0.161784
758.198639	0.161690
758.394471	0.161474
758.590286	0.161361
758.786081	0.161235
758.981859	0.161375
759.177619	0.161221
759.373360	0.161150
759.569083	0.161338
759.764788	0.161177
759.960474	0.161134
760.156143	0.161306
760.351793	0.161084
760.547425	0.161100
760.743038	0.160995
760.938634	0.161032
761.134211	0.160890
761.329770	0.160568
761.525311	0.160745
761.720833	0.160747
761.916338	0.160559
762.111824	0.160635
762.307292	0.160516
762.502741	0.160190
762.698173	0.160051
762.893586	0.159955
763.088981	0.159871
763.284358	0.159391
763.479716	0.159035
763.675057	0.158971
763.870379	0.158819
764.065683	0.158887
764.260968	0.158999
764.456236	0.158820
764.651485	0.158760
764.846716	0.158810
765.041929	0.158803
765.237123	0.159040
765.432299	0.158900
765.627457	0.158964
765.822597	0.158524
766.017719	0.158170
766.212822	0.158338
766.407907	0.158214
766.602974	0.158088
766.798023	0.158023
766.993054	0.157770
767.188066	0.157604
767.383060	0.157395
767.578036	0.157527
767.772993	0.157737
767.967933	0.157700
768.162854	0.157675
768.357757	0.157643
768.552642	0.157503
768.747508	0.157375
768.942356	0.157544
769.137186	0.157555
769.331998	0.157371
769.526792	0.157335
769.721567	0.157121
769.916324	0.157189
770.111063	0.157171
770.305784	0.157290
770.500486	0.157434
770.695171	0.157199
770.889837	0.157321
771.084484	0.157459
771.279114	0.157524
771.473725	0.157712
771.668318	0.157786
771.862893	0.157798
772.057450	0.157650
772.251988	0.157751
772.446509	0.157762
772.641011	0.157442
772.835494	0.157423
773.029960	0.157235
773.224407	0.157125
773.418836	0.156938
773.613247	0.156823
773.807640	0.157096
774.002014	0.156984
774.196370	0.157123
774.390708	0.157181
774.585028	0.157165
774.779330	0.157181
774.973613	0.157239
775.167878	0.157220
775.362125	0.157325
775.556354	0.157129
775.750564	0.157209
775.944756	0.157114
776.138930	0.157352
776.333086	0.157475
776.527223	0.157446
776.721343	0.157451
776.915444	0.157433
777.109526	0.157340
777.303591	0.157440
777.497637	0.157384
777.691666	0.157529
777.885676	0.157366
778.079667	0.157154
778.273641	0.157405
778.467596	0.157303
778.661533	0.157608
778.855452	0.157846
779.049352	0.157826
779.243235	0.157908
779.437099	0.157978
779.630945	0.158154
779.824773	0.158548
780.018582	0.158456
780.212373	0.158808
780.406146	0.158760
780.599901	0.158839
780.793638	0.159133
780.987356	0.159239
781.181056	0.159513
781.374738	0.159599
781.568402	0.159536
781.762047	0.159812
781.955674	0.159665
782.149283	0.159812
782.342874	0.159742
782.536447	0.159628
782.730001	0.159676
782.923537	0.159491
783.117055	0.159560
783.310555	0.159532
783.504036	0.159423
783.697499	0.159362
783.890944	0.159363
784.084371	0.159357
784.277780	0.159228
784.471170	0.159105
784.664542	0.159007
784.857896	0.158966
785.051231	0.159024
785.244549	0.159130
785.437848	0.159310
785.631129	0.159161
785.824392	0.158918
786.017636	0.158958
786.210863	0.158995
786.404071	0.159137
786.597260	0.159084
786.790432	0.158928
786.983585	0.158672
787.176721	0.158557
787.369838	0.158614
787.562936	0.158919
787.756017	0.159010
787.949079	0.159209
788.142123	0.159167
788.335149	0.159132
788.528156	0.159247
788.721146	0.159571
788.914117	0.159648
789.107070	0.159691
789.300005	0.159622
789.492921	0.159739
789.685819	0.159605
789.878699	0.159616
790.071561	0.159666
790.264405	0.159579
790.457230	0.159350
790.650037	0.159343
790.842826	0.159327
791.035597	0.159392
791.228349	0.159403
791.421084	0.159324
791.613800	0.159369
791.806497	0.159252
791.999177	0.159313
792.191838	0.159384
792.384481	0.159288
792.577106	0.159171
792.769713	0.159020
792.962301	0.158927
793.154871	0.158907
793.347423	0.158861
793.539957	0.158936
793.732473	0.158846
793.924970	0.158990
794.117449	0.159128
794.309910	0.159382
794.502353	0.159521
794.694777	0.159876
794.887183	0.160163
795.079571	0.160211
795.271941	0.160697
795.464293	0.160923
795.656626	0.160846
795.848941	0.161018
796.041238	0.161071
796.233516	0.161419
796.425777	0.161266
796.618019	0.161392
796.810243	0.161579
797.002449	0.161335
797.194636	0.161596
797.386805	0.161900
797.578956	0.161912
797.771089	0.162130
797.963204	0.162054
798.155300	0.162175
798.347378	0.162203
798.539438	0.162183
798.731480	0.162399
798.923503	0.162423
799.115509	0.162655
799.307496	0.162932
799.499465	0.162937
799.691415	0.162934
799.883348	0.163198
800.075262	0.163223
800.267158	0.163447
800.459035	0.163703
800.650895	0.163784
800.842736	0.163733
801.034559	0.163748
801.226364	0.163837
801.418150	0.164015
801.609919	0.164002
801.801669	0.164079
801.993401	0.164234
802.185114	0.164014
802.376810	0.164052
802.568487	0.164107
802.760146	0.163910
802.951787	0.163988
803.143409	0.163929
803.335014	0.163910
803.526600	0.163788
803.718168	0.163617
803.909717	0.163691
804.101249	0.163816
804.292762	0.163871
804.484257	0.164206
804.675734	0.164573
804.867192	0.164713
805.058632	0.164827
805.250054	0.165073
805.441458	0.165241
805.632844	0.165409
805.824211	0.165537
806.015561	0.165580
806.206891	0.165737
806.398204	0.165582
806.589499	0.165961
806.780775	0.165966
806.972033	0.166294
807.163273	0.166521
807.354495	0.166782
807.545698	0.166891
807.736883	0.167272
807.928050	0.167416
808.119199	0.167818
808.310329	0.167736
808.501441	0.168285
808.692535	0.168465
808.883611	0.168989
809.074669	0.169143
809.265708	0.169636
809.456729	0.169811
809.647732	0.170083
809.838717	0.169988
810.029683	0.170265
810.220632	0.170368
810.411562	0.170481
810.602474	0.170351
810.793367	0.170831
810.984242	0.170818
811.175100	0.171251
811.365938	0.171514
811.556759	0.171754
811.747562	0.172096
811.938346	0.172192
812.129112	0.172358
812.319860	0.172947
812.510589	0.173035
812.701300	0.173103
812.891994	0.172949
813.082668	0.173024
813.273325	0.173331
813.463964	0.173377
813.654584	0.173726
813.845186	0.173758
814.035769	0.173789
814.226335	0.173755
814.416882	0.173986
814.607411	0.174150
814.797922	0.173999
814.988415	0.174176
815.178889	0.174447
815.369345	0.174497
815.559783	0.174635
815.750203	0.174586
815.940605	0.174836
816.130988	0.175044
816.321353	0.175313
816.511700	0.175853
816.702028	0.176125
816.892339	0.176411
817.082631	0.176680
817.272905	0.177223
817.463161	0.177657
817.653398	0.177965
817.843617	0.178281
818.033819	0.178488
818.224001	0.178705
818.414166	0.178954
818.604312	0.178900
818.794440	0.179132
818.984550	0.179261
819.174642	0.179343
819.364716	0.179294
819.554771	0.179532
819.744808	0.179542
819.934827	0.179688
820.124827	0.179599
820.314810	0.180094
820.504774	0.180026
820.694720	0.180328
820.884647	0.180428
821.074557	0.181082
821.264448	0.181398
821.454321	0.181820
821.644176	0.182141
821.834012	0.182399
822.023831	0.182457
822.213631	0.182647
822.403413	0.182708
822.593176	0.183174
822.782922	0.182956
822.972649	0.182907
823.162358	0.183142
823.352049	0.183423
823.541721	0.183814
823.731376	0.184070
823.921012	0.184404
824.110629	0.184830
824.300229	0.184769
824.489811	0.185139
824.679374	0.185450
824.868919	0.185596
825.058445	0.185604
825.247954	0.185675
825.437444	0.185972
825.626916	0.186113
825.816370	0.186092
826.005806	0.186344
826.195223	0.186269
826.384622	0.186450
826.574003	0.186662
826.763366	0.186887
826.952711	0.187083
827.142037	0.187264
827.331345	0.187716
827.520635	0.187939
827.709906	0.187981
827.899160	0.188292
828.088395	0.188512
828.277612	0.188450
828.466810	0.188402
828.655991	0.188811
828.845153	0.189013
829.034297	0.189136
829.223423	0.189425
829.412531	0.189911
829.601620	0.190126
829.790691	0.190253
829.979744	0.190672
830.168779	0.191307
830.357795	0.191356
830.546793	0.191331
830.735773	0.191620
830.924735	0.192143
831.113679	0.192430
831.302604	0.193058
831.491511	0.193629
831.680400	0.194145
831.869271	0.194450
832.058123	0.194832
832.246957	0.195787
832.435773	0.196150
832.624571	0.196180
832.813351	0.196527
833.002112	0.196659
833.190855	0.196987
833.379580	0.197121
833.568287	0.197216
833.756975	0.197432
833.945645	0.197425
834.134297	0.197643
834.322931	0.197794
834.511547	0.197975
834.700144	0.198240
834.888723	0.198095
835.077284	0.198235
835.265826	0.198555
835.454351	0.198776
835.642857	0.199088
835.831345	0.199743
836.019815	0.200502
836.208266	0.200861
836.396699	0.201142
836.585114	0.201573
836.773511	0.201947
836.961890	0.202571
837.150250	0.203272
837.338592	0.203301
837.526916	0.203064
837.715222	0.202987
837.903510	0.203088
838.091779	0.203471
838.280030	0.203921
838.468263	0.204414
838.656477	0.204498
838.844674	0.204300
839.032852	0.204583
839.221012	0.204966
839.409153	0.205490
839.597277	0.206220
839.785382	0.206434
839.973469	0.206675
840.161538	0.206940
840.349589	0.207037
840.537621	0.207608
840.725635	0.208034
840.913631	0.208258
841.101609	0.208550
841.289568	0.208522
841.477509	0.208859
841.665432	0.209260
841.853337	0.209239
842.041224	0.209754
842.229092	0.209722
842.416942	0.210157
842.604774	0.210530
842.792588	0.210549
842.980383	0.210860
843.168160	0.210954
843.355919	0.210904
843.543660	0.211247
843.731382	0.211657
843.919087	0.212049
844.106773	0.212070
844.294441	0.212473
844.482090	0.212714
844.669722	0.213036
844.857335	0.213232
845.044930	0.213644
845.232507	0.214070
845.420065	0.213858
845.607605	0.214186
845.795127	0.214360
845.982631	0.214591
846.170117	0.214907
846.357584	0.214997
846.545033	0.215331
846.732464	0.215593
846.919877	0.215946
847.107272	0.216359
847.294648	0.216773
847.482006	0.216938
847.669346	0.217306
847.856667	0.217499
848.043971	0.217877
848.231256	0.218362
848.418523	0.218873
848.605771	0.218793
848.793002	0.219221
848.980214	0.219277
849.167408	0.219825
849.354584	0.220007
849.541742	0.220687
849.728881	0.221110
849.916002	0.221299
850.103105	0.221801
850.290190	0.222326
850.477256	0.222766
850.664304	0.223204
850.851334	0.223820
851.038346	0.224263
851.225340	0.224664
851.412315	0.224750
851.599272	0.225203
851.786211	0.225013
851.973132	0.225399
852.160034	0.225288
852.346918	0.225449
852.533784	0.225238
852.720632	0.225430
852.907462	0.225431
853.094273	0.225886
853.281066	0.225982
853.467841	0.226061
853.654598	0.226506
853.841336	0.227321
854.028056	0.227772
854.214758	0.228176
854.401442	0.228356
854.588107	0.228886
854.774755	0.229119
854.961384	0.229660
855.147995	0.230401
855.334587	0.230168
855.521162	0.229922
855.707718	0.230269
855.894256	0.230723
856.080775	0.230847
856.267277	0.230816
856.453760	0.231121
856.640225	0.231379
856.826672	0.231685
857.013101	0.232262
857.199511	0.232751
857.385903	0.233228
857.572277	0.233437
857.758633	0.233735
857.944970	0.234017
858.131290	0.234230
858.317591	0.234183
858.503873	0.234051
858.690138	0.234508
858.876384	0.234698
859.062612	0.234708
859.248822	0.234990
859.435014	0.235497
859.621188	0.235622
859.807343	0.235833
859.993480	0.236318
860.179599	0.236886
860.365699	0.236990
860.551781	0.237454
860.737846	0.237475
860.923891	0.237615
861.109919	0.237857
861.295929	0.238071
861.481920	0.238197
861.667893	0.238559
861.853848	0.238860
862.039784	0.238972
862.225702	0.239098
862.411603	0.239707
862.597484	0.240067
862.783348	0.240088
862.969193	0.240830
863.155021	0.241179
863.340830	0.240937
863.526620	0.241005
863.712393	0.241507
863.898147	0.241803
864.083883	0.241846
864.269601	0.242250
864.455301	0.242388
864.640982	0.242560
864.826645	0.242869
865.012290	0.243372
865.197917	0.243504
865.383526	0.243606
865.569116	0.243741
865.754688	0.244163
865.940242	0.244049
866.125777	0.244494
866.311295	0.244780
866.496794	0.245501
866.682275	0.245998
866.867737	0.246677
867.053182	0.247070
867.238608	0.247518
867.424016	0.247842
867.609406	0.248211
867.794778	0.248359
867.980131	0.248154
868.165466	0.247724
868.350783	0.247806
868.536082	0.247715
868.721362	0.247750
868.906625	0.247643
869.091869	0.247437
869.277094	0.247542
869.462302	0.247999
869.647491	0.248156
869.832662	0.248596
870.017815	0.248715
870.202950	0.248825
870.388066	0.249120
870.573165	0.249308
870.758245	0.249657
870.943306	0.250154
871.128350	0.250085
871.313375	0.250370
871.498382	0.250173
871.683371	0.250193
871.868342	0.250282
872.053294	0.250317
872.238229	0.250763
872.423144	0.250845
872.608042	0.250804
872.792922	0.251077
872.977783	0.251255
873.162626	0.251727
873.347451	0.252208
873.532258	0.252482
873.717046	0.252815
873.901816	0.252492
874.086568	0.252561
874.271302	0.252521
874.456017	0.252913
874.640715	0.252898
874.825394	0.253135
875.010055	0.252832
875.194697	0.253143
875.379322	0.253270
875.563928	0.253642
875.748516	0.253971
875.933085	0.254561
876.117637	0.254318
876.302170	0.254721
876.486685	0.254761
876.671182	0.255216
876.855661	0.255073
877.040121	0.255175
877.224563	0.255539
877.408987	0.255796
877.593393	0.255663
877.777780	0.255619
877.962150	0.255686
878.146501	0.255984
878.330833	0.256027
878.515148	0.256003
878.699444	0.256006
878.883722	0.255974
879.067982	0.256097
879.252224	0.256381
879.436447	0.256923
879.620653	0.257315
879.804840	0.257315
879.989008	0.257339
880.173159	0.257736
880.357291	0.257936
880.541405	0.258309
880.725501	0.258370
880.909579	0.258489
881.093638	0.258787
881.277680	0.259037
881.461703	0.259276
881.645707	0.259824
881.829694	0.260006
882.013662	0.260349
882.197612	0.260359
882.381544	0.260637
882.565458	0.260645
882.749353	0.260492
882.933230	0.260306
883.117089	0.260122
883.300930	0.259686
883.484753	0.259567
883.668557	0.259168
883.852343	0.258736
884.036111	0.258381
884.219861	0.258438
884.403592	0.258257
884.587305	0.258304
884.771000	0.258279
884.954677	0.258310
885.138335	0.258183
885.321976	0.258049
885.505598	0.258135
885.689201	0.258022
885.872787	0.258064
886.056354	0.258077
886.239904	0.257792
886.423434	0.257886
886.606947	0.257941
886.790442	0.258413
886.973918	0.258997
887.157376	0.258675
887.340816	0.258993
887.524237	0.259046
887.707641	0.258902
887.891026	0.259275
888.074393	0.258938
888.257741	0.258890
888.441072	0.258654
888.624384	0.258443
888.807678	0.258905
888.990954	0.258865
889.174211	0.258677
889.357451	0.259026
889.540672	0.258881
889.723875	0.258871
889.907059	0.259245
890.090226	0.259154
890.273374	0.259147
890.456504	0.259217
890.639616	0.259180
890.822709	0.259319
891.005785	0.259140
891.188842	0.258588
891.371881	0.259157
891.554901	0.259355
891.737904	0.259509
891.920888	0.259194
892.103854	0.259179
892.286802	0.259242
892.469731	0.259092
892.652643	0.259352
892.835536	0.259774
893.018410	0.259232
893.201267	0.258897
893.384106	0.258578
893.566926	0.258526
893.749728	0.258748
893.932511	0.258672
894.115277	0.258363
894.298024	0.258184
894.480753	0.258219
894.663464	0.258211
894.846157	0.257851
895.028831	0.258282
895.211487	0.258188
895.394125	0.258065
895.576745	0.258163
895.759346	0.258138
895.941930	0.257485
896.124495	0.257340
896.307041	0.257061
896.489570	0.256820
896.672080	0.256392
896.854573	0.256703
897.037046	0.256163
897.219502	0.255671
897.401940	0.255496
897.584359	0.255858
897.766760	0.255304
897.949143	0.255860
898.131507	0.256076
898.313854	0.256153
898.496182	0.255872
898.678492	0.255885
898.860783	0.255724
899.043057	0.255803
899.225312	0.255408
899.407549	0.255536
899.589768	0.254858
899.771968	0.254751
899.954151	0.254459
900.136315	0.254467
900.318461	0.253926
900.500588	0.253683
900.682698	0.252857
900.864789	0.252889
901.046862	0.252364
901.228917	0.252241
901.410953	0.251515
901.592971	0.250810
901.774972	0.250276
901.956953	0.250328
902.138917	0.250167
902.320862	0.250672
902.502790	0.250109
902.684699	0.250078
902.866589	0.250086
903.048462	0.250172
903.230316	0.250750
903.412152	0.250484
903.593970	0.250226
903.775770	0.250135
903.957551	0.249822
904.139314	0.249979
904.321059	0.249965
904.502786	0.249557
904.684494	0.249135
904.866185	0.248804
905.047857	0.248980
905.229510	0.248829
905.411146	0.248130
905.592763	0.247621
905.774363	0.247334
905.955943	0.246542
906.137506	0.246357
906.319051	0.246372
906.500577	0.245941
906.682085	0.245439
906.863575	0.245391
907.045046	0.245847
907.226500	0.245680
907.407935	0.245375
907.589352	0.245775
907.770750	0.245594
907.952131	0.245658
908.133493	0.245346
908.314837	0.244893
908.496163	0.244372
908.677470	0.243605
908.858760	0.243386
909.040031	0.243195
909.221284	0.242568
909.402518	0.242103
909.583735	0.241335
909.764933	0.240958
909.946113	0.240928
910.127275	0.240683
910.308418	0.240343
910.489544	0.240260
910.670651	0.240154
910.851740	0.239749
911.032810	0.239403
911.213863	0.239211
911.394897	0.238797
911.575913	0.238408
911.756911	0.238134
911.937890	0.238581
912.118851	0.238341
912.299794	0.237745
912.480719	0.237344
912.661626	0.237361
912.842514	0.236847
913.023384	0.236408
913.204236	0.236037
913.385070	0.235468
913.565886	0.234494
913.746683	0.233985
913.927462	0.233216
914.108223	0.233066
914.288965	0.232512
914.469690	0.232487
914.650396	0.231825
914.831084	0.231613
915.011754	0.231539
915.192405	0.231628
915.373038	0.231663
915.553653	0.231668
915.734250	0.231102
915.914829	0.230474
916.095389	0.229702
916.275931	0.229596
916.456455	0.228886
916.636961	0.228079
916.817448	0.227119
916.997917	0.226223
917.178368	0.225807
917.358801	0.225645
917.539216	0.225524
917.719612	0.225561
917.899990	0.225432
918.080350	0.224842
918.260692	0.224447
918.441015	0.223580
918.621320	0.223297
918.801607	0.222855
918.981876	0.222250
919.162127	0.220870
919.342359	0.219820
919.522573	0.218757
919.702769	0.218120
919.882947	0.217588
920.063106	0.217885
920.243247	0.217105
920.423370	0.216608
920.603475	0.216224
920.783562	0.215987
920.963630	0.216056
921.143680	0.216322
921.323712	0.215737
921.503725	0.215712
921.683721	0.214957
921.863698	0.214086
922.043657	0.213431
922.223598	0.212709
922.403520	0.212584
922.583424	0.211853
922.763311	0.210691
922.943178	0.210689
923.123028	0.209730
923.302859	0.209924
923.482673	0.209986
923.662467	0.209311
923.842244	0.208984
924.022003	0.208594
924.201743	0.207715
924.381465	0.207664
924.561169	0.207115
924.740854	0.206692
924.920522	0.205404
925.100171	0.204680
925.279802	0.204640
925.459414	0.204212
925.639009	0.203447
925.818585	0.202791
925.998143	0.201497
926.177683	0.200491
926.357205	0.199924
926.536708	0.199012
926.716193	0.198613
926.895660	0.197435
927.075109	0.197486
927.254539	0.197008
927.433951	0.196654
927.613345	0.196300
927.792721	0.196422
927.972079	0.195107
928.151418	0.194408
928.330739	0.193493
928.510042	0.192944
928.689327	0.191844
928.868593	0.191240
929.047841	0.190548
929.227071	0.190645
929.406283	0.189210
929.585476	0.189416
929.764652	0.189248
929.943809	0.188386
930.122948	0.186901
930.302068	0.185933
930.481171	0.185171
930.660255	0.184499
930.839321	0.183598
931.018369	0.182790
931.197398	0.181466
931.376409	0.180644
931.555402	0.179617
931.734377	0.179629
931.913334	0.179009
932.092272	0.178430
932.271192	0.177470
932.450094	0.176378
932.628978	0.176679
932.807844	0.176409
932.986691	0.175607
933.165520	0.175880
933.344331	0.175603
933.523123	0.175150
933.701898	0.173839
933.880654	0.173338
934.059392	0.172900
934.238111	0.171629
934.416813	0.171275
934.595496	0.170517
934.774161	0.169594
934.952808	0.168959
935.131437	0.167423
935.310047	0.166851
935.488639	0.165983
935.667213	0.165134
935.845769	0.164226
936.024306	0.163364
936.202825	0.162060
936.381326	0.161036
936.559809	0.160425
936.738274	0.159841
936.916720	0.159303
937.095148	0.158593
937.273558	0.158436
937.451950	0.157973
937.630323	0.157530
937.808678	0.157553
937.987015	0.157468
938.165334	0.156179
938.343635	0.155411
938.521917	0.155235
938.700181	0.154303
938.878427	0.153252
939.056655	0.153023
939.234864	0.151138
939.413055	0.150364
939.591228	0.148997
939.769383	0.147991
939.947519	0.146917
940.125638	0.145783
940.303738	0.145481
940.481820	0.144361
940.659883	0.143515
940.837929	0.143326
941.015956	0.143181
941.193965	0.142465
941.371955	0.141475
941.549928	0.141296
941.727882	0.140676
941.905818	0.140578
942.083736	0.139172
942.261636	0.137605
942.439517	0.137028
942.617380	0.135274
942.795225	0.134208
942.973052	0.134246
943.150860	0.134402
943.328651	0.134035
943.506423	0.132987
943.684176	0.132251
943.861912	0.131930
944.039629	0.132250
944.217328	0.132068
944.395009	0.132295
944.572672	0.131445
944.750317	0.130160
944.927943	0.128869
945.105551	0.128743
945.283141	0.129318
945.460712	0.127803
945.638265	0.126415
945.815801	0.126736
945.993317	0.126436
946.170816	0.124963
946.348297	0.124056
946.525759	0.124140
946.703203	0.122540
946.880629	0.121258
947.058036	0.121398
947.235425	0.120560
947.412797	0.119813
947.590149	0.117920
947.767484	0.117624
947.944800	0.116160
948.122099	0.115543
948.299379	0.114172
948.476640	0.112879
948.653884	0.112136
948.831109	0.111630
949.008316	0.109960
949.185505	0.108783
949.362676	0.109205
949.539828	0.110901
949.716962	0.109258
949.894078	0.109523
950.071176	0.110631
950.248256	0.111684
950.425317	0.111405
950.602360	0.111538
950.779385	0.111842
950.956391	0.111448
951.133380	0.108605
951.310350	0.108543
951.487302	0.108661
951.664235	0.108996
951.841151	0.107797
952.018048	0.107655
952.194927	0.106746
952.371788	0.106714
952.548631	0.105148
952.725455	0.105742
952.902261	0.105914
953.079049	0.106196
953.255819	0.103361
953.432570	0.102872
953.609303	0.102241
953.786018	0.102254
953.962715	0.102642
954.139394	0.102998
954.316054	0.101967
954.492696	0.102617
954.669320	0.099372
954.845926	0.099349
955.022513	0.098783
955.199083	0.098079
955.375634	0.097277
955.552166	0.096398
955.728681	0.095488
955.905177	0.096453
956.081655	0.095820
956.258115	0.097970
956.434557	0.099400
956.610980	0.099133
956.787385	0.097976
956.963772	0.097887
957.140141	0.097340
957.316492	0.098804
957.492824	0.096900
957.669138	0.095045
957.845434	0.094209
958.021712	0.093321
958.197971	0.095206
958.374212	0.095751
958.550435	0.096608
958.726640	0.096011
958.902826	0.094977
959.078995	0.096943
959.255145	0.097148
959.431277	0.097008
959.607390	0.097610
959.783486	0.094710
959.959563	0.094381
960.135622	0.093454
960.311662	0.094737
960.487685	0.095711
960.663689	0.094647
960.839675	0.095484
961.015643	0.095159
961.191593	0.094466
961.367524	0.095904
961.543437	0.096930
961.719332	0.096237
961.895209	0.095218
962.071067	0.094410
962.246907	0.095190
962.422730	0.095715
962.598533	0.096738
962.774319	0.096088
962.950086	0.095816
963.125835	0.094648
963.301566	0.095389
963.477279	0.095787
963.652973	0.095281
963.828650	0.094764
964.004308	0.094165
964.179947	0.092785
964.355569	0.092288
964.531172	0.092023
964.706757	0.093675
964.882324	0.094010
965.057873	0.093197
965.233403	0.094863
965.408916	0.094101
965.584410	0.092615
965.759885	0.093199
965.935343	0.093268
966.110782	0.093285
966.286203	0.092992
966.461606	0.093068
966.636991	0.092121
966.812357	0.091597
966.987705	0.092902
967.163035	0.096140
967.338347	0.096145
967.513641	0.098330
967.688916	0.098788
967.864173	0.097708
968.039412	0.097846
968.214632	0.098374
968.389835	0.098136
968.565019	0.098043
968.740185	0.096283
968.915333	0.097217
969.090462	0.095357
969.265573	0.094744
969.440667	0.096091
969.615741	0.094939
969.790798	0.096469
969.965836	0.095339
970.140856	0.094416
970.315858	0.092904
970.490842	0.093382
970.665808	0.095882
970.840755	0.096177
971.015684	0.094128
971.190595	0.096787
971.365487	0.096438
971.540362	0.097774
971.715218	0.098559
971.890056	0.100435
972.064875	0.098608
972.239677	0.097085
972.414460	0.095955
972.589225	0.097633
972.763972	0.094930
972.938700	0.095715
973.113411	0.094550
973.288103	0.092571
973.462777	0.091684
973.637432	0.091613
973.812070	0.092491
973.986689	0.092170
974.161290	0.092741
974.335873	0.092826
974.510437	0.091254
974.684984	0.091462
974.859512	0.093580
975.034022	0.094436
975.208513	0.094579
975.382987	0.095359
975.557442	0.096912
975.731879	0.096565
975.906298	0.098040
976.080698	0.097953
976.255080	0.099558
976.429445	0.098336
976.603790	0.097417
976.778118	0.098353
976.952427	0.097192
977.126719	0.097227
977.300992	0.095565
977.475246	0.095312
977.649483	0.097527
977.823701	0.097888
977.997901	0.099529
978.172083	0.099155
978.346247	0.100694
978.520392	0.100700
978.694519	0.099718
978.868628	0.100395
979.042719	0.099018
979.216791	0.098734
979.390845	0.097904
979.564882	0.097827
979.738899	0.099373
979.912899	0.096563
980.086880	0.096135
980.260843	0.096991
980.434788	0.097439
980.608715	0.098671
980.782623	0.097895
980.956514	0.097491
981.130386	0.098047
981.304240	0.097420
981.478075	0.099655
981.651892	0.099142
981.825692	0.099347
981.999472	0.098123
982.173235	0.096889
982.346980	0.095873
982.520706	0.096029
982.694414	0.093578
982.868104	0.093804
983.041775	0.094002
983.215428	0.095009
983.389064	0.093516
983.562680	0.094601
983.736279	0.097767
983.909860	0.099161
984.083422	0.099431
984.256966	0.099798
984.430491	0.098758
984.603999	0.097682
984.777488	0.097673
984.950959	0.098351
985.124412	0.099675
985.297847	0.098194
985.471263	0.097310
985.644661	0.098274
985.818041	0.098493
985.991403	0.100523
986.164747	0.100496
986.338072	0.099189
986.511379	0.099280
986.684668	0.097231
986.857938	0.096445
987.031191	0.096106
987.204425	0.095504
987.377641	0.097548
987.550839	0.095419
987.724018	0.094141
987.897179	0.095035
988.070322	0.095588
988.243447	0.096688
988.416554	0.097206
988.589642	0.098422
988.762712	0.096603
988.935764	0.094121
989.108798	0.095164
989.281813	0.096683
989.454811	0.096938
989.627790	0.096949
989.800751	0.095294
989.973693	0.095821
990.146617	0.095771
990.319524	0.095516
990.492412	0.095612
990.665281	0.095964
990.838133	0.094935
991.010966	0.094134
991.183781	0.094209
991.356578	0.095766
991.529356	0.094968
991.702117	0.093878
991.874859	0.095978
992.047583	0.097612
992.220288	0.097257
992.392976	0.098393
992.565645	0.098595
992.738296	0.097522
992.910929	0.098823
993.083543	0.098882
993.256139	0.099836
993.428718	0.099524
993.601277	0.097818
993.773819	0.096766
993.946342	0.096155
994.118848	0.097460
994.291335	0.099034
994.463803	0.098049
994.636254	0.099683
994.808686	0.098136
994.981100	0.097381
995.153496	0.095984
995.325874	0.096914
995.498233	0.098638
995.670574	0.095997
995.842897	0.094704
996.015202	0.094472
996.187488	0.093182
996.359757	0.094301
996.532007	0.094785
996.704239	0.097406
996.876452	0.097904
997.048648	0.097137
997.220825	0.097784
997.392984	0.097611
997.565124	0.096876
997.737247	0.096931
997.909351	0.097424
998.081437	0.097298
998.253505	0.096470
998.425554	0.096752
998.597586	0.095276
998.769599	0.096273
998.941594	0.095733
999.113571	0.095254
999.285529	0.094993
999.457469	0.093754
999.629391	0.093981
999.801295	0.094788
999.973181	0.093282
1000.145048	0.093709
1000.316897	0.093230
1000.488728	0.094899
1000.660541	0.095798
1000.832335	0.094886
1001.004111	0.095247
1001.175869	0.093205
1001.347609	0.092235
1001.519331	0.092537
1001.691034	0.090693
1001.862719	0.090087
1002.034386	0.088430
1002.206035	0.089609
1002.377665	0.090845
1002.549277	0.091640
1002.720871	0.094132
1002.892447	0.093286
1003.064004	0.093168
1003.235544	0.095639
1003.407065	0.094428
1003.578568	0.094925
1003.750052	0.094443
1003.921519	0.094477
1004.092967	0.093798
1004.264397	0.093170
1004.435809	0.094575
1004.607202	0.094749
1004.778577	0.092723
1004.949934	0.095106
1005.121273	0.095728
1005.292594	0.094430
1005.463896	0.092094
1005.635180	0.092257
1005.806446	0.092212
1005.977694	0.092328
1006.148923	0.092841
1006.320135	0.094315
1006.491328	0.092617
1006.662503	0.092259
1006.833659	0.093104
1007.004798	0.094197
1007.175918	0.094826
1007.347020	0.094641
1007.518103	0.094166
1007.689169	0.093979
1007.860216	0.092877
1008.031245	0.093220
1008.202256	0.093943
1008.373248	0.093848
1008.544223	0.092975
1008.715179	0.091740
1008.886117	0.090864
1009.057036	0.092668
1009.227938	0.092531
1009.398821	0.093488
1009.569686	0.093719
1009.740533	0.091960
1009.911361	0.091133
1010.082172	0.092000
1010.252964	0.091008
1010.423738	0.092783
1010.594493	0.091436
1010.765231	0.091983
1010.935950	0.092773
1011.106651	0.092386
1011.277334	0.094390
1011.447998	0.095480
1011.618645	0.095177
1011.789273	0.096330
1011.959882	0.096918
1012.130474	0.095741
1012.301048	0.096417
1012.471603	0.096562
1012.642140	0.097951
1012.812658	0.096359
1012.983159	0.095897
1013.153641	0.095828
1013.324105	0.098128
1013.494551	0.096220
1013.664979	0.097627
1013.835388	0.096735
1014.005779	0.095255
1014.176152	0.093425
1014.346507	0.094148
1014.516843	0.094172
1014.687162	0.094207
1014.857462	0.091290
1015.027744	0.090962
1015.198007	0.089609
1015.368252	0.089018
1015.538480	0.088666
1015.708689	0.088700
1015.878879	0.088791
1016.049052	0.088744
1016.219206	0.090610
1016.389342	0.090622
1016.559460	0.091121
1016.729559	0.091021
1016.899641	0.090985
1017.069704	0.092575
1017.239749	0.093482
1017.409775	0.093286
1017.579784	0.092822
1017.749774	0.091543
1017.919746	0.092107
1018.089700	0.092249
1018.259635	0.092669
1018.429553	0.092325
1018.599452	0.093352
1018.769333	0.093830
1018.939195	0.093258
1019.109040	0.092628
1019.278866	0.092315
1019.448674	0.091316
1019.618464	0.090854
1019.788235	0.090233
1019.957989	0.090161
1020.127724	0.089435
1020.297441	0.089111
1020.467139	0.088887
1020.636820	0.089069
1020.806482	0.088189
1020.976126	0.088378
1021.145752	0.087879
1021.315359	0.088284
1021.484948	0.087437
1021.654519	0.085103
1021.824072	0.085202
1021.993607	0.087602
1022.163123	0.088782
1022.332621	0.089570
1022.502101	0.089433
1022.671563	0.090117
1022.841007	0.091070
1023.010432	0.091434
1023.179839	0.092611
1023.349228	0.092538
1023.518598	0.089330
1023.687951	0.089201
1023.857285	0.089429
1024.026601	0.089657
1024.195899	0.088257
1024.365178	0.088547
1024.534439	0.087797
1024.703682	0.087489
1024.872907	0.087248
1025.042114	0.088049
1025.211302	0.085963
1025.380472	0.085564
1025.549624	0.086967
1025.718758	0.088961
1025.887873	0.086726
1026.056970	0.087996
1026.226049	0.088826
1026.395110	0.088846
1026.564153	0.090040
1026.733177	0.092080
1026.902183	0.092413
1027.071171	0.091663
1027.240141	0.091610
1027.409092	0.094310
1027.578026	0.094577
1027.746940	0.094274
1027.915837	0.094032
1028.084716	0.093688
1028.253576	0.091260
1028.422418	0.092720
1028.591242	0.092191
1028.760048	0.091763
1028.928835	0.091582
1029.097604	0.091598
1029.266355	0.092811
1029.435088	0.094609
1029.603803	0.093742
1029.772499	0.093990
1029.941177	0.091925
1030.109837	0.092144
1030.278478	0.091433
1030.447102	0.089711
1030.615707	0.089707
1030.784294	0.087763
1030.952863	0.087729
1031.121413	0.088783
1031.289945	0.090188
1031.458460	0.090569
1031.626955	0.090805
1031.795433	0.090718
1031.963892	0.092366
1032.132334	0.091840
1032.300756	0.092415
1032.469161	0.090739
1032.637548	0.090730
1032.805916	0.091780
1032.974266	0.092433
1033.142598	0.091243
1033.310911	0.091167
1033.479207	0.090327
1033.647484	0.091405
1033.815743	0.091153
1033.983983	0.092219
1034.152206	0.093189
1034.320410	0.090984
1034.488596	0.090977
1034.656764	0.092170
1034.824914	0.092789
1034.993045	0.092613
1035.161158	0.092311
1035.329253	0.092260
1035.497330	0.090938
1035.665388	0.088383
1035.833428	0.089746
1036.001450	0.088061
1036.169454	0.088013
1036.337440	0.087791
1036.505407	0.088508
1036.673356	0.088585
1036.841287	0.089206
1037.009200	0.090778
1037.177094	0.090981
1037.344970	0.090613
1037.512828	0.091654
1037.680668	0.090442
1037.848489	0.089155
1038.016293	0.087768
1038.184078	0.087332
1038.351845	0.086746
1038.519593	0.087030
1038.687324	0.088161
1038.855036	0.088119
1039.022730	0.089422
1039.190406	0.090819
1039.358063	0.091917
1039.525702	0.091132
1039.693323	0.090501
1039.860926	0.089834
1040.028511	0.086781
1040.196077	0.086667
1040.363625	0.086347
1040.531155	0.084440
1040.698667	0.083749
1040.866161	0.083728
1041.033636	0.085164
1041.201093	0.085908
1041.368532	0.087958
1041.535952	0.089759
1041.703355	0.088617
1041.870739	0.089778
1042.038105	0.090916
1042.205452	0.092680
1042.372782	0.093269
1042.540093	0.092354
1042.707386	0.092386
1042.874661	0.090967
1043.041918	0.090639
1043.209156	0.091067
1043.376376	0.090516
1043.543578	0.089775
1043.710762	0.088829
1043.877927	0.087770
1044.045074	0.090304
1044.212203	0.089291
1044.379314	0.089534
1044.546407	0.091483
1044.713481	0.092455
1044.880537	0.092412
1045.047575	0.090885
1045.214595	0.091280
1045.381596	0.091605
1045.548579	0.089611
1045.715544	0.089165
1045.882491	0.089405
1046.049420	0.087232
1046.216330	0.087118
1046.383222	0.087695
1046.550096	0.089997
1046.716951	0.089887
1046.883789	0.088430
1047.050608	0.089211
1047.217409	0.090829
1047.384192	0.093101
1047.550956	0.093176
1047.717703	0.093005
1047.884431	0.093898
1048.051140	0.092955
1048.217832	0.092777
1048.384505	0.092566
1048.551161	0.090819
1048.717798	0.091810
1048.884416	0.089714
1049.051017	0.089254
1049.217599	0.089691
1049.384163	0.089625
1049.550709	0.089976
1049.717237	0.087956
1049.883746	0.088659
1050.050237	0.090520
1050.216710	0.088670
1050.383165	0.087736
1050.549601	0.087047
1050.716019	0.086399
1050.882420	0.084868
1051.048801	0.085436
1051.215165	0.087509
1051.381510	0.089649
1051.547837	0.087308
1051.714146	0.087885
1051.880437	0.086728
1052.046709	0.087762
1052.212964	0.087687
1052.379200	0.088422
1052.545417	0.087745
1052.711617	0.087964
1052.877798	0.088825
1053.043961	0.090658
1053.210106	0.090149
1053.376233	0.091097
1053.542341	0.092263
1053.708432	0.091610
1053.874504	0.089931
1054.040557	0.089999
1054.206593	0.089205
1054.372610	0.088245
1054.538609	0.087861
1054.704590	0.087784
1054.870553	0.088506
1055.036497	0.088388
1055.202424	0.088854
1055.368331	0.090326
1055.534221	0.089983
1055.700093	0.089133
1055.865946	0.086239
1056.031781	0.087806
1056.197598	0.085437
1056.363397	0.084416
1056.529177	0.083399
1056.694939	0.083895
1056.860683	0.082072
1057.026409	0.082518
1057.192116	0.081750
1057.357806	0.083305
1057.523477	0.082237
1057.689130	0.086190
1057.854764	0.085860
1058.020381	0.086169
1058.185979	0.085181
1058.351559	0.085525
1058.517120	0.086185
1058.682664	0.085725
1058.848189	0.086847
1059.013696	0.084645
1059.179185	0.082633
1059.344656	0.083713
1059.510108	0.082450
1059.675542	0.081082
1059.840958	0.083034
1060.006356	0.082188
1060.171735	0.083755
1060.337096	0.083381
1060.502439	0.084499
1060.667764	0.084050
1060.833071	0.083744
1060.998359	0.083260
1061.163629	0.085006
1061.328881	0.082801
1061.494115	0.081091
1061.659330	0.082109
1061.824527	0.081563
1061.989706	0.081437
1062.154867	0.082393
1062.320010	0.082620
1062.485134	0.083817
1062.650240	0.083474
1062.815328	0.085154
1062.980398	0.086537
1063.145449	0.085959
1063.310482	0.086689
1063.475497	0.086809
1063.640494	0.086589
1063.805473	0.086184
1063.970433	0.084758
1064.135375	0.084024
1064.300299	0.083259
1064.465204	0.081786
1064.630092	0.082328
1064.794961	0.081716
1064.959812	0.082926
1065.124645	0.083734
1065.289459	0.083995
1065.454256	0.084979
1065.619034	0.087026
1065.783793	0.085666
1065.948535	0.086102
1066.113258	0.085307
1066.277964	0.084880
1066.442651	0.083102
1066.607319	0.084134
1066.771970	0.083384
1066.936602	0.084537
1067.101216	0.083630
1067.265812	0.085317
1067.430389	0.086337
1067.594949	0.086000
1067.759490	0.087159
1067.924013	0.087450
1068.088518	0.086751
1068.253004	0.088593
1068.417472	0.089242
1068.581922	0.087981
1068.746354	0.087666
1068.910768	0.089700
1069.075163	0.090584
1069.239540	0.089093
1069.403899	0.086870
1069.568240	0.086009
1069.732562	0.084642
1069.896866	0.084556
1070.061152	0.086038
1070.225420	0.086191
1070.389670	0.083595
1070.553901	0.082681
1070.718114	0.083276
1070.882309	0.085713
1071.046486	0.084617
1071.210644	0.086094
1071.374784	0.082633
1071.538906	0.081684
1071.703010	0.079833
1071.867096	0.082471
1072.031163	0.083667
1072.195212	0.083310
1072.359243	0.083891
1072.523256	0.084917
1072.687250	0.084055
1072.851226	0.087761
1073.015184	0.086554
1073.179124	0.087227
1073.343045	0.083985
1073.506949	0.081861
1073.670834	0.083653
1073.834701	0.084472
1073.998549	0.084771
1074.162380	0.083984
1074.326192	0.084466
1074.489986	0.084956
1074.653761	0.085646
1074.817519	0.086865
1074.981258	0.087192
1075.144979	0.087077
1075.308682	0.085446
1075.472367	0.085193
1075.636033	0.087250
1075.799681	0.085154
1075.963311	0.086424
1076.126923	0.087082
1076.290516	0.087509
1076.454092	0.089774
1076.617649	0.089939
1076.781187	0.089704
1076.944708	0.090523
1077.108210	0.088921
1077.271695	0.088468
1077.435160	0.088084
1077.598608	0.087646
1077.762038	0.087142
1077.925449	0.085154
1078.088842	0.083345
1078.252217	0.084507
1078.415573	0.084559
1078.578912	0.086080
1078.742232	0.087270
1078.905534	0.088353
1079.068817	0.088348
1079.232083	0.088092
1079.395330	0.090825
1079.558559	0.092555
1079.721770	0.092309
1079.884962	0.090330
1080.048136	0.088392
1080.211293	0.088116
1080.374430	0.089137
1080.537550	0.087798
1080.700651	0.088447
1080.863735	0.086843
1081.026800	0.084749
1081.189846	0.084447
1081.352875	0.084987
1081.515885	0.084423
1081.678877	0.083603
1081.841851	0.082156
1082.004807	0.084513
1082.167744	0.083356
1082.330663	0.082526
1082.493564	0.083578
1082.656447	0.081260
1082.819312	0.080108
1082.982158	0.080837
1083.144986	0.083033
1083.307796	0.082677
1083.470587	0.083157
1083.633361	0.084873
1083.796116	0.084488
1083.958853	0.083068
1084.121571	0.088553
1084.284272	0.089317
1084.446954	0.090500
1084.609618	0.088192
1084.772264	0.089722
1084.934892	0.090581
1085.097501	0.090977
1085.260092	0.090949
1085.422665	0.093171
1085.585220	0.088911
1085.747756	0.091067
1085.910274	0.091982
1086.072774	0.091733
1086.235256	0.090548
1086.397720	0.085823
1086.560165	0.083213
1086.722592	0.084394
1086.885001	0.083162
1087.047392	0.083411
1087.209764	0.082862
1087.372119	0.079857
1087.534455	0.079301
1087.696772	0.080088
1087.859072	0.081298
1088.021353	0.081335
1088.183616	0.079943
1088.345861	0.080296
1088.508088	0.079754
1088.670296	0.079765
1088.832486	0.081036
1088.994658	0.083905
1089.156812	0.082438
1089.318948	0.083239
1089.481065	0.082909
1089.643164	0.085163
1089.805245	0.084388
1089.967308	0.086920
1090.129352	0.087763
1090.291378	0.085796
1090.453386	0.085602
1090.615376	0.086717
1090.777347	0.087813
1090.939301	0.089331
1091.101236	0.088575
1091.263153	0.090241
1091.425051	0.089537
1091.586932	0.088820
1091.748794	0.091729
1091.910638	0.088769
1092.072463	0.083754
1092.234271	0.081338
1092.396060	0.081501
1092.557831	0.079636
1092.719584	0.078693
1092.881319	0.079333
1093.043035	0.076229
1093.204733	0.072738
1093.366413	0.075024
1093.528075	0.079239
1093.689718	0.080942
1093.851343	0.080080
1094.012950	0.079191
1094.174539	0.076392
1094.336110	0.074352
1094.497662	0.074610
1094.659196	0.077418
1094.820712	0.076413
1094.982210	0.074556
1095.143689	0.073923
1095.305151	0.072492
1095.466594	0.073546
1095.628018	0.077949
1095.789425	0.079959
1095.950813	0.079814
1096.112183	0.078138
1096.273535	0.077831
1096.434869	0.082362
1096.596184	0.083613
1096.757482	0.087352
1096.918761	0.088932
1097.080021	0.087443
1097.241264	0.084903
1097.402488	0.088524
1097.563694	0.088908
1097.724882	0.090162
1097.886052	0.088736
1098.047203	0.088268
1098.208336	0.087179
1098.369451	0.088000
1098.530548	0.084098
1098.691627	0.084325
1098.852687	0.081770
1099.013729	0.081474
1099.174753	0.082081
1099.335758	0.079952
1099.496746	0.081397
1099.657715	0.079703
1099.818666	0.077409
1099.979599	0.079209
1100.140513	0.080609
1100.301409	0.079405
1100.462287	0.082687
1100.623147	0.079449
1100.783989	0.083165
1100.944812	0.078430
1101.105617	0.079334
1101.266404	0.078835
1101.427173	0.079930
1101.587923	0.078634
1101.748656	0.080446
1101.909370	0.075541
1102.070066	0.073412
1102.230743	0.070373
1102.391403	0.075789
1102.552044	0.075898
1102.712667	0.077192
1102.873271	0.079117
1103.033858	0.081688
1103.194426	0.080864
1103.354976	0.081684
1103.515508	0.086238
1103.676021	0.082740
1103.836517	0.079688
1103.996994	0.080616
1104.157453	0.081229
1104.317893	0.078523
1104.478316	0.076895
1104.638720	0.077051
1104.799106	0.079203
1104.959474	0.078804
1105.119823	0.085249
1105.280155	0.085876
1105.440468	0.084741
1105.600763	0.083775
1105.761039	0.083653
1105.921298	0.082002
1106.081538	0.085241
1106.241760	0.085039
1106.401964	0.086609
1106.562149	0.082846
1106.722316	0.081513
1106.882465	0.078397
1107.042596	0.080215
1107.202709	0.083856
1107.362803	0.084754
1107.522879	0.084556
1107.682937	0.086111
1107.842977	0.085779
1108.002999	0.085614
1108.163002	0.088170
1108.322987	0.090457
1108.482954	0.092508
1108.642902	0.093227
1108.802833	0.094301
1108.962745	0.093526
1109.122639	0.088553
1109.282515	0.086477
1109.442372	0.086524
1109.602211	0.084276
1109.762032	0.084571
1109.921835	0.078488
1110.081620	0.076746
1110.241386	0.076948
1110.401134	0.076275
1110.560864	0.079216
1110.720576	0.078355
1110.880269	0.076617
1111.039945	0.079446
1111.199602	0.079339
1111.359240	0.084857
1111.518861	0.081848
1111.678463	0.081790
1111.838047	0.077659
1111.997613	0.079168
1112.157161	0.078565
1112.316690	0.079053
1112.476202	0.075115
1112.635695	0.074280
1112.795169	0.070694
1112.954626	0.073564
1113.114064	0.074586
1113.273484	0.077748
1113.432886	0.079460
1113.592270	0.080710
1113.751635	0.082574
1113.910983	0.081424
1114.070312	0.086171
1114.229622	0.082509
1114.388915	0.082856
1114.548189	0.079204
1114.707445	0.078031
1114.866683	0.074580
1115.025903	0.073145
1115.185104	0.075598
1115.344287	0.081408
1115.503452	0.075450
1115.662599	0.081043
1115.821727	0.077723
1115.980838	0.081586
1116.139930	0.084746
1116.299004	0.081939
1116.458059	0.086081
1116.617097	0.083300
1116.776116	0.078790
1116.935117	0.081827
1117.094099	0.081908
1117.253064	0.084488
1117.412010	0.081805
1117.570938	0.080861
1117.729848	0.080123
1117.888740	0.077288
1118.047613	0.077841
1118.206468	0.081208
1118.365305	0.080647
1118.524124	0.081344
1118.682924	0.078650
1118.841707	0.078260
1119.000471	0.076863
1119.159216	0.078598
1119.317944	0.082854
1119.476653	0.082551
1119.635344	0.081150
1119.794017	0.083298
1119.952672	0.083989
1120.111308	0.086528
1120.269927	0.086983
1120.428527	0.087387
1120.587108	0.088800
1120.745672	0.086274
1120.904217	0.088489
1121.062744	0.085516
1121.221253	0.086100
1121.379744	0.080723
1121.538216	0.082552
1121.696671	0.082940
1121.855107	0.077011
1122.013524	0.077699
1122.171924	0.076103
1122.330305	0.074263
1122.488668	0.075757
1122.647013	0.071769
1122.805340	0.074983
1122.963648	0.072175
1123.121938	0.071488
1123.280210	0.075995
1123.438464	0.072842
1123.596700	0.075464
1123.754917	0.074625
1123.913116	0.077499
1124.071297	0.077335
1124.229459	0.077980
1124.387604	0.080463
1124.545730	0.080918
1124.703838	0.083584
1124.861928	0.087030
1125.019999	0.089270
1125.178052	0.089741
1125.336088	0.086386
1125.494104	0.088675
1125.652103	0.085926
1125.810083	0.085536
1125.968045	0.086960
1126.125989	0.084511
1126.283915	0.082345
1126.441823	0.074583
1126.599712	0.074322
1126.757583	0.076830
1126.915436	0.072930
1127.073270	0.073351
1127.231087	0.069754
1127.388885	0.069598
1127.546665	0.071270
1127.704426	0.071985
1127.862170	0.074125
1128.019895	0.073833
1128.177602	0.073022
1128.335291	0.078724
1128.492961	0.080814
1128.650614	0.081937
1128.808248	0.083538
1128.965864	0.083521
1129.123461	0.085276
1129.281041	0.086791
1129.438602	0.082623
1129.596145	0.081110
1129.753670	0.076027
1129.911176	0.070181
1130.068665	0.068340
1130.226135	0.064682
1130.383587	0.060297
1130.541020	0.060168
1130.698436	0.060475
1130.855833	0.064324
1131.013212	0.060697
1131.170573	0.062601
1131.327915	0.063950
1131.485239	0.067318
1131.642545	0.068462
1131.799833	0.073037
1131.957103	0.068643
1132.114354	0.067655
1132.271588	0.068090
1132.428803	0.072707
1132.585999	0.072973
1132.743178	0.078326
1132.900338	0.072464
1133.057480	0.075915
1133.214604	0.075634
1133.371710	0.084799
1133.528797	0.082871
1133.685866	0.086424
1133.842917	0.083564
1133.999950	0.082108
1134.156964	0.078624
1134.313960	0.082406
1134.470938	0.080876
1134.627898	0.077452
1134.784840	0.067836
1134.941763	0.067729
1135.098668	0.059092
1135.255555	0.060959
1135.412424	0.061820
1135.569274	0.061234
1135.726107	0.063546
1135.882921	0.063307
1136.039716	0.065686
1136.196494	0.069651
1136.353253	0.068326
1136.509995	0.068787
1136.666717	0.063469
1136.823422	0.063352
1136.980109	0.064851
1137.136777	0.059659
1137.293427	0.056789
1137.450059	0.057623
1137.606672	0.055641
1137.763267	0.057003
1137.919844	0.066719
1138.076403	0.071796
1138.232944	0.073480
1138.389466	0.074938
1138.545971	0.079042
1138.702457	0.081459
1138.858924	0.080956
1139.015374	0.080088
1139.171805	0.079759
1139.328218	0.074360
1139.484613	0.073457
1139.640990	0.071784
1139.797348	0.069899
1139.953688	0.067189
1140.110010	0.065994
1140.266314	0.062507
1140.422600	0.066789
1140.578867	0.066699
1140.735116	0.071624
1140.891347	0.070455
1141.047559	0.071670
1141.203754	0.071419
1141.359930	0.077403
1141.516088	0.079427
1141.672228	0.081513
1141.828349	0.078379
1141.984452	0.079347
1142.140537	0.071125
1142.296604	0.075844
1142.452653	0.073959
1142.608683	0.071462
1142.764695	0.071323
1142.920689	0.071217
1143.076665	0.069949
1143.232622	0.071072
1143.388562	0.074908
1143.544483	0.080171
1143.700385	0.073893
1143.856270	0.069620
1144.012136	0.065602
1144.167985	0.056635
1144.323814	0.054505
1144.479626	0.061418
1144.635420	0.056664
1144.791195	0.049177
1144.946952	0.046745
1145.102691	0.052301
1145.258411	0.054222
1145.414113	0.061495
1145.569798	0.065302
1145.725463	0.060098
1145.881111	0.052641
1146.036741	0.057142
1146.192352	0.059775
1146.347945	0.055460
1146.503519	0.047494
1146.659076	0.052142
1146.814614	0.051615
1146.970134	0.044220
1147.125636	0.045724
1147.281120	0.047261
1147.436585	0.045755
1147.592032	0.045228
1147.747461	0.045211
1147.902872	0.050396
1148.058265	0.047396
1148.213639	0.049700
1148.368995	0.057801
1148.524333	0.066749
1148.679653	0.063916
1148.834954	0.072441
1148.990237	0.068803
1149.145502	0.075151
1149.300749	0.071859
1149.455977	0.073030
1149.611188	0.070695
1149.766380	0.066860
1149.921553	0.059524
1150.076709	0.069648
1150.231846	0.064482
1150.386966	0.078283
1150.542066	0.076149
1150.697149	0.075191
1150.852214	0.072744
1151.007260	0.071034
1151.162288	0.072077
1151.317298	0.076817
1151.472289	0.067708
1151.627263	0.064111
1151.782218	0.058105
1151.937155	0.055774
1152.092073	0.056684
1152.246974	0.061662
1152.401856	0.060373
1152.556720	0.054484
1152.711566	0.051107
1152.866393	0.058688
1153.021203	0.058244
1153.175994	0.058331
1153.330767	0.061896
1153.485521	0.068333
1153.640258	0.063587
1153.794976	0.064589
1153.949676	0.073271
1154.104358	0.072673
1154.259021	0.071255
1154.413667	0.077059
1154.568294	0.073539
1154.722903	0.078610
1154.877493	0.074985
1155.032066	0.073881
1155.186620	0.073890
1155.341156	0.072232
1155.495674	0.073304
1155.650173	0.075454
1155.804654	0.067949
1155.959118	0.065930
1156.113562	0.057257
1156.267989	0.058043
1156.422397	0.068790
1156.576788	0.070346
1156.731160	0.072993
1156.885513	0.076781
1157.039849	0.072320
1157.194166	0.077370
1157.348465	0.079032
1157.502746	0.080733
1157.657009	0.077384
1157.811253	0.070510
1157.965479	0.074874
1158.119687	0.074935
1158.273877	0.066947
1158.428048	0.064149
1158.582201	0.064651
1158.736337	0.065018
1158.890453	0.065215
1159.044552	0.073219
1159.198632	0.071345
1159.352694	0.070170
1159.506738	0.067148
1159.660764	0.070157
1159.814771	0.072243
1159.968761	0.069957
1160.122732	0.069555
1160.276685	0.070130
1160.430619	0.064921
1160.584535	0.058073
1160.738434	0.048525
1160.892313	0.054727
1161.046175	0.055208
1161.200019	0.050010
1161.353844	0.048885
1161.507651	0.050168
1161.661440	0.053337
1161.815210	0.048247
1161.968962	0.055616
1162.122697	0.061760
1162.276412	0.052220
1162.430110	0.051373
1162.583789	0.050157
1162.737451	0.047850
1162.891094	0.051242
1163.044718	0.050915
1163.198325	0.060673
1163.351913	0.060224
1163.505483	0.062949
1163.659035	0.066992
1163.812569	0.061406
1163.966084	0.062971
1164.119581	0.067440
1164.273060	0.065307
1164.426521	0.058645
1164.579964	0.049745
1164.733388	0.042787
1164.886794	0.036617
1165.040182	0.036253
1165.193551	0.044625
1165.346903	0.044329
1165.500236	0.038190
1165.653551	0.035639
1165.806848	0.039001
1165.960126	0.041138
1166.113386	0.053994
1166.266628	0.052066
1166.419852	0.043365
1166.573058	0.038716
1166.726245	0.041231
1166.879414	0.041920
1167.032565	0.045092
1167.185698	0.041555
1167.338812	0.047968
1167.491909	0.038175
1167.644987	0.048691
1167.798046	0.062628
1167.951088	0.057390
1168.104111	0.056964
1168.257117	0.059904
1168.410103	0.057242
1168.563072	0.063958
1168.716023	0.059950
1168.868955	0.056211
1169.021869	0.047777
1169.174765	0.043689
1169.327642	0.053501
1169.480501	0.054113
1169.633343	0.055480
1169.786165	0.051157
1169.938970	0.040302
1170.091757	0.034738
1170.244525	0.042918
1170.397275	0.039973
1170.550007	0.034466
1170.702720	0.035602
1170.855415	0.040121
1171.008092	0.040991
1171.160751	0.046800
1171.313392	0.054871
1171.466014	0.102377
1171.618619	0.069288
1171.771205	0.069288
1171.923772	0.069288
