sample name	sample
index	170
start time	 02-18-2021  10:24:01 AM


Wavelength (nm)	Absorbance
494.344910	0.005866
494.563924	0.005866
494.782919	0.005866
495.001897	-0.140839
495.220856	-0.026610
495.439797	-0.032544
495.658719	-0.031739
495.877624	-0.030245
496.096510	-0.012616
496.315378	-0.024779
496.534227	-0.036748
496.753059	-0.020618
496.971872	-0.010701
497.190667	0.102935
497.409444	0.140344
497.628203	0.147137
497.846943	0.152250
498.065665	0.156084
498.284369	0.158986
498.503055	0.160758
498.721723	0.161909
498.940372	0.162235
499.159003	0.162153
499.377616	0.160937
499.596210	0.161081
499.814787	0.160729
500.033345	0.159863
500.251885	0.159735
500.470406	0.160250
500.688910	0.161091
500.907395	0.160863
501.125862	0.160656
501.344311	0.161378
501.562742	0.162769
501.781154	0.163188
501.999548	0.163168
502.217924	0.164189
502.436282	0.163886
502.654621	0.162721
502.872942	0.163279
503.091245	0.164682
503.309530	0.164422
503.527797	0.163529
503.746045	0.163717
503.964275	0.164848
504.182487	0.164127
504.400681	0.164839
504.618856	0.166178
504.837013	0.165971
505.055152	0.164423
505.273273	0.165044
505.491376	0.165913
505.709460	0.165918
505.927526	0.164887
506.145574	0.164967
506.363604	0.165194
506.581615	0.164803
506.799608	0.164700
507.017583	0.166317
507.235540	0.166756
507.453478	0.167144
507.671399	0.167449
507.889301	0.168936
508.107185	0.169620
508.325050	0.169204
508.542898	0.168982
508.760727	0.170288
508.978538	0.170589
509.196330	0.169944
509.414105	0.169489
509.631861	0.169289
509.849599	0.168670
510.067319	0.167682
510.285021	0.168109
510.502704	0.168421
510.720369	0.168202
510.938016	0.168414
511.155645	0.168838
511.373255	0.168728
511.590848	0.168967
511.808422	0.169639
512.025977	0.170600
512.243515	0.170449
512.461034	0.171045
512.678536	0.170004
512.896018	0.168957
513.113483	0.169765
513.330930	0.170192
513.548358	0.171377
513.765768	0.171441
513.983160	0.172223
514.200533	0.172481
514.417889	0.173382
514.635226	0.174682
514.852545	0.175417
515.069845	0.175024
515.287128	0.175892
515.504392	0.175409
515.721638	0.175233
515.938866	0.174863
516.156075	0.175354
516.373267	0.174982
516.590440	0.175236
516.807594	0.174499
517.024731	0.174094
517.241850	0.173684
517.458950	0.173636
517.676032	0.174231
517.893095	0.174313
518.110141	0.174895
518.327168	0.174581
518.544177	0.174907
518.761168	0.175900
518.978141	0.176199
519.195095	0.176063
519.412031	0.176547
519.628949	0.176227
519.845849	0.176073
520.062731	0.176221
520.279594	0.176594
520.496439	0.176420
520.713266	0.177142
520.930074	0.177378
521.146865	0.177521
521.363637	0.177507
521.580391	0.178118
521.797127	0.179189
522.013844	0.178703
522.230543	0.178300
522.447224	0.178171
522.663887	0.178484
522.880532	0.179217
523.097158	0.179809
523.313766	0.179947
523.530356	0.179812
523.746928	0.179169
523.963481	0.179161
524.180017	0.180049
524.396534	0.181198
524.613032	0.180890
524.829513	0.181061
525.045975	0.181553
525.262420	0.181780
525.478845	0.182374
525.695253	0.182838
525.911643	0.183478
526.128014	0.183491
526.344367	0.183069
526.560702	0.183189
526.777018	0.182702
526.993316	0.182605
527.209597	0.182201
527.425858	0.182438
527.642102	0.183406
527.858328	0.184242
528.074535	0.184404
528.290724	0.184948
528.506894	0.184418
528.723047	0.185473
528.939181	0.185867
529.155297	0.186726
529.371395	0.186943
529.587475	0.187035
529.803536	0.187043
530.019579	0.187559
530.235604	0.187487
530.451611	0.188805
530.667600	0.189110
530.883570	0.189432
531.099522	0.189826
531.315456	0.190430
531.531372	0.190079
531.747269	0.189854
531.963148	0.191069
532.179009	0.191669
532.394852	0.191811
532.610676	0.192028
532.826482	0.192169
533.042271	0.192800
533.258040	0.191927
533.473792	0.192324
533.689525	0.192743
533.905240	0.191840
534.120937	0.192273
534.336616	0.193041
534.552277	0.193827
534.767919	0.194266
534.983543	0.194574
535.199149	0.196293
535.414736	0.196612
535.630306	0.196799
535.845857	0.197299
536.061390	0.197857
536.276904	0.197388
536.492401	0.197260
536.707879	0.197701
536.923339	0.197826
537.138781	0.197973
537.354204	0.198655
537.569610	0.199379
537.784997	0.200007
538.000366	0.199894
538.215716	0.200445
538.431049	0.200928
538.646363	0.200664
538.861659	0.200590
539.076937	0.200281
539.292196	0.200346
539.507438	0.200536
539.722661	0.200827
539.937866	0.201443
540.153052	0.201862
540.368221	0.201981
540.583371	0.202764
540.798503	0.203414
541.013617	0.203615
541.228712	0.203999
541.443789	0.203801
541.658848	0.203923
541.873889	0.203684
542.088912	0.203982
542.303916	0.203763
542.518902	0.203669
542.733870	0.204138
542.948820	0.204639
543.163752	0.204683
543.378665	0.205349
543.593560	0.204984
543.808437	0.205219
544.023295	0.205224
544.238136	0.205666
544.452958	0.206256
544.667762	0.206288
544.882548	0.206191
545.097315	0.206535
545.312064	0.206706
545.526795	0.207397
545.741508	0.207929
545.956203	0.208709
546.170879	0.209131
546.385537	0.209428
546.600177	0.209694
546.814799	0.210258
547.029402	0.210406
547.243988	0.210481
547.458555	0.210888
547.673103	0.210655
547.887634	0.210164
548.102146	0.210356
548.316640	0.210448
548.531116	0.210505
548.745574	0.210221
548.960013	0.210178
549.174435	0.210553
549.388838	0.210809
549.603222	0.211618
549.817589	0.212351
550.031937	0.212097
550.246267	0.212561
550.460579	0.213198
550.674873	0.214116
550.889148	0.214655
551.103405	0.214603
551.317644	0.214710
551.531865	0.214527
551.746068	0.213869
551.960252	0.214743
552.174418	0.214945
552.388566	0.214991
552.602696	0.214612
552.816807	0.214827
553.030900	0.215257
553.244975	0.215192
553.459032	0.215393
553.673070	0.215881
553.887091	0.215546
554.101093	0.215820
554.315077	0.215752
554.529042	0.216395
554.742990	0.216505
554.956919	0.216849
555.170830	0.217424
555.384722	0.217202
555.598597	0.217559
555.812453	0.217965
556.026291	0.218059
556.240111	0.218420
556.453913	0.218197
556.667696	0.217799
556.881461	0.217692
557.095208	0.218108
557.308937	0.218963
557.522647	0.219362
557.736339	0.219605
557.950013	0.219496
558.163669	0.219348
558.377307	0.220020
558.590926	0.220752
558.804527	0.221190
559.018110	0.220794
559.231675	0.221031
559.445221	0.221121
559.658749	0.221286
559.872259	0.221573
560.085751	0.222072
560.299225	0.221935
560.512680	0.222046
560.726117	0.222493
560.939536	0.222541
561.152937	0.222696
561.366319	0.222756
561.579683	0.223162
561.793029	0.223489
562.006357	0.223679
562.219667	0.224020
562.432958	0.224306
562.646231	0.224012
562.859486	0.224780
563.072723	0.224884
563.285941	0.225010
563.499141	0.224978
563.712323	0.225110
563.925487	0.225225
564.138632	0.225358
564.351760	0.225893
564.564869	0.226319
564.777960	0.226725
564.991032	0.227214
565.204087	0.227779
565.417123	0.227625
565.630141	0.228117
565.843140	0.228371
566.056122	0.228330
566.269085	0.227931
566.482030	0.227639
566.694957	0.227012
566.907866	0.226581
567.120756	0.226803
567.333628	0.227043
567.546482	0.226924
567.759318	0.227183
567.972135	0.227935
568.184935	0.228304
568.397716	0.228833
568.610478	0.229225
568.823223	0.229595
569.035949	0.229670
569.248657	0.230255
569.461347	0.230169
569.674019	0.230100
569.886672	0.229634
570.099308	0.229828
570.311925	0.230343
570.524523	0.230545
570.737104	0.230586
570.949666	0.230604
571.162210	0.230520
571.374736	0.230729
571.587244	0.231125
571.799733	0.231676
572.012205	0.232095
572.224658	0.232038
572.437092	0.232458
572.649509	0.232685
572.861907	0.232561
573.074287	0.232863
573.286649	0.233272
573.498993	0.233334
573.711318	0.233701
573.923625	0.233121
574.135914	0.233095
574.348185	0.233121
574.560438	0.233178
574.772672	0.233638
574.984888	0.233749
575.197086	0.233762
575.409266	0.233892
575.621427	0.233806
575.833570	0.234768
576.045695	0.235313
576.257802	0.235307
576.469890	0.236205
576.681961	0.236263
576.894013	0.236519
577.106046	0.236767
577.318062	0.236990
577.530059	0.237554
577.742039	0.237181
577.954000	0.236950
578.165942	0.237489
578.377867	0.236971
578.589773	0.237234
578.801661	0.237593
579.013531	0.237838
579.225382	0.237847
579.437216	0.237635
579.649031	0.238003
579.860828	0.238548
580.072606	0.238498
580.284367	0.238949
580.496109	0.239074
580.707833	0.239192
580.919539	0.239298
581.131227	0.239452
581.342896	0.239799
581.554547	0.240336
581.766180	0.240081
581.977795	0.240162
582.189391	0.240617
582.400969	0.240850
582.612529	0.240882
582.824071	0.240813
583.035595	0.241300
583.247100	0.241299
583.458587	0.241283
583.670056	0.241671
583.881506	0.241763
584.092939	0.241631
584.304353	0.241933
584.515749	0.242056
584.727127	0.242177
584.938486	0.242221
585.149828	0.242174
585.361151	0.241813
585.572456	0.241820
585.783742	0.241679
585.995011	0.241814
586.206261	0.242003
586.417493	0.241992
586.628706	0.242333
586.839902	0.242323
587.051079	0.242675
587.262238	0.243264
587.473379	0.243537
587.684502	0.243917
587.895606	0.244154
588.106692	0.244094
588.317760	0.244316
588.528810	0.244564
588.739841	0.244762
588.950855	0.244606
589.161850	0.244323
589.372827	0.244101
589.583785	0.244549
589.794726	0.244615
590.005648	0.244487
590.216552	0.244701
590.427437	0.244737
590.638305	0.245132
590.849154	0.245373
591.059985	0.246247
591.270798	0.246768
591.481592	0.246899
591.692369	0.247124
591.903127	0.247543
592.113867	0.248048
592.324588	0.248203
592.535292	0.248512
592.745977	0.249216
592.956644	0.249171
593.167293	0.249437
593.377923	0.249603
593.588536	0.249810
593.799130	0.250165
594.009706	0.250210
594.220263	0.250606
594.430803	0.250752
594.641324	0.250547
594.851827	0.250683
595.062312	0.250679
595.272778	0.250793
595.483227	0.251045
595.693657	0.251151
595.904069	0.251124
596.114462	0.251258
596.324838	0.251242
596.535195	0.251686
596.745534	0.252039
596.955855	0.252341
597.166157	0.252664
597.376441	0.252521
597.586707	0.252775
597.796955	0.253146
598.007185	0.252890
598.217396	0.252999
598.427589	0.253037
598.637764	0.253208
598.847921	0.253182
599.058060	0.253166
599.268180	0.253211
599.478282	0.253423
599.688366	0.253375
599.898431	0.253768
600.108479	0.253948
600.318508	0.254111
600.528519	0.254194
600.738511	0.254630
600.948486	0.254688
601.158442	0.255320
601.368380	0.255417
601.578300	0.255857
601.788202	0.256148
601.998085	0.256278
602.207950	0.256656
602.417797	0.256625
602.627626	0.256828
602.837436	0.256965
603.047228	0.256816
603.257002	0.257148
603.466758	0.256957
603.676496	0.257108
603.886215	0.257341
604.095916	0.257295
604.305599	0.257371
604.515264	0.257422
604.724910	0.258042
604.934538	0.258186
605.144148	0.258385
605.353740	0.258790
605.563314	0.258717
605.772869	0.258925
605.982406	0.259100
606.191925	0.259202
606.401425	0.259578
606.610908	0.259406
606.820372	0.259337
607.029818	0.259120
607.239246	0.259489
607.448655	0.259963
607.658047	0.259771
607.867420	0.259911
608.076775	0.260195
608.286111	0.260367
608.495430	0.260488
608.704730	0.260835
608.914012	0.261268
609.123275	0.260792
609.332521	0.260836
609.541748	0.261341
609.750957	0.261565
609.960148	0.261865
610.169321	0.261690
610.378475	0.261664
610.587611	0.261937
610.796729	0.261832
611.005829	0.262366
611.214910	0.262401
611.423974	0.262567
611.633019	0.262471
611.842045	0.262710
612.051054	0.263009
612.260044	0.263502
612.469017	0.263577
612.677970	0.263753
612.886906	0.263801
613.095824	0.263954
613.304723	0.263598
613.513604	0.263781
613.722467	0.263847
613.931311	0.263813
614.140138	0.264049
614.348946	0.264474
614.557736	0.264487
614.766507	0.264758
614.975261	0.265185
615.183996	0.265816
615.392713	0.265865
615.601412	0.265795
615.810092	0.266009
616.018754	0.266015
616.227399	0.265995
616.436024	0.266196
616.644632	0.266369
616.853222	0.266261
617.061793	0.266321
617.270346	0.266460
617.478880	0.266529
617.687397	0.266568
617.895895	0.266838
618.104375	0.267044
618.312837	0.267379
618.521281	0.267577
618.729706	0.267767
618.938113	0.267948
619.146502	0.268153
619.354873	0.268577
619.563226	0.268623
619.771560	0.268483
619.979876	0.268672
620.188174	0.268703
620.396453	0.268814
620.604715	0.268885
620.812958	0.269076
621.021183	0.269259
621.229390	0.269439
621.437578	0.269727
621.645748	0.270043
621.853900	0.270168
622.062034	0.270340
622.270150	0.270256
622.478247	0.270419
622.686326	0.270397
622.894387	0.270484
623.102430	0.270535
623.310454	0.270786
623.518461	0.270852
623.726449	0.270771
623.934418	0.270917
624.142370	0.271017
624.350303	0.271048
624.558218	0.271314
624.766115	0.271378
624.973994	0.271661
625.181855	0.271589
625.389697	0.271954
625.597521	0.272159
625.805327	0.272454
626.013114	0.272717
626.220883	0.273133
626.428634	0.273153
626.636367	0.273541
626.844082	0.273335
627.051778	0.273694
627.259457	0.273715
627.467117	0.273827
627.674758	0.273731
627.882382	0.273881
628.089987	0.273921
628.297574	0.274371
628.505143	0.274607
628.712694	0.275339
628.920226	0.275648
629.127740	0.275829
629.335236	0.275950
629.542714	0.276253
629.750174	0.276548
629.957615	0.276974
630.165038	0.277018
630.372443	0.276740
630.579829	0.276532
630.787198	0.276466
630.994548	0.276405
631.201880	0.276999
631.409194	0.276765
631.616489	0.276974
631.823766	0.276985
632.031025	0.277067
632.238266	0.277353
632.445489	0.277402
632.652693	0.277507
632.859879	0.277814
633.067047	0.277616
633.274197	0.278169
633.481329	0.277904
633.688442	0.278000
633.895537	0.278303
634.102614	0.278449
634.309672	0.278528
634.516713	0.278771
634.723735	0.278534
634.930739	0.278618
635.137724	0.278376
635.344692	0.278924
635.551641	0.279047
635.758572	0.278958
635.965485	0.279291
636.172379	0.279587
636.379256	0.279793
636.586114	0.280218
636.792954	0.280409
636.999775	0.280692
637.206579	0.280658
637.413364	0.280805
637.620131	0.280998
637.826880	0.280968
638.033610	0.281054
638.240323	0.280860
638.447017	0.281236
638.653692	0.281289
638.860350	0.281467
639.066990	0.281459
639.273611	0.281418
639.480214	0.281701
639.686798	0.282013
639.893365	0.282307
640.099913	0.282491
640.306443	0.282479
640.512955	0.282703
640.719449	0.283057
640.925924	0.283189
641.132381	0.283618
641.338820	0.283650
641.545241	0.283855
641.751644	0.283992
641.958028	0.284529
642.164394	0.284619
642.370742	0.284801
642.577071	0.284749
642.783383	0.285072
642.989676	0.285116
643.195951	0.285104
643.402207	0.285465
643.608446	0.285483
643.814666	0.285516
644.020868	0.285544
644.227052	0.285656
644.433218	0.285752
644.639365	0.285725
644.845494	0.285990
645.051605	0.286372
645.257698	0.286342
645.463772	0.286513
645.669828	0.286740
645.875866	0.287160
646.081886	0.287444
646.287888	0.288000
646.493871	0.288535
646.699836	0.288654
646.905783	0.288799
647.111712	0.289044
647.317622	0.289284
647.523514	0.289550
647.729388	0.289697
647.935244	0.289763
648.141082	0.289889
648.346901	0.289829
648.552702	0.289771
648.758485	0.289930
648.964250	0.290007
649.169996	0.290362
649.375724	0.290446
649.581434	0.290369
649.787126	0.290692
649.992800	0.290912
650.198455	0.291137
650.404092	0.291703
650.609711	0.291970
650.815311	0.292303
651.020894	0.292291
651.226458	0.292486
651.432004	0.292927
651.637532	0.293040
651.843041	0.293195
652.048532	0.293378
652.254006	0.293299
652.459460	0.293288
652.664897	0.293192
652.870315	0.293349
653.075716	0.293397
653.281097	0.293716
653.486461	0.293835
653.691807	0.293750
653.897134	0.293902
654.102443	0.294163
654.307734	0.294385
654.513006	0.294641
654.718261	0.295072
654.923497	0.295213
655.128715	0.295306
655.333915	0.295498
655.539096	0.295803
655.744259	0.296134
655.949404	0.296467
656.154531	0.296754
656.359640	0.296960
656.564730	0.297208
656.769802	0.297369
656.974856	0.297443
657.179892	0.297997
657.384909	0.298319
657.589908	0.298483
657.794889	0.298501
657.999852	0.298689
658.204797	0.298936
658.409723	0.298766
658.614631	0.298926
658.819521	0.299197
659.024393	0.299042
659.229246	0.299068
659.434081	0.299255
659.638898	0.299423
659.843697	0.299423
660.048478	0.299614
660.253240	0.299979
660.457984	0.300194
660.662710	0.300327
660.867417	0.300568
661.072107	0.301059
661.276778	0.301188
661.481431	0.301484
661.686066	0.301767
661.890682	0.301728
662.095281	0.301546
662.299861	0.301994
662.504422	0.302405
662.708966	0.302514
662.913491	0.302586
663.117999	0.302601
663.322488	0.302824
663.526958	0.303166
663.731411	0.303538
663.935845	0.303700
664.140261	0.303665
664.344659	0.303813
664.549038	0.304094
664.753400	0.304211
664.957743	0.304546
665.162068	0.304832
665.366375	0.304687
665.570663	0.304784
665.774933	0.305388
665.979185	0.305677
666.183419	0.305575
666.387635	0.305662
666.591832	0.305765
666.796011	0.306059
667.000172	0.306316
667.204315	0.306710
667.408439	0.306917
667.612545	0.306968
667.816634	0.307223
668.020703	0.307495
668.224755	0.307768
668.428788	0.307996
668.632803	0.308137
668.836800	0.307932
669.040779	0.307983
669.244739	0.308294
669.448681	0.308617
669.652605	0.308593
669.856511	0.308889
670.060399	0.308887
670.264268	0.309098
670.468119	0.309346
670.671952	0.309670
670.875767	0.310044
671.079563	0.310385
671.283341	0.310498
671.487101	0.310838
671.690843	0.311024
671.894567	0.311292
672.098272	0.311546
672.301959	0.311518
672.505628	0.311742
672.709278	0.312062
672.912911	0.312081
673.116525	0.312389
673.320121	0.312595
673.523699	0.312631
673.727258	0.312854
673.930799	0.313045
674.134322	0.313323
674.337827	0.313640
674.541314	0.313852
674.744782	0.314128
674.948232	0.314366
675.151664	0.314633
675.355078	0.314850
675.558474	0.315294
675.761851	0.315605
675.965210	0.316130
676.168551	0.316082
676.371873	0.316249
676.575178	0.316256
676.778464	0.316291
676.981732	0.316572
677.184981	0.316992
677.388213	0.317219
677.591426	0.317335
677.794621	0.317436
677.997798	0.317783
678.200956	0.318095
678.404097	0.318278
678.607219	0.318740
678.810323	0.318903
679.013408	0.318825
679.216476	0.318915
679.419525	0.319200
679.622556	0.319158
679.825569	0.319571
680.028563	0.319803
680.231540	0.320275
680.434498	0.320169
680.637438	0.320076
680.840359	0.320434
681.043263	0.320511
681.246148	0.320567
681.449015	0.320674
681.651864	0.320770
681.854694	0.320669
682.057506	0.320616
682.260301	0.320686
682.463076	0.321106
682.665834	0.321475
682.868573	0.321702
683.071295	0.321679
683.273998	0.322025
683.476682	0.321944
683.679349	0.322524
683.881997	0.322767
684.084627	0.323063
684.287239	0.323300
684.489833	0.323179
684.692408	0.323234
684.894965	0.323449
685.097504	0.323804
685.300025	0.324181
685.502527	0.324022
685.705012	0.324344
685.907478	0.324671
686.109925	0.324762
686.312355	0.325020
686.514766	0.325201
686.717159	0.325335
686.919534	0.325572
687.121891	0.325714
687.324230	0.325887
687.526550	0.326001
687.728852	0.325950
687.931136	0.326203
688.133401	0.326572
688.335649	0.326826
688.537878	0.327156
688.740089	0.326999
688.942281	0.327360
689.144456	0.327422
689.346612	0.327509
689.548750	0.327818
689.750870	0.328017
689.952971	0.328031
690.155055	0.328332
690.357120	0.328580
690.559167	0.328716
690.761195	0.328806
690.963206	0.329010
691.165198	0.329060
691.367172	0.329346
691.569128	0.329503
691.771065	0.329759
691.972984	0.329820
692.174885	0.330122
692.376768	0.330508
692.578633	0.330487
692.780479	0.330517
692.982308	0.330869
693.184118	0.330978
693.385909	0.331150
693.587683	0.331356
693.789438	0.331575
693.991175	0.331643
694.192894	0.331858
694.394595	0.332157
694.596277	0.332412
694.797941	0.332593
694.999587	0.332783
695.201215	0.332569
695.402824	0.332574
695.604416	0.332742
695.805989	0.332788
696.007543	0.332869
696.209080	0.333050
696.410598	0.333169
696.612099	0.333236
696.813580	0.333334
697.015044	0.333646
697.216490	0.333902
697.417917	0.334078
697.619326	0.334447
697.820717	0.334467
698.022089	0.334587
698.223444	0.334926
698.424780	0.335078
698.626098	0.335262
698.827397	0.335459
699.028679	0.335411
699.229942	0.335622
699.431187	0.335552
699.632414	0.335802
699.833622	0.335773
700.034813	0.335989
700.235985	0.336107
700.437139	0.335981
700.638274	0.336054
700.839392	0.336207
701.040491	0.336303
701.241572	0.336318
701.442635	0.336409
701.643679	0.336685
701.844706	0.336502
702.045714	0.336383
702.246704	0.336548
702.447675	0.336843
702.648629	0.337152
702.849564	0.337025
703.050481	0.337341
703.251380	0.337568
703.452260	0.337607
703.653122	0.337871
703.853966	0.338164
704.054792	0.338472
704.255600	0.338304
704.456389	0.338252
704.657160	0.338363
704.857913	0.338188
705.058648	0.338208
705.259365	0.338081
705.460063	0.337815
705.660743	0.337908
705.861405	0.337953
706.062048	0.338016
706.262674	0.337988
706.463281	0.337961
706.663870	0.338085
706.864441	0.337826
707.064993	0.337996
707.265527	0.338230
707.466043	0.338234
707.666541	0.338137
707.867021	0.338050
708.067482	0.337982
708.267925	0.338033
708.468350	0.338123
708.668757	0.338342
708.869145	0.338246
709.069516	0.338231
709.269868	0.338340
709.470201	0.338359
709.670517	0.338683
709.870814	0.338751
710.071093	0.338790
710.271354	0.338820
710.471597	0.338926
710.671821	0.339167
710.872028	0.339179
711.072216	0.339171
711.272385	0.339140
711.472537	0.339056
711.672670	0.339342
711.872785	0.339597
712.072882	0.339696
712.272961	0.339613
712.473021	0.339399
712.673063	0.339638
712.873087	0.339881
713.073093	0.340012
713.273081	0.339866
713.473050	0.339758
713.673001	0.339678
713.872934	0.339776
714.072849	0.339922
714.272745	0.339999
714.472623	0.340052
714.672483	0.339668
714.872325	0.339365
715.072148	0.339389
715.271954	0.339380
715.471741	0.339451
715.671509	0.339289
715.871260	0.339020
716.070992	0.339076
716.270707	0.338685
716.470403	0.338722
716.670080	0.338984
716.869740	0.339147
717.069381	0.339209
717.269004	0.339228
717.468609	0.338948
717.668195	0.339082
717.867764	0.339030
718.067314	0.339267
718.266846	0.339353
718.466360	0.339355
718.665855	0.339289
718.865332	0.339055
719.064791	0.338743
719.264232	0.338884
719.463655	0.338935
719.663059	0.338745
719.862445	0.338755
720.061813	0.338706
720.261163	0.338500
720.460494	0.338534
720.659807	0.338707
720.859102	0.338895
721.058379	0.338997
721.257638	0.338873
721.456878	0.339052
721.656100	0.338921
721.855304	0.338763
722.054490	0.338908
722.253657	0.338639
722.452806	0.338421
722.651937	0.338139
722.851050	0.337982
723.050145	0.337833
723.249221	0.337713
723.448279	0.337452
723.647319	0.337364
723.846340	0.337332
724.045344	0.337362
724.244329	0.337403
724.443296	0.337275
724.642245	0.337163
724.841175	0.337149
725.040088	0.336996
725.238982	0.337089
725.437857	0.337128
725.636715	0.336962
725.835554	0.336953
726.034376	0.336504
726.233179	0.336494
726.431963	0.336540
726.630730	0.336328
726.829478	0.336074
727.028208	0.335916
727.226920	0.335808
727.425614	0.335880
727.624289	0.335659
727.822946	0.335603
728.021585	0.335533
728.220206	0.335102
728.418808	0.334981
728.617392	0.335040
728.815958	0.334875
729.014506	0.335043
729.213036	0.334586
729.411547	0.334683
729.610040	0.334726
729.808515	0.334577
730.006972	0.334681
730.205410	0.334747
730.403831	0.334670
730.602233	0.334606
730.800616	0.334041
730.998982	0.334073
731.197329	0.333951
731.395658	0.333819
731.593969	0.333803
731.792262	0.333552
731.990536	0.333219
732.188793	0.333097
732.387031	0.332979
732.585250	0.333008
732.783452	0.332683
732.981635	0.332323
733.179800	0.332215
733.377947	0.331888
733.576076	0.331612
733.774186	0.331523
733.972278	0.331107
734.170352	0.331121
734.368408	0.331035
734.566446	0.330925
734.764465	0.330776
734.962466	0.330674
735.160449	0.330683
735.358413	0.330650
735.556360	0.330535
735.754288	0.330486
735.952198	0.329978
736.150090	0.329680
736.347963	0.329515
736.545818	0.329177
736.743655	0.328926
736.941474	0.328842
737.139275	0.328751
737.337057	0.328429
737.534821	0.328376
737.732567	0.328325
737.930295	0.328047
738.128005	0.327874
738.325696	0.327828
738.523369	0.327709
738.721024	0.327343
738.918660	0.327442
739.116279	0.327391
739.313879	0.327301
739.511461	0.327424
739.709024	0.327441
739.906570	0.327373
740.104097	0.327249
740.301606	0.327306
740.499097	0.327553
740.696569	0.327215
740.894024	0.327226
741.091460	0.326957
741.288878	0.326431
741.486277	0.326336
741.683659	0.326231
741.881022	0.326145
742.078367	0.325701
742.275694	0.325142
742.473002	0.324807
742.670293	0.324752
742.867565	0.324615
743.064819	0.324951
743.262054	0.324866
743.459272	0.324741
743.656471	0.324597
743.853652	0.324610
744.050815	0.324351
744.247959	0.324269
744.445085	0.323983
744.642194	0.323827
744.839283	0.323521
745.036355	0.323116
745.233408	0.322776
745.430444	0.322357
745.627461	0.322299
745.824459	0.322375
746.021440	0.322258
746.218402	0.321940
746.415346	0.322019
746.612272	0.321674
746.809180	0.321520
747.006069	0.321276
747.202940	0.321246
747.399793	0.320924
747.596628	0.320634
747.793444	0.320597
747.990243	0.320264
748.187023	0.319859
748.383784	0.319765
748.580528	0.319581
748.777253	0.319546
748.973960	0.319631
749.170649	0.319326
749.367320	0.319208
749.563973	0.318979
749.760607	0.319059
749.957223	0.318825
750.153821	0.318541
750.350400	0.318373
750.546962	0.317877
750.743505	0.317442
750.940030	0.317206
751.136536	0.317153
751.333025	0.316736
751.529495	0.316580
751.725947	0.316673
751.922381	0.316604
752.118796	0.316270
752.315194	0.316558
752.511573	0.316225
752.707934	0.316179
752.904276	0.316110
753.100601	0.316052
753.296907	0.315680
753.493195	0.315248
753.689465	0.314901
753.885716	0.315006
754.081949	0.314920
754.278164	0.315107
754.474361	0.315089
754.670540	0.314827
754.866700	0.314907
755.062843	0.314977
755.258967	0.315062
755.455072	0.315087
755.651160	0.314877
755.847229	0.314515
756.043280	0.314118
756.239313	0.313961
756.435328	0.313773
756.631324	0.313379
756.827302	0.313229
757.023262	0.312814
757.219204	0.312489
757.415127	0.312272
757.611033	0.312284
757.806920	0.312136
758.002788	0.311876
758.198639	0.311721
758.394471	0.311296
758.590286	0.311016
758.786081	0.311068
758.981859	0.311002
759.177619	0.310758
759.373360	0.310577
759.569083	0.310573
759.764788	0.310348
759.960474	0.310133
760.156143	0.310527
760.351793	0.310572
760.547425	0.310473
760.743038	0.310337
760.938634	0.310381
761.134211	0.310167
761.329770	0.310064
761.525311	0.309951
761.720833	0.309770
761.916338	0.309201
762.111824	0.309138
762.307292	0.308984
762.502741	0.309100
762.698173	0.309147
762.893586	0.308954
763.088981	0.308742
763.284358	0.308678
763.479716	0.308318
763.675057	0.308373
763.870379	0.308257
764.065683	0.308033
764.260968	0.307538
764.456236	0.307272
764.651485	0.307224
764.846716	0.307021
765.041929	0.306922
765.237123	0.307037
765.432299	0.306969
765.627457	0.306671
765.822597	0.306465
766.017719	0.306417
766.212822	0.306289
766.407907	0.305994
766.602974	0.306181
766.798023	0.306019
766.993054	0.305915
767.188066	0.305897
767.383060	0.305626
767.578036	0.305546
767.772993	0.305484
767.967933	0.305132
768.162854	0.305332
768.357757	0.305036
768.552642	0.304815
768.747508	0.304711
768.942356	0.304356
769.137186	0.304463
769.331998	0.304402
769.526792	0.304225
769.721567	0.304259
769.916324	0.303901
770.111063	0.303614
770.305784	0.303635
770.500486	0.303664
770.695171	0.303903
770.889837	0.303868
771.084484	0.303985
771.279114	0.304154
771.473725	0.304303
771.668318	0.304349
771.862893	0.304434
772.057450	0.304358
772.251988	0.304225
772.446509	0.303868
772.641011	0.303666
772.835494	0.303441
773.029960	0.303089
773.224407	0.302859
773.418836	0.302749
773.613247	0.302953
773.807640	0.302724
774.002014	0.302649
774.196370	0.302621
774.390708	0.302691
774.585028	0.302678
774.779330	0.302830
774.973613	0.302751
775.167878	0.302725
775.362125	0.302470
775.556354	0.302784
775.750564	0.302809
775.944756	0.302989
776.138930	0.302880
776.333086	0.302731
776.527223	0.302784
776.721343	0.302973
776.915444	0.303051
777.109526	0.303030
777.303591	0.302810
777.497637	0.302850
777.691666	0.302708
777.885676	0.302729
778.079667	0.302891
778.273641	0.302906
778.467596	0.302857
778.661533	0.302698
778.855452	0.302601
779.049352	0.302745
779.243235	0.302518
779.437099	0.302643
779.630945	0.302272
779.824773	0.302181
780.018582	0.302137
780.212373	0.301818
780.406146	0.301725
780.599901	0.301809
780.793638	0.301832
780.987356	0.301808
781.181056	0.301651
781.374738	0.301884
781.568402	0.301829
781.762047	0.301672
781.955674	0.302142
782.149283	0.302116
782.342874	0.302200
782.536447	0.302008
782.730001	0.302279
782.923537	0.302370
783.117055	0.302607
783.310555	0.302530
783.504036	0.302626
783.697499	0.302222
783.890944	0.302249
784.084371	0.302072
784.277780	0.302047
784.471170	0.301767
784.664542	0.301740
784.857896	0.301596
785.051231	0.301823
785.244549	0.301777
785.437848	0.302081
785.631129	0.302264
785.824392	0.302510
786.017636	0.302827
786.210863	0.303156
786.404071	0.303138
786.597260	0.303396
786.790432	0.303360
786.983585	0.303485
787.176721	0.303498
787.369838	0.303656
787.562936	0.303608
787.756017	0.303514
787.949079	0.303710
788.142123	0.303718
788.335149	0.303431
788.528156	0.303383
788.721146	0.303365
788.914117	0.303252
789.107070	0.303341
789.300005	0.303713
789.492921	0.303826
789.685819	0.303669
789.878699	0.303859
790.071561	0.304087
790.264405	0.304156
790.457230	0.304076
790.650037	0.304111
790.842826	0.304152
791.035597	0.304096
791.228349	0.304018
791.421084	0.303888
791.613800	0.304061
791.806497	0.303888
791.999177	0.303930
792.191838	0.304182
792.384481	0.304439
792.577106	0.304611
792.769713	0.304385
792.962301	0.304719
793.154871	0.304965
793.347423	0.305105
793.539957	0.305478
793.732473	0.305541
793.924970	0.305465
794.117449	0.305389
794.309910	0.305417
794.502353	0.305643
794.694777	0.305462
794.887183	0.305462
795.079571	0.305428
795.271941	0.305526
795.464293	0.305830
795.656626	0.305949
795.848941	0.305982
796.041238	0.306099
796.233516	0.306462
796.425777	0.306835
796.618019	0.306999
796.810243	0.307102
797.002449	0.307009
797.194636	0.307010
797.386805	0.307158
797.578956	0.307343
797.771089	0.307317
797.963204	0.307122
798.155300	0.307069
798.347378	0.307173
798.539438	0.307154
798.731480	0.307397
798.923503	0.307345
799.115509	0.307771
799.307496	0.307811
799.499465	0.307767
799.691415	0.308129
799.883348	0.308053
800.075262	0.308027
800.267158	0.308144
800.459035	0.308287
800.650895	0.308535
800.842736	0.308603
801.034559	0.308818
801.226364	0.309204
801.418150	0.309092
801.609919	0.309613
801.801669	0.310012
801.993401	0.310486
802.185114	0.310479
802.376810	0.310691
802.568487	0.310694
802.760146	0.310868
802.951787	0.311024
803.143409	0.311087
803.335014	0.311211
803.526600	0.311083
803.718168	0.311158
803.909717	0.311634
804.101249	0.312308
804.292762	0.312636
804.484257	0.312798
804.675734	0.312912
804.867192	0.313356
805.058632	0.313400
805.250054	0.313720
805.441458	0.313754
805.632844	0.313835
805.824211	0.313892
806.015561	0.313699
806.206891	0.313999
806.398204	0.314418
806.589499	0.314756
806.780775	0.314994
806.972033	0.315529
807.163273	0.315723
807.354495	0.315923
807.545698	0.315677
807.736883	0.316237
807.928050	0.316313
808.119199	0.316449
808.310329	0.316560
808.501441	0.316984
808.692535	0.317256
808.883611	0.317438
809.074669	0.317672
809.265708	0.317980
809.456729	0.318020
809.647732	0.318386
809.838717	0.318601
810.029683	0.319006
810.220632	0.318965
810.411562	0.318799
810.602474	0.319369
810.793367	0.319896
810.984242	0.320328
811.175100	0.320371
811.365938	0.320679
811.556759	0.320875
811.747562	0.320927
811.938346	0.321182
812.129112	0.321475
812.319860	0.321442
812.510589	0.321510
812.701300	0.321606
812.891994	0.322137
813.082668	0.322592
813.273325	0.322830
813.463964	0.323069
813.654584	0.323532
813.845186	0.324093
814.035769	0.324447
814.226335	0.324722
814.416882	0.325070
814.607411	0.325449
814.797922	0.325525
814.988415	0.325602
815.178889	0.326002
815.369345	0.326344
815.559783	0.326566
815.750203	0.326858
815.940605	0.327102
816.130988	0.327340
816.321353	0.327231
816.511700	0.327427
816.702028	0.327887
816.892339	0.328054
817.082631	0.328343
817.272905	0.328422
817.463161	0.328577
817.653398	0.328680
817.843617	0.329085
818.033819	0.329863
818.224001	0.330258
818.414166	0.330798
818.604312	0.331095
818.794440	0.331230
818.984550	0.331801
819.174642	0.332355
819.364716	0.332923
819.554771	0.333117
819.744808	0.333433
819.934827	0.333788
820.124827	0.333819
820.314810	0.333968
820.504774	0.334560
820.694720	0.334569
820.884647	0.334690
821.074557	0.335014
821.264448	0.335269
821.454321	0.335267
821.644176	0.335540
821.834012	0.335853
822.023831	0.336383
822.213631	0.336452
822.403413	0.336744
822.593176	0.337283
822.782922	0.337355
822.972649	0.337349
823.162358	0.337976
823.352049	0.338292
823.541721	0.338609
823.731376	0.338877
823.921012	0.339305
824.110629	0.339815
824.300229	0.340041
824.489811	0.340796
824.679374	0.341492
824.868919	0.341764
825.058445	0.342152
825.247954	0.342410
825.437444	0.342683
825.626916	0.342957
825.816370	0.343369
826.005806	0.343514
826.195223	0.343397
826.384622	0.343710
826.574003	0.343917
826.763366	0.344144
826.952711	0.344566
827.142037	0.344814
827.331345	0.344791
827.520635	0.345152
827.709906	0.345496
827.899160	0.345812
828.088395	0.346256
828.277612	0.346739
828.466810	0.346957
828.655991	0.347520
828.845153	0.347973
829.034297	0.348734
829.223423	0.348934
829.412531	0.349372
829.601620	0.349989
829.790691	0.350587
829.979744	0.350744
830.168779	0.351413
830.357795	0.351788
830.546793	0.352260
830.735773	0.352427
830.924735	0.352686
831.113679	0.352853
831.302604	0.353288
831.491511	0.353286
831.680400	0.353854
831.869271	0.353919
832.058123	0.354096
832.246957	0.354273
832.435773	0.354617
832.624571	0.355165
832.813351	0.355697
833.002112	0.355739
833.190855	0.356218
833.379580	0.356339
833.568287	0.356790
833.756975	0.357032
833.945645	0.357722
834.134297	0.358129
834.322931	0.358287
834.511547	0.358524
834.700144	0.358950
834.888723	0.359193
835.077284	0.359781
835.265826	0.360292
835.454351	0.360955
835.642857	0.360983
835.831345	0.361118
836.019815	0.361551
836.208266	0.362177
836.396699	0.362557
836.585114	0.363244
836.773511	0.363444
836.961890	0.363569
837.150250	0.363822
837.338592	0.364445
837.526916	0.364952
837.715222	0.365451
837.903510	0.365577
838.091779	0.366169
838.280030	0.366359
838.468263	0.366972
838.656477	0.367391
838.844674	0.367684
839.032852	0.367800
839.221012	0.368422
839.409153	0.368600
839.597277	0.369380
839.785382	0.369418
839.973469	0.370124
840.161538	0.370348
840.349589	0.370719
840.537621	0.370980
840.725635	0.371199
840.913631	0.371574
841.101609	0.372196
841.289568	0.372102
841.477509	0.372664
841.665432	0.372423
841.853337	0.372958
842.041224	0.373675
842.229092	0.374419
842.416942	0.375142
842.604774	0.375429
842.792588	0.375749
842.980383	0.376142
843.168160	0.376652
843.355919	0.377494
843.543660	0.377842
843.731382	0.378154
843.919087	0.378501
844.106773	0.379096
844.294441	0.379532
844.482090	0.380100
844.669722	0.380923
844.857335	0.381356
845.044930	0.381528
845.232507	0.382042
845.420065	0.382558
845.607605	0.382993
845.795127	0.383166
845.982631	0.383524
846.170117	0.384116
846.357584	0.384582
846.545033	0.384926
846.732464	0.385401
846.919877	0.385706
847.107272	0.386132
847.294648	0.386312
847.482006	0.386796
847.669346	0.387155
847.856667	0.387476
848.043971	0.387643
848.231256	0.388132
848.418523	0.388496
848.605771	0.389026
848.793002	0.389443
848.980214	0.390100
849.167408	0.390739
849.354584	0.391075
849.541742	0.391279
849.728881	0.391882
849.916002	0.392250
850.103105	0.392735
850.290190	0.393256
850.477256	0.393630
850.664304	0.393863
850.851334	0.393856
851.038346	0.394355
851.225340	0.394324
851.412315	0.394747
851.599272	0.395598
851.786211	0.395924
851.973132	0.396122
852.160034	0.396679
852.346918	0.396902
852.533784	0.397921
852.720632	0.398471
852.907462	0.399434
853.094273	0.399438
853.281066	0.399430
853.467841	0.400098
853.654598	0.400417
853.841336	0.400496
854.028056	0.401139
854.214758	0.401103
854.401442	0.401415
854.588107	0.401081
854.774755	0.401342
854.961384	0.401872
855.147995	0.401926
855.334587	0.402282
855.521162	0.402480
855.707718	0.402980
855.894256	0.403170
856.080775	0.403829
856.267277	0.404783
856.453760	0.405570
856.640225	0.405565
856.826672	0.405878
857.013101	0.406527
857.199511	0.406840
857.385903	0.407347
857.572277	0.407901
857.758633	0.408110
857.944970	0.408320
858.131290	0.408856
858.317591	0.409433
858.503873	0.409894
858.690138	0.409940
858.876384	0.410582
859.062612	0.410572
859.248822	0.410571
859.435014	0.410979
859.621188	0.411435
859.807343	0.411775
859.993480	0.412091
860.179599	0.412305
860.365699	0.412843
860.551781	0.413386
860.737846	0.413898
860.923891	0.415024
861.109919	0.415204
861.295929	0.415687
861.481920	0.415903
861.667893	0.416371
861.853848	0.417149
862.039784	0.417677
862.225702	0.417601
862.411603	0.417950
862.597484	0.417584
862.783348	0.417759
862.969193	0.417767
863.155021	0.418109
863.340830	0.418531
863.526620	0.418787
863.712393	0.418897
863.898147	0.420097
864.083883	0.420594
864.269601	0.421438
864.455301	0.421983
864.640982	0.422747
864.826645	0.422854
865.012290	0.422954
865.197917	0.423366
865.383526	0.423755
865.569116	0.423372
865.754688	0.423288
865.940242	0.423364
866.125777	0.423604
866.311295	0.423890
866.496794	0.424050
866.682275	0.424254
866.867737	0.424586
867.053182	0.425041
867.238608	0.425800
867.424016	0.426181
867.609406	0.426493
867.794778	0.427175
867.980131	0.427331
868.165466	0.427630
868.350783	0.427951
868.536082	0.428440
868.721362	0.428376
868.906625	0.428139
869.091869	0.428577
869.277094	0.428750
869.462302	0.428566
869.647491	0.428825
869.832662	0.429593
870.017815	0.429946
870.202950	0.430265
870.388066	0.430929
870.573165	0.431098
870.758245	0.431091
870.943306	0.431629
871.128350	0.431851
871.313375	0.432044
871.498382	0.432325
871.683371	0.432673
871.868342	0.432561
872.053294	0.432477
872.238229	0.432624
872.423144	0.433094
872.608042	0.432977
872.792922	0.433639
872.977783	0.433852
873.162626	0.433452
873.347451	0.433819
873.532258	0.434198
873.717046	0.434667
873.901816	0.434979
874.086568	0.435179
874.271302	0.435653
874.456017	0.435708
874.640715	0.436099
874.825394	0.436921
875.010055	0.437220
875.194697	0.437489
875.379322	0.437709
875.563928	0.438447
875.748516	0.438481
875.933085	0.438667
876.117637	0.439270
876.302170	0.439564
876.486685	0.439634
876.671182	0.439449
876.855661	0.439206
877.040121	0.439501
877.224563	0.439379
877.408987	0.439921
877.593393	0.439697
877.777780	0.439515
877.962150	0.439594
878.146501	0.439676
878.330833	0.440294
878.515148	0.440682
878.699444	0.440849
878.883722	0.440906
879.067982	0.441403
879.252224	0.442139
879.436447	0.442473
879.620653	0.442426
879.804840	0.442517
879.989008	0.442469
880.173159	0.442606
880.357291	0.443155
880.541405	0.443190
880.725501	0.442591
880.909579	0.442267
881.093638	0.442242
881.277680	0.443032
881.461703	0.443535
881.645707	0.443158
881.829694	0.443295
882.013662	0.442879
882.197612	0.443233
882.381544	0.443400
882.565458	0.444060
882.749353	0.444446
882.933230	0.444007
883.117089	0.443860
883.300930	0.444340
883.484753	0.444083
883.668557	0.444139
883.852343	0.443773
884.036111	0.443954
884.219861	0.443950
884.403592	0.443951
884.587305	0.444067
884.771000	0.444664
884.954677	0.444571
885.138335	0.445133
885.321976	0.445045
885.505598	0.445740
885.689201	0.445666
885.872787	0.445226
886.056354	0.444506
886.239904	0.444786
886.423434	0.444389
886.606947	0.444042
886.790442	0.444019
886.973918	0.444113
887.157376	0.443564
887.340816	0.443194
887.524237	0.443596
887.707641	0.443933
887.891026	0.443660
888.074393	0.443420
888.257741	0.443926
888.441072	0.443592
888.624384	0.443412
888.807678	0.444021
888.990954	0.444860
889.174211	0.444765
889.357451	0.444721
889.540672	0.444779
889.723875	0.444491
889.907059	0.444269
890.090226	0.443921
890.273374	0.443961
890.456504	0.443760
890.639616	0.443308
890.822709	0.443220
891.005785	0.443083
891.188842	0.442996
891.371881	0.443483
891.554901	0.444071
891.737904	0.445013
891.920888	0.444754
892.103854	0.444612
892.286802	0.445253
892.469731	0.445602
892.652643	0.445897
892.835536	0.445557
893.018410	0.445239
893.201267	0.444360
893.384106	0.443853
893.566926	0.443778
893.749728	0.443324
893.932511	0.442904
894.115277	0.442109
894.298024	0.442265
894.480753	0.442043
894.663464	0.442636
894.846157	0.442685
895.028831	0.442023
895.211487	0.442459
895.394125	0.442719
895.576745	0.442386
895.759346	0.442978
895.941930	0.442394
896.124495	0.442126
896.307041	0.441602
896.489570	0.441507
896.672080	0.441813
896.854573	0.441000
897.037046	0.440659
897.219502	0.439939
897.401940	0.439595
897.584359	0.439706
897.766760	0.440192
897.949143	0.439783
898.131507	0.439395
898.313854	0.438753
898.496182	0.438673
898.678492	0.438679
898.860783	0.438849
899.043057	0.437861
899.225312	0.436852
899.407549	0.436305
899.589768	0.436062
899.771968	0.435769
899.954151	0.435851
900.136315	0.435496
900.318461	0.435278
900.500588	0.435164
900.682698	0.435375
900.864789	0.435271
901.046862	0.434540
901.228917	0.434169
901.410953	0.434131
901.592971	0.433706
901.774972	0.433617
901.956953	0.433018
902.138917	0.432271
902.320862	0.431646
902.502790	0.431564
902.684699	0.432210
902.866589	0.432567
903.048462	0.432140
903.230316	0.431526
903.412152	0.430904
903.593970	0.431120
903.775770	0.431275
903.957551	0.431111
904.139314	0.430969
904.321059	0.430398
904.502786	0.429495
904.684494	0.429225
904.866185	0.429442
905.047857	0.429554
905.229510	0.428715
905.411146	0.428233
905.592763	0.427788
905.774363	0.427360
905.955943	0.426613
906.137506	0.425844
906.319051	0.425707
906.500577	0.425153
906.682085	0.424665
906.863575	0.424667
907.045046	0.423833
907.226500	0.423250
907.407935	0.422296
907.589352	0.422359
907.770750	0.422411
907.952131	0.421709
908.133493	0.421316
908.314837	0.420416
908.496163	0.419968
908.677470	0.420054
908.858760	0.419893
909.040031	0.420077
909.221284	0.419185
909.402518	0.418500
909.583735	0.418354
909.764933	0.417702
909.946113	0.418027
910.127275	0.417552
910.308418	0.417263
910.489544	0.417696
910.670651	0.417004
910.851740	0.416226
911.032810	0.415821
911.213863	0.415240
911.394897	0.414864
911.575913	0.414319
911.756911	0.413839
911.937890	0.413261
912.118851	0.411013
912.299794	0.410662
912.480719	0.410816
912.661626	0.410409
912.842514	0.409466
913.023384	0.409048
913.204236	0.407833
913.385070	0.406787
913.565886	0.405526
913.746683	0.405390
913.927462	0.404804
914.108223	0.404098
914.288965	0.403112
914.469690	0.403210
914.650396	0.402212
914.831084	0.401456
915.011754	0.400929
915.192405	0.400784
915.373038	0.401115
915.553653	0.399644
915.734250	0.398916
915.914829	0.397860
916.095389	0.396525
916.275931	0.395760
916.456455	0.395671
916.636961	0.395159
916.817448	0.394740
916.997917	0.393832
917.178368	0.393212
917.358801	0.392979
917.539216	0.393524
917.719612	0.392807
917.899990	0.392829
918.080350	0.391498
918.260692	0.391085
918.441015	0.390181
918.621320	0.389630
918.801607	0.390020
918.981876	0.388974
919.162127	0.388055
919.342359	0.387709
919.522573	0.387136
919.702769	0.386785
919.882947	0.386543
920.063106	0.386175
920.243247	0.384629
920.423370	0.383911
920.603475	0.382702
920.783562	0.381107
920.963630	0.380868
921.143680	0.379932
921.323712	0.379534
921.503725	0.377658
921.683721	0.376330
921.863698	0.376339
922.043657	0.375396
922.223598	0.375307
922.403520	0.375170
922.583424	0.374491
922.763311	0.373424
922.943178	0.372547
923.123028	0.372000
923.302859	0.371793
923.482673	0.370923
923.662467	0.369401
923.842244	0.368555
924.022003	0.368186
924.201743	0.366964
924.381465	0.367265
924.561169	0.366840
924.740854	0.366941
924.920522	0.365783
925.100171	0.364215
925.279802	0.364523
925.459414	0.363114
925.639009	0.362533
925.818585	0.361501
925.998143	0.360877
926.177683	0.360208
926.357205	0.358058
926.536708	0.357693
926.716193	0.357706
926.895660	0.356062
927.075109	0.355792
927.254539	0.354787
927.433951	0.354593
927.613345	0.353040
927.792721	0.351855
927.972079	0.351802
928.151418	0.350656
928.330739	0.349932
928.510042	0.350082
928.689327	0.348608
928.868593	0.347016
929.047841	0.345563
929.227071	0.343958
929.406283	0.342994
929.585476	0.342126
929.764652	0.341176
929.943809	0.339933
930.122948	0.338077
930.302068	0.337794
930.481171	0.337638
930.660255	0.336699
930.839321	0.336399
931.018369	0.335636
931.197398	0.334433
931.376409	0.333252
931.555402	0.332509
931.734377	0.331238
931.913334	0.330804
932.092272	0.328938
932.271192	0.328109
932.450094	0.327111
932.628978	0.326224
932.807844	0.324840
932.986691	0.323835
933.165520	0.322366
933.344331	0.322608
933.523123	0.320986
933.701898	0.320792
933.880654	0.319553
934.059392	0.318136
934.238111	0.317354
934.416813	0.316834
934.595496	0.316441
934.774161	0.315015
934.952808	0.313656
935.131437	0.312550
935.310047	0.312258
935.488639	0.312085
935.667213	0.312013
935.845769	0.310430
936.024306	0.310036
936.202825	0.308677
936.381326	0.308811
936.559809	0.308170
936.738274	0.307591
936.916720	0.305903
937.095148	0.305022
937.273558	0.303654
937.451950	0.302134
937.630323	0.300619
937.808678	0.300653
937.987015	0.300126
938.165334	0.298557
938.343635	0.297986
938.521917	0.297433
938.700181	0.295570
938.878427	0.294929
939.056655	0.295205
939.234864	0.293970
939.413055	0.291943
939.591228	0.290464
939.769383	0.288489
939.947519	0.287068
940.125638	0.285903
940.303738	0.285450
940.481820	0.284328
940.659883	0.283368
940.837929	0.282658
941.015956	0.281265
941.193965	0.280339
941.371955	0.281219
941.549928	0.279748
941.727882	0.277287
941.905818	0.274860
942.083736	0.272564
942.261636	0.271143
942.439517	0.269533
942.617380	0.269040
942.795225	0.266479
942.973052	0.264542
943.150860	0.263274
943.328651	0.262892
943.506423	0.262080
943.684176	0.261337
943.861912	0.260734
944.039629	0.259978
944.217328	0.260654
944.395009	0.260120
944.572672	0.258667
944.750317	0.257382
944.927943	0.256496
945.105551	0.255874
945.283141	0.254478
945.460712	0.254040
945.638265	0.253429
945.815801	0.249798
945.993317	0.248853
946.170816	0.247192
946.348297	0.246753
946.525759	0.245699
946.703203	0.244316
946.880629	0.243371
947.058036	0.240720
947.235425	0.240683
947.412797	0.239913
947.590149	0.239325
947.767484	0.239208
947.944800	0.238639
948.122099	0.236652
948.299379	0.235934
948.476640	0.234763
948.653884	0.234034
948.831109	0.232542
949.008316	0.230634
949.185505	0.230658
949.362676	0.228538
949.539828	0.226122
949.716962	0.224864
949.894078	0.223138
950.071176	0.222598
950.248256	0.221491
950.425317	0.219192
950.602360	0.219839
950.779385	0.218834
950.956391	0.219413
951.133380	0.219064
951.310350	0.217998
951.487302	0.218827
951.664235	0.218156
951.841151	0.216005
952.018048	0.214847
952.194927	0.213383
952.371788	0.209851
952.548631	0.208580
952.725455	0.207602
952.902261	0.209836
953.079049	0.208641
953.255819	0.207455
953.432570	0.207600
953.609303	0.206158
953.786018	0.205213
953.962715	0.205122
954.139394	0.203604
954.316054	0.203462
954.492696	0.199240
954.669320	0.197256
954.845926	0.195277
955.022513	0.192684
955.199083	0.192416
955.375634	0.191197
955.552166	0.189189
955.728681	0.187580
955.905177	0.184696
956.081655	0.184745
956.258115	0.183679
956.434557	0.183784
956.610980	0.183528
956.787385	0.181313
956.963772	0.181183
957.140141	0.181594
957.316492	0.181501
957.492824	0.180419
957.669138	0.179579
957.845434	0.179164
958.021712	0.177603
958.197971	0.177106
958.374212	0.178286
958.550435	0.177203
958.726640	0.175386
958.902826	0.175264
959.078995	0.176294
959.255145	0.174190
959.431277	0.173653
959.607390	0.174626
959.783486	0.174893
959.959563	0.172155
960.135622	0.170817
960.311662	0.171992
960.487685	0.170010
960.663689	0.166554
960.839675	0.166660
961.015643	0.168424
961.191593	0.165540
961.367524	0.163115
961.543437	0.164277
961.719332	0.163300
961.895209	0.160648
962.071067	0.160340
962.246907	0.163101
962.422730	0.164915
962.598533	0.162000
962.774319	0.162373
962.950086	0.160591
963.125835	0.159293
963.301566	0.159369
963.477279	0.160623
963.652973	0.160073
963.828650	0.159519
964.004308	0.156040
964.179947	0.155676
964.355569	0.155471
964.531172	0.158143
964.706757	0.159257
964.882324	0.160070
965.057873	0.160211
965.233403	0.162576
965.408916	0.160658
965.584410	0.159834
965.759885	0.160777
965.935343	0.162493
966.110782	0.162134
966.286203	0.161711
966.461606	0.159087
966.636991	0.159138
966.812357	0.156489
966.987705	0.157318
967.163035	0.157991
967.338347	0.156108
967.513641	0.153961
967.688916	0.154114
967.864173	0.154501
968.039412	0.157223
968.214632	0.157039
968.389835	0.157619
968.565019	0.156391
968.740185	0.158370
968.915333	0.158994
969.090462	0.160823
969.265573	0.158960
969.440667	0.158869
969.615741	0.155226
969.790798	0.155059
969.965836	0.154943
970.140856	0.154862
970.315858	0.153218
970.490842	0.151301
970.665808	0.150389
970.840755	0.151032
971.015684	0.150016
971.190595	0.152302
971.365487	0.151191
971.540362	0.152184
971.715218	0.151945
971.890056	0.151771
972.064875	0.151778
972.239677	0.151083
972.414460	0.153265
972.589225	0.154922
972.763972	0.155234
972.938700	0.155853
973.113411	0.153383
973.288103	0.154335
973.462777	0.153644
973.637432	0.155573
973.812070	0.154800
973.986689	0.152292
974.161290	0.152000
974.335873	0.150931
974.510437	0.149766
974.684984	0.151538
974.859512	0.152787
975.034022	0.154035
975.208513	0.154559
975.382987	0.155443
975.557442	0.154629
975.731879	0.153106
975.906298	0.155719
976.080698	0.156289
976.255080	0.156096
976.429445	0.155766
976.603790	0.155853
976.778118	0.153733
976.952427	0.154498
977.126719	0.155891
977.300992	0.155119
977.475246	0.154684
977.649483	0.154817
977.823701	0.154197
977.997901	0.153524
978.172083	0.154496
978.346247	0.155013
978.520392	0.154178
978.694519	0.152197
978.868628	0.152630
979.042719	0.150468
979.216791	0.150489
979.390845	0.151355
979.564882	0.149842
979.738899	0.151144
979.912899	0.150108
980.086880	0.150123
980.260843	0.151365
980.434788	0.153248
980.608715	0.152531
980.782623	0.154574
980.956514	0.153781
981.130386	0.154589
981.304240	0.153321
981.478075	0.153599
981.651892	0.152321
981.825692	0.154084
981.999472	0.152364
982.173235	0.154182
982.346980	0.152507
982.520706	0.152352
982.694414	0.151889
982.868104	0.149099
983.041775	0.150818
983.215428	0.152791
983.389064	0.151120
983.562680	0.150518
983.736279	0.150329
983.909860	0.149425
984.083422	0.152332
984.256966	0.152806
984.430491	0.154507
984.603999	0.154977
984.777488	0.153164
984.950959	0.151663
985.124412	0.151848
985.297847	0.150315
985.471263	0.149879
985.644661	0.146964
985.818041	0.149281
985.991403	0.149759
986.164747	0.149112
986.338072	0.149809
986.511379	0.152607
986.684668	0.151183
986.857938	0.152061
987.031191	0.154637
987.204425	0.155130
987.377641	0.153901
987.550839	0.152515
987.724018	0.153078
987.897179	0.153631
988.070322	0.152933
988.243447	0.155979
988.416554	0.155165
988.589642	0.154580
988.762712	0.155666
988.935764	0.155301
989.108798	0.156692
989.281813	0.155508
989.454811	0.157190
989.627790	0.156841
989.800751	0.155782
989.973693	0.155080
990.146617	0.155075
990.319524	0.155332
990.492412	0.154170
990.665281	0.153993
990.838133	0.156266
991.010966	0.154330
991.183781	0.154129
991.356578	0.153490
991.529356	0.156331
991.702117	0.155938
991.874859	0.154592
992.047583	0.155524
992.220288	0.156231
992.392976	0.154829
992.565645	0.153396
992.738296	0.154450
992.910929	0.154759
993.083543	0.155817
993.256139	0.155340
993.428718	0.152853
993.601277	0.152089
993.773819	0.150779
993.946342	0.149671
994.118848	0.151937
994.291335	0.153278
994.463803	0.154841
994.636254	0.153193
994.808686	0.155571
994.981100	0.158058
995.153496	0.159517
995.325874	0.159020
995.498233	0.160531
995.670574	0.159846
995.842897	0.159393
996.015202	0.156967
996.187488	0.155647
996.359757	0.152868
996.532007	0.154044
996.704239	0.152281
996.876452	0.153004
997.048648	0.153141
997.220825	0.153979
997.392984	0.152174
997.565124	0.152408
997.737247	0.153619
997.909351	0.153789
998.081437	0.153587
998.253505	0.154840
998.425554	0.156232
998.597586	0.156781
998.769599	0.156281
998.941594	0.154603
999.113571	0.155528
999.285529	0.154621
999.457469	0.155283
999.629391	0.155236
999.801295	0.155631
999.973181	0.155239
1000.145048	0.156377
1000.316897	0.155281
1000.488728	0.159346
1000.660541	0.158868
1000.832335	0.159322
1001.004111	0.160606
1001.175869	0.159814
1001.347609	0.158171
1001.519331	0.156668
1001.691034	0.154703
1001.862719	0.155749
1002.034386	0.153271
1002.206035	0.153773
1002.377665	0.153158
1002.549277	0.152451
1002.720871	0.150192
1002.892447	0.151299
1003.064004	0.151208
1003.235544	0.150672
1003.407065	0.150831
1003.578568	0.150483
1003.750052	0.151458
1003.921519	0.151500
1004.092967	0.152439
1004.264397	0.154335
1004.435809	0.154904
1004.607202	0.155935
1004.778577	0.156720
1004.949934	0.154428
1005.121273	0.154591
1005.292594	0.153031
1005.463896	0.154940
1005.635180	0.153166
1005.806446	0.153693
1005.977694	0.154241
1006.148923	0.153376
1006.320135	0.152955
1006.491328	0.154753
1006.662503	0.154141
1006.833659	0.155665
1007.004798	0.155046
1007.175918	0.155883
1007.347020	0.156235
1007.518103	0.154576
1007.689169	0.155389
1007.860216	0.153827
1008.031245	0.155233
1008.202256	0.155306
1008.373248	0.154808
1008.544223	0.154328
1008.715179	0.154574
1008.886117	0.153356
1009.057036	0.155405
1009.227938	0.156069
1009.398821	0.157301
1009.569686	0.155472
1009.740533	0.157018
1009.911361	0.157951
1010.082172	0.157716
1010.252964	0.155448
1010.423738	0.156790
1010.594493	0.154893
1010.765231	0.153888
1010.935950	0.154317
1011.106651	0.153531
1011.277334	0.155020
1011.447998	0.154212
1011.618645	0.155208
1011.789273	0.156768
1011.959882	0.156739
1012.130474	0.157499
1012.301048	0.157735
1012.471603	0.157051
1012.642140	0.158448
1012.812658	0.157982
1012.983159	0.157556
1013.153641	0.157967
1013.324105	0.156798
1013.494551	0.156770
1013.664979	0.157438
1013.835388	0.157773
1014.005779	0.159074
1014.176152	0.158985
1014.346507	0.158751
1014.516843	0.158153
1014.687162	0.157432
1014.857462	0.159606
1015.027744	0.158637
1015.198007	0.156697
1015.368252	0.155298
1015.538480	0.154470
1015.708689	0.153866
1015.878879	0.151374
1016.049052	0.153206
1016.219206	0.154410
1016.389342	0.154254
1016.559460	0.154942
1016.729559	0.155314
1016.899641	0.158948
1017.069704	0.159560
1017.239749	0.158692
1017.409775	0.160103
1017.579784	0.158255
1017.749774	0.158538
1017.919746	0.159593
1018.089700	0.158497
1018.259635	0.157781
1018.429553	0.153556
1018.599452	0.151855
1018.769333	0.152361
1018.939195	0.153531
1019.109040	0.153775
1019.278866	0.151448
1019.448674	0.146464
1019.618464	0.148384
1019.788235	0.150124
1019.957989	0.151713
1020.127724	0.151634
1020.297441	0.151709
1020.467139	0.150236
1020.636820	0.148239
1020.806482	0.149586
1020.976126	0.151529
1021.145752	0.151153
1021.315359	0.151225
1021.484948	0.151574
1021.654519	0.152540
1021.824072	0.153968
1021.993607	0.153692
1022.163123	0.155924
1022.332621	0.154133
1022.502101	0.155539
1022.671563	0.154601
1022.841007	0.154970
1023.010432	0.151986
1023.179839	0.151853
1023.349228	0.151493
1023.518598	0.151834
1023.687951	0.152914
1023.857285	0.153003
1024.026601	0.149691
1024.195899	0.148776
1024.365178	0.148953
1024.534439	0.151301
1024.703682	0.152300
1024.872907	0.151249
1025.042114	0.150360
1025.211302	0.148459
1025.380472	0.148083
1025.549624	0.151580
1025.718758	0.154905
1025.887873	0.153016
1026.056970	0.152091
1026.226049	0.150011
1026.395110	0.151378
1026.564153	0.152569
1026.733177	0.152672
1026.902183	0.153088
1027.071171	0.151948
1027.240141	0.149241
1027.409092	0.150100
1027.578026	0.151082
1027.746940	0.152203
1027.915837	0.150433
1028.084716	0.149984
1028.253576	0.150971
1028.422418	0.151397
1028.591242	0.152878
1028.760048	0.154525
1028.928835	0.151737
1029.097604	0.153430
1029.266355	0.152367
1029.435088	0.152288
1029.603803	0.151673
1029.772499	0.150779
1029.941177	0.151098
1030.109837	0.150856
1030.278478	0.149080
1030.447102	0.152401
1030.615707	0.151393
1030.784294	0.150431
1030.952863	0.150695
1031.121413	0.151158
1031.289945	0.150721
1031.458460	0.152324
1031.626955	0.151584
1031.795433	0.151595
1031.963892	0.151306
1032.132334	0.150800
1032.300756	0.152773
1032.469161	0.154845
1032.637548	0.155026
1032.805916	0.156341
1032.974266	0.153565
1033.142598	0.153149
1033.310911	0.155594
1033.479207	0.154248
1033.647484	0.153027
1033.815743	0.153803
1033.983983	0.151184
1034.152206	0.151099
1034.320410	0.150445
1034.488596	0.151816
1034.656764	0.151598
1034.824914	0.148406
1034.993045	0.150045
1035.161158	0.150703
1035.329253	0.150226
1035.497330	0.150860
1035.665388	0.151081
1035.833428	0.151622
1036.001450	0.149762
1036.169454	0.149708
1036.337440	0.149895
1036.505407	0.149220
1036.673356	0.149026
1036.841287	0.149155
1037.009200	0.148981
1037.177094	0.149105
1037.344970	0.149499
1037.512828	0.150864
1037.680668	0.150285
1037.848489	0.151652
1038.016293	0.151759
1038.184078	0.150973
1038.351845	0.148880
1038.519593	0.148720
1038.687324	0.148315
1038.855036	0.148653
1039.022730	0.150383
1039.190406	0.151792
1039.358063	0.149740
1039.525702	0.148732
1039.693323	0.149306
1039.860926	0.151231
1040.028511	0.152640
1040.196077	0.152205
1040.363625	0.151775
1040.531155	0.151675
1040.698667	0.150971
1040.866161	0.151738
1041.033636	0.150929
1041.201093	0.150656
1041.368532	0.147572
1041.535952	0.147262
1041.703355	0.148041
1041.870739	0.147466
1042.038105	0.147298
1042.205452	0.148287
1042.372782	0.147822
1042.540093	0.149004
1042.707386	0.148841
1042.874661	0.151194
1043.041918	0.151103
1043.209156	0.151611
1043.376376	0.151756
1043.543578	0.151544
1043.710762	0.150948
1043.877927	0.153386
1044.045074	0.153439
1044.212203	0.155759
1044.379314	0.154814
1044.546407	0.154327
1044.713481	0.153292
1044.880537	0.152768
1045.047575	0.151830
1045.214595	0.151300
1045.381596	0.151079
1045.548579	0.151930
1045.715544	0.151022
1045.882491	0.152183
1046.049420	0.155354
1046.216330	0.155177
1046.383222	0.154971
1046.550096	0.154709
1046.716951	0.155234
1046.883789	0.154525
1047.050608	0.152832
1047.217409	0.150174
1047.384192	0.150072
1047.550956	0.147783
1047.717703	0.148132
1047.884431	0.149011
1048.051140	0.146918
1048.217832	0.148673
1048.384505	0.148043
1048.551161	0.149276
1048.717798	0.150554
1048.884416	0.152051
1049.051017	0.152758
1049.217599	0.151377
1049.384163	0.149576
1049.550709	0.150852
1049.717237	0.149268
1049.883746	0.147860
1050.050237	0.147861
1050.216710	0.149757
1050.383165	0.149742
1050.549601	0.148820
1050.716019	0.148736
1050.882420	0.150413
1051.048801	0.151504
1051.215165	0.150317
1051.381510	0.151334
1051.547837	0.149772
1051.714146	0.151649
1051.880437	0.149463
1052.046709	0.148563
1052.212964	0.150994
1052.379200	0.151011
1052.545417	0.149418
1052.711617	0.149490
1052.877798	0.151393
1053.043961	0.153354
1053.210106	0.153402
1053.376233	0.155521
1053.542341	0.156314
1053.708432	0.154504
1053.874504	0.152444
1054.040557	0.152349
1054.206593	0.153659
1054.372610	0.151519
1054.538609	0.151029
1054.704590	0.148078
1054.870553	0.147467
1055.036497	0.146798
1055.202424	0.147416
1055.368331	0.149666
1055.534221	0.149921
1055.700093	0.148001
1055.865946	0.150283
1056.031781	0.148580
1056.197598	0.149753
1056.363397	0.149610
1056.529177	0.149558
1056.694939	0.150932
1056.860683	0.150258
1057.026409	0.151769
1057.192116	0.153308
1057.357806	0.152043
1057.523477	0.154533
1057.689130	0.152676
1057.854764	0.152227
1058.020381	0.151387
1058.185979	0.150690
1058.351559	0.150583
1058.517120	0.151944
1058.682664	0.151265
1058.848189	0.152422
1059.013696	0.150776
1059.179185	0.150921
1059.344656	0.150124
1059.510108	0.152072
1059.675542	0.152787
1059.840958	0.152779
1060.006356	0.150672
1060.171735	0.151803
1060.337096	0.150731
1060.502439	0.151368
1060.667764	0.153432
1060.833071	0.153762
1060.998359	0.154697
1061.163629	0.153996
1061.328881	0.154978
1061.494115	0.155072
1061.659330	0.153817
1061.824527	0.151742
1061.989706	0.150475
1062.154867	0.149751
1062.320010	0.150163
1062.485134	0.147621
1062.650240	0.147582
1062.815328	0.146204
1062.980398	0.145116
1063.145449	0.146467
1063.310482	0.147297
1063.475497	0.150994
1063.640494	0.151445
1063.805473	0.150123
1063.970433	0.149570
1064.135375	0.150771
1064.300299	0.153552
1064.465204	0.154034
1064.630092	0.154375
1064.794961	0.156704
1064.959812	0.154180
1065.124645	0.154643
1065.289459	0.157014
1065.454256	0.156112
1065.619034	0.155404
1065.783793	0.154140
1065.948535	0.153517
1066.113258	0.152764
1066.277964	0.151087
1066.442651	0.149640
1066.607319	0.148924
1066.771970	0.147654
1066.936602	0.150604
1067.101216	0.149322
1067.265812	0.148595
1067.430389	0.149698
1067.594949	0.148238
1067.759490	0.148681
1067.924013	0.151357
1068.088518	0.152948
1068.253004	0.153348
1068.417472	0.151229
1068.581922	0.151101
1068.746354	0.152097
1068.910768	0.152973
1069.075163	0.154878
1069.239540	0.155545
1069.403899	0.155032
1069.568240	0.154235
1069.732562	0.154336
1069.896866	0.158945
1070.061152	0.160626
1070.225420	0.159501
1070.389670	0.158533
1070.553901	0.156624
1070.718114	0.159536
1070.882309	0.158180
1071.046486	0.155595
1071.210644	0.155044
1071.374784	0.151337
1071.538906	0.149779
1071.703010	0.152612
1071.867096	0.153790
1072.031163	0.158664
1072.195212	0.158720
1072.359243	0.161813
1072.523256	0.165288
1072.687250	0.168411
1072.851226	0.169923
1073.015184	0.171889
1073.179124	0.171059
1073.343045	0.172270
1073.506949	0.167370
1073.670834	0.164659
1073.834701	0.161041
1073.998549	0.158764
1074.162380	0.157311
1074.326192	0.154797
1074.489986	0.154133
1074.653761	0.153665
1074.817519	0.153440
1074.981258	0.157241
1075.144979	0.158289
1075.308682	0.159471
1075.472367	0.160297
1075.636033	0.160679
1075.799681	0.162504
1075.963311	0.162812
1076.126923	0.158735
1076.290516	0.158341
1076.454092	0.154397
1076.617649	0.151306
1076.781187	0.151268
1076.944708	0.153733
1077.108210	0.152919
1077.271695	0.153441
1077.435160	0.152225
1077.598608	0.156688
1077.762038	0.155170
1077.925449	0.158831
1078.088842	0.160920
1078.252217	0.162676
1078.415573	0.161631
1078.578912	0.161446
1078.742232	0.162921
1078.905534	0.161135
1079.068817	0.161012
1079.232083	0.160455
1079.395330	0.159125
1079.558559	0.159064
1079.721770	0.157896
1079.884962	0.156925
1080.048136	0.155081
1080.211293	0.152639
1080.374430	0.153372
1080.537550	0.151261
1080.700651	0.154341
1080.863735	0.155311
1081.026800	0.156395
1081.189846	0.154553
1081.352875	0.153225
1081.515885	0.156805
1081.678877	0.157086
1081.841851	0.158297
1082.004807	0.160854
1082.167744	0.160613
1082.330663	0.158861
1082.493564	0.156127
1082.656447	0.157771
1082.819312	0.159578
1082.982158	0.157224
1083.144986	0.156731
1083.307796	0.160691
1083.470587	0.160667
1083.633361	0.159520
1083.796116	0.160443
1083.958853	0.164582
1084.121571	0.167114
1084.284272	0.164241
1084.446954	0.167124
1084.609618	0.171643
1084.772264	0.170637
1084.934892	0.170149
1085.097501	0.170629
1085.260092	0.171100
1085.422665	0.170243
1085.585220	0.168898
1085.747756	0.171816
1085.910274	0.169801
1086.072774	0.167270
1086.235256	0.165533
1086.397720	0.165428
1086.560165	0.164810
1086.722592	0.163281
1086.885001	0.160734
1087.047392	0.158005
1087.209764	0.158299
1087.372119	0.156672
1087.534455	0.159183
1087.696772	0.160818
1087.859072	0.162515
1088.021353	0.163204
1088.183616	0.164641
1088.345861	0.161823
1088.508088	0.165156
1088.670296	0.164043
1088.832486	0.166727
1088.994658	0.165846
1089.156812	0.168076
1089.318948	0.165964
1089.481065	0.167549
1089.643164	0.166960
1089.805245	0.171557
1089.967308	0.170373
1090.129352	0.168486
1090.291378	0.166174
1090.453386	0.164076
1090.615376	0.160926
1090.777347	0.162185
1090.939301	0.157182
1091.101236	0.156991
1091.263153	0.156304
1091.425051	0.156941
1091.586932	0.157421
1091.748794	0.158916
1091.910638	0.159526
1092.072463	0.157664
1092.234271	0.154922
1092.396060	0.159611
1092.557831	0.158658
1092.719584	0.156590
1092.881319	0.153517
1093.043035	0.153418
1093.204733	0.154373
1093.366413	0.155033
1093.528075	0.156898
1093.689718	0.158483
1093.851343	0.157504
1094.012950	0.156134
1094.174539	0.159114
1094.336110	0.162894
1094.497662	0.166268
1094.659196	0.164347
1094.820712	0.160416
1094.982210	0.162736
1095.143689	0.163215
1095.305151	0.164236
1095.466594	0.167360
1095.628018	0.167225
1095.789425	0.168424
1095.950813	0.168450
1096.112183	0.169496
1096.273535	0.170775
1096.434869	0.166123
1096.596184	0.167111
1096.757482	0.166741
1096.918761	0.166005
1097.080021	0.164756
1097.241264	0.161870
1097.402488	0.160661
1097.563694	0.161435
1097.724882	0.163067
1097.886052	0.166371
1098.047203	0.162733
1098.208336	0.159494
1098.369451	0.161988
1098.530548	0.164210
1098.691627	0.167199
1098.852687	0.165499
1099.013729	0.163620
1099.174753	0.163537
1099.335758	0.161536
1099.496746	0.162422
1099.657715	0.167243
1099.818666	0.165254
1099.979599	0.163708
1100.140513	0.158962
1100.301409	0.159729
1100.462287	0.162164
1100.623147	0.163982
1100.783989	0.164033
1100.944812	0.166729
1101.105617	0.159736
1101.266404	0.163089
1101.427173	0.165348
1101.587923	0.169801
1101.748656	0.171948
1101.909370	0.172117
1102.070066	0.171684
1102.230743	0.173935
1102.391403	0.170245
1102.552044	0.175965
1102.712667	0.171601
1102.873271	0.169447
1103.033858	0.165745
1103.194426	0.164505
1103.354976	0.165863
1103.515508	0.162609
1103.676021	0.160277
1103.836517	0.164689
1103.996994	0.162881
1104.157453	0.163180
1104.317893	0.159677
1104.478316	0.160466
1104.638720	0.159763
1104.799106	0.157092
1104.959474	0.160326
1105.119823	0.161613
1105.280155	0.155431
1105.440468	0.156826
1105.600763	0.155763
1105.761039	0.157066
1105.921298	0.155741
1106.081538	0.153887
1106.241760	0.154048
1106.401964	0.154145
1106.562149	0.154267
1106.722316	0.159197
1106.882465	0.157580
1107.042596	0.159137
1107.202709	0.160334
1107.362803	0.166355
1107.522879	0.167690
1107.682937	0.169843
1107.842977	0.170678
1108.002999	0.170310
1108.163002	0.166971
1108.322987	0.170220
1108.482954	0.174906
1108.642902	0.174044
1108.802833	0.169983
1108.962745	0.168313
1109.122639	0.167000
1109.282515	0.170048
1109.442372	0.169908
1109.602211	0.171805
1109.762032	0.171783
1109.921835	0.166670
1110.081620	0.166759
1110.241386	0.167810
1110.401134	0.168776
1110.560864	0.165871
1110.720576	0.163417
1110.880269	0.162441
1111.039945	0.162474
1111.199602	0.162586
1111.359240	0.162118
1111.518861	0.166018
1111.678463	0.164483
1111.838047	0.161899
1111.997613	0.162379
1112.157161	0.161231
1112.316690	0.157101
1112.476202	0.158247
1112.635695	0.154590
1112.795169	0.155997
1112.954626	0.151658
1113.114064	0.154060
1113.273484	0.160144
1113.432886	0.160235
1113.592270	0.161976
1113.751635	0.167774
1113.910983	0.164321
1114.070312	0.164297
1114.229622	0.162174
1114.388915	0.162307
1114.548189	0.158363
1114.707445	0.153488
1114.866683	0.150833
1115.025903	0.151276
1115.185104	0.147158
1115.344287	0.151142
1115.503452	0.150958
1115.662599	0.151317
1115.821727	0.153068
1115.980838	0.155263
1116.139930	0.158552
1116.299004	0.162993
1116.458059	0.156779
1116.617097	0.160382
1116.776116	0.160634
1116.935117	0.160894
1117.094099	0.161933
1117.253064	0.163615
1117.412010	0.157348
1117.570938	0.157676
1117.729848	0.159398
1117.888740	0.159891
1118.047613	0.157832
1118.206468	0.158873
1118.365305	0.161995
1118.524124	0.164945
1118.682924	0.167319
1118.841707	0.172256
1119.000471	0.169274
1119.159216	0.170154
1119.317944	0.169080
1119.476653	0.169234
1119.635344	0.165721
1119.794017	0.161166
1119.952672	0.159979
1120.111308	0.157030
1120.269927	0.160385
1120.428527	0.164146
1120.587108	0.161250
1120.745672	0.166654
1120.904217	0.176196
1121.062744	0.175348
1121.221253	0.174056
1121.379744	0.169507
1121.538216	0.169473
1121.696671	0.165680
1121.855107	0.162489
1122.013524	0.162251
1122.171924	0.163247
1122.330305	0.153723
1122.488668	0.153941
1122.647013	0.157973
1122.805340	0.164148
1122.963648	0.167140
1123.121938	0.172991
1123.280210	0.175418
1123.438464	0.179187
1123.596700	0.175221
1123.754917	0.177209
1123.913116	0.175527
1124.071297	0.174938
1124.229459	0.170376
1124.387604	0.166591
1124.545730	0.161363
1124.703838	0.163295
1124.861928	0.156795
1125.019999	0.155027
1125.178052	0.153065
1125.336088	0.157176
1125.494104	0.158040
1125.652103	0.157733
1125.810083	0.157765
1125.968045	0.157056
1126.125989	0.151378
1126.283915	0.155122
1126.441823	0.160648
1126.599712	0.160510
1126.757583	0.159654
1126.915436	0.158695
1127.073270	0.164884
1127.231087	0.165857
1127.388885	0.168566
1127.546665	0.174841
1127.704426	0.167447
1127.862170	0.167764
1128.019895	0.163810
1128.177602	0.165522
1128.335291	0.170347
1128.492961	0.159583
1128.650614	0.160746
1128.808248	0.160786
1128.965864	0.157968
1129.123461	0.166065
1129.281041	0.167173
1129.438602	0.167032
1129.596145	0.156310
1129.753670	0.148069
1129.911176	0.155103
1130.068665	0.152344
1130.226135	0.154800
1130.383587	0.155571
1130.541020	0.155110
1130.698436	0.154204
1130.855833	0.153160
1131.013212	0.159332
1131.170573	0.161881
1131.327915	0.161899
1131.485239	0.162869
1131.642545	0.159704
1131.799833	0.157564
1131.957103	0.157490
1132.114354	0.153787
1132.271588	0.157971
1132.428803	0.160809
1132.585999	0.156228
1132.743178	0.159721
1132.900338	0.153089
1133.057480	0.155732
1133.214604	0.160115
1133.371710	0.159283
1133.528797	0.155435
1133.685866	0.158396
1133.842917	0.157389
1133.999950	0.162587
1134.156964	0.161468
1134.313960	0.165090
1134.470938	0.161349
1134.627898	0.157063
1134.784840	0.156545
1134.941763	0.164319
1135.098668	0.163436
1135.255555	0.159464
1135.412424	0.154239
1135.569274	0.150542
1135.726107	0.155870
1135.882921	0.158001
1136.039716	0.158154
1136.196494	0.158168
1136.353253	0.157062
1136.509995	0.161912
1136.666717	0.164315
1136.823422	0.170282
1136.980109	0.169463
1137.136777	0.169436
1137.293427	0.172335
1137.450059	0.174627
1137.606672	0.175456
1137.763267	0.173022
1137.919844	0.170761
1138.076403	0.176712
1138.232944	0.172624
1138.389466	0.173083
1138.545971	0.170259
1138.702457	0.166364
1138.858924	0.166842
1139.015374	0.165736
1139.171805	0.159841
1139.328218	0.156395
1139.484613	0.148793
1139.640990	0.148716
1139.797348	0.146669
1139.953688	0.150360
1140.110010	0.148392
1140.266314	0.143691
1140.422600	0.139317
1140.578867	0.143414
1140.735116	0.144466
1140.891347	0.157513
1141.047559	0.159522
1141.203754	0.167987
1141.359930	0.166954
1141.516088	0.168502
1141.672228	0.174937
1141.828349	0.176790
1141.984452	0.174584
1142.140537	0.170354
1142.296604	0.165537
1142.452653	0.171816
1142.608683	0.158881
1142.764695	0.151608
1142.920689	0.153859
1143.076665	0.149300
1143.232622	0.155598
1143.388562	0.164489
1143.544483	0.175636
1143.700385	0.172163
1143.856270	0.168264
1144.012136	0.178518
1144.167985	0.188969
1144.323814	0.187071
1144.479626	0.192386
1144.635420	0.192169
1144.791195	0.188823
1144.946952	0.176909
1145.102691	0.179729
1145.258411	0.172696
1145.414113	0.169386
1145.569798	0.161117
1145.725463	0.166425
1145.881111	0.165814
1146.036741	0.168110
1146.192352	0.168049
1146.347945	0.172456
1146.503519	0.174940
1146.659076	0.182199
1146.814614	0.184431
1146.970134	0.186864
1147.125636	0.174722
1147.281120	0.162321
1147.436585	0.153132
1147.592032	0.153953
1147.747461	0.154805
1147.902872	0.150417
1148.058265	0.152238
1148.213639	0.145784
1148.368995	0.142460
1148.524333	0.152394
1148.679653	0.161774
1148.834954	0.163640
1148.990237	0.160646
1149.145502	0.166197
1149.300749	0.158792
1149.455977	0.156686
1149.611188	0.158771
1149.766380	0.157198
1149.921553	0.153364
1150.076709	0.152523
1150.231846	0.156987
1150.386966	0.150102
1150.542066	0.144042
1150.697149	0.149701
1150.852214	0.151812
1151.007260	0.152588
1151.162288	0.165359
1151.317298	0.164975
1151.472289	0.157189
1151.627263	0.151570
1151.782218	0.152833
1151.937155	0.151989
1152.092073	0.147786
1152.246974	0.148221
1152.401856	0.148419
1152.556720	0.143815
1152.711566	0.137202
1152.866393	0.141905
1153.021203	0.138671
1153.175994	0.144952
1153.330767	0.140391
1153.485521	0.144848
1153.640258	0.146223
1153.794976	0.139086
1153.949676	0.141858
1154.104358	0.148460
1154.259021	0.147974
1154.413667	0.158524
1154.568294	0.156345
1154.722903	0.156798
1154.877493	0.155644
1155.032066	0.149951
1155.186620	0.162585
1155.341156	0.153354
1155.495674	0.156553
1155.650173	0.157756
1155.804654	0.152644
1155.959118	0.150309
1156.113562	0.162033
1156.267989	0.155630
1156.422397	0.155944
1156.576788	0.153989
1156.731160	0.156353
1156.885513	0.151331
1157.039849	0.150845
1157.194166	0.160260
1157.348465	0.161624
1157.502746	0.157232
1157.657009	0.163770
1157.811253	0.158322
1157.965479	0.154592
1158.119687	0.155448
1158.273877	0.157490
1158.428048	0.154417
1158.582201	0.148255
1158.736337	0.149603
1158.890453	0.148096
1159.044552	0.144149
1159.198632	0.156007
1159.352694	0.156224
1159.506738	0.155514
1159.660764	0.162806
1159.814771	0.164779
1159.968761	0.156670
1160.122732	0.157831
1160.276685	0.161973
1160.430619	0.168398
1160.584535	0.161516
1160.738434	0.159089
1160.892313	0.155135
1161.046175	0.136117
1161.200019	0.141043
1161.353844	0.142004
1161.507651	0.138043
1161.661440	0.129318
1161.815210	0.121824
1161.968962	0.123007
1162.122697	0.120102
1162.276412	0.126928
1162.430110	0.129943
1162.583789	0.133652
1162.737451	0.138905
1162.891094	0.138158
1163.044718	0.138449
1163.198325	0.141273
1163.351913	0.144652
1163.505483	0.150245
1163.659035	0.141592
1163.812569	0.150108
1163.966084	0.139416
1164.119581	0.131362
1164.273060	0.121744
1164.426521	0.142222
1164.579964	0.148329
1164.733388	0.144235
1164.886794	0.141105
1165.040182	0.148652
1165.193551	0.145602
1165.346903	0.144301
1165.500236	0.146464
1165.653551	0.156626
1165.806848	0.136669
1165.960126	0.122554
1166.113386	0.122434
1166.266628	0.121759
1166.419852	0.116930
1166.573058	0.118578
1166.726245	0.125803
1166.879414	0.126108
1167.032565	0.126269
1167.185698	0.128442
1167.338812	0.135237
1167.491909	0.133689
1167.644987	0.134029
1167.798046	0.128229
1167.951088	0.131459
1168.104111	0.123823
1168.257117	0.122678
1168.410103	0.122297
1168.563072	0.118099
1168.716023	0.121220
1168.868955	0.124754
1169.021869	0.127851
1169.174765	0.135159
1169.327642	0.132680
1169.480501	0.130110
1169.633343	0.138577
1169.786165	0.134427
1169.938970	0.132471
1170.091757	0.131000
1170.244525	0.129419
1170.397275	0.119923
1170.550007	0.124487
1170.702720	0.129183
1170.855415	0.143642
1171.008092	0.140269
1171.160751	0.148038
1171.313392	0.152469
1171.466014	0.198538
1171.618619	0.145631
1171.771205	0.145631
1171.923772	0.145631
