sample name	sample
index	270
start time	 02-25-2021  11:30:50 AM


Wavelength (nm)	Absorbance
494.344910	-0.066094
494.563924	-0.066094
494.782919	-0.066094
495.001897	0.060360
495.220856	-0.041482
495.439797	-0.036227
495.658719	-0.009696
495.877624	-0.000486
496.096510	-0.013210
496.315378	0.005394
496.534227	0.009657
496.753059	0.005673
496.971872	0.010394
497.190667	0.048637
497.409444	0.050748
497.628203	0.052353
497.846943	0.054282
498.065665	0.057685
498.284369	0.058197
498.503055	0.058718
498.721723	0.058923
498.940372	0.059442
499.159003	0.059756
499.377616	0.059621
499.596210	0.060249
499.814787	0.060725
500.033345	0.060353
500.251885	0.059622
500.470406	0.059650
500.688910	0.060256
500.907395	0.060553
501.125862	0.060553
501.344311	0.062347
501.562742	0.062102
501.781154	0.061312
501.999548	0.060154
502.217924	0.061156
502.436282	0.061441
502.654621	0.061374
502.872942	0.060866
503.091245	0.060885
503.309530	0.060697
503.527797	0.059857
503.746045	0.060196
503.964275	0.059773
504.182487	0.059289
504.400681	0.058375
504.618856	0.058353
504.837013	0.059120
505.055152	0.057977
505.273273	0.057512
505.491376	0.057906
505.709460	0.057910
505.927526	0.058752
506.145574	0.059088
506.363604	0.059643
506.581615	0.060983
506.799608	0.060663
507.017583	0.062197
507.235540	0.062473
507.453478	0.063122
507.671399	0.062975
507.889301	0.063401
508.107185	0.063934
508.325050	0.063191
508.542898	0.061302
508.760727	0.060391
508.978538	0.060651
509.196330	0.060576
509.414105	0.060848
509.631861	0.061541
509.849599	0.061419
510.067319	0.060685
510.285021	0.060771
510.502704	0.061755
510.720369	0.062898
510.938016	0.062418
511.155645	0.062484
511.373255	0.061374
511.590848	0.060902
511.808422	0.060891
512.025977	0.061518
512.243515	0.061943
512.461034	0.061923
512.678536	0.061693
512.896018	0.061964
513.113483	0.061568
513.330930	0.062194
513.548358	0.062928
513.765768	0.063088
513.983160	0.063202
514.200533	0.063244
514.417889	0.063450
514.635226	0.063520
514.852545	0.063411
515.069845	0.063981
515.287128	0.064020
515.504392	0.063648
515.721638	0.063644
515.938866	0.063948
516.156075	0.063635
516.373267	0.064219
516.590440	0.063986
516.807594	0.064236
517.024731	0.064153
517.241850	0.064389
517.458950	0.064670
517.676032	0.064790
517.893095	0.064680
518.110141	0.065223
518.327168	0.064414
518.544177	0.064761
518.761168	0.064938
518.978141	0.064919
519.195095	0.064666
519.412031	0.065038
519.628949	0.064855
519.845849	0.064288
520.062731	0.064725
520.279594	0.065551
520.496439	0.065022
520.713266	0.064880
520.930074	0.064866
521.146865	0.065300
521.363637	0.064593
521.580391	0.065239
521.797127	0.065575
522.013844	0.066043
522.230543	0.065751
522.447224	0.066463
522.663887	0.066868
522.880532	0.067809
523.097158	0.068106
523.313766	0.068492
523.530356	0.069049
523.746928	0.069619
523.963481	0.068934
524.180017	0.068494
524.396534	0.068739
524.613032	0.068742
524.829513	0.068510
525.045975	0.068385
525.262420	0.068120
525.478845	0.068078
525.695253	0.068027
525.911643	0.067821
526.128014	0.067963
526.344367	0.067527
526.560702	0.067592
526.777018	0.068019
526.993316	0.068747
527.209597	0.069266
527.425858	0.069165
527.642102	0.069562
527.858328	0.070813
528.074535	0.071594
528.290724	0.072269
528.506894	0.071791
528.723047	0.071720
528.939181	0.071615
529.155297	0.072044
529.371395	0.072186
529.587475	0.071583
529.803536	0.071128
530.019579	0.071151
530.235604	0.071285
530.451611	0.072522
530.667600	0.073328
530.883570	0.073538
531.099522	0.074008
531.315456	0.074023
531.531372	0.074911
531.747269	0.075067
531.963148	0.075177
532.179009	0.075533
532.394852	0.075007
532.610676	0.074284
532.826482	0.074454
533.042271	0.074237
533.258040	0.074633
533.473792	0.074639
533.689525	0.074859
533.905240	0.074847
534.120937	0.075083
534.336616	0.075676
534.552277	0.076279
534.767919	0.076455
534.983543	0.076100
535.199149	0.076223
535.414736	0.076323
535.630306	0.076564
535.845857	0.077111
536.061390	0.076758
536.276904	0.076697
536.492401	0.076226
536.707879	0.076561
536.923339	0.077186
537.138781	0.077341
537.354204	0.077834
537.569610	0.078268
537.784997	0.078084
538.000366	0.078536
538.215716	0.078896
538.431049	0.079888
538.646363	0.079398
538.861659	0.079528
539.076937	0.079724
539.292196	0.079504
539.507438	0.079315
539.722661	0.079324
539.937866	0.079353
540.153052	0.079282
540.368221	0.078989
540.583371	0.079423
540.798503	0.079365
541.013617	0.079417
541.228712	0.079573
541.443789	0.079705
541.658848	0.079969
541.873889	0.080182
542.088912	0.080282
542.303916	0.080422
542.518902	0.080837
542.733870	0.081113
542.948820	0.081006
543.163752	0.081184
543.378665	0.081793
543.593560	0.082196
543.808437	0.082323
544.023295	0.082460
544.238136	0.082146
544.452958	0.082100
544.667762	0.082295
544.882548	0.082928
545.097315	0.082876
545.312064	0.082652
545.526795	0.082529
545.741508	0.082522
545.956203	0.082739
546.170879	0.082734
546.385537	0.082738
546.600177	0.082962
546.814799	0.083107
547.029402	0.083381
547.243988	0.083582
547.458555	0.083990
547.673103	0.084173
547.887634	0.084138
548.102146	0.084455
548.316640	0.084641
548.531116	0.085067
548.745574	0.085122
548.960013	0.085353
549.174435	0.085516
549.388838	0.085503
549.603222	0.085856
549.817589	0.086518
550.031937	0.086730
550.246267	0.087072
550.460579	0.087066
550.674873	0.087027
550.889148	0.086987
551.103405	0.086779
551.317644	0.086673
551.531865	0.086707
551.746068	0.086476
551.960252	0.087082
552.174418	0.086873
552.388566	0.086893
552.602696	0.086757
552.816807	0.087061
553.030900	0.087140
553.244975	0.087278
553.459032	0.087171
553.673070	0.087294
553.887091	0.087299
554.101093	0.087867
554.315077	0.087874
554.529042	0.088181
554.742990	0.087924
554.956919	0.088308
555.170830	0.088789
555.384722	0.089377
555.598597	0.089425
555.812453	0.089227
556.026291	0.088862
556.240111	0.088858
556.453913	0.089025
556.667696	0.089032
556.881461	0.089239
557.095208	0.088672
557.308937	0.088295
557.522647	0.088178
557.736339	0.088320
557.950013	0.088398
558.163669	0.088592
558.377307	0.088798
558.590926	0.088976
558.804527	0.088676
559.018110	0.089161
559.231675	0.089296
559.445221	0.089636
559.658749	0.089678
559.872259	0.089664
560.085751	0.089552
560.299225	0.089349
560.512680	0.089847
560.726117	0.089998
560.939536	0.089887
561.152937	0.089878
561.366319	0.090162
561.579683	0.090380
561.793029	0.090675
562.006357	0.091023
562.219667	0.091307
562.432958	0.091414
562.646231	0.091396
562.859486	0.091646
563.072723	0.091790
563.285941	0.091683
563.499141	0.091592
563.712323	0.091798
563.925487	0.091695
564.138632	0.091570
564.351760	0.091257
564.564869	0.091479
564.777960	0.091830
564.991032	0.091937
565.204087	0.091883
565.417123	0.092231
565.630141	0.092121
565.843140	0.092454
566.056122	0.092877
566.269085	0.093128
566.482030	0.093271
566.694957	0.093361
566.907866	0.093902
567.120756	0.094266
567.333628	0.094441
567.546482	0.094710
567.759318	0.094607
567.972135	0.094472
568.184935	0.094585
568.397716	0.095089
568.610478	0.094944
568.823223	0.094489
569.035949	0.094425
569.248657	0.094179
569.461347	0.094167
569.674019	0.094152
569.886672	0.094076
570.099308	0.093949
570.311925	0.093677
570.524523	0.093321
570.737104	0.093172
570.949666	0.093041
571.162210	0.093263
571.374736	0.093173
571.587244	0.093239
571.799733	0.093579
572.012205	0.094072
572.224658	0.094351
572.437092	0.094881
572.649509	0.095388
572.861907	0.095776
573.074287	0.096067
573.286649	0.096141
573.498993	0.096298
573.711318	0.096121
573.923625	0.096026
574.135914	0.095765
574.348185	0.096150
574.560438	0.096148
574.772672	0.096046
574.984888	0.095789
575.197086	0.095912
575.409266	0.096274
575.621427	0.096246
575.833570	0.096194
576.045695	0.096488
576.257802	0.096175
576.469890	0.096306
576.681961	0.096524
576.894013	0.096499
577.106046	0.096622
577.318062	0.096465
577.530059	0.096771
577.742039	0.097037
577.954000	0.097210
578.165942	0.097394
578.377867	0.097554
578.589773	0.097342
578.801661	0.097787
579.013531	0.097864
579.225382	0.097779
579.437216	0.097952
579.649031	0.097788
579.860828	0.097710
580.072606	0.097788
580.284367	0.097988
580.496109	0.098374
580.707833	0.098270
580.919539	0.098332
581.131227	0.098587
581.342896	0.098474
581.554547	0.098308
581.766180	0.098286
581.977795	0.098165
582.189391	0.098081
582.400969	0.097933
582.612529	0.098014
582.824071	0.098076
583.035595	0.098269
583.247100	0.098581
583.458587	0.099046
583.670056	0.099380
583.881506	0.099333
584.092939	0.099344
584.304353	0.099620
584.515749	0.099828
584.727127	0.100010
584.938486	0.099904
585.149828	0.099911
585.361151	0.100098
585.572456	0.099995
585.783742	0.100464
585.995011	0.100683
586.206261	0.100801
586.417493	0.100809
586.628706	0.100747
586.839902	0.100746
587.051079	0.100775
587.262238	0.100661
587.473379	0.100450
587.684502	0.100559
587.895606	0.100495
588.106692	0.100294
588.317760	0.100224
588.528810	0.100281
588.739841	0.100500
588.950855	0.100487
589.161850	0.100593
589.372827	0.100953
589.583785	0.101053
589.794726	0.101084
590.005648	0.101561
590.216552	0.101874
590.427437	0.102319
590.638305	0.102276
590.849154	0.102412
591.059985	0.102367
591.270798	0.102640
591.481592	0.102401
591.692369	0.102195
591.903127	0.102073
592.113867	0.102009
592.324588	0.101631
592.535292	0.101865
592.745977	0.102066
592.956644	0.102126
593.167293	0.101868
593.377923	0.102107
593.588536	0.102385
593.799130	0.102484
594.009706	0.102416
594.220263	0.102812
594.430803	0.102835
594.641324	0.102824
594.851827	0.103024
595.062312	0.103322
595.272778	0.103298
595.483227	0.103495
595.693657	0.103304
595.904069	0.103211
596.114462	0.103121
596.324838	0.103339
596.535195	0.103469
596.745534	0.103409
596.955855	0.103593
597.166157	0.103622
597.376441	0.103814
597.586707	0.104025
597.796955	0.104382
598.007185	0.104179
598.217396	0.104162
598.427589	0.104168
598.637764	0.104505
598.847921	0.104536
599.058060	0.104821
599.268180	0.104750
599.478282	0.104872
599.688366	0.104967
599.898431	0.105280
600.108479	0.105416
600.318508	0.105643
600.528519	0.105556
600.738511	0.105441
600.948486	0.105567
601.158442	0.105380
601.368380	0.105514
601.578300	0.105480
601.788202	0.105675
601.998085	0.105677
602.207950	0.105831
602.417797	0.105525
602.627626	0.105452
602.837436	0.105471
603.047228	0.105966
603.257002	0.106055
603.466758	0.106325
603.676496	0.106363
603.886215	0.106673
604.095916	0.106535
604.305599	0.107312
604.515264	0.107593
604.724910	0.107410
604.934538	0.107323
605.144148	0.107141
605.353740	0.107001
605.563314	0.107063
605.772869	0.106995
605.982406	0.107179
606.191925	0.106861
606.401425	0.106803
606.610908	0.106952
606.820372	0.107136
607.029818	0.107297
607.239246	0.107539
607.448655	0.107794
607.658047	0.107494
607.867420	0.107371
608.076775	0.107397
608.286111	0.107498
608.495430	0.107620
608.704730	0.107612
608.914012	0.107571
609.123275	0.107519
609.332521	0.107470
609.541748	0.107621
609.750957	0.107493
609.960148	0.107711
610.169321	0.107862
610.378475	0.108108
610.587611	0.107847
610.796729	0.107945
611.005829	0.107834
611.214910	0.107916
611.423974	0.107746
611.633019	0.108044
611.842045	0.107888
612.051054	0.108086
612.260044	0.107878
612.469017	0.108361
612.677970	0.108579
612.886906	0.108925
613.095824	0.108884
613.304723	0.109188
613.513604	0.109295
613.722467	0.109636
613.931311	0.109736
614.140138	0.109837
614.348946	0.109838
614.557736	0.109787
614.766507	0.109655
614.975261	0.109885
615.183996	0.110082
615.392713	0.110156
615.601412	0.110196
615.810092	0.110290
616.018754	0.110279
616.227399	0.110036
616.436024	0.110098
616.644632	0.110347
616.853222	0.110360
617.061793	0.110386
617.270346	0.110335
617.478880	0.110275
617.687397	0.110219
617.895895	0.110263
618.104375	0.110459
618.312837	0.110430
618.521281	0.110393
618.729706	0.110322
618.938113	0.110331
619.146502	0.110907
619.354873	0.111158
619.563226	0.111247
619.771560	0.111580
619.979876	0.111825
620.188174	0.112204
620.396453	0.112421
620.604715	0.112368
620.812958	0.112536
621.021183	0.112338
621.229390	0.112463
621.437578	0.112495
621.645748	0.112472
621.853900	0.112400
622.062034	0.112391
622.270150	0.112247
622.478247	0.112675
622.686326	0.112989
622.894387	0.112998
623.102430	0.112920
623.310454	0.113016
623.518461	0.113233
623.726449	0.113472
623.934418	0.113528
624.142370	0.113942
624.350303	0.114045
624.558218	0.114003
624.766115	0.114072
624.973994	0.114310
625.181855	0.114461
625.389697	0.114711
625.597521	0.115080
625.805327	0.115127
626.013114	0.115036
626.220883	0.115055
626.428634	0.115147
626.636367	0.115178
626.844082	0.115135
627.051778	0.115323
627.259457	0.115006
627.467117	0.114768
627.674758	0.115046
627.882382	0.115128
628.089987	0.115179
628.297574	0.114983
628.505143	0.114903
628.712694	0.114814
628.920226	0.114583
629.127740	0.114686
629.335236	0.114830
629.542714	0.114490
629.750174	0.114360
629.957615	0.114149
630.165038	0.114259
630.372443	0.114505
630.579829	0.114675
630.787198	0.114899
630.994548	0.114905
631.201880	0.114913
631.409194	0.114928
631.616489	0.115178
631.823766	0.115659
632.031025	0.115739
632.238266	0.115959
632.445489	0.116157
632.652693	0.116058
632.859879	0.116284
633.067047	0.116527
633.274197	0.116780
633.481329	0.116936
633.688442	0.116674
633.895537	0.116980
634.102614	0.116825
634.309672	0.116729
634.516713	0.116939
634.723735	0.116974
634.930739	0.116785
635.137724	0.116784
635.344692	0.116448
635.551641	0.116660
635.758572	0.116719
635.965485	0.116686
636.172379	0.116841
636.379256	0.116755
636.586114	0.116653
636.792954	0.116804
636.999775	0.116847
637.206579	0.116872
637.413364	0.116673
637.620131	0.116481
637.826880	0.116628
638.033610	0.116769
638.240323	0.116972
638.447017	0.117224
638.653692	0.117304
638.860350	0.117484
639.066990	0.117989
639.273611	0.118371
639.480214	0.118666
639.686798	0.118702
639.893365	0.118631
640.099913	0.118624
640.306443	0.118653
640.512955	0.118519
640.719449	0.118509
640.925924	0.118574
641.132381	0.118484
641.338820	0.118415
641.545241	0.118672
641.751644	0.118916
641.958028	0.119176
642.164394	0.119435
642.370742	0.119753
642.577071	0.120137
642.783383	0.120077
642.989676	0.120210
643.195951	0.120288
643.402207	0.120321
643.608446	0.120348
643.814666	0.120376
644.020868	0.120363
644.227052	0.120324
644.433218	0.120317
644.639365	0.120586
644.845494	0.120655
645.051605	0.120726
645.257698	0.120860
645.463772	0.120872
645.669828	0.121008
645.875866	0.121055
646.081886	0.121148
646.287888	0.121038
646.493871	0.120929
646.699836	0.120888
646.905783	0.121049
647.111712	0.121089
647.317622	0.121414
647.523514	0.121334
647.729388	0.121452
647.935244	0.121894
648.141082	0.122167
648.346901	0.122532
648.552702	0.122884
648.758485	0.123060
648.964250	0.123290
649.169996	0.123084
649.375724	0.123229
649.581434	0.123497
649.787126	0.123410
649.992800	0.123672
650.198455	0.123739
650.404092	0.123848
650.609711	0.123992
650.815311	0.123961
651.020894	0.124232
651.226458	0.124352
651.432004	0.124184
651.637532	0.124059
651.843041	0.123972
652.048532	0.123819
652.254006	0.123897
652.459460	0.123841
652.664897	0.124071
652.870315	0.124245
653.075716	0.124194
653.281097	0.124538
653.486461	0.124848
653.691807	0.124873
653.897134	0.125132
654.102443	0.125095
654.307734	0.125273
654.513006	0.125225
654.718261	0.125226
654.923497	0.125261
655.128715	0.125036
655.333915	0.125154
655.539096	0.125379
655.744259	0.125501
655.949404	0.125757
656.154531	0.125799
656.359640	0.125927
656.564730	0.125916
656.769802	0.126240
656.974856	0.126562
657.179892	0.126567
657.384909	0.126792
657.589908	0.126797
657.794889	0.126827
657.999852	0.126837
658.204797	0.126950
658.409723	0.127205
658.614631	0.127427
658.819521	0.127365
659.024393	0.127491
659.229246	0.127237
659.434081	0.127316
659.638898	0.127520
659.843697	0.127782
660.048478	0.127914
660.253240	0.127965
660.457984	0.128086
660.662710	0.128347
660.867417	0.128513
661.072107	0.128592
661.276778	0.128742
661.481431	0.128671
661.686066	0.128783
661.890682	0.128740
662.095281	0.128952
662.299861	0.128741
662.504422	0.128820
662.708966	0.128842
662.913491	0.129278
663.117999	0.129243
663.322488	0.129423
663.526958	0.129565
663.731411	0.129545
663.935845	0.129468
664.140261	0.129730
664.344659	0.129880
664.549038	0.129989
664.753400	0.130126
664.957743	0.130309
665.162068	0.130262
665.366375	0.130195
665.570663	0.130294
665.774933	0.130419
665.979185	0.130369
666.183419	0.130328
666.387635	0.130201
666.591832	0.130093
666.796011	0.130134
667.000172	0.130269
667.204315	0.130418
667.408439	0.130620
667.612545	0.130666
667.816634	0.130825
668.020703	0.130984
668.224755	0.131188
668.428788	0.131381
668.632803	0.131500
668.836800	0.131583
669.040779	0.131551
669.244739	0.131643
669.448681	0.131741
669.652605	0.131693
669.856511	0.131787
670.060399	0.131909
670.264268	0.132032
670.468119	0.132019
670.671952	0.132167
670.875767	0.132380
671.079563	0.132422
671.283341	0.132537
671.487101	0.132727
671.690843	0.132737
671.894567	0.132773
672.098272	0.132706
672.301959	0.133104
672.505628	0.133209
672.709278	0.133392
672.912911	0.133570
673.116525	0.133740
673.320121	0.133813
673.523699	0.133939
673.727258	0.134294
673.930799	0.134531
674.134322	0.134473
674.337827	0.134636
674.541314	0.134856
674.744782	0.135026
674.948232	0.135172
675.151664	0.135351
675.355078	0.135568
675.558474	0.135516
675.761851	0.135625
675.965210	0.135793
676.168551	0.135876
676.371873	0.135817
676.575178	0.135795
676.778464	0.135825
676.981732	0.136066
677.184981	0.135975
677.388213	0.136030
677.591426	0.136142
677.794621	0.136366
677.997798	0.136609
678.200956	0.136643
678.404097	0.136952
678.607219	0.137216
678.810323	0.137375
679.013408	0.137815
679.216476	0.138135
679.419525	0.138170
679.622556	0.138357
679.825569	0.138454
680.028563	0.138829
680.231540	0.138943
680.434498	0.138982
680.637438	0.139038
680.840359	0.138847
681.043263	0.138857
681.246148	0.138940
681.449015	0.138761
681.651864	0.138892
681.854694	0.138921
682.057506	0.138861
682.260301	0.138959
682.463076	0.139140
682.665834	0.139412
682.868573	0.139757
683.071295	0.139818
683.273998	0.139948
683.476682	0.139804
683.679349	0.139632
683.881997	0.139704
684.084627	0.139547
684.287239	0.139318
684.489833	0.139122
684.692408	0.138752
684.894965	0.138728
685.097504	0.138778
685.300025	0.138791
685.502527	0.138996
685.705012	0.139018
685.907478	0.139097
686.109925	0.139240
686.312355	0.139450
686.514766	0.139523
686.717159	0.139708
686.919534	0.139678
687.121891	0.139786
687.324230	0.139919
687.526550	0.140098
687.728852	0.140322
687.931136	0.140315
688.133401	0.140477
688.335649	0.140613
688.537878	0.140683
688.740089	0.140704
688.942281	0.140757
689.144456	0.140756
689.346612	0.140873
689.548750	0.140672
689.750870	0.140902
689.952971	0.140900
690.155055	0.141040
690.357120	0.141154
690.559167	0.141269
690.761195	0.141585
690.963206	0.141614
691.165198	0.141581
691.367172	0.142049
691.569128	0.142192
691.771065	0.142437
691.972984	0.142565
692.174885	0.142564
692.376768	0.142824
692.578633	0.142575
692.780479	0.142804
692.982308	0.142970
693.184118	0.142935
693.385909	0.142849
693.587683	0.142861
693.789438	0.142795
693.991175	0.142735
694.192894	0.142812
694.394595	0.143216
694.596277	0.143043
694.797941	0.142990
694.999587	0.143003
695.201215	0.143019
695.402824	0.142985
695.604416	0.143217
695.805989	0.143421
696.007543	0.143443
696.209080	0.143298
696.410598	0.143602
696.612099	0.143918
696.813580	0.143927
697.015044	0.144103
697.216490	0.144038
697.417917	0.143871
697.619326	0.143979
697.820717	0.143852
698.022089	0.143941
698.223444	0.143905
698.424780	0.143905
698.626098	0.144053
698.827397	0.144190
699.028679	0.144466
699.229942	0.144690
699.431187	0.144732
699.632414	0.145071
699.833622	0.145243
700.034813	0.145488
700.235985	0.145450
700.437139	0.145680
700.638274	0.145815
700.839392	0.145832
701.040491	0.145927
701.241572	0.145978
701.442635	0.145977
701.643679	0.145934
701.844706	0.145920
702.045714	0.145951
702.246704	0.146020
702.447675	0.146038
702.648629	0.146125
702.849564	0.146199
703.050481	0.146298
703.251380	0.146333
703.452260	0.146485
703.653122	0.146483
703.853966	0.146538
704.054792	0.146412
704.255600	0.146215
704.456389	0.146371
704.657160	0.146210
704.857913	0.146135
705.058648	0.146062
705.259365	0.145948
705.460063	0.145681
705.660743	0.145801
705.861405	0.145535
706.062048	0.145552
706.262674	0.145330
706.463281	0.145322
706.663870	0.145316
706.864441	0.145270
707.064993	0.145216
707.265527	0.145371
707.466043	0.145226
707.666541	0.145461
707.867021	0.145747
708.067482	0.145896
708.267925	0.146208
708.468350	0.146543
708.668757	0.146750
708.869145	0.147133
709.069516	0.147460
709.269868	0.147946
709.470201	0.148142
709.670517	0.148045
709.870814	0.148064
710.071093	0.147955
710.271354	0.147780
710.471597	0.147705
710.671821	0.147644
710.872028	0.147494
711.072216	0.147318
711.272385	0.147118
711.472537	0.147211
711.672670	0.146984
711.872785	0.146904
712.072882	0.146891
712.272961	0.146990
712.473021	0.146868
712.673063	0.146719
712.873087	0.146613
713.073093	0.146789
713.273081	0.146456
713.473050	0.146584
713.673001	0.146691
713.872934	0.146712
714.072849	0.146805
714.272745	0.146697
714.472623	0.146772
714.672483	0.146553
714.872325	0.146583
715.072148	0.146786
715.271954	0.146902
715.471741	0.146902
715.671509	0.146973
715.871260	0.146859
716.070992	0.147071
716.270707	0.147223
716.470403	0.147390
716.670080	0.147462
716.869740	0.147670
717.069381	0.147665
717.269004	0.147651
717.468609	0.147523
717.668195	0.147280
717.867764	0.146989
718.067314	0.146768
718.266846	0.146701
718.466360	0.146387
718.665855	0.146259
718.865332	0.146219
719.064791	0.146163
719.264232	0.146146
719.463655	0.146447
719.663059	0.146513
719.862445	0.146516
720.061813	0.146453
720.261163	0.146591
720.460494	0.146462
720.659807	0.146499
720.859102	0.146467
721.058379	0.146458
721.257638	0.146215
721.456878	0.146275
721.656100	0.146247
721.855304	0.146072
722.054490	0.146016
722.253657	0.145947
722.452806	0.145919
722.651937	0.145982
722.851050	0.145834
723.050145	0.145840
723.249221	0.145786
723.448279	0.145714
723.647319	0.146068
723.846340	0.146044
724.045344	0.146179
724.244329	0.146058
724.443296	0.145847
724.642245	0.145941
724.841175	0.146077
725.040088	0.145995
725.238982	0.146116
725.437857	0.145899
725.636715	0.145871
725.835554	0.145743
726.034376	0.145582
726.233179	0.145774
726.431963	0.145846
726.630730	0.145826
726.829478	0.146083
727.028208	0.145939
727.226920	0.145887
727.425614	0.146041
727.624289	0.146031
727.822946	0.146165
728.021585	0.145884
728.220206	0.145791
728.418808	0.145641
728.617392	0.145454
728.815958	0.145456
729.014506	0.145450
729.213036	0.144962
729.411547	0.144827
729.610040	0.144798
729.808515	0.144892
730.006972	0.144671
730.205410	0.144547
730.403831	0.144341
730.602233	0.144198
730.800616	0.144091
730.998982	0.144106
731.197329	0.144306
731.395658	0.144185
731.593969	0.144207
731.792262	0.144128
731.990536	0.144111
732.188793	0.144095
732.387031	0.144023
732.585250	0.143930
732.783452	0.144056
732.981635	0.143890
733.179800	0.143794
733.377947	0.143698
733.576076	0.143951
733.774186	0.143837
733.972278	0.143706
734.170352	0.143691
734.368408	0.143714
734.566446	0.143456
734.764465	0.143246
734.962466	0.143001
735.160449	0.142752
735.358413	0.142704
735.556360	0.142743
735.754288	0.142835
735.952198	0.142963
736.150090	0.142962
736.347963	0.142934
736.545818	0.143047
736.743655	0.143214
736.941474	0.143207
737.139275	0.143128
737.337057	0.142973
737.534821	0.143102
737.732567	0.142744
737.930295	0.142607
738.128005	0.142601
738.325696	0.142550
738.523369	0.142582
738.721024	0.142652
738.918660	0.142475
739.116279	0.142439
739.313879	0.142057
739.511461	0.142087
739.709024	0.141959
739.906570	0.141927
740.104097	0.141639
740.301606	0.141401
740.499097	0.141155
740.696569	0.141083
740.894024	0.141266
741.091460	0.141183
741.288878	0.141171
741.486277	0.141038
741.683659	0.140961
741.881022	0.140871
742.078367	0.140845
742.275694	0.140982
742.473002	0.140800
742.670293	0.140454
742.867565	0.140425
743.064819	0.140553
743.262054	0.140471
743.459272	0.140504
743.656471	0.140647
743.853652	0.140450
744.050815	0.140285
744.247959	0.140288
744.445085	0.140369
744.642194	0.140260
744.839283	0.139846
745.036355	0.139966
745.233408	0.139809
745.430444	0.139697
745.627461	0.139714
745.824459	0.139564
746.021440	0.139436
746.218402	0.139358
746.415346	0.139460
746.612272	0.139641
746.809180	0.139533
747.006069	0.139473
747.202940	0.139406
747.399793	0.139563
747.596628	0.139657
747.793444	0.139676
747.990243	0.139735
748.187023	0.139574
748.383784	0.139498
748.580528	0.139539
748.777253	0.139445
748.973960	0.139429
749.170649	0.139319
749.367320	0.139335
749.563973	0.139502
749.760607	0.139358
749.957223	0.139397
750.153821	0.139372
750.350400	0.139330
750.546962	0.139283
750.743505	0.139154
750.940030	0.139038
751.136536	0.138739
751.333025	0.138338
751.529495	0.138216
751.725947	0.138124
751.922381	0.137721
752.118796	0.137787
752.315194	0.137712
752.511573	0.137608
752.707934	0.137663
752.904276	0.137731
753.100601	0.137871
753.296907	0.137815
753.493195	0.137771
753.689465	0.137857
753.885716	0.137603
754.081949	0.137572
754.278164	0.137873
754.474361	0.137501
754.670540	0.137462
754.866700	0.137318
755.062843	0.137177
755.258967	0.137210
755.455072	0.137325
755.651160	0.137227
755.847229	0.137128
756.043280	0.136859
756.239313	0.136963
756.435328	0.136891
756.631324	0.136819
756.827302	0.136831
757.023262	0.136555
757.219204	0.136560
757.415127	0.136408
757.611033	0.136428
757.806920	0.136227
758.002788	0.136243
758.198639	0.136125
758.394471	0.136006
758.590286	0.135942
758.786081	0.135823
758.981859	0.135448
759.177619	0.135386
759.373360	0.135273
759.569083	0.135249
759.764788	0.135195
759.960474	0.135169
760.156143	0.135087
760.351793	0.135085
760.547425	0.135212
760.743038	0.135165
760.938634	0.135304
761.134211	0.135282
761.329770	0.135336
761.525311	0.134930
761.720833	0.134941
761.916338	0.134764
762.111824	0.134801
762.307292	0.134668
762.502741	0.134623
762.698173	0.134515
762.893586	0.134523
763.088981	0.134327
763.284358	0.134559
763.479716	0.134418
763.675057	0.134691
763.870379	0.134475
764.065683	0.134372
764.260968	0.134317
764.456236	0.134255
764.651485	0.133891
764.846716	0.133822
765.041929	0.133875
765.237123	0.133861
765.432299	0.133803
765.627457	0.133762
765.822597	0.133692
766.017719	0.134081
766.212822	0.134107
766.407907	0.134374
766.602974	0.134473
766.798023	0.134319
766.993054	0.134310
767.188066	0.134161
767.383060	0.134171
767.578036	0.134302
767.772993	0.133941
767.967933	0.133751
768.162854	0.133697
768.357757	0.133503
768.552642	0.133513
768.747508	0.133470
768.942356	0.133342
769.137186	0.133223
769.331998	0.133011
769.526792	0.133117
769.721567	0.133263
769.916324	0.133060
770.111063	0.132978
770.305784	0.132926
770.500486	0.132802
770.695171	0.132662
770.889837	0.132564
771.084484	0.132618
771.279114	0.132583
771.473725	0.132297
771.668318	0.132370
771.862893	0.132355
772.057450	0.131933
772.251988	0.131855
772.446509	0.131908
772.641011	0.132050
772.835494	0.132078
773.029960	0.131691
773.224407	0.131752
773.418836	0.131599
773.613247	0.131621
773.807640	0.131860
774.002014	0.131920
774.196370	0.132028
774.390708	0.131905
774.585028	0.131829
774.779330	0.132000
774.973613	0.131769
775.167878	0.131731
775.362125	0.131656
775.556354	0.131490
775.750564	0.131324
775.944756	0.131227
776.138930	0.131344
776.333086	0.131154
776.527223	0.130891
776.721343	0.131016
776.915444	0.130975
777.109526	0.131138
777.303591	0.131507
777.497637	0.131717
777.691666	0.131889
777.885676	0.131916
778.079667	0.132073
778.273641	0.132431
778.467596	0.132570
778.661533	0.132680
778.855452	0.132681
779.049352	0.132367
779.243235	0.132211
779.437099	0.132016
779.630945	0.131877
779.824773	0.132026
780.018582	0.131907
780.212373	0.131696
780.406146	0.131769
780.599901	0.131714
780.793638	0.131876
780.987356	0.131814
781.181056	0.131839
781.374738	0.131793
781.568402	0.131523
781.762047	0.131508
781.955674	0.131639
782.149283	0.131846
782.342874	0.131654
782.536447	0.131643
782.730001	0.131666
782.923537	0.131483
783.117055	0.131404
783.310555	0.131486
783.504036	0.131505
783.697499	0.131504
783.890944	0.131173
784.084371	0.131273
784.277780	0.131027
784.471170	0.131059
784.664542	0.131104
784.857896	0.131268
785.051231	0.131139
785.244549	0.131071
785.437848	0.131130
785.631129	0.131268
785.824392	0.131318
786.017636	0.131580
786.210863	0.131566
786.404071	0.131478
786.597260	0.131155
786.790432	0.130980
786.983585	0.130992
787.176721	0.130839
787.369838	0.130609
787.562936	0.130371
787.756017	0.130138
787.949079	0.130008
788.142123	0.129930
788.335149	0.129796
788.528156	0.129537
788.721146	0.129190
788.914117	0.129060
789.107070	0.129027
789.300005	0.129016
789.492921	0.129041
789.685819	0.128954
789.878699	0.128927
790.071561	0.129247
790.264405	0.129698
790.457230	0.130031
790.650037	0.130479
790.842826	0.130687
791.035597	0.130902
791.228349	0.131013
791.421084	0.131210
791.613800	0.131629
791.806497	0.131669
791.999177	0.131978
792.191838	0.132194
792.384481	0.131951
792.577106	0.132095
792.769713	0.132368
792.962301	0.132593
793.154871	0.132858
793.347423	0.132997
793.539957	0.133119
793.732473	0.133448
793.924970	0.133521
794.117449	0.133927
794.309910	0.134032
794.502353	0.133946
794.694777	0.133840
794.887183	0.133694
795.079571	0.133534
795.271941	0.133639
795.464293	0.133284
795.656626	0.133267
795.848941	0.133057
796.041238	0.133083
796.233516	0.133153
796.425777	0.133388
796.618019	0.133592
796.810243	0.133834
797.002449	0.134004
797.194636	0.133838
797.386805	0.134009
797.578956	0.134107
797.771089	0.133976
797.963204	0.133966
798.155300	0.133779
798.347378	0.133708
798.539438	0.133659
798.731480	0.133638
798.923503	0.133869
799.115509	0.133729
799.307496	0.133622
799.499465	0.133806
799.691415	0.133692
799.883348	0.133968
800.075262	0.134021
800.267158	0.134010
800.459035	0.134092
800.650895	0.134166
800.842736	0.134296
801.034559	0.134510
801.226364	0.134632
801.418150	0.134746
801.609919	0.134706
801.801669	0.134895
801.993401	0.134879
802.185114	0.134726
802.376810	0.134860
802.568487	0.134765
802.760146	0.134778
802.951787	0.134785
803.143409	0.134851
803.335014	0.134965
803.526600	0.134951
803.718168	0.135173
803.909717	0.135224
804.101249	0.135371
804.292762	0.135604
804.484257	0.135704
804.675734	0.135728
804.867192	0.136032
805.058632	0.136052
805.250054	0.136210
805.441458	0.136187
805.632844	0.136363
805.824211	0.136418
806.015561	0.136457
806.206891	0.136607
806.398204	0.136590
806.589499	0.136621
806.780775	0.136579
806.972033	0.136628
807.163273	0.137016
807.354495	0.136933
807.545698	0.137017
807.736883	0.137190
807.928050	0.137198
808.119199	0.137345
808.310329	0.137588
808.501441	0.137692
808.692535	0.138046
808.883611	0.137825
809.074669	0.138217
809.265708	0.138396
809.456729	0.138554
809.647732	0.138839
809.838717	0.139006
810.029683	0.138838
810.220632	0.139063
810.411562	0.138914
810.602474	0.139207
810.793367	0.139327
810.984242	0.139197
811.175100	0.139261
811.365938	0.139253
811.556759	0.139407
811.747562	0.139447
811.938346	0.139613
812.129112	0.139851
812.319860	0.139856
812.510589	0.140014
812.701300	0.140181
812.891994	0.140297
813.082668	0.140355
813.273325	0.140453
813.463964	0.140965
813.654584	0.141231
813.845186	0.141351
814.035769	0.141603
814.226335	0.141641
814.416882	0.141717
814.607411	0.141782
814.797922	0.142004
814.988415	0.142173
815.178889	0.142053
815.369345	0.142209
815.559783	0.142175
815.750203	0.142328
815.940605	0.142287
816.130988	0.142278
816.321353	0.142528
816.511700	0.142607
816.702028	0.142675
816.892339	0.142801
817.082631	0.142796
817.272905	0.142783
817.463161	0.142831
817.653398	0.143039
817.843617	0.143313
818.033819	0.143133
818.224001	0.143329
818.414166	0.143513
818.604312	0.143651
818.794440	0.143731
818.984550	0.144003
819.174642	0.144124
819.364716	0.144252
819.554771	0.144425
819.744808	0.144593
819.934827	0.144483
820.124827	0.144448
820.314810	0.144378
820.504774	0.144416
820.694720	0.144534
820.884647	0.144682
821.074557	0.144757
821.264448	0.144730
821.454321	0.145050
821.644176	0.145303
821.834012	0.145653
822.023831	0.145949
822.213631	0.146468
822.403413	0.146582
822.593176	0.146647
822.782922	0.146810
822.972649	0.147174
823.162358	0.147024
823.352049	0.147183
823.541721	0.147029
823.731376	0.147052
823.921012	0.147012
824.110629	0.146970
824.300229	0.147153
824.489811	0.147473
824.679374	0.147618
824.868919	0.147976
825.058445	0.148070
825.247954	0.148459
825.437444	0.148586
825.626916	0.148398
825.816370	0.148550
826.005806	0.148421
826.195223	0.148302
826.384622	0.148239
826.574003	0.148438
826.763366	0.148791
826.952711	0.148732
827.142037	0.148892
827.331345	0.149223
827.520635	0.149581
827.709906	0.150116
827.899160	0.150268
828.088395	0.150305
828.277612	0.150379
828.466810	0.150107
828.655991	0.150165
828.845153	0.150314
829.034297	0.150338
829.223423	0.150364
829.412531	0.150269
829.601620	0.150327
829.790691	0.150824
829.979744	0.150863
830.168779	0.151273
830.357795	0.151408
830.546793	0.151725
830.735773	0.152031
830.924735	0.152308
831.113679	0.152517
831.302604	0.152840
831.491511	0.152912
831.680400	0.153285
831.869271	0.153526
832.058123	0.153963
832.246957	0.153958
832.435773	0.154294
832.624571	0.154575
832.813351	0.154978
833.002112	0.155278
833.190855	0.155437
833.379580	0.155579
833.568287	0.155587
833.756975	0.155666
833.945645	0.155923
834.134297	0.155684
834.322931	0.155774
834.511547	0.155784
834.700144	0.155766
834.888723	0.155855
835.077284	0.155904
835.265826	0.156058
835.454351	0.156254
835.642857	0.156291
835.831345	0.156489
836.019815	0.156802
836.208266	0.156851
836.396699	0.157056
836.585114	0.157083
836.773511	0.157377
836.961890	0.157716
837.150250	0.158135
837.338592	0.158668
837.526916	0.159021
837.715222	0.159264
837.903510	0.159519
838.091779	0.159833
838.280030	0.160360
838.468263	0.160133
838.656477	0.160344
838.844674	0.160199
839.032852	0.160199
839.221012	0.160329
839.409153	0.160494
839.597277	0.160880
839.785382	0.160942
839.973469	0.161053
840.161538	0.161552
840.349589	0.161497
840.537621	0.161702
840.725635	0.162148
840.913631	0.162450
841.101609	0.162557
841.289568	0.162869
841.477509	0.163227
841.665432	0.163407
841.853337	0.163822
842.041224	0.164074
842.229092	0.164627
842.416942	0.164494
842.604774	0.164806
842.792588	0.165089
842.980383	0.165027
843.168160	0.165362
843.355919	0.165737
843.543660	0.165926
843.731382	0.166251
843.919087	0.166335
844.106773	0.166715
844.294441	0.166762
844.482090	0.166828
844.669722	0.167321
844.857335	0.167392
845.044930	0.167839
845.232507	0.168026
845.420065	0.168383
845.607605	0.168551
845.795127	0.168699
845.982631	0.169079
846.170117	0.169382
846.357584	0.169403
846.545033	0.169740
846.732464	0.169672
846.919877	0.169747
847.107272	0.169945
847.294648	0.170062
847.482006	0.170377
847.669346	0.170463
847.856667	0.170546
848.043971	0.170500
848.231256	0.170677
848.418523	0.170862
848.605771	0.171072
848.793002	0.171261
848.980214	0.171556
849.167408	0.171795
849.354584	0.171806
849.541742	0.171832
849.728881	0.172058
849.916002	0.172057
850.103105	0.171921
850.290190	0.171998
850.477256	0.171862
850.664304	0.171948
850.851334	0.171734
851.038346	0.172296
851.225340	0.172602
851.412315	0.172705
851.599272	0.172924
851.786211	0.173083
851.973132	0.173326
852.160034	0.173804
852.346918	0.174180
852.533784	0.174580
852.720632	0.174763
852.907462	0.175050
853.094273	0.175261
853.281066	0.175561
853.467841	0.175945
853.654598	0.176213
853.841336	0.175892
854.028056	0.175818
854.214758	0.176067
854.401442	0.175975
854.588107	0.176222
854.774755	0.176370
854.961384	0.176327
855.147995	0.176677
855.334587	0.176550
855.521162	0.176993
855.707718	0.177121
855.894256	0.177156
856.080775	0.177331
856.267277	0.177259
856.453760	0.177612
856.640225	0.177859
856.826672	0.177692
857.013101	0.178262
857.199511	0.178463
857.385903	0.178726
857.572277	0.178864
857.758633	0.179336
857.944970	0.179458
858.131290	0.179586
858.317591	0.179770
858.503873	0.180055
858.690138	0.180231
858.876384	0.180601
859.062612	0.180683
859.248822	0.180751
859.435014	0.180673
859.621188	0.181124
859.807343	0.181166
859.993480	0.181350
860.179599	0.181703
860.365699	0.181974
860.551781	0.181946
860.737846	0.182191
860.923891	0.182671
861.109919	0.182636
861.295929	0.182810
861.481920	0.183369
861.667893	0.183686
861.853848	0.183659
862.039784	0.183847
862.225702	0.184019
862.411603	0.184053
862.597484	0.184255
862.783348	0.184639
862.969193	0.184730
863.155021	0.184687
863.340830	0.184557
863.526620	0.184498
863.712393	0.184612
863.898147	0.185043
864.083883	0.185243
864.269601	0.185158
864.455301	0.185433
864.640982	0.185440
864.826645	0.185760
865.012290	0.185741
865.197917	0.186463
865.383526	0.186394
865.569116	0.186605
865.754688	0.186912
865.940242	0.187087
866.125777	0.187139
866.311295	0.187255
866.496794	0.187219
866.682275	0.187569
866.867737	0.187412
867.053182	0.187706
867.238608	0.187318
867.424016	0.187271
867.609406	0.187576
867.794778	0.187411
867.980131	0.187656
868.165466	0.187909
868.350783	0.187830
868.536082	0.188005
868.721362	0.187769
868.906625	0.188100
869.091869	0.188447
869.277094	0.188192
869.462302	0.188279
869.647491	0.188627
869.832662	0.188516
870.017815	0.188980
870.202950	0.189319
870.388066	0.189597
870.573165	0.189861
870.758245	0.190103
870.943306	0.190847
871.128350	0.191280
871.313375	0.190964
871.498382	0.191089
871.683371	0.191121
871.868342	0.191189
872.053294	0.191438
872.238229	0.191417
872.423144	0.191469
872.608042	0.191075
872.792922	0.191190
872.977783	0.191474
873.162626	0.191610
873.347451	0.191924
873.532258	0.191828
873.717046	0.192016
873.901816	0.192204
874.086568	0.191859
874.271302	0.191967
874.456017	0.191611
874.640715	0.192005
874.825394	0.192229
875.010055	0.192117
875.194697	0.192101
875.379322	0.192042
875.563928	0.191831
875.748516	0.192317
875.933085	0.192626
876.117637	0.192756
876.302170	0.192374
876.486685	0.192193
876.671182	0.192477
876.855661	0.192625
877.040121	0.192509
877.224563	0.192819
877.408987	0.192735
877.593393	0.192985
877.777780	0.193529
877.962150	0.193906
878.146501	0.194660
878.330833	0.194309
878.515148	0.194516
878.699444	0.194821
878.883722	0.194445
879.067982	0.194381
879.252224	0.194202
879.436447	0.194206
879.620653	0.194135
879.804840	0.193610
879.989008	0.193873
880.173159	0.193883
880.357291	0.193983
880.541405	0.194424
880.725501	0.195006
880.909579	0.195405
881.093638	0.195423
881.277680	0.195428
881.461703	0.195738
881.645707	0.195749
881.829694	0.195797
882.013662	0.195730
882.197612	0.195889
882.381544	0.195919
882.565458	0.195827
882.749353	0.195961
882.933230	0.196107
883.117089	0.196077
883.300930	0.196470
883.484753	0.196487
883.668557	0.196458
883.852343	0.196806
884.036111	0.196654
884.219861	0.196603
884.403592	0.196630
884.587305	0.196481
884.771000	0.196626
884.954677	0.196642
885.138335	0.196553
885.321976	0.196600
885.505598	0.196217
885.689201	0.196495
885.872787	0.196552
886.056354	0.196577
886.239904	0.196808
886.423434	0.196685
886.606947	0.196463
886.790442	0.196490
886.973918	0.196819
887.157376	0.196740
887.340816	0.196294
887.524237	0.196177
887.707641	0.195870
887.891026	0.195626
888.074393	0.195462
888.257741	0.195450
888.441072	0.195560
888.624384	0.195340
888.807678	0.195357
888.990954	0.195241
889.174211	0.194930
889.357451	0.195086
889.540672	0.195294
889.723875	0.195350
889.907059	0.195195
890.090226	0.195006
890.273374	0.195053
890.456504	0.194991
890.639616	0.195327
890.822709	0.195665
891.005785	0.195396
891.188842	0.195313
891.371881	0.195397
891.554901	0.195626
891.737904	0.195973
891.920888	0.196120
892.103854	0.196481
892.286802	0.196508
892.469731	0.196288
892.652643	0.196224
892.835536	0.195829
893.018410	0.195724
893.201267	0.195685
893.384106	0.195428
893.566926	0.195330
893.749728	0.195155
893.932511	0.194774
894.115277	0.194757
894.298024	0.194875
894.480753	0.195251
894.663464	0.195266
894.846157	0.195188
895.028831	0.195172
895.211487	0.194962
895.394125	0.194484
895.576745	0.194169
895.759346	0.194156
895.941930	0.194137
896.124495	0.194003
896.307041	0.193957
896.489570	0.193613
896.672080	0.193675
896.854573	0.193509
897.037046	0.193844
897.219502	0.194156
897.401940	0.194176
897.584359	0.194178
897.766760	0.194122
897.949143	0.194034
898.131507	0.194478
898.313854	0.194008
898.496182	0.193668
898.678492	0.193794
898.860783	0.193989
899.043057	0.193610
899.225312	0.193453
899.407549	0.193125
899.589768	0.193063
899.771968	0.192415
899.954151	0.192445
900.136315	0.192519
900.318461	0.191968
900.500588	0.191430
900.682698	0.191606
900.864789	0.191057
901.046862	0.191202
901.228917	0.190576
901.410953	0.190650
901.592971	0.190187
901.774972	0.189918
901.956953	0.189466
902.138917	0.189131
902.320862	0.188524
902.502790	0.188521
902.684699	0.188136
902.866589	0.188594
903.048462	0.188226
903.230316	0.188299
903.412152	0.188127
903.593970	0.188303
903.775770	0.188084
903.957551	0.188314
904.139314	0.188335
904.321059	0.187940
904.502786	0.187344
904.684494	0.187458
904.866185	0.187435
905.047857	0.187783
905.229510	0.187490
905.411146	0.187559
905.592763	0.186985
905.774363	0.186980
905.955943	0.187202
906.137506	0.186974
906.319051	0.186377
906.500577	0.186027
906.682085	0.185537
906.863575	0.185817
907.045046	0.185558
907.226500	0.185888
907.407935	0.185231
907.589352	0.184710
907.770750	0.184830
907.952131	0.185044
908.133493	0.184989
908.314837	0.184942
908.496163	0.184649
908.677470	0.184457
908.858760	0.184025
909.040031	0.184464
909.221284	0.184440
909.402518	0.184148
909.583735	0.184103
909.764933	0.183554
909.946113	0.183053
910.127275	0.182773
910.308418	0.182297
910.489544	0.182146
910.670651	0.181294
910.851740	0.180769
911.032810	0.180512
911.213863	0.179916
911.394897	0.179751
911.575913	0.179481
911.756911	0.178898
911.937890	0.179494
912.118851	0.179310
912.299794	0.179397
912.480719	0.179610
912.661626	0.179223
912.842514	0.179380
913.023384	0.179159
913.204236	0.178697
913.385070	0.178397
913.565886	0.177500
913.746683	0.177042
913.927462	0.176650
914.108223	0.176115
914.288965	0.175745
914.469690	0.174825
914.650396	0.174607
914.831084	0.174324
915.011754	0.174248
915.192405	0.174358
915.373038	0.174095
915.553653	0.174031
915.734250	0.173809
915.914829	0.173616
916.095389	0.173569
916.275931	0.173405
916.456455	0.173287
916.636961	0.172975
916.817448	0.172429
916.997917	0.171857
917.178368	0.171264
917.358801	0.170841
917.539216	0.170218
917.719612	0.169679
917.899990	0.169293
918.080350	0.169230
918.260692	0.168643
918.441015	0.168208
918.621320	0.168290
918.801607	0.168152
918.981876	0.168033
919.162127	0.168342
919.342359	0.168006
919.522573	0.167528
919.702769	0.166986
919.882947	0.167053
920.063106	0.166591
920.243247	0.165973
920.423370	0.165354
920.603475	0.164885
920.783562	0.164000
920.963630	0.163620
921.143680	0.163303
921.323712	0.163079
921.503725	0.162338
921.683721	0.161990
921.863698	0.161440
922.043657	0.161383
922.223598	0.161099
922.403520	0.161124
922.583424	0.160618
922.763311	0.160399
922.943178	0.160028
923.123028	0.159617
923.302859	0.159283
923.482673	0.158660
923.662467	0.158257
923.842244	0.157662
924.022003	0.156618
924.201743	0.156119
924.381465	0.155427
924.561169	0.154756
924.740854	0.154283
924.920522	0.153557
925.100171	0.153758
925.279802	0.152842
925.459414	0.152542
925.639009	0.152326
925.818585	0.151971
925.998143	0.151826
926.177683	0.150576
926.357205	0.150427
926.536708	0.149897
926.716193	0.149104
926.895660	0.149185
927.075109	0.148602
927.254539	0.148635
927.433951	0.148387
927.613345	0.148060
927.792721	0.148509
927.972079	0.148287
928.151418	0.148871
928.330739	0.148644
928.510042	0.147425
928.689327	0.147659
928.868593	0.147218
929.047841	0.146188
929.227071	0.144971
929.406283	0.144190
929.585476	0.143008
929.764652	0.141439
929.943809	0.140780
930.122948	0.141019
930.302068	0.139804
930.481171	0.138620
930.660255	0.138534
930.839321	0.138778
931.018369	0.137922
931.197398	0.137510
931.376409	0.136876
931.555402	0.135993
931.734377	0.134690
931.913334	0.134881
932.092272	0.134855
932.271192	0.133609
932.450094	0.131840
932.628978	0.131530
932.807844	0.131145
932.986691	0.130984
933.165520	0.130922
933.344331	0.130887
933.523123	0.129591
933.701898	0.128779
933.880654	0.129141
934.059392	0.129969
934.238111	0.129530
934.416813	0.128534
934.595496	0.127980
934.774161	0.127590
934.952808	0.126874
935.131437	0.126308
935.310047	0.125551
935.488639	0.124922
935.667213	0.123787
935.845769	0.123383
936.024306	0.123857
936.202825	0.123580
936.381326	0.122166
936.559809	0.121774
936.738274	0.121239
936.916720	0.121445
937.095148	0.121272
937.273558	0.120724
937.451950	0.120150
937.630323	0.119123
937.808678	0.118088
937.987015	0.118088
938.165334	0.117310
938.343635	0.116672
938.521917	0.116023
938.700181	0.115247
938.878427	0.114589
939.056655	0.114870
939.234864	0.114866
939.413055	0.115853
939.591228	0.115762
939.769383	0.116164
939.947519	0.116099
940.125638	0.114726
940.303738	0.114106
940.481820	0.112983
940.659883	0.110725
940.837929	0.109683
941.015956	0.107972
941.193965	0.107250
941.371955	0.106695
941.549928	0.105386
941.727882	0.105251
941.905818	0.105673
942.083736	0.106087
942.261636	0.106698
942.439517	0.106262
942.617380	0.105938
942.795225	0.106117
942.973052	0.104032
943.150860	0.103019
943.328651	0.102255
943.506423	0.100416
943.684176	0.099394
943.861912	0.098459
944.039629	0.097142
944.217328	0.096035
944.395009	0.094390
944.572672	0.095326
944.750317	0.094731
944.927943	0.093606
945.105551	0.093648
945.283141	0.092681
945.460712	0.091333
945.638265	0.091094
945.815801	0.090497
945.993317	0.089698
946.170816	0.089132
946.348297	0.089800
946.525759	0.089346
946.703203	0.087750
946.880629	0.087108
947.058036	0.086951
947.235425	0.086420
947.412797	0.086868
947.590149	0.086667
947.767484	0.085538
947.944800	0.084155
948.122099	0.083197
948.299379	0.083023
948.476640	0.082928
948.653884	0.082729
948.831109	0.082060
949.008316	0.080745
949.185505	0.080660
949.362676	0.079238
949.539828	0.077741
949.716962	0.078101
949.894078	0.078512
950.071176	0.079291
950.248256	0.079781
950.425317	0.079398
950.602360	0.078983
950.779385	0.079257
950.956391	0.079399
951.133380	0.080740
951.310350	0.079344
951.487302	0.078938
951.664235	0.076612
951.841151	0.075394
952.018048	0.074319
952.194927	0.073147
952.371788	0.070800
952.548631	0.070306
952.725455	0.069929
952.902261	0.070714
953.079049	0.068457
953.255819	0.068912
953.432570	0.068081
953.609303	0.068054
953.786018	0.068708
953.962715	0.068307
954.139394	0.068176
954.316054	0.066533
954.492696	0.066960
954.669320	0.067269
954.845926	0.067428
955.022513	0.067330
955.199083	0.067673
955.375634	0.068032
955.552166	0.068158
955.728681	0.067229
955.905177	0.067145
956.081655	0.066377
956.258115	0.066272
956.434557	0.066102
956.610980	0.065736
956.787385	0.064431
956.963772	0.062498
957.140141	0.060851
957.316492	0.060824
957.492824	0.060450
957.669138	0.059865
957.845434	0.060102
958.021712	0.059074
958.197971	0.059239
958.374212	0.059994
958.550435	0.059302
958.726640	0.058595
958.902826	0.058629
959.078995	0.059331
959.255145	0.058593
959.431277	0.057005
959.607390	0.056294
959.783486	0.057685
959.959563	0.055900
960.135622	0.055584
960.311662	0.058263
960.487685	0.058923
960.663689	0.058377
960.839675	0.058385
961.015643	0.059497
961.191593	0.060108
961.367524	0.057061
961.543437	0.057911
961.719332	0.057048
961.895209	0.054755
962.071067	0.053470
962.246907	0.050893
962.422730	0.050076
962.598533	0.050352
962.774319	0.048316
962.950086	0.048818
963.125835	0.049281
963.301566	0.050127
963.477279	0.050950
963.652973	0.051386
963.828650	0.052896
964.004308	0.052399
964.179947	0.051400
964.355569	0.052492
964.531172	0.052468
964.706757	0.053256
964.882324	0.052443
965.057873	0.051812
965.233403	0.052437
965.408916	0.052721
965.584410	0.054145
965.759885	0.056005
965.935343	0.056669
966.110782	0.058209
966.286203	0.056397
966.461606	0.058263
966.636991	0.057510
966.812357	0.057941
966.987705	0.058426
967.163035	0.057517
967.338347	0.052719
967.513641	0.052214
967.688916	0.052542
967.864173	0.053950
968.039412	0.052936
968.214632	0.053250
968.389835	0.052913
968.565019	0.053226
968.740185	0.053939
968.915333	0.056056
969.090462	0.054870
969.265573	0.054487
969.440667	0.054398
969.615741	0.053203
969.790798	0.054712
969.965836	0.052947
970.140856	0.052810
970.315858	0.052395
970.490842	0.055634
970.665808	0.057233
970.840755	0.056404
971.015684	0.054203
971.190595	0.055422
971.365487	0.055186
971.540362	0.055310
971.715218	0.055257
971.890056	0.057082
972.064875	0.055926
972.239677	0.054982
972.414460	0.057033
972.589225	0.058911
972.763972	0.057981
972.938700	0.057757
973.113411	0.058446
973.288103	0.056424
973.462777	0.054375
973.637432	0.054404
973.812070	0.055415
973.986689	0.054236
974.161290	0.052538
974.335873	0.052858
974.510437	0.053382
974.684984	0.054047
974.859512	0.056624
975.034022	0.056131
975.208513	0.055857
975.382987	0.053973
975.557442	0.052961
975.731879	0.053004
975.906298	0.053934
976.080698	0.053180
976.255080	0.052309
976.429445	0.051492
976.603790	0.050800
976.778118	0.049609
976.952427	0.052987
977.126719	0.054721
977.300992	0.057012
977.475246	0.057172
977.649483	0.057227
977.823701	0.057117
977.997901	0.057153
978.172083	0.058340
978.346247	0.058988
978.520392	0.057873
978.694519	0.054983
978.868628	0.053338
979.042719	0.052892
979.216791	0.053485
979.390845	0.054230
979.564882	0.053513
979.738899	0.055064
979.912899	0.054420
980.086880	0.054586
980.260843	0.057610
980.434788	0.057807
980.608715	0.059682
980.782623	0.060411
980.956514	0.059412
981.130386	0.058811
981.304240	0.058656
981.478075	0.060596
981.651892	0.059988
981.825692	0.058854
981.999472	0.059326
982.173235	0.058008
982.346980	0.057572
982.520706	0.057688
982.694414	0.061194
982.868104	0.058112
983.041775	0.057300
983.215428	0.056765
983.389064	0.056159
983.562680	0.054323
983.736279	0.053944
983.909860	0.052796
984.083422	0.053597
984.256966	0.051453
984.430491	0.054163
984.603999	0.054829
984.777488	0.054665
984.950959	0.054379
985.124412	0.055337
985.297847	0.057179
985.471263	0.059304
985.644661	0.059348
985.818041	0.059569
985.991403	0.059363
986.164747	0.058198
986.338072	0.057589
986.511379	0.058226
986.684668	0.060968
986.857938	0.061182
987.031191	0.059669
987.204425	0.058501
987.377641	0.058215
987.550839	0.058534
987.724018	0.059001
987.897179	0.061029
988.070322	0.061093
988.243447	0.059384
988.416554	0.059531
988.589642	0.059171
988.762712	0.058731
988.935764	0.060726
989.108798	0.058952
989.281813	0.056857
989.454811	0.056699
989.627790	0.056430
989.800751	0.056393
989.973693	0.054436
990.146617	0.053162
990.319524	0.051962
990.492412	0.050862
990.665281	0.050458
990.838133	0.052208
991.010966	0.051329
991.183781	0.051669
991.356578	0.051611
991.529356	0.052718
991.702117	0.054120
991.874859	0.056634
992.047583	0.056256
992.220288	0.058575
992.392976	0.058191
992.565645	0.058099
992.738296	0.056041
992.910929	0.054635
993.083543	0.053975
993.256139	0.054248
993.428718	0.054750
993.601277	0.055765
993.773819	0.053857
993.946342	0.053456
994.118848	0.053892
994.291335	0.054590
994.463803	0.056468
994.636254	0.056569
994.808686	0.055879
994.981100	0.052935
995.153496	0.052012
995.325874	0.052680
995.498233	0.053503
995.670574	0.053604
995.842897	0.054781
996.015202	0.054437
996.187488	0.052169
996.359757	0.051836
996.532007	0.052653
996.704239	0.053503
996.876452	0.054095
997.048648	0.054971
997.220825	0.053840
997.392984	0.053337
997.565124	0.052180
997.737247	0.054369
997.909351	0.054985
998.081437	0.055316
998.253505	0.053886
998.425554	0.053266
998.597586	0.053010
998.769599	0.054007
998.941594	0.054615
999.113571	0.056385
999.285529	0.055433
999.457469	0.056717
999.629391	0.057299
999.801295	0.056381
999.973181	0.055988
1000.145048	0.055376
1000.316897	0.054905
1000.488728	0.055009
1000.660541	0.055307
1000.832335	0.057516
1001.004111	0.056435
1001.175869	0.057269
1001.347609	0.058405
1001.519331	0.058933
1001.691034	0.058676
1001.862719	0.057779
1002.034386	0.057265
1002.206035	0.055028
1002.377665	0.054574
1002.549277	0.052664
1002.720871	0.051686
1002.892447	0.052451
1003.064004	0.052513
1003.235544	0.052090
1003.407065	0.052990
1003.578568	0.053636
1003.750052	0.052488
1003.921519	0.051165
1004.092967	0.052875
1004.264397	0.053087
1004.435809	0.052111
1004.607202	0.052827
1004.778577	0.051091
1004.949934	0.052374
1005.121273	0.051864
1005.292594	0.053469
1005.463896	0.053523
1005.635180	0.053479
1005.806446	0.053439
1005.977694	0.054511
1006.148923	0.054046
1006.320135	0.055013
1006.491328	0.055266
1006.662503	0.053988
1006.833659	0.054990
1007.004798	0.053153
1007.175918	0.053174
1007.347020	0.053404
1007.518103	0.054055
1007.689169	0.053044
1007.860216	0.054140
1008.031245	0.053303
1008.202256	0.054630
1008.373248	0.055068
1008.544223	0.056532
1008.715179	0.057832
1008.886117	0.056805
1009.057036	0.055636
1009.227938	0.056446
1009.398821	0.054453
1009.569686	0.053081
1009.740533	0.052658
1009.911361	0.051670
1010.082172	0.051152
1010.252964	0.049626
1010.423738	0.050221
1010.594493	0.050304
1010.765231	0.049623
1010.935950	0.052197
1011.106651	0.052645
1011.277334	0.052803
1011.447998	0.053076
1011.618645	0.054478
1011.789273	0.054503
1011.959882	0.055373
1012.130474	0.055250
1012.301048	0.055845
1012.471603	0.055344
1012.642140	0.056652
1012.812658	0.056661
1012.983159	0.056785
1013.153641	0.056039
1013.324105	0.055853
1013.494551	0.055210
1013.664979	0.054962
1013.835388	0.055197
1014.005779	0.054066
1014.176152	0.053825
1014.346507	0.052999
1014.516843	0.052666
1014.687162	0.051859
1014.857462	0.052038
1015.027744	0.051497
1015.198007	0.052252
1015.368252	0.051689
1015.538480	0.053068
1015.708689	0.053691
1015.878879	0.053196
1016.049052	0.052668
1016.219206	0.053556
1016.389342	0.052975
1016.559460	0.054136
1016.729559	0.052144
1016.899641	0.051580
1017.069704	0.051441
1017.239749	0.050430
1017.409775	0.051902
1017.579784	0.053025
1017.749774	0.053339
1017.919746	0.053445
1018.089700	0.053972
1018.259635	0.054785
1018.429553	0.056297
1018.599452	0.057170
1018.769333	0.056879
1018.939195	0.055966
1019.109040	0.056610
1019.278866	0.056199
1019.448674	0.055806
1019.618464	0.054893
1019.788235	0.055877
1019.957989	0.055253
1020.127724	0.053990
1020.297441	0.053756
1020.467139	0.054904
1020.636820	0.053540
1020.806482	0.052650
1020.976126	0.053901
1021.145752	0.053698
1021.315359	0.052268
1021.484948	0.052262
1021.654519	0.052783
1021.824072	0.052876
1021.993607	0.053714
1022.163123	0.053394
1022.332621	0.054183
1022.502101	0.052402
1022.671563	0.052589
1022.841007	0.052869
1023.010432	0.051131
1023.179839	0.049687
1023.349228	0.048064
1023.518598	0.046845
1023.687951	0.046953
1023.857285	0.048219
1024.026601	0.051403
1024.195899	0.052210
1024.365178	0.054274
1024.534439	0.055828
1024.703682	0.057875
1024.872907	0.059130
1025.042114	0.059376
1025.211302	0.059608
1025.380472	0.057948
1025.549624	0.056511
1025.718758	0.055079
1025.887873	0.055004
1026.056970	0.054630
1026.226049	0.053321
1026.395110	0.053144
1026.564153	0.052223
1026.733177	0.052238
1026.902183	0.052259
1027.071171	0.052832
1027.240141	0.053626
1027.409092	0.051529
1027.578026	0.052805
1027.746940	0.053368
1027.915837	0.053634
1028.084716	0.053335
1028.253576	0.052713
1028.422418	0.053384
1028.591242	0.051605
1028.760048	0.052618
1028.928835	0.054713
1029.097604	0.052982
1029.266355	0.052675
1029.435088	0.053520
1029.603803	0.054713
1029.772499	0.055678
1029.941177	0.056570
1030.109837	0.058537
1030.278478	0.056787
1030.447102	0.055606
1030.615707	0.056478
1030.784294	0.055917
1030.952863	0.055167
1031.121413	0.053857
1031.289945	0.053320
1031.458460	0.051677
1031.626955	0.049001
1031.795433	0.049353
1031.963892	0.049222
1032.132334	0.048322
1032.300756	0.047426
1032.469161	0.048464
1032.637548	0.050042
1032.805916	0.049542
1032.974266	0.048633
1033.142598	0.050149
1033.310911	0.048799
1033.479207	0.048131
1033.647484	0.049338
1033.815743	0.050054
1033.983983	0.048406
1034.152206	0.047274
1034.320410	0.047077
1034.488596	0.048347
1034.656764	0.049742
1034.824914	0.052035
1034.993045	0.052662
1035.161158	0.053167
1035.329253	0.052216
1035.497330	0.053100
1035.665388	0.053706
1035.833428	0.053908
1036.001450	0.053946
1036.169454	0.051764
1036.337440	0.050890
1036.505407	0.050436
1036.673356	0.049219
1036.841287	0.050302
1037.009200	0.048675
1037.177094	0.048069
1037.344970	0.049087
1037.512828	0.050081
1037.680668	0.051342
1037.848489	0.051974
1038.016293	0.050650
1038.184078	0.052286
1038.351845	0.052243
1038.519593	0.054105
1038.687324	0.054306
1038.855036	0.053453
1039.022730	0.052178
1039.190406	0.051442
1039.358063	0.050227
1039.525702	0.051744
1039.693323	0.049835
1039.860926	0.050395
1040.028511	0.050482
1040.196077	0.050771
1040.363625	0.051980
1040.531155	0.053090
1040.698667	0.052113
1040.866161	0.052900
1041.033636	0.052816
1041.201093	0.052475
1041.368532	0.052400
1041.535952	0.051233
1041.703355	0.049175
1041.870739	0.048725
1042.038105	0.048171
1042.205452	0.049278
1042.372782	0.048163
1042.540093	0.048790
1042.707386	0.048757
1042.874661	0.047905
1043.041918	0.048430
1043.209156	0.050256
1043.376376	0.049515
1043.543578	0.050438
1043.710762	0.050297
1043.877927	0.049484
1044.045074	0.048094
1044.212203	0.049666
1044.379314	0.050489
1044.546407	0.050111
1044.713481	0.050342
1044.880537	0.050122
1045.047575	0.050641
1045.214595	0.050520
1045.381596	0.051395
1045.548579	0.053232
1045.715544	0.053836
1045.882491	0.054414
1046.049420	0.055502
1046.216330	0.054648
1046.383222	0.054636
1046.550096	0.052892
1046.716951	0.052395
1046.883789	0.052466
1047.050608	0.051578
1047.217409	0.052238
1047.384192	0.048776
1047.550956	0.047145
1047.717703	0.047072
1047.884431	0.047205
1048.051140	0.047368
1048.217832	0.047144
1048.384505	0.049078
1048.551161	0.048860
1048.717798	0.046189
1048.884416	0.049104
1049.051017	0.049696
1049.217599	0.050631
1049.384163	0.051751
1049.550709	0.049777
1049.717237	0.052706
1049.883746	0.051505
1050.050237	0.050632
1050.216710	0.052565
1050.383165	0.051351
1050.549601	0.050647
1050.716019	0.051117
1050.882420	0.050597
1051.048801	0.051197
1051.215165	0.048343
1051.381510	0.048222
1051.547837	0.050360
1051.714146	0.047514
1051.880437	0.050173
1052.046709	0.051031
1052.212964	0.051130
1052.379200	0.050904
1052.545417	0.052291
1052.711617	0.052148
1052.877798	0.051245
1053.043961	0.049212
1053.210106	0.051653
1053.376233	0.050847
1053.542341	0.051961
1053.708432	0.051399
1053.874504	0.052043
1054.040557	0.052380
1054.206593	0.054965
1054.372610	0.056255
1054.538609	0.057761
1054.704590	0.059064
1054.870553	0.057767
1055.036497	0.056561
1055.202424	0.055881
1055.368331	0.056178
1055.534221	0.054895
1055.700093	0.054620
1055.865946	0.053734
1056.031781	0.052289
1056.197598	0.048697
1056.363397	0.050855
1056.529177	0.051403
1056.694939	0.052733
1056.860683	0.051671
1057.026409	0.051964
1057.192116	0.050693
1057.357806	0.051630
1057.523477	0.052958
1057.689130	0.054831
1057.854764	0.053713
1058.020381	0.055598
1058.185979	0.054352
1058.351559	0.054106
1058.517120	0.055353
1058.682664	0.055544
1058.848189	0.054790
1059.013696	0.052998
1059.179185	0.051928
1059.344656	0.050631
1059.510108	0.049145
1059.675542	0.050535
1059.840958	0.050934
1060.006356	0.051062
1060.171735	0.051016
1060.337096	0.052192
1060.502439	0.054105
1060.667764	0.055889
1060.833071	0.056633
1060.998359	0.056253
1061.163629	0.053593
1061.328881	0.053957
1061.494115	0.052142
1061.659330	0.051807
1061.824527	0.051491
1061.989706	0.051914
1062.154867	0.050367
1062.320010	0.051213
1062.485134	0.051720
1062.650240	0.053427
1062.815328	0.053982
1062.980398	0.056167
1063.145449	0.057882
1063.310482	0.058131
1063.475497	0.057469
1063.640494	0.058329
1063.805473	0.057494
1063.970433	0.056746
1064.135375	0.056807
1064.300299	0.057218
1064.465204	0.056329
1064.630092	0.053953
1064.794961	0.054114
1064.959812	0.053908
1065.124645	0.053765
1065.289459	0.053192
1065.454256	0.053456
1065.619034	0.054195
1065.783793	0.052962
1065.948535	0.051762
1066.113258	0.054159
1066.277964	0.054353
1066.442651	0.053086
1066.607319	0.051755
1066.771970	0.054487
1066.936602	0.054660
1067.101216	0.053095
1067.265812	0.053950
1067.430389	0.053812
1067.594949	0.051681
1067.759490	0.050814
1067.924013	0.052875
1068.088518	0.053675
1068.253004	0.051384
1068.417472	0.050391
1068.581922	0.051224
1068.746354	0.050215
1068.910768	0.051131
1069.075163	0.052472
1069.239540	0.052039
1069.403899	0.052295
1069.568240	0.051047
1069.732562	0.052475
1069.896866	0.054256
1070.061152	0.055088
1070.225420	0.055308
1070.389670	0.056422
1070.553901	0.056285
1070.718114	0.057377
1070.882309	0.054553
1071.046486	0.056403
1071.210644	0.056408
1071.374784	0.056527
1071.538906	0.056524
1071.703010	0.057830
1071.867096	0.058718
1072.031163	0.059808
1072.195212	0.060009
1072.359243	0.062285
1072.523256	0.062961
1072.687250	0.062988
1072.851226	0.062707
1073.015184	0.063365
1073.179124	0.062142
1073.343045	0.060910
1073.506949	0.061739
1073.670834	0.062385
1073.834701	0.063187
1073.998549	0.062009
1074.162380	0.061754
1074.326192	0.063373
1074.489986	0.062327
1074.653761	0.062741
1074.817519	0.062168
1074.981258	0.059883
1075.144979	0.058804
1075.308682	0.055814
1075.472367	0.057626
1075.636033	0.054948
1075.799681	0.052984
1075.963311	0.052005
1076.126923	0.052223
1076.290516	0.052240
1076.454092	0.053018
1076.617649	0.053348
1076.781187	0.055035
1076.944708	0.053188
1077.108210	0.055557
1077.271695	0.056125
1077.435160	0.056209
1077.598608	0.056313
1077.762038	0.057670
1077.925449	0.057095
1078.088842	0.054995
1078.252217	0.054256
1078.415573	0.054292
1078.578912	0.053951
1078.742232	0.053168
1078.905534	0.054551
1079.068817	0.051061
1079.232083	0.052462
1079.395330	0.053621
1079.558559	0.056802
1079.721770	0.058289
1079.884962	0.059229
1080.048136	0.058897
1080.211293	0.061471
1080.374430	0.060406
1080.537550	0.064432
1080.700651	0.061676
1080.863735	0.061182
1081.026800	0.060279
1081.189846	0.060701
1081.352875	0.060243
1081.515885	0.060729
1081.678877	0.059419
1081.841851	0.060004
1082.004807	0.061240
1082.167744	0.063109
1082.330663	0.064327
1082.493564	0.063277
1082.656447	0.063500
1082.819312	0.063229
1082.982158	0.062203
1083.144986	0.062764
1083.307796	0.063329
1083.470587	0.062130
1083.633361	0.063736
1083.796116	0.063205
1083.958853	0.064059
1084.121571	0.063799
1084.284272	0.063915
1084.446954	0.065114
1084.609618	0.062779
1084.772264	0.062449
1084.934892	0.061205
1085.097501	0.060012
1085.260092	0.059748
1085.422665	0.057920
1085.585220	0.059476
1085.747756	0.061097
1085.910274	0.061155
1086.072774	0.061954
1086.235256	0.062487
1086.397720	0.064140
1086.560165	0.063860
1086.722592	0.064976
1086.885001	0.064832
1087.047392	0.063265
1087.209764	0.060836
1087.372119	0.060128
1087.534455	0.057918
1087.696772	0.057548
1087.859072	0.057641
1088.021353	0.058342
1088.183616	0.057477
1088.345861	0.057436
1088.508088	0.058619
1088.670296	0.059972
1088.832486	0.058326
1088.994658	0.063233
1089.156812	0.063137
1089.318948	0.062733
1089.481065	0.061165
1089.643164	0.059767
1089.805245	0.060108
1089.967308	0.062346
1090.129352	0.064396
1090.291378	0.066729
1090.453386	0.065253
1090.615376	0.064177
1090.777347	0.064544
1090.939301	0.064718
1091.101236	0.066210
1091.263153	0.068017
1091.425051	0.065684
1091.586932	0.064914
1091.748794	0.065319
1091.910638	0.064323
1092.072463	0.065325
1092.234271	0.065893
1092.396060	0.063928
1092.557831	0.063193
1092.719584	0.063001
1092.881319	0.060557
1093.043035	0.060271
1093.204733	0.058525
1093.366413	0.060372
1093.528075	0.057545
1093.689718	0.056577
1093.851343	0.057459
1094.012950	0.058665
1094.174539	0.058702
1094.336110	0.057701
1094.497662	0.057825
1094.659196	0.060507
1094.820712	0.058346
1094.982210	0.062670
1095.143689	0.063023
1095.305151	0.065836
1095.466594	0.066130
1095.628018	0.066097
1095.789425	0.068650
1095.950813	0.068997
1096.112183	0.067185
1096.273535	0.065956
1096.434869	0.064787
1096.596184	0.062873
1096.757482	0.061365
1096.918761	0.056645
1097.080021	0.057072
1097.241264	0.056408
1097.402488	0.056357
1097.563694	0.056775
1097.724882	0.058010
1097.886052	0.058817
1098.047203	0.058980
1098.208336	0.061435
1098.369451	0.063255
1098.530548	0.062298
1098.691627	0.062777
1098.852687	0.060856
1099.013729	0.060008
1099.174753	0.060952
1099.335758	0.062918
1099.496746	0.065484
1099.657715	0.065207
1099.818666	0.065520
1099.979599	0.064942
1100.140513	0.068693
1100.301409	0.070793
1100.462287	0.071580
1100.623147	0.070367
1100.783989	0.066725
1100.944812	0.063196
1101.105617	0.061478
1101.266404	0.061909
1101.427173	0.063280
1101.587923	0.057617
1101.748656	0.056483
1101.909370	0.056963
1102.070066	0.057169
1102.230743	0.055912
1102.391403	0.058952
1102.552044	0.059924
1102.712667	0.062382
1102.873271	0.063587
1103.033858	0.063608
1103.194426	0.065032
1103.354976	0.065272
1103.515508	0.065942
1103.676021	0.068904
1103.836517	0.066947
1103.996994	0.062987
1104.157453	0.060279
1104.317893	0.060929
1104.478316	0.068264
1104.638720	0.068844
1104.799106	0.066980
1104.959474	0.066746
1105.119823	0.066192
1105.280155	0.066726
1105.440468	0.069885
1105.600763	0.070327
1105.761039	0.069832
1105.921298	0.065649
1106.081538	0.064195
1106.241760	0.064153
1106.401964	0.064328
1106.562149	0.066467
1106.722316	0.065564
1106.882465	0.063062
1107.042596	0.066052
1107.202709	0.065819
1107.362803	0.065805
1107.522879	0.065314
1107.682937	0.066635
1107.842977	0.069929
1108.002999	0.068670
1108.163002	0.074878
1108.322987	0.076257
1108.482954	0.074837
1108.642902	0.075243
1108.802833	0.071778
1108.962745	0.074594
1109.122639	0.076068
1109.282515	0.072390
1109.442372	0.072614
1109.602211	0.065987
1109.762032	0.064004
1109.921835	0.066338
1110.081620	0.066290
1110.241386	0.068618
1110.401134	0.064817
1110.560864	0.062967
1110.720576	0.065217
1110.880269	0.066513
1111.039945	0.070562
1111.199602	0.070075
1111.359240	0.067229
1111.518861	0.066116
1111.678463	0.069187
1111.838047	0.068834
1111.997613	0.068654
1112.157161	0.066215
1112.316690	0.064684
1112.476202	0.060839
1112.635695	0.060939
1112.795169	0.060759
1112.954626	0.061676
1113.114064	0.058156
1113.273484	0.061725
1113.432886	0.065441
1113.592270	0.068731
1113.751635	0.069782
1113.910983	0.069839
1114.070312	0.072258
1114.229622	0.070404
1114.388915	0.068649
1114.548189	0.071578
1114.707445	0.069504
1114.866683	0.067870
1115.025903	0.064639
1115.185104	0.065792
1115.344287	0.068066
1115.503452	0.064076
1115.662599	0.064938
1115.821727	0.064856
1115.980838	0.061477
1116.139930	0.059568
1116.299004	0.058849
1116.458059	0.054741
1116.617097	0.051202
1116.776116	0.051903
1116.935117	0.059137
1117.094099	0.057843
1117.253064	0.057920
1117.412010	0.061044
1117.570938	0.065235
1117.729848	0.064873
1117.888740	0.066975
1118.047613	0.069061
1118.206468	0.069366
1118.365305	0.071398
1118.524124	0.073865
1118.682924	0.076015
1118.841707	0.073268
1119.000471	0.075490
1119.159216	0.076704
1119.317944	0.083449
1119.476653	0.083513
1119.635344	0.081306
1119.794017	0.076228
1119.952672	0.075158
1120.111308	0.076569
1120.269927	0.077412
1120.428527	0.074380
1120.587108	0.072444
1120.745672	0.065902
1120.904217	0.066571
1121.062744	0.062736
1121.221253	0.057739
1121.379744	0.060671
1121.538216	0.056491
1121.696671	0.058327
1121.855107	0.058658
1122.013524	0.061123
1122.171924	0.060001
1122.330305	0.061836
1122.488668	0.063856
1122.647013	0.073119
1122.805340	0.070104
1122.963648	0.070261
1123.121938	0.067504
1123.280210	0.063657
1123.438464	0.061993
1123.596700	0.066453
1123.754917	0.058159
1123.913116	0.058371
1124.071297	0.054445
1124.229459	0.052982
1124.387604	0.057519
1124.545730	0.058443
1124.703838	0.060041
1124.861928	0.058462
1125.019999	0.059622
1125.178052	0.064826
1125.336088	0.067557
1125.494104	0.066879
1125.652103	0.072922
1125.810083	0.067258
1125.968045	0.066322
1126.125989	0.073035
1126.283915	0.076427
1126.441823	0.076425
1126.599712	0.074235
1126.757583	0.076239
1126.915436	0.078280
1127.073270	0.076148
1127.231087	0.077633
1127.388885	0.076552
1127.546665	0.068659
1127.704426	0.070506
1127.862170	0.069523
1128.019895	0.070488
1128.177602	0.069953
1128.335291	0.065493
1128.492961	0.064766
1128.650614	0.064178
1128.808248	0.067924
1128.965864	0.072192
1129.123461	0.072413
1129.281041	0.068594
1129.438602	0.072375
1129.596145	0.076141
1129.753670	0.081131
1129.911176	0.080657
1130.068665	0.080162
1130.226135	0.080868
1130.383587	0.077886
1130.541020	0.073702
1130.698436	0.075708
1130.855833	0.071048
1131.013212	0.069034
1131.170573	0.064951
1131.327915	0.065689
1131.485239	0.059562
1131.642545	0.055550
1131.799833	0.056914
1131.957103	0.054899
1132.114354	0.057552
1132.271588	0.061210
1132.428803	0.058640
1132.585999	0.061466
1132.743178	0.063263
1132.900338	0.073378
1133.057480	0.075653
1133.214604	0.076669
1133.371710	0.078792
1133.528797	0.081546
1133.685866	0.083187
1133.842917	0.079071
1133.999950	0.077430
1134.156964	0.077189
1134.313960	0.081872
1134.470938	0.083924
1134.627898	0.080429
1134.784840	0.080739
1134.941763	0.078240
1135.098668	0.067703
1135.255555	0.075826
1135.412424	0.080596
1135.569274	0.081847
1135.726107	0.075473
1135.882921	0.069636
1136.039716	0.072856
1136.196494	0.075506
1136.353253	0.068164
1136.509995	0.073547
1136.666717	0.067846
1136.823422	0.062169
1136.980109	0.055392
1137.136777	0.054203
1137.293427	0.057390
1137.450059	0.054389
1137.606672	0.051651
1137.763267	0.058805
1137.919844	0.058179
1138.076403	0.059471
1138.232944	0.065638
1138.389466	0.072382
1138.545971	0.070491
1138.702457	0.071899
1138.858924	0.079788
1139.015374	0.078246
1139.171805	0.081936
1139.328218	0.086479
1139.484613	0.085502
1139.640990	0.085599
1139.797348	0.078509
1139.953688	0.084057
1140.110010	0.085189
1140.266314	0.079248
1140.422600	0.085099
1140.578867	0.080859
1140.735116	0.079169
1140.891347	0.077925
1141.047559	0.076313
1141.203754	0.082839
1141.359930	0.080902
1141.516088	0.083238
1141.672228	0.080145
1141.828349	0.081072
1141.984452	0.079379
1142.140537	0.083314
1142.296604	0.090202
1142.452653	0.088598
1142.608683	0.081516
1142.764695	0.084284
1142.920689	0.071190
1143.076665	0.069905
1143.232622	0.074561
1143.388562	0.074605
1143.544483	0.072724
1143.700385	0.068926
1143.856270	0.067409
1144.012136	0.072561
1144.167985	0.070422
1144.323814	0.080966
1144.479626	0.086731
1144.635420	0.080143
1144.791195	0.086887
1144.946952	0.081700
1145.102691	0.082485
1145.258411	0.084452
1145.414113	0.084505
1145.569798	0.085392
1145.725463	0.084263
1145.881111	0.082803
1146.036741	0.076935
1146.192352	0.075489
1146.347945	0.086039
1146.503519	0.090651
1146.659076	0.093000
1146.814614	0.096479
1146.970134	0.097997
1147.125636	0.095977
1147.281120	0.097195
1147.436585	0.101593
1147.592032	0.094955
1147.747461	0.080667
1147.902872	0.070004
1148.058265	0.067497
1148.213639	0.068626
1148.368995	0.065789
1148.524333	0.071341
1148.679653	0.065347
1148.834954	0.063807
1148.990237	0.068591
1149.145502	0.073707
1149.300749	0.080614
1149.455977	0.082354
1149.611188	0.076550
1149.766380	0.068272
1149.921553	0.060599
1150.076709	0.069006
1150.231846	0.068879
1150.386966	0.065845
1150.542066	0.071467
1150.697149	0.065923
1150.852214	0.063197
1151.007260	0.061692
1151.162288	0.074100
1151.317298	0.075531
1151.472289	0.063089
1151.627263	0.066830
1151.782218	0.071113
1151.937155	0.070818
1152.092073	0.065515
1152.246974	0.060566
1152.401856	0.063992
1152.556720	0.062549
1152.711566	0.065050
1152.866393	0.077741
1153.021203	0.074032
1153.175994	0.063336
1153.330767	0.059095
1153.485521	0.062495
1153.640258	0.063429
1153.794976	0.065427
1153.949676	0.057012
1154.104358	0.054043
1154.259021	0.052333
1154.413667	0.061086
1154.568294	0.071984
1154.722903	0.069949
1154.877493	0.070858
1155.032066	0.072998
1155.186620	0.064198
1155.341156	0.061125
1155.495674	0.052419
1155.650173	0.053737
1155.804654	0.039710
1155.959118	0.035296
1156.113562	0.036795
1156.267989	0.039986
1156.422397	0.043703
1156.576788	0.044072
1156.731160	0.048324
1156.885513	0.066748
1157.039849	0.058353
1157.194166	0.067917
1157.348465	0.068835
1157.502746	0.070331
1157.657009	0.065910
1157.811253	0.059830
1157.965479	0.068813
1158.119687	0.064608
1158.273877	0.048777
1158.428048	0.047787
1158.582201	0.050353
1158.736337	0.048825
1158.890453	0.048828
1159.044552	0.058352
1159.198632	0.060187
1159.352694	0.056769
1159.506738	0.066494
1159.660764	0.070913
1159.814771	0.080510
1159.968761	0.070286
1160.122732	0.076922
1160.276685	0.074336
1160.430619	0.072329
1160.584535	0.072856
1160.738434	0.072229
1160.892313	0.070978
1161.046175	0.081280
1161.200019	0.078704
1161.353844	0.082589
1161.507651	0.082724
1161.661440	0.080704
1161.815210	0.080610
1161.968962	0.087135
1162.122697	0.083344
1162.276412	0.084394
1162.430110	0.072738
1162.583789	0.074686
1162.737451	0.070643
1162.891094	0.057100
1163.044718	0.054741
1163.198325	0.056173
1163.351913	0.055827
1163.505483	0.061561
1163.659035	0.057688
1163.812569	0.061246
1163.966084	0.057332
1164.119581	0.066461
1164.273060	0.067348
1164.426521	0.074306
1164.579964	0.070006
1164.733388	0.050018
1164.886794	0.049304
1165.040182	0.057412
1165.193551	0.048591
1165.346903	0.048411
1165.500236	0.052949
1165.653551	0.057544
1165.806848	0.060588
1165.960126	0.059717
1166.113386	0.066463
1166.266628	0.064797
1166.419852	0.054141
1166.573058	0.065353
1166.726245	0.071192
1166.879414	0.060565
1167.032565	0.056433
1167.185698	0.046687
1167.338812	0.045594
1167.491909	0.049899
1167.644987	0.048849
1167.798046	0.048288
1167.951088	0.050128
1168.104111	0.043607
1168.257117	0.045380
1168.410103	0.044148
1168.563072	0.039718
1168.716023	0.029672
1168.868955	0.040714
1169.021869	0.039997
1169.174765	0.043151
1169.327642	0.039599
1169.480501	0.040871
1169.633343	0.031686
1169.786165	0.035979
1169.938970	0.053110
1170.091757	0.066161
1170.244525	0.061630
1170.397275	0.060715
1170.550007	0.056649
1170.702720	0.067117
1170.855415	0.074426
1171.008092	0.084190
1171.160751	0.088944
1171.313392	0.083097
1171.466014	0.140598
1171.618619	0.082499
1171.771205	0.082499
1171.923772	0.082499
