sample name	sample
index	687
start time	 03-22-2021  12:15:13 PM


Wavelength (nm)	Absorbance
494.344910	-0.374607
494.563924	-0.374607
494.782919	-0.374607
495.001897	NaN
495.220856	-0.052388
495.439797	-0.004450
495.658719	-0.019481
495.877624	-0.077555
496.096510	-0.153771
496.315378	-0.199976
496.534227	-0.115269
496.753059	-0.170207
496.971872	-0.120238
497.190667	0.073121
497.409444	0.087786
497.628203	0.090691
497.846943	0.093724
498.065665	0.094378
498.284369	0.096975
498.503055	0.096814
498.721723	0.097397
498.940372	0.097524
499.159003	0.097799
499.377616	0.096837
499.596210	0.096557
499.814787	0.097844
500.033345	0.098308
500.251885	0.097010
500.470406	0.096275
500.688910	0.096007
500.907395	0.096337
501.125862	0.096502
501.344311	0.097391
501.562742	0.097798
501.781154	0.097490
501.999548	0.097186
502.217924	0.097208
502.436282	0.097108
502.654621	0.097123
502.872942	0.096587
503.091245	0.095847
503.309530	0.095532
503.527797	0.096143
503.746045	0.095413
503.964275	0.095000
504.182487	0.095960
504.400681	0.096396
504.618856	0.097375
504.837013	0.097586
505.055152	0.097845
505.273273	0.098688
505.491376	0.098047
505.709460	0.098151
505.927526	0.098308
506.145574	0.097754
506.363604	0.098454
506.581615	0.097469
506.799608	0.097846
507.017583	0.097313
507.235540	0.096428
507.453478	0.097172
507.671399	0.097433
507.889301	0.097442
508.107185	0.097092
508.325050	0.096988
508.542898	0.097572
508.760727	0.097661
508.978538	0.098515
509.196330	0.098793
509.414105	0.098159
509.631861	0.097607
509.849599	0.098098
510.067319	0.098705
510.285021	0.098280
510.502704	0.098954
510.720369	0.099147
510.938016	0.099847
511.155645	0.099504
511.373255	0.099640
511.590848	0.099631
511.808422	0.100275
512.025977	0.100312
512.243515	0.100524
512.461034	0.100253
512.678536	0.100449
512.896018	0.099760
513.113483	0.100155
513.330930	0.100837
513.548358	0.101430
513.765768	0.100959
513.983160	0.101109
514.200533	0.101214
514.417889	0.100817
514.635226	0.100622
514.852545	0.100867
515.069845	0.101114
515.287128	0.100654
515.504392	0.101120
515.721638	0.100720
515.938866	0.101470
516.156075	0.101747
516.373267	0.101468
516.590440	0.101470
516.807594	0.101521
517.024731	0.101295
517.241850	0.101335
517.458950	0.100802
517.676032	0.101418
517.893095	0.101429
518.110141	0.101188
518.327168	0.101484
518.544177	0.102033
518.761168	0.102607
518.978141	0.103349
519.195095	0.103660
519.412031	0.104081
519.628949	0.104563
519.845849	0.104137
520.062731	0.104103
520.279594	0.105002
520.496439	0.104953
520.713266	0.104783
520.930074	0.104423
521.146865	0.104936
521.363637	0.105006
521.580391	0.105087
521.797127	0.106076
522.013844	0.107186
522.230543	0.107009
522.447224	0.107162
522.663887	0.107842
522.880532	0.108226
523.097158	0.108636
523.313766	0.108942
523.530356	0.108579
523.746928	0.108082
523.963481	0.108365
524.180017	0.108629
524.396534	0.108919
524.613032	0.108774
524.829513	0.109134
525.045975	0.108918
525.262420	0.109292
525.478845	0.109600
525.695253	0.110423
525.911643	0.110405
526.128014	0.110406
526.344367	0.110626
526.560702	0.111169
526.777018	0.111264
526.993316	0.111556
527.209597	0.111328
527.425858	0.111245
527.642102	0.110774
527.858328	0.110631
528.074535	0.110699
528.290724	0.110502
528.506894	0.110246
528.723047	0.110520
528.939181	0.110471
529.155297	0.110803
529.371395	0.111301
529.587475	0.111431
529.803536	0.112052
530.019579	0.112708
530.235604	0.113183
530.451611	0.113245
530.667600	0.113806
530.883570	0.114516
531.099522	0.114697
531.315456	0.115000
531.531372	0.115489
531.747269	0.115070
531.963148	0.114804
532.179009	0.115048
532.394852	0.115468
532.610676	0.115582
532.826482	0.115323
533.042271	0.115646
533.258040	0.116320
533.473792	0.116778
533.689525	0.117107
533.905240	0.117286
534.120937	0.117073
534.336616	0.117566
534.552277	0.117462
534.767919	0.117704
534.983543	0.117623
535.199149	0.117390
535.414736	0.116944
535.630306	0.117274
535.845857	0.117743
536.061390	0.118169
536.276904	0.118125
536.492401	0.118107
536.707879	0.118543
536.923339	0.118813
537.138781	0.118718
537.354204	0.119148
537.569610	0.119063
537.784997	0.118957
538.000366	0.118986
538.215716	0.119243
538.431049	0.119786
538.646363	0.119979
538.861659	0.120133
539.076937	0.120366
539.292196	0.120561
539.507438	0.120916
539.722661	0.121368
539.937866	0.121764
540.153052	0.121983
540.368221	0.122288
540.583371	0.122519
540.798503	0.122690
541.013617	0.122527
541.228712	0.122778
541.443789	0.122725
541.658848	0.122571
541.873889	0.122676
542.088912	0.122727
542.303916	0.122609
542.518902	0.122640
542.733870	0.122403
542.948820	0.123046
543.163752	0.123137
543.378665	0.123162
543.593560	0.123701
543.808437	0.123462
544.023295	0.123653
544.238136	0.123629
544.452958	0.123872
544.667762	0.124764
544.882548	0.124786
545.097315	0.125179
545.312064	0.125525
545.526795	0.125742
545.741508	0.125922
545.956203	0.126008
546.170879	0.125912
546.385537	0.125740
546.600177	0.125308
546.814799	0.125844
547.029402	0.125258
547.243988	0.125434
547.458555	0.125100
547.673103	0.125314
547.887634	0.125300
548.102146	0.125870
548.316640	0.126072
548.531116	0.126598
548.745574	0.126157
548.960013	0.126851
549.174435	0.126604
549.388838	0.126844
549.603222	0.127316
549.817589	0.127396
550.031937	0.127183
550.246267	0.127379
550.460579	0.127734
550.674873	0.127918
550.889148	0.127818
551.103405	0.128243
551.317644	0.128763
551.531865	0.128894
551.746068	0.128875
551.960252	0.129180
552.174418	0.129172
552.388566	0.129257
552.602696	0.129709
552.816807	0.129633
553.030900	0.129581
553.244975	0.129339
553.459032	0.129313
553.673070	0.129705
553.887091	0.129882
554.101093	0.130107
554.315077	0.130009
554.529042	0.129938
554.742990	0.130444
554.956919	0.130699
555.170830	0.131112
555.384722	0.131083
555.598597	0.131469
555.812453	0.131835
556.026291	0.131903
556.240111	0.131897
556.453913	0.131834
556.667696	0.131640
556.881461	0.131814
557.095208	0.131912
557.308937	0.132501
557.522647	0.132617
557.736339	0.132695
557.950013	0.133104
558.163669	0.133434
558.377307	0.133472
558.590926	0.133622
558.804527	0.134081
559.018110	0.133853
559.231675	0.133559
559.445221	0.133643
559.658749	0.133439
559.872259	0.133151
560.085751	0.133311
560.299225	0.133733
560.512680	0.134465
560.726117	0.134422
560.939536	0.134692
561.152937	0.135081
561.366319	0.135101
561.579683	0.135205
561.793029	0.135771
562.006357	0.135275
562.219667	0.135608
562.432958	0.135302
562.646231	0.135743
562.859486	0.136059
563.072723	0.136420
563.285941	0.136873
563.499141	0.137162
563.712323	0.137017
563.925487	0.137605
564.138632	0.137633
564.351760	0.137756
564.564869	0.137752
564.777960	0.137931
564.991032	0.137806
565.204087	0.137269
565.417123	0.137585
565.630141	0.137597
565.843140	0.138115
566.056122	0.138068
566.269085	0.138217
566.482030	0.138332
566.694957	0.138032
566.907866	0.137977
567.120756	0.138539
567.333628	0.138679
567.546482	0.138886
567.759318	0.138389
567.972135	0.138770
568.184935	0.139193
568.397716	0.139340
568.610478	0.140114
568.823223	0.140440
569.035949	0.140418
569.248657	0.140527
569.461347	0.140484
569.674019	0.141117
569.886672	0.141183
570.099308	0.141070
570.311925	0.140747
570.524523	0.140480
570.737104	0.140698
570.949666	0.140705
571.162210	0.140334
571.374736	0.140578
571.587244	0.140719
571.799733	0.140591
572.012205	0.140521
572.224658	0.140618
572.437092	0.140574
572.649509	0.140406
572.861907	0.140424
573.074287	0.140895
573.286649	0.140915
573.498993	0.140810
573.711318	0.141234
573.923625	0.141503
574.135914	0.142082
574.348185	0.142056
574.560438	0.142596
574.772672	0.143245
574.984888	0.143075
575.197086	0.143038
575.409266	0.143019
575.621427	0.142849
575.833570	0.142566
576.045695	0.142382
576.257802	0.142804
576.469890	0.142479
576.681961	0.142224
576.894013	0.142754
577.106046	0.143318
577.318062	0.143343
577.530059	0.143374
577.742039	0.143487
577.954000	0.143579
578.165942	0.143785
578.377867	0.143984
578.589773	0.144184
578.801661	0.143886
579.013531	0.143804
579.225382	0.144040
579.437216	0.144145
579.649031	0.144457
579.860828	0.144236
580.072606	0.144059
580.284367	0.144054
580.496109	0.144014
580.707833	0.144381
580.919539	0.144724
581.131227	0.144865
581.342896	0.145245
581.554547	0.145415
581.766180	0.145633
581.977795	0.145805
582.189391	0.146046
582.400969	0.146082
582.612529	0.146356
582.824071	0.146178
583.035595	0.145929
583.247100	0.146017
583.458587	0.146205
583.670056	0.146481
583.881506	0.146480
584.092939	0.146415
584.304353	0.146485
584.515749	0.146421
584.727127	0.146890
584.938486	0.147427
585.149828	0.147335
585.361151	0.147462
585.572456	0.147752
585.783742	0.147735
585.995011	0.147888
586.206261	0.148125
586.417493	0.148386
586.628706	0.148150
586.839902	0.148483
587.051079	0.148649
587.262238	0.148543
587.473379	0.148617
587.684502	0.148943
587.895606	0.149168
588.106692	0.149349
588.317760	0.149150
588.528810	0.149273
588.739841	0.149090
588.950855	0.149469
589.161850	0.149834
589.372827	0.149696
589.583785	0.149861
589.794726	0.149635
590.005648	0.149445
590.216552	0.149713
590.427437	0.149997
590.638305	0.149785
590.849154	0.149785
591.059985	0.149921
591.270798	0.150135
591.481592	0.150206
591.692369	0.150624
591.903127	0.150995
592.113867	0.151095
592.324588	0.151021
592.535292	0.151425
592.745977	0.151388
592.956644	0.151555
593.167293	0.151735
593.377923	0.151947
593.588536	0.152066
593.799130	0.152099
594.009706	0.152094
594.220263	0.152035
594.430803	0.151874
594.641324	0.152051
594.851827	0.152094
595.062312	0.152122
595.272778	0.152041
595.483227	0.152182
595.693657	0.152325
595.904069	0.152648
596.114462	0.153081
596.324838	0.153338
596.535195	0.153237
596.745534	0.153380
596.955855	0.153932
597.166157	0.154268
597.376441	0.154137
597.586707	0.154292
597.796955	0.154526
598.007185	0.154349
598.217396	0.154785
598.427589	0.155061
598.637764	0.155070
598.847921	0.155010
599.058060	0.154985
599.268180	0.154811
599.478282	0.154953
599.688366	0.154832
599.898431	0.154987
600.108479	0.154987
600.318508	0.155023
600.528519	0.155410
600.738511	0.155157
600.948486	0.155433
601.158442	0.155641
601.368380	0.155612
601.578300	0.155447
601.788202	0.155547
601.998085	0.155545
602.207950	0.155776
602.417797	0.155509
602.627626	0.155414
602.837436	0.155486
603.047228	0.155710
603.257002	0.155830
603.466758	0.156403
603.676496	0.156597
603.886215	0.156722
604.095916	0.156658
604.305599	0.157036
604.515264	0.157358
604.724910	0.157343
604.934538	0.157608
605.144148	0.157783
605.353740	0.157706
605.563314	0.157907
605.772869	0.158143
605.982406	0.158171
606.191925	0.158222
606.401425	0.158535
606.610908	0.158601
606.820372	0.158513
607.029818	0.158353
607.239246	0.158328
607.448655	0.158420
607.658047	0.158050
607.867420	0.158481
608.076775	0.158186
608.286111	0.158001
608.495430	0.158165
608.704730	0.158481
608.914012	0.158687
609.123275	0.158559
609.332521	0.158381
609.541748	0.158684
609.750957	0.158636
609.960148	0.158945
610.169321	0.159203
610.378475	0.159370
610.587611	0.159478
610.796729	0.159716
611.005829	0.160177
611.214910	0.160283
611.423974	0.160466
611.633019	0.160451
611.842045	0.160528
612.051054	0.160703
612.260044	0.160750
612.469017	0.160971
612.677970	0.160838
612.886906	0.160658
613.095824	0.160933
613.304723	0.161020
613.513604	0.160957
613.722467	0.161140
613.931311	0.161100
614.140138	0.160845
614.348946	0.160588
614.557736	0.160760
614.766507	0.160940
614.975261	0.161229
615.183996	0.161016
615.392713	0.161048
615.601412	0.161115
615.810092	0.161194
616.018754	0.161547
616.227399	0.161560
616.436024	0.161538
616.644632	0.161687
616.853222	0.161632
617.061793	0.162097
617.270346	0.162450
617.478880	0.162465
617.687397	0.162638
617.895895	0.162910
618.104375	0.163275
618.312837	0.163684
618.521281	0.163698
618.729706	0.163743
618.938113	0.163870
619.146502	0.163855
619.354873	0.163856
619.563226	0.163970
619.771560	0.164063
619.979876	0.164309
620.188174	0.164421
620.396453	0.164571
620.604715	0.164805
620.812958	0.164657
621.021183	0.164668
621.229390	0.164755
621.437578	0.164671
621.645748	0.164554
621.853900	0.164475
622.062034	0.164219
622.270150	0.164382
622.478247	0.164406
622.686326	0.164547
622.894387	0.164782
623.102430	0.164936
623.310454	0.164923
623.518461	0.164890
623.726449	0.164784
623.934418	0.165147
624.142370	0.165263
624.350303	0.165230
624.558218	0.165458
624.766115	0.165532
624.973994	0.165707
625.181855	0.166089
625.389697	0.166351
625.597521	0.166549
625.805327	0.166487
626.013114	0.166587
626.220883	0.166722
626.428634	0.166683
626.636367	0.166752
626.844082	0.166807
627.051778	0.166660
627.259457	0.166684
627.467117	0.166858
627.674758	0.167189
627.882382	0.167323
628.089987	0.167245
628.297574	0.167492
628.505143	0.167548
628.712694	0.167685
628.920226	0.167800
629.127740	0.167828
629.335236	0.167831
629.542714	0.167675
629.750174	0.167561
629.957615	0.167554
630.165038	0.167433
630.372443	0.167398
630.579829	0.167257
630.787198	0.167497
630.994548	0.167544
631.201880	0.167548
631.409194	0.167464
631.616489	0.167502
631.823766	0.167669
632.031025	0.167853
632.238266	0.168288
632.445489	0.168578
632.652693	0.168671
632.859879	0.168940
633.067047	0.169009
633.274197	0.169263
633.481329	0.169415
633.688442	0.169821
633.895537	0.169806
634.102614	0.169702
634.309672	0.169729
634.516713	0.169480
634.723735	0.169481
634.930739	0.169600
635.137724	0.169730
635.344692	0.169719
635.551641	0.169783
635.758572	0.169789
635.965485	0.169834
636.172379	0.169985
636.379256	0.170567
636.586114	0.170697
636.792954	0.170881
636.999775	0.170947
637.206579	0.171023
637.413364	0.170937
637.620131	0.171210
637.826880	0.171261
638.033610	0.171461
638.240323	0.171228
638.447017	0.171204
638.653692	0.171158
638.860350	0.171312
639.066990	0.171457
639.273611	0.171505
639.480214	0.171513
639.686798	0.171734
639.893365	0.171711
640.099913	0.171814
640.306443	0.171863
640.512955	0.172128
640.719449	0.172157
640.925924	0.172407
641.132381	0.172639
641.338820	0.172677
641.545241	0.172862
641.751644	0.172872
641.958028	0.173055
642.164394	0.173265
642.370742	0.173227
642.577071	0.173360
642.783383	0.173299
642.989676	0.173423
643.195951	0.173599
643.402207	0.173632
643.608446	0.173786
643.814666	0.173865
644.020868	0.173944
644.227052	0.174231
644.433218	0.174228
644.639365	0.174254
644.845494	0.174231
645.051605	0.174252
645.257698	0.174228
645.463772	0.174243
645.669828	0.174349
645.875866	0.174463
646.081886	0.174394
646.287888	0.174573
646.493871	0.174942
646.699836	0.175010
646.905783	0.175150
647.111712	0.175281
647.317622	0.175385
647.523514	0.175509
647.729388	0.175657
647.935244	0.175780
648.141082	0.176009
648.346901	0.176038
648.552702	0.176316
648.758485	0.176538
648.964250	0.176631
649.169996	0.176843
649.375724	0.176879
649.581434	0.176843
649.787126	0.177059
649.992800	0.176972
650.198455	0.177073
650.404092	0.176784
650.609711	0.176794
650.815311	0.176882
651.020894	0.176749
651.226458	0.176649
651.432004	0.176903
651.637532	0.176704
651.843041	0.176735
652.048532	0.176649
652.254006	0.176847
652.459460	0.177133
652.664897	0.177176
652.870315	0.177464
653.075716	0.177722
653.281097	0.177643
653.486461	0.178051
653.691807	0.178257
653.897134	0.178639
654.102443	0.178524
654.307734	0.178619
654.513006	0.178867
654.718261	0.179018
654.923497	0.179278
655.128715	0.179557
655.333915	0.179574
655.539096	0.179735
655.744259	0.179816
655.949404	0.180412
656.154531	0.180331
656.359640	0.180410
656.564730	0.180434
656.769802	0.180392
656.974856	0.180444
657.179892	0.180717
657.384909	0.180988
657.589908	0.180926
657.794889	0.180993
657.999852	0.181146
658.204797	0.181383
658.409723	0.181625
658.614631	0.181824
658.819521	0.181947
659.024393	0.181968
659.229246	0.181906
659.434081	0.182041
659.638898	0.182116
659.843697	0.182104
660.048478	0.182053
660.253240	0.181947
660.457984	0.181932
660.662710	0.181770
660.867417	0.181695
661.072107	0.181895
661.276778	0.181819
661.481431	0.181733
661.686066	0.181871
661.890682	0.182020
662.095281	0.182398
662.299861	0.182673
662.504422	0.183030
662.708966	0.183049
662.913491	0.182791
663.117999	0.182907
663.322488	0.183149
663.526958	0.183305
663.731411	0.183560
663.935845	0.183621
664.140261	0.183642
664.344659	0.183670
664.549038	0.184036
664.753400	0.184317
664.957743	0.184686
665.162068	0.184817
665.366375	0.184920
665.570663	0.184959
665.774933	0.185123
665.979185	0.185332
666.183419	0.185588
666.387635	0.185396
666.591832	0.185633
666.796011	0.185858
667.000172	0.185991
667.204315	0.186230
667.408439	0.186299
667.612545	0.186170
667.816634	0.186034
668.020703	0.185954
668.224755	0.186341
668.428788	0.186334
668.632803	0.186443
668.836800	0.186749
669.040779	0.186947
669.244739	0.187270
669.448681	0.187666
669.652605	0.187875
669.856511	0.188307
670.060399	0.188520
670.264268	0.188804
670.468119	0.188841
670.671952	0.189056
670.875767	0.188945
671.079563	0.188961
671.283341	0.188918
671.487101	0.189388
671.690843	0.189341
671.894567	0.189507
672.098272	0.189678
672.301959	0.189742
672.505628	0.189621
672.709278	0.189923
672.912911	0.189934
673.116525	0.190113
673.320121	0.190063
673.523699	0.190463
673.727258	0.190422
673.930799	0.190473
674.134322	0.190461
674.337827	0.190390
674.541314	0.190405
674.744782	0.190443
674.948232	0.190478
675.151664	0.190567
675.355078	0.190245
675.558474	0.190342
675.761851	0.190368
675.965210	0.190594
676.168551	0.190662
676.371873	0.191009
676.575178	0.191277
676.778464	0.191455
676.981732	0.191607
677.184981	0.192040
677.388213	0.192417
677.591426	0.192550
677.794621	0.192709
677.997798	0.193249
678.200956	0.192993
678.404097	0.193314
678.607219	0.193286
678.810323	0.193328
679.013408	0.193529
679.216476	0.193363
679.419525	0.193505
679.622556	0.193574
679.825569	0.193404
680.028563	0.193603
680.231540	0.193264
680.434498	0.193436
680.637438	0.193610
680.840359	0.193450
681.043263	0.193319
681.246148	0.193385
681.449015	0.193495
681.651864	0.193486
681.854694	0.193571
682.057506	0.193911
682.260301	0.194211
682.463076	0.194331
682.665834	0.194477
682.868573	0.194906
683.071295	0.195073
683.273998	0.195149
683.476682	0.195309
683.679349	0.195655
683.881997	0.195853
684.084627	0.195905
684.287239	0.195889
684.489833	0.196073
684.692408	0.196062
684.894965	0.196113
685.097504	0.196370
685.300025	0.196817
685.502527	0.196849
685.705012	0.196970
685.907478	0.197044
686.109925	0.197296
686.312355	0.197355
686.514766	0.197518
686.717159	0.197535
686.919534	0.197616
687.121891	0.197252
687.324230	0.197388
687.526550	0.197289
687.728852	0.197219
687.931136	0.197293
688.133401	0.197362
688.335649	0.197486
688.537878	0.197586
688.740089	0.197616
688.942281	0.197827
689.144456	0.197905
689.346612	0.197975
689.548750	0.198016
689.750870	0.197982
689.952971	0.197883
690.155055	0.197887
690.357120	0.197788
690.559167	0.197595
690.761195	0.197410
690.963206	0.197271
691.165198	0.197495
691.367172	0.197786
691.569128	0.197850
691.771065	0.198193
691.972984	0.198515
692.174885	0.199047
692.376768	0.199542
692.578633	0.200179
692.780479	0.200315
692.982308	0.200469
693.184118	0.200514
693.385909	0.200621
693.587683	0.200670
693.789438	0.200686
693.991175	0.200722
694.192894	0.200741
694.394595	0.200608
694.596277	0.200728
694.797941	0.200755
694.999587	0.200851
695.201215	0.201060
695.402824	0.201103
695.604416	0.201212
695.805989	0.201333
696.007543	0.201240
696.209080	0.201451
696.410598	0.201746
696.612099	0.201697
696.813580	0.201948
697.015044	0.202108
697.216490	0.202164
697.417917	0.202093
697.619326	0.202063
697.820717	0.202263
698.022089	0.202294
698.223444	0.202216
698.424780	0.202335
698.626098	0.202244
698.827397	0.202180
699.028679	0.202247
699.229942	0.202458
699.431187	0.202266
699.632414	0.202283
699.833622	0.202406
700.034813	0.202371
700.235985	0.202535
700.437139	0.202897
700.638274	0.202928
700.839392	0.203260
701.040491	0.203290
701.241572	0.203473
701.442635	0.203450
701.643679	0.203529
701.844706	0.203676
702.045714	0.203577
702.246704	0.203378
702.447675	0.203496
702.648629	0.203329
702.849564	0.203500
703.050481	0.203752
703.251380	0.203915
703.452260	0.203806
703.653122	0.203963
703.853966	0.204052
704.054792	0.203956
704.255600	0.203745
704.456389	0.203908
704.657160	0.203757
704.857913	0.203672
705.058648	0.203656
705.259365	0.203684
705.460063	0.203388
705.660743	0.203411
705.861405	0.203622
706.062048	0.204033
706.262674	0.203940
706.463281	0.203893
706.663870	0.203964
706.864441	0.204170
707.064993	0.204321
707.265527	0.204573
707.466043	0.204662
707.666541	0.204699
707.867021	0.204654
708.067482	0.204671
708.267925	0.204937
708.468350	0.205104
708.668757	0.205162
708.869145	0.205431
709.069516	0.205509
709.269868	0.205480
709.470201	0.205322
709.670517	0.205369
709.870814	0.205573
710.071093	0.205305
710.271354	0.205053
710.471597	0.205113
710.671821	0.204782
710.872028	0.204825
711.072216	0.204983
711.272385	0.205083
711.472537	0.205057
711.672670	0.204970
711.872785	0.205246
712.072882	0.205376
712.272961	0.205016
712.473021	0.205014
712.673063	0.204860
712.873087	0.204833
713.073093	0.204774
713.273081	0.204767
713.473050	0.204503
713.673001	0.204415
713.872934	0.204286
714.072849	0.204676
714.272745	0.204917
714.472623	0.205140
714.672483	0.205006
714.872325	0.205145
715.072148	0.205197
715.271954	0.205432
715.471741	0.205561
715.671509	0.205692
715.871260	0.205528
716.070992	0.205405
716.270707	0.205197
716.470403	0.205197
716.670080	0.204889
716.869740	0.205013
717.069381	0.205090
717.269004	0.205028
717.468609	0.204973
717.668195	0.204923
717.867764	0.204791
718.067314	0.204850
718.266846	0.205019
718.466360	0.205153
718.665855	0.204983
718.865332	0.205007
719.064791	0.204994
719.264232	0.205164
719.463655	0.205343
719.663059	0.205552
719.862445	0.205457
720.061813	0.205505
720.261163	0.205482
720.460494	0.205499
720.659807	0.205526
720.859102	0.205505
721.058379	0.205336
721.257638	0.205204
721.456878	0.205256
721.656100	0.205362
721.855304	0.205133
722.054490	0.205336
722.253657	0.205319
722.452806	0.204976
722.651937	0.204890
722.851050	0.205108
723.050145	0.205028
723.249221	0.204911
723.448279	0.204968
723.647319	0.205104
723.846340	0.204938
724.045344	0.205024
724.244329	0.205080
724.443296	0.205001
724.642245	0.204903
724.841175	0.204885
725.040088	0.204784
725.238982	0.204623
725.437857	0.204492
725.636715	0.204415
725.835554	0.204218
726.034376	0.204234
726.233179	0.204132
726.431963	0.203850
726.630730	0.203649
726.829478	0.203641
727.028208	0.203562
727.226920	0.203525
727.425614	0.203656
727.624289	0.203405
727.822946	0.203402
728.021585	0.203393
728.220206	0.203493
728.418808	0.203695
728.617392	0.203712
728.815958	0.203601
729.014506	0.203471
729.213036	0.203361
729.411547	0.203474
729.610040	0.203376
729.808515	0.203671
730.006972	0.203559
730.205410	0.203550
730.403831	0.203387
730.602233	0.203432
730.800616	0.203389
730.998982	0.203250
731.197329	0.203078
731.395658	0.202976
731.593969	0.202509
731.792262	0.202495
731.990536	0.202248
732.188793	0.202030
732.387031	0.201765
732.585250	0.201617
732.783452	0.201311
732.981635	0.201118
733.179800	0.200867
733.377947	0.200936
733.576076	0.200611
733.774186	0.200743
733.972278	0.200579
734.170352	0.200818
734.368408	0.200792
734.566446	0.200895
734.764465	0.201069
734.962466	0.201238
735.160449	0.201077
735.358413	0.201418
735.556360	0.201292
735.754288	0.201335
735.952198	0.201082
736.150090	0.201093
736.347963	0.201045
736.545818	0.200893
736.743655	0.201035
736.941474	0.200839
737.139275	0.200551
737.337057	0.200374
737.534821	0.200319
737.732567	0.200329
737.930295	0.200136
738.128005	0.200026
738.325696	0.199912
738.523369	0.199525
738.721024	0.199571
738.918660	0.199488
739.116279	0.199398
739.313879	0.199274
739.511461	0.199170
739.709024	0.199199
739.906570	0.199260
740.104097	0.199208
740.301606	0.199181
740.499097	0.199009
740.696569	0.198871
740.894024	0.198833
741.091460	0.198890
741.288878	0.198876
741.486277	0.198768
741.683659	0.198497
741.881022	0.198423
742.078367	0.198442
742.275694	0.198391
742.473002	0.198297
742.670293	0.198031
742.867565	0.197706
743.064819	0.197467
743.262054	0.197159
743.459272	0.197278
743.656471	0.197104
743.853652	0.196794
744.050815	0.196830
744.247959	0.196756
744.445085	0.196798
744.642194	0.196828
744.839283	0.196676
745.036355	0.196844
745.233408	0.196663
745.430444	0.196766
745.627461	0.196768
745.824459	0.196518
746.021440	0.196458
746.218402	0.196271
746.415346	0.196151
746.612272	0.195940
746.809180	0.195812
747.006069	0.195655
747.202940	0.195497
747.399793	0.195397
747.596628	0.195457
747.793444	0.195529
747.990243	0.195390
748.187023	0.195115
748.383784	0.195166
748.580528	0.194866
748.777253	0.194848
748.973960	0.194511
749.170649	0.194364
749.367320	0.194281
749.563973	0.193977
749.760607	0.193895
749.957223	0.194154
750.153821	0.194075
750.350400	0.194105
750.546962	0.193881
750.743505	0.193853
750.940030	0.193848
751.136536	0.193623
751.333025	0.193736
751.529495	0.193456
751.725947	0.193260
751.922381	0.193120
752.118796	0.192912
752.315194	0.192889
752.511573	0.192873
752.707934	0.192821
752.904276	0.192922
753.100601	0.192744
753.296907	0.192792
753.493195	0.192529
753.689465	0.192428
753.885716	0.192069
754.081949	0.191830
754.278164	0.191733
754.474361	0.191526
754.670540	0.191102
754.866700	0.190854
755.062843	0.190904
755.258967	0.191145
755.455072	0.191128
755.651160	0.191263
755.847229	0.191191
756.043280	0.190974
756.239313	0.190959
756.435328	0.191017
756.631324	0.191019
756.827302	0.190884
757.023262	0.190551
757.219204	0.190411
757.415127	0.190478
757.611033	0.190541
757.806920	0.190622
758.002788	0.190490
758.198639	0.190520
758.394471	0.190349
758.590286	0.190123
758.786081	0.190043
758.981859	0.189947
759.177619	0.189887
759.373360	0.189562
759.569083	0.189378
759.764788	0.189173
759.960474	0.188984
760.156143	0.188784
760.351793	0.188670
760.547425	0.188620
760.743038	0.188444
760.938634	0.188207
761.134211	0.188324
761.329770	0.188080
761.525311	0.188014
761.720833	0.187909
761.916338	0.187989
762.111824	0.188085
762.307292	0.187897
762.502741	0.188000
762.698173	0.187910
762.893586	0.187925
763.088981	0.188109
763.284358	0.188110
763.479716	0.188132
763.675057	0.188114
763.870379	0.187801
764.065683	0.187797
764.260968	0.187367
764.456236	0.187410
764.651485	0.187117
764.846716	0.187151
765.041929	0.186912
765.237123	0.187068
765.432299	0.186730
765.627457	0.186971
765.822597	0.187127
766.017719	0.187405
766.212822	0.187323
766.407907	0.187199
766.602974	0.187023
766.798023	0.187112
766.993054	0.186749
767.188066	0.186995
767.383060	0.186821
767.578036	0.186624
767.772993	0.186656
767.967933	0.186674
768.162854	0.186632
768.357757	0.186529
768.552642	0.186431
768.747508	0.186506
768.942356	0.186411
769.137186	0.186327
769.331998	0.186195
769.526792	0.186151
769.721567	0.186127
769.916324	0.186216
770.111063	0.186105
770.305784	0.186281
770.500486	0.186196
770.695171	0.186035
770.889837	0.185985
771.084484	0.186086
771.279114	0.186042
771.473725	0.185892
771.668318	0.185717
771.862893	0.185757
772.057450	0.185581
772.251988	0.185394
772.446509	0.185144
772.641011	0.185182
772.835494	0.184937
773.029960	0.184660
773.224407	0.184598
773.418836	0.184643
773.613247	0.184648
773.807640	0.184472
774.002014	0.184425
774.196370	0.184643
774.390708	0.184503
774.585028	0.184465
774.779330	0.184376
774.973613	0.184412
775.167878	0.184446
775.362125	0.184475
775.556354	0.184597
775.750564	0.184978
775.944756	0.185077
776.138930	0.185216
776.333086	0.185319
776.527223	0.185592
776.721343	0.185457
776.915444	0.185278
777.109526	0.185147
777.303591	0.185186
777.497637	0.184875
777.691666	0.184824
777.885676	0.184751
778.079667	0.184612
778.273641	0.184618
778.467596	0.184796
778.661533	0.184892
778.855452	0.184937
779.049352	0.184805
779.243235	0.184784
779.437099	0.184734
779.630945	0.184853
779.824773	0.185029
780.018582	0.184972
780.212373	0.184936
780.406146	0.184979
780.599901	0.184879
780.793638	0.184916
780.987356	0.184952
781.181056	0.184938
781.374738	0.184755
781.568402	0.184742
781.762047	0.184600
781.955674	0.184688
782.149283	0.184826
782.342874	0.184977
782.536447	0.184929
782.730001	0.184992
782.923537	0.185186
783.117055	0.185220
783.310555	0.185141
783.504036	0.185399
783.697499	0.185454
783.890944	0.185327
784.084371	0.185455
784.277780	0.185760
784.471170	0.185725
784.664542	0.185651
784.857896	0.185651
785.051231	0.185810
785.244549	0.185639
785.437848	0.185393
785.631129	0.185455
785.824392	0.185107
786.017636	0.184954
786.210863	0.184887
786.404071	0.184677
786.597260	0.184803
786.790432	0.184698
786.983585	0.184907
787.176721	0.185047
787.369838	0.184878
787.562936	0.185026
787.756017	0.184955
787.949079	0.184903
788.142123	0.185152
788.335149	0.184872
788.528156	0.184563
788.721146	0.184367
788.914117	0.184329
789.107070	0.184385
789.300005	0.184415
789.492921	0.184327
789.685819	0.184397
789.878699	0.184074
790.071561	0.184269
790.264405	0.184611
790.457230	0.184774
790.650037	0.184816
790.842826	0.185052
791.035597	0.185394
791.228349	0.185503
791.421084	0.185512
791.613800	0.185961
791.806497	0.186206
791.999177	0.186440
792.191838	0.186454
792.384481	0.186586
792.577106	0.186435
792.769713	0.186296
792.962301	0.186390
793.154871	0.186622
793.347423	0.186649
793.539957	0.186726
793.732473	0.186721
793.924970	0.186962
794.117449	0.187145
794.309910	0.187492
794.502353	0.187440
794.694777	0.187710
794.887183	0.187799
795.079571	0.187907
795.271941	0.187779
795.464293	0.188005
795.656626	0.187858
795.848941	0.188049
796.041238	0.188232
796.233516	0.188382
796.425777	0.188514
796.618019	0.188652
796.810243	0.188523
797.002449	0.188727
797.194636	0.188637
797.386805	0.188871
797.578956	0.188713
797.771089	0.188677
797.963204	0.188720
798.155300	0.188546
798.347378	0.188620
798.539438	0.188980
798.731480	0.189112
798.923503	0.189362
799.115509	0.189344
799.307496	0.189504
799.499465	0.189730
799.691415	0.190163
799.883348	0.190467
800.075262	0.190558
800.267158	0.190478
800.459035	0.190641
800.650895	0.190778
800.842736	0.190844
801.034559	0.190774
801.226364	0.190668
801.418150	0.190827
801.609919	0.190988
801.801669	0.191193
801.993401	0.191710
802.185114	0.191748
802.376810	0.191639
802.568487	0.191959
802.760146	0.192052
802.951787	0.191987
803.143409	0.191533
803.335014	0.191507
803.526600	0.191495
803.718168	0.191160
803.909717	0.191102
804.101249	0.190989
804.292762	0.190794
804.484257	0.191025
804.675734	0.191335
804.867192	0.191779
805.058632	0.191907
805.250054	0.192025
805.441458	0.192205
805.632844	0.192326
805.824211	0.192599
806.015561	0.192882
806.206891	0.193200
806.398204	0.193286
806.589499	0.193339
806.780775	0.193437
806.972033	0.193328
807.163273	0.193596
807.354495	0.193779
807.545698	0.193840
807.736883	0.193995
807.928050	0.193965
808.119199	0.194247
808.310329	0.194458
808.501441	0.194566
808.692535	0.194936
808.883611	0.195075
809.074669	0.195270
809.265708	0.195476
809.456729	0.195593
809.647732	0.195727
809.838717	0.195671
810.029683	0.195705
810.220632	0.195725
810.411562	0.195912
810.602474	0.195861
810.793367	0.195986
810.984242	0.196354
811.175100	0.196807
811.365938	0.196820
811.556759	0.197051
811.747562	0.197109
811.938346	0.197371
812.129112	0.197603
812.319860	0.198004
812.510589	0.198221
812.701300	0.198211
812.891994	0.198038
813.082668	0.198517
813.273325	0.198738
813.463964	0.199125
813.654584	0.199397
813.845186	0.199316
814.035769	0.199647
814.226335	0.199939
814.416882	0.200128
814.607411	0.200491
814.797922	0.200419
814.988415	0.200586
815.178889	0.200838
815.369345	0.201069
815.559783	0.201252
815.750203	0.201097
815.940605	0.201216
816.130988	0.201480
816.321353	0.201380
816.511700	0.201762
816.702028	0.201831
816.892339	0.201743
817.082631	0.201932
817.272905	0.202149
817.463161	0.202546
817.653398	0.202843
817.843617	0.202934
818.033819	0.203395
818.224001	0.203303
818.414166	0.203474
818.604312	0.203716
818.794440	0.203609
818.984550	0.203838
819.174642	0.203861
819.364716	0.203936
819.554771	0.204313
819.744808	0.204367
819.934827	0.204792
820.124827	0.205224
820.314810	0.205607
820.504774	0.206200
820.694720	0.206545
820.884647	0.206850
821.074557	0.207254
821.264448	0.207413
821.454321	0.207872
821.644176	0.207875
821.834012	0.208075
822.023831	0.208297
822.213631	0.208474
822.403413	0.208302
822.593176	0.208472
822.782922	0.208257
822.972649	0.208159
823.162358	0.207932
823.352049	0.208041
823.541721	0.208313
823.731376	0.208474
823.921012	0.208442
824.110629	0.208815
824.300229	0.208951
824.489811	0.209228
824.679374	0.209405
824.868919	0.209779
825.058445	0.210066
825.247954	0.210114
825.437444	0.210177
825.626916	0.210418
825.816370	0.210740
826.005806	0.211055
826.195223	0.211088
826.384622	0.211601
826.574003	0.211776
826.763366	0.212439
826.952711	0.212711
827.142037	0.213137
827.331345	0.213566
827.520635	0.213922
827.709906	0.214104
827.899160	0.214538
828.088395	0.214963
828.277612	0.215247
828.466810	0.215374
828.655991	0.215712
828.845153	0.215783
829.034297	0.215911
829.223423	0.216391
829.412531	0.216550
829.601620	0.216891
829.790691	0.216927
829.979744	0.217151
830.168779	0.217177
830.357795	0.217560
830.546793	0.217846
830.735773	0.218009
830.924735	0.217964
831.113679	0.218335
831.302604	0.218548
831.491511	0.218827
831.680400	0.219161
831.869271	0.219282
832.058123	0.219270
832.246957	0.219642
832.435773	0.219858
832.624571	0.220210
832.813351	0.220463
833.002112	0.220922
833.190855	0.221046
833.379580	0.221080
833.568287	0.221673
833.756975	0.222087
833.945645	0.222278
834.134297	0.222607
834.322931	0.222936
834.511547	0.223228
834.700144	0.223140
834.888723	0.223304
835.077284	0.223818
835.265826	0.223718
835.454351	0.223939
835.642857	0.224233
835.831345	0.224407
836.019815	0.224229
836.208266	0.224324
836.396699	0.224753
836.585114	0.225342
836.773511	0.225642
836.961890	0.226118
837.150250	0.226300
837.338592	0.226461
837.526916	0.226772
837.715222	0.227085
837.903510	0.227240
838.091779	0.227255
838.280030	0.227430
838.468263	0.227780
838.656477	0.228260
838.844674	0.228626
839.032852	0.228952
839.221012	0.229600
839.409153	0.230516
839.597277	0.230937
839.785382	0.231662
839.973469	0.231762
840.161538	0.231732
840.349589	0.231932
840.537621	0.232007
840.725635	0.232195
840.913631	0.232249
841.101609	0.232054
841.289568	0.232362
841.477509	0.232203
841.665432	0.232481
841.853337	0.233105
842.041224	0.233252
842.229092	0.233494
842.416942	0.233893
842.604774	0.234021
842.792588	0.234683
842.980383	0.234676
843.168160	0.235286
843.355919	0.235729
843.543660	0.236006
843.731382	0.236586
843.919087	0.236931
844.106773	0.237360
844.294441	0.237677
844.482090	0.237726
844.669722	0.238447
844.857335	0.238788
845.044930	0.239306
845.232507	0.239312
845.420065	0.239487
845.607605	0.239966
845.795127	0.240352
845.982631	0.240768
846.170117	0.241022
846.357584	0.241193
846.545033	0.241593
846.732464	0.241564
846.919877	0.242003
847.107272	0.242046
847.294648	0.242156
847.482006	0.242220
847.669346	0.242300
847.856667	0.242356
848.043971	0.242445
848.231256	0.242648
848.418523	0.243304
848.605771	0.243554
848.793002	0.244035
848.980214	0.244395
849.167408	0.244592
849.354584	0.245004
849.541742	0.245727
849.728881	0.246267
849.916002	0.246486
850.103105	0.246771
850.290190	0.246903
850.477256	0.247328
850.664304	0.247409
850.851334	0.247530
851.038346	0.247613
851.225340	0.247655
851.412315	0.247678
851.599272	0.247810
851.786211	0.247614
851.973132	0.248029
852.160034	0.248002
852.346918	0.248398
852.533784	0.248913
852.720632	0.249411
852.907462	0.249374
853.094273	0.249653
853.281066	0.250171
853.467841	0.250368
853.654598	0.250589
853.841336	0.251057
854.028056	0.251363
854.214758	0.251492
854.401442	0.252014
854.588107	0.252448
854.774755	0.253002
854.961384	0.253045
855.147995	0.253904
855.334587	0.254456
855.521162	0.254617
855.707718	0.255092
855.894256	0.255742
856.080775	0.256024
856.267277	0.256455
856.453760	0.256567
856.640225	0.256680
856.826672	0.256538
857.013101	0.256440
857.199511	0.256549
857.385903	0.256604
857.572277	0.256606
857.758633	0.256566
857.944970	0.256679
858.131290	0.256683
858.317591	0.257316
858.503873	0.257786
858.690138	0.258177
858.876384	0.258660
859.062612	0.258893
859.248822	0.259004
859.435014	0.259246
859.621188	0.259440
859.807343	0.259992
859.993480	0.259684
860.179599	0.259811
860.365699	0.260039
860.551781	0.259866
860.737846	0.259913
860.923891	0.260066
861.109919	0.259999
861.295929	0.260063
861.481920	0.260012
861.667893	0.260250
861.853848	0.260505
862.039784	0.260687
862.225702	0.261317
862.411603	0.261567
862.597484	0.261942
862.783348	0.262495
862.969193	0.263309
863.155021	0.263869
863.340830	0.264186
863.526620	0.264488
863.712393	0.264822
863.898147	0.264865
864.083883	0.265371
864.269601	0.265827
864.455301	0.266090
864.640982	0.266007
864.826645	0.266127
865.012290	0.266813
865.197917	0.267240
865.383526	0.267314
865.569116	0.267545
865.754688	0.267393
865.940242	0.267644
866.125777	0.268094
866.311295	0.268375
866.496794	0.268655
866.682275	0.268628
866.867737	0.268670
867.053182	0.268847
867.238608	0.269351
867.424016	0.269654
867.609406	0.269785
867.794778	0.269989
867.980131	0.270070
868.165466	0.270379
868.350783	0.270741
868.536082	0.270774
868.721362	0.270899
868.906625	0.270837
869.091869	0.271172
869.277094	0.271136
869.462302	0.270986
869.647491	0.271070
869.832662	0.270917
870.017815	0.271177
870.202950	0.271450
870.388066	0.272110
870.573165	0.272353
870.758245	0.272816
870.943306	0.273241
871.128350	0.273645
871.313375	0.274075
871.498382	0.274378
871.683371	0.274771
871.868342	0.274948
872.053294	0.274688
872.238229	0.274454
872.423144	0.274110
872.608042	0.273890
872.792922	0.273985
872.977783	0.274270
873.162626	0.274637
873.347451	0.274425
873.532258	0.274395
873.717046	0.274396
873.901816	0.275097
874.086568	0.275718
874.271302	0.275884
874.456017	0.275959
874.640715	0.275971
874.825394	0.275918
875.010055	0.276104
875.194697	0.276177
875.379322	0.276347
875.563928	0.276482
875.748516	0.276419
875.933085	0.276545
876.117637	0.276572
876.302170	0.276654
876.486685	0.276723
876.671182	0.277097
876.855661	0.277607
877.040121	0.277812
877.224563	0.277609
877.408987	0.277472
877.593393	0.277943
877.777780	0.278551
877.962150	0.278778
878.146501	0.278997
878.330833	0.278706
878.515148	0.278535
878.699444	0.279061
878.883722	0.279224
879.067982	0.279771
879.252224	0.280072
879.436447	0.279974
879.620653	0.279829
879.804840	0.279878
879.989008	0.280079
880.173159	0.280223
880.357291	0.280055
880.541405	0.280206
880.725501	0.280039
880.909579	0.279560
881.093638	0.279609
881.277680	0.279936
881.461703	0.279958
881.645707	0.280005
881.829694	0.280195
882.013662	0.280502
882.197612	0.280718
882.381544	0.281109
882.565458	0.281384
882.749353	0.281280
882.933230	0.281324
883.117089	0.281816
883.300930	0.281910
883.484753	0.281773
883.668557	0.281763
883.852343	0.281942
884.036111	0.281717
884.219861	0.281547
884.403592	0.282102
884.587305	0.282295
884.771000	0.282238
884.954677	0.281692
885.138335	0.281657
885.321976	0.281429
885.505598	0.281607
885.689201	0.281719
885.872787	0.281967
886.056354	0.281557
886.239904	0.281472
886.423434	0.281275
886.606947	0.282086
886.790442	0.282212
886.973918	0.282602
887.157376	0.282451
887.340816	0.282273
887.524237	0.282387
887.707641	0.282380
887.891026	0.282128
888.074393	0.282138
888.257741	0.282238
888.441072	0.282281
888.624384	0.281914
888.807678	0.281690
888.990954	0.281725
889.174211	0.281468
889.357451	0.281462
889.540672	0.281311
889.723875	0.281296
889.907059	0.280804
890.090226	0.280798
890.273374	0.280959
890.456504	0.280843
890.639616	0.280809
890.822709	0.280941
891.005785	0.280774
891.188842	0.280927
891.371881	0.280962
891.554901	0.281176
891.737904	0.280924
891.920888	0.280608
892.103854	0.280730
892.286802	0.280864
892.469731	0.280727
892.652643	0.280910
892.835536	0.280914
893.018410	0.280677
893.201267	0.280479
893.384106	0.280930
893.566926	0.281547
893.749728	0.281236
893.932511	0.281012
894.115277	0.281361
894.298024	0.281262
894.480753	0.281281
894.663464	0.280988
894.846157	0.281132
895.028831	0.280563
895.211487	0.279714
895.394125	0.280123
895.576745	0.280199
895.759346	0.279861
895.941930	0.279532
896.124495	0.279212
896.307041	0.279674
896.489570	0.279367
896.672080	0.279806
896.854573	0.280065
897.037046	0.279752
897.219502	0.279650
897.401940	0.279519
897.584359	0.279436
897.766760	0.279695
897.949143	0.279600
898.131507	0.279395
898.313854	0.278851
898.496182	0.278290
898.678492	0.278008
898.860783	0.277642
899.043057	0.277202
899.225312	0.277093
899.407549	0.276578
899.589768	0.275878
899.771968	0.275578
899.954151	0.275376
900.136315	0.275744
900.318461	0.275441
900.500588	0.275295
900.682698	0.275345
900.864789	0.275141
901.046862	0.274915
901.228917	0.274956
901.410953	0.275224
901.592971	0.275165
901.774972	0.274433
901.956953	0.274362
902.138917	0.273994
902.320862	0.273487
902.502790	0.273191
902.684699	0.273291
902.866589	0.273143
903.048462	0.272549
903.230316	0.272389
903.412152	0.272183
903.593970	0.272355
903.775770	0.272432
903.957551	0.272551
904.139314	0.272435
904.321059	0.272150
904.502786	0.272097
904.684494	0.272076
904.866185	0.271837
905.047857	0.272067
905.229510	0.271503
905.411146	0.271019
905.592763	0.270407
905.774363	0.270375
905.955943	0.269768
906.137506	0.269644
906.319051	0.269235
906.500577	0.268915
906.682085	0.268199
906.863575	0.267763
907.045046	0.267190
907.226500	0.267308
907.407935	0.266968
907.589352	0.266803
907.770750	0.266247
907.952131	0.266239
908.133493	0.265802
908.314837	0.266144
908.496163	0.265889
908.677470	0.265990
908.858760	0.265774
909.040031	0.265055
909.221284	0.264798
909.402518	0.264711
909.583735	0.263649
909.764933	0.263818
909.946113	0.263276
910.127275	0.263226
910.308418	0.262984
910.489544	0.262660
910.670651	0.262656
910.851740	0.262786
911.032810	0.262302
911.213863	0.262172
911.394897	0.261526
911.575913	0.260973
911.756911	0.260324
911.937890	0.260097
912.118851	0.259382
912.299794	0.258982
912.480719	0.257843
912.661626	0.257096
912.842514	0.257194
913.023384	0.256717
913.204236	0.256441
913.385070	0.256047
913.565886	0.255465
913.746683	0.255349
913.927462	0.254818
914.108223	0.254986
914.288965	0.254744
914.469690	0.254132
914.650396	0.253369
914.831084	0.252900
915.011754	0.252515
915.192405	0.252073
915.373038	0.251153
915.553653	0.250833
915.734250	0.250335
915.914829	0.250219
916.095389	0.249950
916.275931	0.249842
916.456455	0.249497
916.636961	0.249230
916.817448	0.248871
916.997917	0.248783
917.178368	0.248397
917.358801	0.247832
917.539216	0.247007
917.719612	0.246436
917.899990	0.246417
918.080350	0.245973
918.260692	0.245861
918.441015	0.245295
918.621320	0.245348
918.801607	0.244578
918.981876	0.244283
919.162127	0.243905
919.342359	0.243300
919.522573	0.242589
919.702769	0.242222
919.882947	0.241548
920.063106	0.242080
920.243247	0.241426
920.423370	0.241526
920.603475	0.240722
920.783562	0.240084
920.963630	0.239736
921.143680	0.238924
921.323712	0.238508
921.503725	0.237508
921.683721	0.235697
921.863698	0.235185
922.043657	0.234398
922.223598	0.233979
922.403520	0.232983
922.583424	0.232636
922.763311	0.231906
922.943178	0.230944
923.123028	0.230461
923.302859	0.230377
923.482673	0.230053
923.662467	0.230032
923.842244	0.229453
924.022003	0.229820
924.201743	0.229186
924.381465	0.229352
924.561169	0.229321
924.740854	0.229249
924.920522	0.228502
925.100171	0.227597
925.279802	0.226184
925.459414	0.225415
925.639009	0.224694
925.818585	0.224386
925.998143	0.223756
926.177683	0.223255
926.357205	0.222304
926.536708	0.221890
926.716193	0.221316
926.895660	0.221388
927.075109	0.221431
927.254539	0.220896
927.433951	0.220161
927.613345	0.220070
927.792721	0.219515
927.972079	0.219153
928.151418	0.219038
928.330739	0.218192
928.510042	0.217128
928.689327	0.216304
928.868593	0.215461
929.047841	0.214744
929.227071	0.213154
929.406283	0.212402
929.585476	0.211905
929.764652	0.211197
929.943809	0.210410
930.122948	0.209764
930.302068	0.209034
930.481171	0.208386
930.660255	0.207725
930.839321	0.207223
931.018369	0.206001
931.197398	0.205142
931.376409	0.204846
931.555402	0.204130
931.734377	0.203785
931.913334	0.202977
932.092272	0.202614
932.271192	0.201967
932.450094	0.201827
932.628978	0.201543
932.807844	0.200945
932.986691	0.200303
933.165520	0.200553
933.344331	0.200313
933.523123	0.199713
933.701898	0.199267
933.880654	0.198775
934.059392	0.197488
934.238111	0.196535
934.416813	0.195881
934.595496	0.194440
934.774161	0.193273
934.952808	0.192019
935.131437	0.191596
935.310047	0.190899
935.488639	0.189938
935.667213	0.189544
935.845769	0.189443
936.024306	0.188790
936.202825	0.187846
936.381326	0.187423
936.559809	0.187033
936.738274	0.186348
936.916720	0.185193
937.095148	0.184764
937.273558	0.184568
937.451950	0.183746
937.630323	0.183853
937.808678	0.183316
937.987015	0.182449
938.165334	0.182250
938.343635	0.181251
938.521917	0.181381
938.700181	0.180724
938.878427	0.179998
939.056655	0.179563
939.234864	0.178974
939.413055	0.177765
939.591228	0.177732
939.769383	0.176907
939.947519	0.176727
940.125638	0.174553
940.303738	0.174426
940.481820	0.172055
940.659883	0.171181
940.837929	0.169648
941.015956	0.169456
941.193965	0.167713
941.371955	0.165905
941.549928	0.164805
941.727882	0.165199
941.905818	0.164689
942.083736	0.164944
942.261636	0.164883
942.439517	0.163177
942.617380	0.163042
942.795225	0.163147
942.973052	0.162753
943.150860	0.162634
943.328651	0.162106
943.506423	0.160687
943.684176	0.159116
943.861912	0.157517
944.039629	0.157833
944.217328	0.157460
944.395009	0.156796
944.572672	0.156187
944.750317	0.155875
944.927943	0.154906
945.105551	0.153548
945.283141	0.154193
945.460712	0.152931
945.638265	0.151237
945.815801	0.149677
945.993317	0.148394
946.170816	0.147515
946.348297	0.146704
946.525759	0.145406
946.703203	0.145244
946.880629	0.143592
947.058036	0.142678
947.235425	0.142210
947.412797	0.141898
947.590149	0.140662
947.767484	0.139796
947.944800	0.137409
948.122099	0.135912
948.299379	0.134111
948.476640	0.133976
948.653884	0.134058
948.831109	0.133801
949.008316	0.132185
949.185505	0.132327
949.362676	0.131007
949.539828	0.129649
949.716962	0.129591
949.894078	0.129752
950.071176	0.129196
950.248256	0.127874
950.425317	0.127669
950.602360	0.127462
950.779385	0.125855
950.956391	0.125944
951.133380	0.127786
951.310350	0.127008
951.487302	0.127147
951.664235	0.125650
951.841151	0.126222
952.018048	0.124417
952.194927	0.124460
952.371788	0.124043
952.548631	0.123054
952.725455	0.120739
952.902261	0.121212
953.079049	0.120012
953.255819	0.118859
953.432570	0.119122
953.609303	0.118256
953.786018	0.116049
953.962715	0.115973
954.139394	0.113528
954.316054	0.112994
954.492696	0.113109
954.669320	0.111612
954.845926	0.112536
955.022513	0.111428
955.199083	0.110772
955.375634	0.110519
955.552166	0.109993
955.728681	0.113936
955.905177	0.112611
956.081655	0.111758
956.258115	0.111947
956.434557	0.111451
956.610980	0.108334
956.787385	0.106684
956.963772	0.105961
957.140141	0.105794
957.316492	0.103486
957.492824	0.103864
957.669138	0.101904
957.845434	0.101712
958.021712	0.102889
958.197971	0.102342
958.374212	0.104641
958.550435	0.104259
958.726640	0.103264
958.902826	0.103559
959.078995	0.102954
959.255145	0.104498
959.431277	0.103687
959.607390	0.100367
959.783486	0.100490
959.959563	0.098424
960.135622	0.097609
960.311662	0.098476
960.487685	0.095255
960.663689	0.096113
960.839675	0.092088
961.015643	0.090889
961.191593	0.090572
961.367524	0.091545
961.543437	0.091647
961.719332	0.093924
961.895209	0.090458
962.071067	0.091342
962.246907	0.090783
962.422730	0.093614
962.598533	0.094854
962.774319	0.095049
962.950086	0.095695
963.125835	0.098575
963.301566	0.098121
963.477279	0.101545
963.652973	0.101053
963.828650	0.100753
964.004308	0.099990
964.179947	0.099972
964.355569	0.100459
964.531172	0.100647
964.706757	0.096522
964.882324	0.096079
965.057873	0.095086
965.233403	0.094901
965.408916	0.094384
965.584410	0.092652
965.759885	0.092500
965.935343	0.092124
966.110782	0.090212
966.286203	0.091380
966.461606	0.091072
966.636991	0.089308
966.812357	0.089451
966.987705	0.087854
967.163035	0.088811
967.338347	0.088413
967.513641	0.090339
967.688916	0.091484
967.864173	0.091278
968.039412	0.090007
968.214632	0.091139
968.389835	0.090750
968.565019	0.090946
968.740185	0.091249
968.915333	0.091811
969.090462	0.089613
969.265573	0.087521
969.440667	0.087908
969.615741	0.089300
969.790798	0.089961
969.965836	0.091676
970.140856	0.094216
970.315858	0.094205
970.490842	0.092736
970.665808	0.094606
970.840755	0.094631
971.015684	0.096265
971.190595	0.094838
971.365487	0.093398
971.540362	0.091902
971.715218	0.091791
971.890056	0.091592
972.064875	0.090227
972.239677	0.090226
972.414460	0.090764
972.589225	0.089823
972.763972	0.090517
972.938700	0.091806
973.113411	0.092087
973.288103	0.090466
973.462777	0.090425
973.637432	0.092861
973.812070	0.093324
973.986689	0.095508
974.161290	0.093034
974.335873	0.091847
974.510437	0.090455
974.684984	0.091574
974.859512	0.093554
975.034022	0.092637
975.208513	0.092981
975.382987	0.091444
975.557442	0.089610
975.731879	0.089599
975.906298	0.090075
976.080698	0.090871
976.255080	0.088723
976.429445	0.087065
976.603790	0.085870
976.778118	0.085445
976.952427	0.085487
977.126719	0.086321
977.300992	0.088748
977.475246	0.088678
977.649483	0.087785
977.823701	0.088872
977.997901	0.088014
978.172083	0.087812
978.346247	0.086844
978.520392	0.087108
978.694519	0.087816
978.868628	0.086993
979.042719	0.087635
979.216791	0.087214
979.390845	0.088801
979.564882	0.090272
979.738899	0.092189
979.912899	0.093495
980.086880	0.092035
980.260843	0.090909
980.434788	0.091346
980.608715	0.090085
980.782623	0.091985
980.956514	0.089224
981.130386	0.087790
981.304240	0.088959
981.478075	0.087465
981.651892	0.089420
981.825692	0.091152
981.999472	0.091885
982.173235	0.094656
982.346980	0.093850
982.520706	0.095830
982.694414	0.097324
982.868104	0.095649
983.041775	0.094126
983.215428	0.092299
983.389064	0.089750
983.562680	0.090485
983.736279	0.089024
983.909860	0.087856
984.083422	0.087860
984.256966	0.086873
984.430491	0.088818
984.603999	0.093213
984.777488	0.093490
984.950959	0.094443
985.124412	0.092391
985.297847	0.092846
985.471263	0.093384
985.644661	0.093831
985.818041	0.094896
985.991403	0.094210
986.164747	0.093261
986.338072	0.093868
986.511379	0.093915
986.684668	0.095209
986.857938	0.094662
987.031191	0.093987
987.204425	0.095462
987.377641	0.096609
987.550839	0.097223
987.724018	0.096150
987.897179	0.097236
988.070322	0.097479
988.243447	0.095937
988.416554	0.093892
988.589642	0.095775
988.762712	0.093908
988.935764	0.092040
989.108798	0.089808
989.281813	0.090100
989.454811	0.088128
989.627790	0.088039
989.800751	0.090109
989.973693	0.091638
990.146617	0.092012
990.319524	0.092409
990.492412	0.092341
990.665281	0.092917
990.838133	0.093993
991.010966	0.094503
991.183781	0.095742
991.356578	0.093625
991.529356	0.095175
991.702117	0.094583
991.874859	0.094449
992.047583	0.095693
992.220288	0.095589
992.392976	0.093895
992.565645	0.094801
992.738296	0.093644
992.910929	0.093711
993.083543	0.094469
993.256139	0.095256
993.428718	0.093993
993.601277	0.092388
993.773819	0.092525
993.946342	0.091749
994.118848	0.090798
994.291335	0.089370
994.463803	0.090554
994.636254	0.088325
994.808686	0.086854
994.981100	0.088542
995.153496	0.088559
995.325874	0.088288
995.498233	0.089584
995.670574	0.090067
995.842897	0.091877
996.015202	0.092703
996.187488	0.091301
996.359757	0.093290
996.532007	0.093015
996.704239	0.093255
996.876452	0.094391
997.048648	0.092844
997.220825	0.094164
997.392984	0.094081
997.565124	0.090773
997.737247	0.092840
997.909351	0.090498
998.081437	0.090369
998.253505	0.090521
998.425554	0.090258
998.597586	0.091818
998.769599	0.090299
998.941594	0.089303
999.113571	0.090060
999.285529	0.090927
999.457469	0.091088
999.629391	0.090142
999.801295	0.091211
999.973181	0.092334
1000.145048	0.092287
1000.316897	0.092180
1000.488728	0.092542
1000.660541	0.093227
1000.832335	0.090697
1001.004111	0.090859
1001.175869	0.092368
1001.347609	0.092172
1001.519331	0.091193
1001.691034	0.090241
1001.862719	0.091244
1002.034386	0.089372
1002.206035	0.088935
1002.377665	0.091544
1002.549277	0.093502
1002.720871	0.092788
1002.892447	0.091139
1003.064004	0.091086
1003.235544	0.092775
1003.407065	0.092782
1003.578568	0.093845
1003.750052	0.093873
1003.921519	0.091494
1004.092967	0.092137
1004.264397	0.091694
1004.435809	0.091272
1004.607202	0.090043
1004.778577	0.090121
1004.949934	0.089645
1005.121273	0.091205
1005.292594	0.092183
1005.463896	0.093692
1005.635180	0.091152
1005.806446	0.090647
1005.977694	0.092381
1006.148923	0.094255
1006.320135	0.092368
1006.491328	0.092099
1006.662503	0.092164
1006.833659	0.091211
1007.004798	0.089521
1007.175918	0.089612
1007.347020	0.091169
1007.518103	0.089275
1007.689169	0.089449
1007.860216	0.091161
1008.031245	0.091737
1008.202256	0.090583
1008.373248	0.093565
1008.544223	0.094018
1008.715179	0.093033
1008.886117	0.092385
1009.057036	0.094714
1009.227938	0.093214
1009.398821	0.092868
1009.569686	0.092571
1009.740533	0.091963
1009.911361	0.089956
1010.082172	0.090851
1010.252964	0.091742
1010.423738	0.091509
1010.594493	0.089800
1010.765231	0.090838
1010.935950	0.092249
1011.106651	0.092790
1011.277334	0.094943
1011.447998	0.094837
1011.618645	0.094917
1011.789273	0.095666
1011.959882	0.094714
1012.130474	0.096471
1012.301048	0.096458
1012.471603	0.093293
1012.642140	0.093908
1012.812658	0.093010
1012.983159	0.093792
1013.153641	0.094288
1013.324105	0.093599
1013.494551	0.094458
1013.664979	0.094715
1013.835388	0.093560
1014.005779	0.094503
1014.176152	0.093435
1014.346507	0.091798
1014.516843	0.091795
1014.687162	0.092833
1014.857462	0.092438
1015.027744	0.092755
1015.198007	0.092010
1015.368252	0.092642
1015.538480	0.093171
1015.708689	0.094448
1015.878879	0.097638
1016.049052	0.097502
1016.219206	0.095348
1016.389342	0.095759
1016.559460	0.095779
1016.729559	0.094417
1016.899641	0.096626
1017.069704	0.094862
1017.239749	0.092768
1017.409775	0.090233
1017.579784	0.090142
1017.749774	0.091642
1017.919746	0.091502
1018.089700	0.091757
1018.259635	0.093560
1018.429553	0.092513
1018.599452	0.093973
1018.769333	0.095011
1018.939195	0.095666
1019.109040	0.094586
1019.278866	0.094081
1019.448674	0.093485
1019.618464	0.094443
1019.788235	0.093455
1019.957989	0.091388
1020.127724	0.092474
1020.297441	0.091522
1020.467139	0.091507
1020.636820	0.091849
1020.806482	0.091797
1020.976126	0.092198
1021.145752	0.090238
1021.315359	0.091056
1021.484948	0.091281
1021.654519	0.088185
1021.824072	0.088429
1021.993607	0.089744
1022.163123	0.088721
1022.332621	0.087419
1022.502101	0.089009
1022.671563	0.088567
1022.841007	0.087987
1023.010432	0.089302
1023.179839	0.092495
1023.349228	0.094270
1023.518598	0.092263
1023.687951	0.092982
1023.857285	0.094395
1024.026601	0.092994
1024.195899	0.094050
1024.365178	0.094098
1024.534439	0.093398
1024.703682	0.092301
1024.872907	0.090930
1025.042114	0.091318
1025.211302	0.091816
1025.380472	0.091723
1025.549624	0.091239
1025.718758	0.091324
1025.887873	0.089560
1026.056970	0.088501
1026.226049	0.087664
1026.395110	0.087003
1026.564153	0.087716
1026.733177	0.087334
1026.902183	0.087630
1027.071171	0.089017
1027.240141	0.088774
1027.409092	0.089570
1027.578026	0.091402
1027.746940	0.092367
1027.915837	0.093105
1028.084716	0.092963
1028.253576	0.093194
1028.422418	0.093220
1028.591242	0.091911
1028.760048	0.090907
1028.928835	0.091200
1029.097604	0.089896
1029.266355	0.089958
1029.435088	0.090035
1029.603803	0.089198
1029.772499	0.088411
1029.941177	0.087418
1030.109837	0.087248
1030.278478	0.087079
1030.447102	0.090715
1030.615707	0.090756
1030.784294	0.089838
1030.952863	0.090317
1031.121413	0.090793
1031.289945	0.092516
1031.458460	0.092806
1031.626955	0.093539
1031.795433	0.095480
1031.963892	0.090983
1032.132334	0.091517
1032.300756	0.090873
1032.469161	0.089634
1032.637548	0.089725
1032.805916	0.089111
1032.974266	0.089184
1033.142598	0.088964
1033.310911	0.088543
1033.479207	0.089660
1033.647484	0.089250
1033.815743	0.090622
1033.983983	0.091680
1034.152206	0.091169
1034.320410	0.090249
1034.488596	0.090771
1034.656764	0.092133
1034.824914	0.090876
1034.993045	0.091290
1035.161158	0.091160
1035.329253	0.090265
1035.497330	0.089927
1035.665388	0.090936
1035.833428	0.091433
1036.001450	0.090886
1036.169454	0.090707
1036.337440	0.092319
1036.505407	0.091686
1036.673356	0.093121
1036.841287	0.093754
1037.009200	0.094146
1037.177094	0.094791
1037.344970	0.094692
1037.512828	0.093158
1037.680668	0.092395
1037.848489	0.090584
1038.016293	0.092272
1038.184078	0.090308
1038.351845	0.090244
1038.519593	0.089588
1038.687324	0.086499
1038.855036	0.087447
1039.022730	0.088677
1039.190406	0.088123
1039.358063	0.088143
1039.525702	0.087090
1039.693323	0.087466
1039.860926	0.088884
1040.028511	0.087877
1040.196077	0.089530
1040.363625	0.089446
1040.531155	0.088149
1040.698667	0.086897
1040.866161	0.086798
1041.033636	0.087124
1041.201093	0.087220
1041.368532	0.084506
1041.535952	0.085503
1041.703355	0.087058
1041.870739	0.086954
1042.038105	0.088680
1042.205452	0.088319
1042.372782	0.088920
1042.540093	0.089118
1042.707386	0.089060
1042.874661	0.091395
1043.041918	0.089569
1043.209156	0.087839
1043.376376	0.087360
1043.543578	0.087451
1043.710762	0.088964
1043.877927	0.089979
1044.045074	0.089714
1044.212203	0.090678
1044.379314	0.089071
1044.546407	0.091397
1044.713481	0.093756
1044.880537	0.092884
1045.047575	0.091088
1045.214595	0.090815
1045.381596	0.091040
1045.548579	0.090435
1045.715544	0.090182
1045.882491	0.090272
1046.049420	0.089614
1046.216330	0.089274
1046.383222	0.089091
1046.550096	0.091502
1046.716951	0.091234
1046.883789	0.090700
1047.050608	0.090320
1047.217409	0.091260
1047.384192	0.091425
1047.550956	0.091245
1047.717703	0.087864
1047.884431	0.088431
1048.051140	0.088146
1048.217832	0.090186
1048.384505	0.089436
1048.551161	0.089287
1048.717798	0.086026
1048.884416	0.087099
1049.051017	0.085816
1049.217599	0.086786
1049.384163	0.087547
1049.550709	0.087392
1049.717237	0.087447
1049.883746	0.087416
1050.050237	0.088691
1050.216710	0.090166
1050.383165	0.090534
1050.549601	0.091671
1050.716019	0.091627
1050.882420	0.090805
1051.048801	0.091310
1051.215165	0.090508
1051.381510	0.092461
1051.547837	0.091005
1051.714146	0.093300
1051.880437	0.090474
1052.046709	0.090515
1052.212964	0.090686
1052.379200	0.091132
1052.545417	0.089928
1052.711617	0.089860
1052.877798	0.090137
1053.043961	0.090694
1053.210106	0.088718
1053.376233	0.091830
1053.542341	0.092628
1053.708432	0.091160
1053.874504	0.092267
1054.040557	0.093441
1054.206593	0.095109
1054.372610	0.092875
1054.538609	0.092464
1054.704590	0.091561
1054.870553	0.090231
1055.036497	0.090493
1055.202424	0.094294
1055.368331	0.093534
1055.534221	0.091144
1055.700093	0.088865
1055.865946	0.089245
1056.031781	0.089266
1056.197598	0.092212
1056.363397	0.091370
1056.529177	0.090768
1056.694939	0.089502
1056.860683	0.090962
1057.026409	0.091202
1057.192116	0.091182
1057.357806	0.091507
1057.523477	0.090524
1057.689130	0.088871
1057.854764	0.090954
1058.020381	0.091297
1058.185979	0.090830
1058.351559	0.087837
1058.517120	0.089484
1058.682664	0.089923
1058.848189	0.087340
1059.013696	0.088093
1059.179185	0.087872
1059.344656	0.086260
1059.510108	0.085811
1059.675542	0.086764
1059.840958	0.085348
1060.006356	0.085670
1060.171735	0.085924
1060.337096	0.087499
1060.502439	0.090074
1060.667764	0.090446
1060.833071	0.092824
1060.998359	0.094690
1061.163629	0.093379
1061.328881	0.096376
1061.494115	0.096439
1061.659330	0.096043
1061.824527	0.095444
1061.989706	0.093410
1062.154867	0.092595
1062.320010	0.092031
1062.485134	0.090219
1062.650240	0.091286
1062.815328	0.093109
1062.980398	0.093589
1063.145449	0.092771
1063.310482	0.094680
1063.475497	0.095800
1063.640494	0.097560
1063.805473	0.098087
1063.970433	0.097607
1064.135375	0.096793
1064.300299	0.094590
1064.465204	0.095182
1064.630092	0.094324
1064.794961	0.095818
1064.959812	0.095936
1065.124645	0.095750
1065.289459	0.092646
1065.454256	0.092996
1065.619034	0.093861
1065.783793	0.094784
1065.948535	0.092456
1066.113258	0.093757
1066.277964	0.093911
1066.442651	0.093613
1066.607319	0.093235
1066.771970	0.096563
1066.936602	0.097088
1067.101216	0.098386
1067.265812	0.098794
1067.430389	0.101018
1067.594949	0.102614
1067.759490	0.100045
1067.924013	0.100781
1068.088518	0.101808
1068.253004	0.102767
1068.417472	0.102703
1068.581922	0.101247
1068.746354	0.101230
1068.910768	0.099038
1069.075163	0.098218
1069.239540	0.097109
1069.403899	0.095277
1069.568240	0.096201
1069.732562	0.093723
1069.896866	0.093323
1070.061152	0.092881
1070.225420	0.090980
1070.389670	0.092758
1070.553901	0.092755
1070.718114	0.096967
1070.882309	0.098771
1071.046486	0.097285
1071.210644	0.096162
1071.374784	0.096709
1071.538906	0.096296
1071.703010	0.098435
1071.867096	0.099319
1072.031163	0.101972
1072.195212	0.099130
1072.359243	0.097875
1072.523256	0.097399
1072.687250	0.099315
1072.851226	0.100782
1073.015184	0.101787
1073.179124	0.099552
1073.343045	0.098026
1073.506949	0.094214
1073.670834	0.095653
1073.834701	0.096738
1073.998549	0.096896
1074.162380	0.095530
1074.326192	0.096073
1074.489986	0.097059
1074.653761	0.100829
1074.817519	0.100610
1074.981258	0.103548
1075.144979	0.101391
1075.308682	0.101776
1075.472367	0.102721
1075.636033	0.103446
1075.799681	0.101498
1075.963311	0.102307
1076.126923	0.103875
1076.290516	0.104595
1076.454092	0.103838
1076.617649	0.105697
1076.781187	0.105350
1076.944708	0.105327
1077.108210	0.107058
1077.271695	0.107943
1077.435160	0.104709
1077.598608	0.103274
1077.762038	0.102195
1077.925449	0.103913
1078.088842	0.102413
1078.252217	0.101324
1078.415573	0.101201
1078.578912	0.099092
1078.742232	0.100238
1078.905534	0.102149
1079.068817	0.101603
1079.232083	0.103166
1079.395330	0.100008
1079.558559	0.102366
1079.721770	0.101194
1079.884962	0.101577
1080.048136	0.102626
1080.211293	0.102097
1080.374430	0.103151
1080.537550	0.101085
1080.700651	0.099768
1080.863735	0.101452
1081.026800	0.099902
1081.189846	0.101828
1081.352875	0.102746
1081.515885	0.101414
1081.678877	0.100869
1081.841851	0.097402
1082.004807	0.098792
1082.167744	0.100689
1082.330663	0.100296
1082.493564	0.102179
1082.656447	0.102170
1082.819312	0.100982
1082.982158	0.101985
1083.144986	0.099544
1083.307796	0.102957
1083.470587	0.102321
1083.633361	0.100580
1083.796116	0.098366
1083.958853	0.099165
1084.121571	0.100468
1084.284272	0.098324
1084.446954	0.098622
1084.609618	0.101170
1084.772264	0.100545
1084.934892	0.100310
1085.097501	0.101705
1085.260092	0.103741
1085.422665	0.100630
1085.585220	0.099101
1085.747756	0.101494
1085.910274	0.101217
1086.072774	0.102159
1086.235256	0.101665
1086.397720	0.102771
1086.560165	0.099365
1086.722592	0.100232
1086.885001	0.102046
1087.047392	0.104080
1087.209764	0.105127
1087.372119	0.106563
1087.534455	0.106234
1087.696772	0.106814
1087.859072	0.103622
1088.021353	0.107515
1088.183616	0.107980
1088.345861	0.107679
1088.508088	0.102951
1088.670296	0.100624
1088.832486	0.098209
1088.994658	0.099108
1089.156812	0.100120
1089.318948	0.105588
1089.481065	0.104974
1089.643164	0.102528
1089.805245	0.103212
1089.967308	0.105379
1090.129352	0.105692
1090.291378	0.108746
1090.453386	0.105702
1090.615376	0.103451
1090.777347	0.101159
1090.939301	0.103080
1091.101236	0.104795
1091.263153	0.104832
1091.425051	0.107603
1091.586932	0.108811
1091.748794	0.105636
1091.910638	0.106829
1092.072463	0.107374
1092.234271	0.107784
1092.396060	0.103770
1092.557831	0.103616
1092.719584	0.101389
1092.881319	0.101921
1093.043035	0.101020
1093.204733	0.104505
1093.366413	0.104715
1093.528075	0.106793
1093.689718	0.104322
1093.851343	0.109657
1094.012950	0.110166
1094.174539	0.112322
1094.336110	0.109415
1094.497662	0.109777
1094.659196	0.107126
1094.820712	0.109741
1094.982210	0.105278
1095.143689	0.105226
1095.305151	0.102307
1095.466594	0.101474
1095.628018	0.099648
1095.789425	0.101208
1095.950813	0.102691
1096.112183	0.104433
1096.273535	0.103230
1096.434869	0.108528
1096.596184	0.109208
1096.757482	0.107364
1096.918761	0.107433
1097.080021	0.110464
1097.241264	0.113223
1097.402488	0.113297
1097.563694	0.115391
1097.724882	0.114920
1097.886052	0.112410
1098.047203	0.108479
1098.208336	0.108625
1098.369451	0.109190
1098.530548	0.104978
1098.691627	0.100537
1098.852687	0.099126
1099.013729	0.095180
1099.174753	0.095323
1099.335758	0.095252
1099.496746	0.100828
1099.657715	0.102184
1099.818666	0.101062
1099.979599	0.103876
1100.140513	0.105130
1100.301409	0.106250
1100.462287	0.104413
1100.623147	0.101402
1100.783989	0.102614
1100.944812	0.104683
1101.105617	0.102585
1101.266404	0.106505
1101.427173	0.107152
1101.587923	0.109980
1101.748656	0.107778
1101.909370	0.109210
1102.070066	0.111093
1102.230743	0.112155
1102.391403	0.111599
1102.552044	0.114857
1102.712667	0.110441
1102.873271	0.110005
1103.033858	0.105305
1103.194426	0.108665
1103.354976	0.107035
1103.515508	0.110374
1103.676021	0.112460
1103.836517	0.111584
1103.996994	0.109107
1104.157453	0.112626
1104.317893	0.112075
1104.478316	0.119004
1104.638720	0.116419
1104.799106	0.122067
1104.959474	0.120624
1105.119823	0.115574
1105.280155	0.116173
1105.440468	0.120574
1105.600763	0.120751
1105.761039	0.125519
1105.921298	0.120011
1106.081538	0.123911
1106.241760	0.123929
1106.401964	0.123894
1106.562149	0.124920
1106.722316	0.124098
1106.882465	0.122181
1107.042596	0.117936
1107.202709	0.114416
1107.362803	0.117015
1107.522879	0.114283
1107.682937	0.112117
1107.842977	0.108325
1108.002999	0.112030
1108.163002	0.111009
1108.322987	0.108782
1108.482954	0.110890
1108.642902	0.110999
1108.802833	0.109330
1108.962745	0.110043
1109.122639	0.104938
1109.282515	0.107189
1109.442372	0.107582
1109.602211	0.106436
1109.762032	0.109833
1109.921835	0.115197
1110.081620	0.115901
1110.241386	0.109639
1110.401134	0.110487
1110.560864	0.117527
1110.720576	0.116066
1110.880269	0.113427
1111.039945	0.111230
1111.199602	0.109321
1111.359240	0.103471
1111.518861	0.100035
1111.678463	0.106340
1111.838047	0.101346
1111.997613	0.101632
1112.157161	0.103322
1112.316690	0.100487
1112.476202	0.105185
1112.635695	0.101695
1112.795169	0.102031
1112.954626	0.105561
1113.114064	0.108125
1113.273484	0.111028
1113.432886	0.108978
1113.592270	0.109589
1113.751635	0.112304
1113.910983	0.112244
1114.070312	0.117043
1114.229622	0.118571
1114.388915	0.115218
1114.548189	0.114990
1114.707445	0.112887
1114.866683	0.117181
1115.025903	0.120655
1115.185104	0.120077
1115.344287	0.117722
1115.503452	0.121388
1115.662599	0.121042
1115.821727	0.126896
1115.980838	0.124523
1116.139930	0.129078
1116.299004	0.129549
1116.458059	0.128495
1116.617097	0.128633
1116.776116	0.131615
1116.935117	0.130303
1117.094099	0.130756
1117.253064	0.126443
1117.412010	0.127772
1117.570938	0.127716
1117.729848	0.126111
1117.888740	0.125031
1118.047613	0.123218
1118.206468	0.123010
1118.365305	0.122358
1118.524124	0.127419
1118.682924	0.127606
1118.841707	0.125326
1119.000471	0.123119
1119.159216	0.122257
1119.317944	0.122655
1119.476653	0.127735
1119.635344	0.124722
1119.794017	0.123870
1119.952672	0.117970
1120.111308	0.117680
1120.269927	0.119791
1120.428527	0.124297
1120.587108	0.119146
1120.745672	0.117631
1120.904217	0.122104
1121.062744	0.126011
1121.221253	0.126818
1121.379744	0.128474
1121.538216	0.132949
1121.696671	0.138561
1121.855107	0.133261
1122.013524	0.132030
1122.171924	0.132693
1122.330305	0.125065
1122.488668	0.121959
1122.647013	0.123314
1122.805340	0.122938
1122.963648	0.121242
1123.121938	0.121772
1123.280210	0.123993
1123.438464	0.127897
1123.596700	0.130395
1123.754917	0.129941
1123.913116	0.129973
1124.071297	0.129229
1124.229459	0.129033
1124.387604	0.129651
1124.545730	0.124100
1124.703838	0.127518
1124.861928	0.130422
1125.019999	0.126375
1125.178052	0.133928
1125.336088	0.137578
1125.494104	0.138455
1125.652103	0.142769
1125.810083	0.140928
1125.968045	0.145026
1126.125989	0.143449
1126.283915	0.144603
1126.441823	0.140670
1126.599712	0.135586
1126.757583	0.132149
1126.915436	0.129735
1127.073270	0.130234
1127.231087	0.133018
1127.388885	0.128949
1127.546665	0.128705
1127.704426	0.124704
1127.862170	0.133707
1128.019895	0.133971
1128.177602	0.139090
1128.335291	0.138002
1128.492961	0.133184
1128.650614	0.127659
1128.808248	0.129527
1128.965864	0.123518
1129.123461	0.126669
1129.281041	0.119442
1129.438602	0.117311
1129.596145	0.117323
1129.753670	0.121492
1129.911176	0.122605
1130.068665	0.126646
1130.226135	0.121203
1130.383587	0.123368
1130.541020	0.121619
1130.698436	0.126283
1130.855833	0.126656
1131.013212	0.124516
1131.170573	0.120302
1131.327915	0.112131
1131.485239	0.114688
1131.642545	0.121301
1131.799833	0.124103
1131.957103	0.126927
1132.114354	0.122755
1132.271588	0.124119
1132.428803	0.122103
1132.585999	0.120022
1132.743178	0.130884
1132.900338	0.127525
1133.057480	0.125817
1133.214604	0.126604
1133.371710	0.128667
1133.528797	0.136850
1133.685866	0.137401
1133.842917	0.139358
1133.999950	0.143126
1134.156964	0.142311
1134.313960	0.146806
1134.470938	0.152207
1134.627898	0.147804
1134.784840	0.139863
1134.941763	0.135957
1135.098668	0.131769
1135.255555	0.132390
1135.412424	0.128679
1135.569274	0.127172
1135.726107	0.120396
1135.882921	0.112335
1136.039716	0.116923
1136.196494	0.126674
1136.353253	0.128568
1136.509995	0.134325
1136.666717	0.133427
1136.823422	0.134493
1136.980109	0.134795
1137.136777	0.138686
1137.293427	0.151064
1137.450059	0.147293
1137.606672	0.147778
1137.763267	0.143327
1137.919844	0.141726
1138.076403	0.142094
1138.232944	0.145479
1138.389466	0.143350
1138.545971	0.143372
1138.702457	0.128442
1138.858924	0.133149
1139.015374	0.126342
1139.171805	0.125810
1139.328218	0.121764
1139.484613	0.119200
1139.640990	0.120841
1139.797348	0.125993
1139.953688	0.126453
1140.110010	0.131382
1140.266314	0.129828
1140.422600	0.133601
1140.578867	0.138190
1140.735116	0.142758
1140.891347	0.143459
1141.047559	0.142672
1141.203754	0.135489
1141.359930	0.140341
1141.516088	0.144283
1141.672228	0.142723
1141.828349	0.136055
1141.984452	0.137701
1142.140537	0.145804
1142.296604	0.150663
1142.452653	0.140554
1142.608683	0.144800
1142.764695	0.137561
1142.920689	0.131847
1143.076665	0.134240
1143.232622	0.138439
1143.388562	0.127643
1143.544483	0.115539
1143.700385	0.108746
1143.856270	0.116170
1144.012136	0.113341
1144.167985	0.120029
1144.323814	0.129121
1144.479626	0.126037
1144.635420	0.121443
1144.791195	0.127776
1144.946952	0.127181
1145.102691	0.135757
1145.258411	0.137505
1145.414113	0.145636
1145.569798	0.142432
1145.725463	0.143984
1145.881111	0.148572
1146.036741	0.151096
1146.192352	0.154965
1146.347945	0.157786
1146.503519	0.152722
1146.659076	0.152467
1146.814614	0.140217
1146.970134	0.142340
1147.125636	0.130587
1147.281120	0.131475
1147.436585	0.141326
1147.592032	0.135889
1147.747461	0.142755
1147.902872	0.144421
1148.058265	0.150014
1148.213639	0.159648
1148.368995	0.153712
1148.524333	0.153241
1148.679653	0.149448
1148.834954	0.141631
1148.990237	0.147802
1149.145502	0.133797
1149.300749	0.132611
1149.455977	0.131263
1149.611188	0.128929
1149.766380	0.132918
1149.921553	0.137222
1150.076709	0.138093
1150.231846	0.135149
1150.386966	0.131377
1150.542066	0.149586
1150.697149	0.139571
1150.852214	0.133917
1151.007260	0.127081
1151.162288	0.118056
1151.317298	0.117485
1151.472289	0.127277
1151.627263	0.140170
1151.782218	0.138951
1151.937155	0.131910
1152.092073	0.146574
1152.246974	0.150029
1152.401856	0.155911
1152.556720	0.155801
1152.711566	0.149723
1152.866393	0.138347
1153.021203	0.128209
1153.175994	0.130206
1153.330767	0.125552
1153.485521	0.119735
1153.640258	0.114652
1153.794976	0.122358
1153.949676	0.130409
1154.104358	0.130386
1154.259021	0.128470
1154.413667	0.130306
1154.568294	0.128203
1154.722903	0.137994
1154.877493	0.140194
1155.032066	0.139619
1155.186620	0.135555
1155.341156	0.150242
1155.495674	0.155306
1155.650173	0.160659
1155.804654	0.150761
1155.959118	0.141194
1156.113562	0.137613
1156.267989	0.131739
1156.422397	0.130436
1156.576788	0.134246
1156.731160	0.123664
1156.885513	0.123117
1157.039849	0.124389
1157.194166	0.133469
1157.348465	0.135354
1157.502746	0.117171
1157.657009	0.118596
1157.811253	0.121489
1157.965479	0.118291
1158.119687	0.106131
1158.273877	0.098897
1158.428048	0.092484
1158.582201	0.077309
1158.736337	0.092352
1158.890453	0.110516
1159.044552	0.107311
1159.198632	0.104678
1159.352694	0.104323
1159.506738	0.113700
1159.660764	0.136475
1159.814771	0.143065
1159.968761	0.157525
1160.122732	0.153372
1160.276685	0.143704
1160.430619	0.164215
1160.584535	0.173174
1160.738434	0.174095
1160.892313	0.172574
1161.046175	0.163356
1161.200019	0.171020
1161.353844	0.171482
1161.507651	0.161427
1161.661440	0.158988
1161.815210	0.144365
1161.968962	0.130073
1162.122697	0.126113
1162.276412	0.133928
1162.430110	0.126888
1162.583789	0.116229
1162.737451	0.127354
1162.891094	0.139045
1163.044718	0.139592
1163.198325	0.144082
1163.351913	0.147609
1163.505483	0.144848
1163.659035	0.131589
1163.812569	0.138685
1163.966084	0.143224
1164.119581	0.119442
1164.273060	0.110891
1164.426521	0.113906
1164.579964	0.108219
1164.733388	0.115926
1164.886794	0.115869
1165.040182	0.116175
1165.193551	0.107374
1165.346903	0.112593
1165.500236	0.131125
1165.653551	0.129671
1165.806848	0.138049
1165.960126	0.138747
1166.113386	0.119483
1166.266628	0.120921
1166.419852	0.132193
1166.573058	0.132013
1166.726245	0.122680
1166.879414	0.114881
1167.032565	0.123765
1167.185698	0.113533
1167.338812	0.119406
1167.491909	0.154731
1167.644987	0.160096
1167.798046	0.143515
1167.951088	0.150333
1168.104111	0.150206
1168.257117	0.143185
1168.410103	0.147602
1168.563072	0.149346
1168.716023	0.138085
1168.868955	0.128963
1169.021869	0.132751
1169.174765	0.143311
1169.327642	0.145956
1169.480501	0.138173
1169.633343	0.137594
1169.786165	0.116105
1169.938970	0.118341
1170.091757	0.113510
1170.244525	0.104578
1170.397275	0.087613
1170.550007	0.081594
1170.702720	0.080646
1170.855415	0.090430
1171.008092	0.101968
1171.160751	0.117496
1171.313392	0.121637
1171.466014	0.183254
1171.618619	0.168193
1171.771205	0.168193
1171.923772	0.168193
