sample name	sample
index	296
start time	 02-25-2021  01:03:52 PM


Wavelength (nm)	Absorbance
494.344910	0.598876
494.563924	0.598876
494.782919	0.598876
495.001897	NaN
495.220856	0.098370
495.439797	0.063308
495.658719	0.048680
495.877624	-0.179402
496.096510	-0.211159
496.315378	-0.229816
496.534227	-0.188474
496.753059	-0.177760
496.971872	-0.033941
497.190667	0.096176
497.409444	0.092992
497.628203	0.091269
497.846943	0.095640
498.065665	0.096729
498.284369	0.094800
498.503055	0.095369
498.721723	0.095651
498.940372	0.095878
499.159003	0.095729
499.377616	0.095195
499.596210	0.095687
499.814787	0.096325
500.033345	0.095966
500.251885	0.096556
500.470406	0.097152
500.688910	0.097679
500.907395	0.096402
501.125862	0.095529
501.344311	0.096073
501.562742	0.096702
501.781154	0.096140
501.999548	0.095770
502.217924	0.096552
502.436282	0.096633
502.654621	0.095805
502.872942	0.097092
503.091245	0.099049
503.309530	0.099743
503.527797	0.099309
503.746045	0.099181
503.964275	0.099761
504.182487	0.099889
504.400681	0.100111
504.618856	0.100255
504.837013	0.101000
505.055152	0.100567
505.273273	0.100674
505.491376	0.100540
505.709460	0.100614
505.927526	0.101297
506.145574	0.101557
506.363604	0.101524
506.581615	0.101756
506.799608	0.100989
507.017583	0.100215
507.235540	0.100987
507.453478	0.101287
507.671399	0.102180
507.889301	0.101729
508.107185	0.101103
508.325050	0.101202
508.542898	0.101063
508.760727	0.101670
508.978538	0.102763
509.196330	0.102435
509.414105	0.102142
509.631861	0.101353
509.849599	0.100784
510.067319	0.101734
510.285021	0.101240
510.502704	0.102070
510.720369	0.101473
510.938016	0.101076
511.155645	0.101540
511.373255	0.101872
511.590848	0.102769
511.808422	0.103983
512.025977	0.104078
512.243515	0.103947
512.461034	0.104057
512.678536	0.104140
512.896018	0.104821
513.113483	0.104368
513.330930	0.104961
513.548358	0.104807
513.765768	0.105018
513.983160	0.104871
514.200533	0.105657
514.417889	0.105434
514.635226	0.106440
514.852545	0.106691
515.069845	0.107444
515.287128	0.107888
515.504392	0.108225
515.721638	0.108283
515.938866	0.108403
516.156075	0.108649
516.373267	0.108751
516.590440	0.108029
516.807594	0.107806
517.024731	0.107610
517.241850	0.107495
517.458950	0.107235
517.676032	0.107424
517.893095	0.108190
518.110141	0.107658
518.327168	0.108437
518.544177	0.109260
518.761168	0.109511
518.978141	0.109561
519.195095	0.109552
519.412031	0.110178
519.628949	0.110522
519.845849	0.110296
520.062731	0.110701
520.279594	0.111219
520.496439	0.111760
520.713266	0.112164
520.930074	0.113001
521.146865	0.114051
521.363637	0.114187
521.580391	0.114554
521.797127	0.114648
522.013844	0.115514
522.230543	0.115256
522.447224	0.115263
522.663887	0.116197
522.880532	0.116252
523.097158	0.116154
523.313766	0.116557
523.530356	0.116179
523.746928	0.116602
523.963481	0.117112
524.180017	0.117457
524.396534	0.117432
524.613032	0.116394
524.829513	0.116618
525.045975	0.117082
525.262420	0.117821
525.478845	0.118263
525.695253	0.118850
525.911643	0.119316
526.128014	0.119465
526.344367	0.119849
526.560702	0.121367
526.777018	0.121763
526.993316	0.121756
527.209597	0.122315
527.425858	0.122299
527.642102	0.122134
527.858328	0.121525
528.074535	0.121343
528.290724	0.121795
528.506894	0.121361
528.723047	0.121720
528.939181	0.122103
529.155297	0.121537
529.371395	0.122241
529.587475	0.122511
529.803536	0.123454
530.019579	0.125013
530.235604	0.125570
530.451611	0.125680
530.667600	0.126322
530.883570	0.126061
531.099522	0.126373
531.315456	0.126436
531.531372	0.127201
531.747269	0.127218
531.963148	0.126903
532.179009	0.127124
532.394852	0.127630
532.610676	0.127021
532.826482	0.127997
533.042271	0.128423
533.258040	0.128215
533.473792	0.128397
533.689525	0.128588
533.905240	0.128961
534.120937	0.128782
534.336616	0.129197
534.552277	0.130113
534.767919	0.130380
534.983543	0.130524
535.199149	0.131813
535.414736	0.131992
535.630306	0.132397
535.845857	0.132199
536.061390	0.132559
536.276904	0.132763
536.492401	0.132338
536.707879	0.132652
536.923339	0.133253
537.138781	0.133046
537.354204	0.133591
537.569610	0.134106
537.784997	0.135028
538.000366	0.135893
538.215716	0.136319
538.431049	0.136734
538.646363	0.136714
538.861659	0.137176
539.076937	0.138098
539.292196	0.137738
539.507438	0.138788
539.722661	0.138982
539.937866	0.138698
540.153052	0.138988
540.368221	0.139602
540.583371	0.140251
540.798503	0.140460
541.013617	0.140236
541.228712	0.140902
541.443789	0.140689
541.658848	0.140879
541.873889	0.141391
542.088912	0.141798
542.303916	0.141818
542.518902	0.142112
542.733870	0.142185
542.948820	0.142547
543.163752	0.142729
543.378665	0.142647
543.593560	0.142579
543.808437	0.142735
544.023295	0.142626
544.238136	0.143137
544.452958	0.143152
544.667762	0.143489
544.882548	0.143634
545.097315	0.143845
545.312064	0.144006
545.526795	0.144335
545.741508	0.144893
545.956203	0.145291
546.170879	0.145754
546.385537	0.145988
546.600177	0.146388
546.814799	0.146597
547.029402	0.146829
547.243988	0.146969
547.458555	0.147643
547.673103	0.147966
547.887634	0.147809
548.102146	0.147877
548.316640	0.147918
548.531116	0.148060
548.745574	0.148677
548.960013	0.149377
549.174435	0.149866
549.388838	0.149849
549.603222	0.149961
549.817589	0.151092
550.031937	0.151565
550.246267	0.152026
550.460579	0.152370
550.674873	0.152436
550.889148	0.152411
551.103405	0.152753
551.317644	0.153069
551.531865	0.153390
551.746068	0.152867
551.960252	0.152943
552.174418	0.153462
552.388566	0.153254
552.602696	0.153518
552.816807	0.153817
553.030900	0.154089
553.244975	0.154167
553.459032	0.154334
553.673070	0.154828
553.887091	0.154864
554.101093	0.154868
554.315077	0.155632
554.529042	0.155954
554.742990	0.156079
554.956919	0.156131
555.170830	0.156365
555.384722	0.156395
555.598597	0.156462
555.812453	0.156729
556.026291	0.156491
556.240111	0.156092
556.453913	0.156230
556.667696	0.156389
556.881461	0.156288
557.095208	0.156802
557.308937	0.157176
557.522647	0.157355
557.736339	0.157746
557.950013	0.158577
558.163669	0.159233
558.377307	0.159537
558.590926	0.159701
558.804527	0.160156
559.018110	0.160193
559.231675	0.160089
559.445221	0.160721
559.658749	0.160792
559.872259	0.160776
560.085751	0.161141
560.299225	0.161260
560.512680	0.162035
560.726117	0.162492
560.939536	0.162559
561.152937	0.162994
561.366319	0.162768
561.579683	0.162907
561.793029	0.162935
562.006357	0.162945
562.219667	0.163162
562.432958	0.163251
562.646231	0.163012
562.859486	0.163325
563.072723	0.163622
563.285941	0.163788
563.499141	0.164060
563.712323	0.164367
563.925487	0.164811
564.138632	0.165136
564.351760	0.165012
564.564869	0.165255
564.777960	0.165479
564.991032	0.165381
565.204087	0.166037
565.417123	0.166147
565.630141	0.166224
565.843140	0.166266
566.056122	0.166227
566.269085	0.166621
566.482030	0.166971
566.694957	0.166924
566.907866	0.167106
567.120756	0.166920
567.333628	0.166886
567.546482	0.167342
567.759318	0.167327
567.972135	0.167315
568.184935	0.167152
568.397716	0.166992
568.610478	0.167318
568.823223	0.167968
569.035949	0.168068
569.248657	0.168417
569.461347	0.168582
569.674019	0.168825
569.886672	0.169517
570.099308	0.169904
570.311925	0.170213
570.524523	0.170472
570.737104	0.170163
570.949666	0.170551
571.162210	0.170651
571.374736	0.170745
571.587244	0.170936
571.799733	0.170629
572.012205	0.170783
572.224658	0.170971
572.437092	0.171118
572.649509	0.171567
572.861907	0.171760
573.074287	0.172165
573.286649	0.172323
573.498993	0.172563
573.711318	0.172682
573.923625	0.172874
574.135914	0.173210
574.348185	0.172946
574.560438	0.172848
574.772672	0.172772
574.984888	0.172946
575.197086	0.173166
575.409266	0.173180
575.621427	0.173438
575.833570	0.173653
576.045695	0.173779
576.257802	0.174498
576.469890	0.174945
576.681961	0.174978
576.894013	0.174869
577.106046	0.175138
577.318062	0.175570
577.530059	0.175700
577.742039	0.175566
577.954000	0.175710
578.165942	0.175671
578.377867	0.175723
578.589773	0.176392
578.801661	0.177085
579.013531	0.177058
579.225382	0.176931
579.437216	0.177259
579.649031	0.177603
579.860828	0.178018
580.072606	0.178093
580.284367	0.178331
580.496109	0.178036
580.707833	0.177991
580.919539	0.178206
581.131227	0.178588
581.342896	0.178729
581.554547	0.178777
581.766180	0.178807
581.977795	0.178999
582.189391	0.179323
582.400969	0.179673
582.612529	0.180046
582.824071	0.179960
583.035595	0.180117
583.247100	0.180328
583.458587	0.180670
583.670056	0.181153
583.881506	0.181291
584.092939	0.181298
584.304353	0.181792
584.515749	0.181781
584.727127	0.182255
584.938486	0.182075
585.149828	0.182505
585.361151	0.182878
585.572456	0.183088
585.783742	0.183616
585.995011	0.183798
586.206261	0.184175
586.417493	0.184213
586.628706	0.184386
586.839902	0.184824
587.051079	0.185006
587.262238	0.184876
587.473379	0.184728
587.684502	0.184782
587.895606	0.184931
588.106692	0.184984
588.317760	0.185331
588.528810	0.185507
588.739841	0.185772
588.950855	0.186011
589.161850	0.186380
589.372827	0.186405
589.583785	0.186427
589.794726	0.186793
590.005648	0.186803
590.216552	0.187118
590.427437	0.187349
590.638305	0.187785
590.849154	0.187348
591.059985	0.187716
591.270798	0.187942
591.481592	0.188366
591.692369	0.188544
591.903127	0.188599
592.113867	0.188526
592.324588	0.188836
592.535292	0.189085
592.745977	0.189400
592.956644	0.189658
593.167293	0.190185
593.377923	0.190157
593.588536	0.190189
593.799130	0.190691
594.009706	0.190953
594.220263	0.191092
594.430803	0.190893
594.641324	0.191332
594.851827	0.191196
595.062312	0.190890
595.272778	0.191505
595.483227	0.191550
595.693657	0.191658
595.904069	0.191746
596.114462	0.191942
596.324838	0.192127
596.535195	0.192139
596.745534	0.192224
596.955855	0.192399
597.166157	0.192509
597.376441	0.192915
597.586707	0.192962
597.796955	0.193250
598.007185	0.193271
598.217396	0.193362
598.427589	0.193643
598.637764	0.193699
598.847921	0.194085
599.058060	0.194357
599.268180	0.194386
599.478282	0.194451
599.688366	0.194761
599.898431	0.194861
600.108479	0.194890
600.318508	0.195097
600.528519	0.195545
600.738511	0.195762
600.948486	0.195788
601.158442	0.196025
601.368380	0.196552
601.578300	0.196384
601.788202	0.196695
601.998085	0.197121
602.207950	0.197297
602.417797	0.197605
602.627626	0.197682
602.837436	0.197781
603.047228	0.198004
603.257002	0.197633
603.466758	0.197979
603.676496	0.198352
603.886215	0.198195
604.095916	0.198420
604.305599	0.198122
604.515264	0.198320
604.724910	0.198471
604.934538	0.198592
605.144148	0.198772
605.353740	0.199045
605.563314	0.199066
605.772869	0.199679
605.982406	0.199784
606.191925	0.200172
606.401425	0.200294
606.610908	0.200371
606.820372	0.200268
607.029818	0.200700
607.239246	0.200500
607.448655	0.200607
607.658047	0.200447
607.867420	0.200658
608.076775	0.200628
608.286111	0.200787
608.495430	0.201007
608.704730	0.201215
608.914012	0.201434
609.123275	0.201799
609.332521	0.201748
609.541748	0.201852
609.750957	0.202114
609.960148	0.202666
610.169321	0.202722
610.378475	0.202764
610.587611	0.202902
610.796729	0.203065
611.005829	0.203396
611.214910	0.203761
611.423974	0.204012
611.633019	0.203708
611.842045	0.203863
612.051054	0.204005
612.260044	0.204332
612.469017	0.204536
612.677970	0.204557
612.886906	0.204444
613.095824	0.204610
613.304723	0.205069
613.513604	0.205453
613.722467	0.205569
613.931311	0.205971
614.140138	0.206024
614.348946	0.206241
614.557736	0.206432
614.766507	0.206479
614.975261	0.206883
615.183996	0.206776
615.392713	0.206844
615.601412	0.206617
615.810092	0.206758
616.018754	0.206745
616.227399	0.206974
616.436024	0.206985
616.644632	0.207223
616.853222	0.207137
617.061793	0.207376
617.270346	0.207632
617.478880	0.208136
617.687397	0.208568
617.895895	0.208933
618.104375	0.209182
618.312837	0.209171
618.521281	0.209193
618.729706	0.209484
618.938113	0.209631
619.146502	0.209776
619.354873	0.209811
619.563226	0.209572
619.771560	0.209874
619.979876	0.210042
620.188174	0.210635
620.396453	0.210872
620.604715	0.210814
620.812958	0.210916
621.021183	0.211056
621.229390	0.211207
621.437578	0.211474
621.645748	0.211656
621.853900	0.211707
622.062034	0.211734
622.270150	0.212124
622.478247	0.212173
622.686326	0.212620
622.894387	0.213008
623.102430	0.213169
623.310454	0.213277
623.518461	0.213241
623.726449	0.213580
623.934418	0.213910
624.142370	0.214076
624.350303	0.214285
624.558218	0.214062
624.766115	0.214237
624.973994	0.214677
625.181855	0.214979
625.389697	0.215049
625.597521	0.215179
625.805327	0.215120
626.013114	0.215446
626.220883	0.215946
626.428634	0.216525
626.636367	0.216705
626.844082	0.216692
627.051778	0.216844
627.259457	0.216937
627.467117	0.217230
627.674758	0.217867
627.882382	0.217916
628.089987	0.217892
628.297574	0.217851
628.505143	0.217902
628.712694	0.217931
628.920226	0.217701
629.127740	0.218002
629.335236	0.217996
629.542714	0.217889
629.750174	0.217832
629.957615	0.218063
630.165038	0.218217
630.372443	0.218339
630.579829	0.218656
630.787198	0.219273
630.994548	0.219681
631.201880	0.219636
631.409194	0.219560
631.616489	0.219873
631.823766	0.219923
632.031025	0.220136
632.238266	0.220242
632.445489	0.220203
632.652693	0.220006
632.859879	0.219975
633.067047	0.220287
633.274197	0.220468
633.481329	0.220505
633.688442	0.220585
633.895537	0.220476
634.102614	0.220704
634.309672	0.221127
634.516713	0.221751
634.723735	0.221968
634.930739	0.222056
635.137724	0.222492
635.344692	0.222714
635.551641	0.223125
635.758572	0.223588
635.965485	0.223490
636.172379	0.223394
636.379256	0.223161
636.586114	0.223283
636.792954	0.223547
636.999775	0.223539
637.206579	0.223842
637.413364	0.223931
637.620131	0.224116
637.826880	0.224516
638.033610	0.224812
638.240323	0.225123
638.447017	0.225348
638.653692	0.225238
638.860350	0.225305
639.066990	0.225404
639.273611	0.225607
639.480214	0.225561
639.686798	0.225644
639.893365	0.225784
640.099913	0.225981
640.306443	0.226163
640.512955	0.226647
640.719449	0.227032
640.925924	0.226987
641.132381	0.227171
641.338820	0.227387
641.545241	0.227739
641.751644	0.228157
641.958028	0.228642
642.164394	0.228846
642.370742	0.229150
642.577071	0.229508
642.783383	0.230076
642.989676	0.230335
643.195951	0.230371
643.402207	0.230446
643.608446	0.230276
643.814666	0.230306
644.020868	0.230410
644.227052	0.230387
644.433218	0.230444
644.639365	0.230576
644.845494	0.230658
645.051605	0.231383
645.257698	0.231885
645.463772	0.231936
645.669828	0.231807
645.875866	0.231753
646.081886	0.231957
646.287888	0.231992
646.493871	0.231979
646.699836	0.232250
646.905783	0.232038
647.111712	0.231998
647.317622	0.232412
647.523514	0.232865
647.729388	0.233345
647.935244	0.233477
648.141082	0.233731
648.346901	0.234004
648.552702	0.234097
648.758485	0.234297
648.964250	0.234503
649.169996	0.235055
649.375724	0.235203
649.581434	0.235315
649.787126	0.235673
649.992800	0.235955
650.198455	0.236121
650.404092	0.236160
650.609711	0.236515
650.815311	0.236628
651.020894	0.236363
651.226458	0.236608
651.432004	0.236801
651.637532	0.236856
651.843041	0.236944
652.048532	0.237081
652.254006	0.237528
652.459460	0.237731
652.664897	0.238040
652.870315	0.238326
653.075716	0.238508
653.281097	0.238710
653.486461	0.239141
653.691807	0.239465
653.897134	0.239806
654.102443	0.239917
654.307734	0.239993
654.513006	0.239873
654.718261	0.240335
654.923497	0.240438
655.128715	0.240885
655.333915	0.241113
655.539096	0.241164
655.744259	0.241275
655.949404	0.241763
656.154531	0.242029
656.359640	0.242699
656.564730	0.242687
656.769802	0.242983
656.974856	0.243059
657.179892	0.243404
657.384909	0.243622
657.589908	0.243911
657.794889	0.243877
657.999852	0.244252
658.204797	0.244376
658.409723	0.244728
658.614631	0.244957
658.819521	0.245159
659.024393	0.245257
659.229246	0.245791
659.434081	0.246193
659.638898	0.246389
659.843697	0.246113
660.048478	0.246420
660.253240	0.246661
660.457984	0.246832
660.662710	0.246936
660.867417	0.247169
661.072107	0.247158
661.276778	0.247335
661.481431	0.247701
661.686066	0.248397
661.890682	0.248493
662.095281	0.248618
662.299861	0.248933
662.504422	0.249415
662.708966	0.249399
662.913491	0.249804
663.117999	0.249893
663.322488	0.250088
663.526958	0.250299
663.731411	0.250698
663.935845	0.251006
664.140261	0.251109
664.344659	0.251158
664.549038	0.251560
664.753400	0.251673
664.957743	0.251902
665.162068	0.252116
665.366375	0.252219
665.570663	0.252200
665.774933	0.252522
665.979185	0.252603
666.183419	0.252948
666.387635	0.253226
666.591832	0.253488
666.796011	0.253713
667.000172	0.253879
667.204315	0.254397
667.408439	0.254787
667.612545	0.254969
667.816634	0.255378
668.020703	0.255534
668.224755	0.255638
668.428788	0.255979
668.632803	0.256456
668.836800	0.256892
669.040779	0.257125
669.244739	0.257291
669.448681	0.257630
669.652605	0.257756
669.856511	0.258009
670.060399	0.258216
670.264268	0.258411
670.468119	0.258681
670.671952	0.258787
670.875767	0.258804
671.079563	0.258821
671.283341	0.258900
671.487101	0.259320
671.690843	0.259450
671.894567	0.259398
672.098272	0.259417
672.301959	0.259373
672.505628	0.259326
672.709278	0.259688
672.912911	0.260227
673.116525	0.260513
673.320121	0.260756
673.523699	0.261029
673.727258	0.261626
673.930799	0.262168
674.134322	0.262619
674.337827	0.263225
674.541314	0.263504
674.744782	0.263549
674.948232	0.263751
675.151664	0.263959
675.355078	0.264133
675.558474	0.264328
675.761851	0.264400
675.965210	0.264419
676.168551	0.264496
676.371873	0.264555
676.575178	0.264723
676.778464	0.264929
676.981732	0.265362
677.184981	0.266006
677.388213	0.266258
677.591426	0.266446
677.794621	0.266857
677.997798	0.267237
678.200956	0.267490
678.404097	0.267906
678.607219	0.268291
678.810323	0.268269
679.013408	0.268410
679.216476	0.268497
679.419525	0.268730
679.622556	0.269128
679.825569	0.269391
680.028563	0.269719
680.231540	0.269793
680.434498	0.269946
680.637438	0.270282
680.840359	0.270367
681.043263	0.270820
681.246148	0.270813
681.449015	0.270713
681.651864	0.270772
681.854694	0.270875
682.057506	0.271137
682.260301	0.271351
682.463076	0.271547
682.665834	0.271728
682.868573	0.271874
683.071295	0.272262
683.273998	0.272343
683.476682	0.272604
683.679349	0.272645
683.881997	0.272791
684.084627	0.272869
684.287239	0.272951
684.489833	0.272852
684.692408	0.272912
684.894965	0.272943
685.097504	0.273296
685.300025	0.273350
685.502527	0.273620
685.705012	0.273845
685.907478	0.273880
686.109925	0.273917
686.312355	0.274180
686.514766	0.274407
686.717159	0.274679
686.919534	0.274714
687.121891	0.274935
687.324230	0.275146
687.526550	0.275446
687.728852	0.275706
687.931136	0.276012
688.133401	0.276352
688.335649	0.276708
688.537878	0.277002
688.740089	0.277282
688.942281	0.277390
689.144456	0.277704
689.346612	0.277907
689.548750	0.278003
689.750870	0.277948
689.952971	0.277886
690.155055	0.277884
690.357120	0.277813
690.559167	0.278222
690.761195	0.278591
690.963206	0.278748
691.165198	0.278858
691.367172	0.279358
691.569128	0.279762
691.771065	0.280187
691.972984	0.280412
692.174885	0.280800
692.376768	0.280695
692.578633	0.280914
692.780479	0.280998
692.982308	0.280948
693.184118	0.280985
693.385909	0.280962
693.587683	0.281179
693.789438	0.281165
693.991175	0.281330
694.192894	0.281722
694.394595	0.281725
694.596277	0.281805
694.797941	0.282112
694.999587	0.282228
695.201215	0.282565
695.402824	0.282690
695.604416	0.283015
695.805989	0.283168
696.007543	0.283009
696.209080	0.282963
696.410598	0.282941
696.612099	0.283149
696.813580	0.283058
697.015044	0.283155
697.216490	0.283203
697.417917	0.283262
697.619326	0.283424
697.820717	0.283798
698.022089	0.284006
698.223444	0.284307
698.424780	0.284519
698.626098	0.284931
698.827397	0.285109
699.028679	0.285299
699.229942	0.285384
699.431187	0.285386
699.632414	0.285367
699.833622	0.285663
700.034813	0.285741
700.235985	0.285793
700.437139	0.285843
700.638274	0.286051
700.839392	0.286302
701.040491	0.286819
701.241572	0.287213
701.442635	0.287251
701.643679	0.287352
701.844706	0.287793
702.045714	0.287935
702.246704	0.288375
702.447675	0.288603
702.648629	0.288677
702.849564	0.288655
703.050481	0.288795
703.251380	0.289001
703.452260	0.289281
703.653122	0.289277
703.853966	0.289363
704.054792	0.289368
704.255600	0.289520
704.456389	0.289399
704.657160	0.289198
704.857913	0.288954
705.058648	0.289068
705.259365	0.288853
705.460063	0.288662
705.660743	0.288681
705.861405	0.288508
706.062048	0.288169
706.262674	0.288221
706.463281	0.288224
706.663870	0.288245
706.864441	0.287935
707.064993	0.287973
707.265527	0.288063
707.466043	0.288054
707.666541	0.288185
707.867021	0.288570
708.067482	0.288763
708.267925	0.288971
708.468350	0.289276
708.668757	0.289881
708.869145	0.290068
709.069516	0.290473
709.269868	0.290690
709.470201	0.290886
709.670517	0.291035
709.870814	0.291160
710.071093	0.291240
710.271354	0.291238
710.471597	0.291165
710.671821	0.291245
710.872028	0.291071
711.072216	0.291031
711.272385	0.290962
711.472537	0.290869
711.672670	0.290782
711.872785	0.290471
712.072882	0.290149
712.272961	0.290014
712.473021	0.289937
712.673063	0.289699
712.873087	0.289654
713.073093	0.289432
713.273081	0.289191
713.473050	0.289004
713.673001	0.289099
713.872934	0.289416
714.072849	0.289380
714.272745	0.289214
714.472623	0.289432
714.672483	0.289245
714.872325	0.289484
715.072148	0.289435
715.271954	0.289529
715.471741	0.289702
715.671509	0.289569
715.871260	0.289587
716.070992	0.289782
716.270707	0.289840
716.470403	0.289834
716.670080	0.289527
716.869740	0.289519
717.069381	0.289326
717.269004	0.289068
717.468609	0.288961
717.668195	0.288726
717.867764	0.288556
718.067314	0.288125
718.266846	0.288401
718.466360	0.288586
718.665855	0.288707
718.865332	0.288877
719.064791	0.288901
719.264232	0.288863
719.463655	0.288864
719.663059	0.288764
719.862445	0.288709
720.061813	0.288565
720.261163	0.288413
720.460494	0.288076
720.659807	0.287945
720.859102	0.287979
721.058379	0.287839
721.257638	0.287826
721.456878	0.287979
721.656100	0.287894
721.855304	0.287473
722.054490	0.287334
722.253657	0.287356
722.452806	0.287329
722.651937	0.287398
722.851050	0.287693
723.050145	0.287775
723.249221	0.287504
723.448279	0.287889
723.647319	0.288048
723.846340	0.288049
724.045344	0.288111
724.244329	0.288125
724.443296	0.288148
724.642245	0.287935
724.841175	0.287717
725.040088	0.287666
725.238982	0.287202
725.437857	0.287390
725.636715	0.287338
725.835554	0.287463
726.034376	0.287464
726.233179	0.287262
726.431963	0.287105
726.630730	0.287177
726.829478	0.287177
727.028208	0.287393
727.226920	0.287173
727.425614	0.286817
727.624289	0.286668
727.822946	0.286181
728.021585	0.285867
728.220206	0.285905
728.418808	0.285763
728.617392	0.285813
728.815958	0.285731
729.014506	0.285372
729.213036	0.285444
729.411547	0.285162
729.610040	0.285356
729.808515	0.285307
730.006972	0.284772
730.205410	0.284709
730.403831	0.284151
730.602233	0.283999
730.800616	0.283882
730.998982	0.283661
731.197329	0.283673
731.395658	0.283405
731.593969	0.283253
731.792262	0.283233
731.990536	0.283056
732.188793	0.283097
732.387031	0.282608
732.585250	0.282439
732.783452	0.282271
732.981635	0.281920
733.179800	0.281449
733.377947	0.281275
733.576076	0.280976
733.774186	0.280586
733.972278	0.280399
734.170352	0.280302
734.368408	0.280321
734.566446	0.280148
734.764465	0.280187
734.962466	0.280419
735.160449	0.280203
735.358413	0.280327
735.556360	0.280359
735.754288	0.279862
735.952198	0.279856
736.150090	0.279513
736.347963	0.279468
736.545818	0.279326
736.743655	0.279074
736.941474	0.278975
737.139275	0.278799
737.337057	0.278487
737.534821	0.278856
737.732567	0.278645
737.930295	0.278563
738.128005	0.278643
738.325696	0.278157
738.523369	0.278091
738.721024	0.277901
738.918660	0.278006
739.116279	0.277941
739.313879	0.277701
739.511461	0.277625
739.709024	0.277529
739.906570	0.277150
740.104097	0.277013
740.301606	0.276863
740.499097	0.276863
740.696569	0.276450
740.894024	0.276429
741.091460	0.276103
741.288878	0.275814
741.486277	0.275574
741.683659	0.275188
741.881022	0.275040
742.078367	0.274759
742.275694	0.274480
742.473002	0.274396
742.670293	0.274099
742.867565	0.273970
743.064819	0.273719
743.262054	0.273375
743.459272	0.273387
743.656471	0.272992
743.853652	0.272677
744.050815	0.272359
744.247959	0.272279
744.445085	0.272023
744.642194	0.271925
744.839283	0.271861
745.036355	0.271953
745.233408	0.272098
745.430444	0.272064
745.627461	0.272122
745.824459	0.272109
746.021440	0.271895
746.218402	0.271810
746.415346	0.271829
746.612272	0.271698
746.809180	0.271631
747.006069	0.271377
747.202940	0.271515
747.399793	0.271416
747.596628	0.271254
747.793444	0.271045
747.990243	0.271072
748.187023	0.270735
748.383784	0.270547
748.580528	0.270263
748.777253	0.270108
748.973960	0.269980
749.170649	0.269623
749.367320	0.269932
749.563973	0.269642
749.760607	0.269185
749.957223	0.268853
750.153821	0.268969
750.350400	0.268873
750.546962	0.268717
750.743505	0.268535
750.940030	0.268577
751.136536	0.268078
751.333025	0.268155
751.529495	0.268024
751.725947	0.268098
751.922381	0.267886
752.118796	0.267887
752.315194	0.267623
752.511573	0.267369
752.707934	0.267254
752.904276	0.267211
753.100601	0.266960
753.296907	0.266844
753.493195	0.266703
753.689465	0.266403
753.885716	0.265918
754.081949	0.265771
754.278164	0.265784
754.474361	0.265555
754.670540	0.265059
754.866700	0.265026
755.062843	0.264867
755.258967	0.264466
755.455072	0.264423
755.651160	0.264234
755.847229	0.263881
756.043280	0.263384
756.239313	0.263126
756.435328	0.263229
756.631324	0.262799
756.827302	0.262907
757.023262	0.262868
757.219204	0.262418
757.415127	0.262283
757.611033	0.262119
757.806920	0.261989
758.002788	0.261771
758.198639	0.261523
758.394471	0.261437
758.590286	0.260984
758.786081	0.260811
758.981859	0.260830
759.177619	0.260750
759.373360	0.260656
759.569083	0.260658
759.764788	0.260734
759.960474	0.260511
760.156143	0.260346
760.351793	0.260325
760.547425	0.260114
760.743038	0.259866
760.938634	0.259700
761.134211	0.259416
761.329770	0.259134
761.525311	0.258685
761.720833	0.258428
761.916338	0.258415
762.111824	0.258083
762.307292	0.257968
762.502741	0.258041
762.698173	0.257730
762.893586	0.257957
763.088981	0.257993
763.284358	0.258128
763.479716	0.258162
763.675057	0.257827
763.870379	0.257912
764.065683	0.257759
764.260968	0.257486
764.456236	0.257818
764.651485	0.257607
764.846716	0.257683
765.041929	0.257609
765.237123	0.257656
765.432299	0.257640
765.627457	0.257413
765.822597	0.257221
766.017719	0.257138
766.212822	0.256845
766.407907	0.256470
766.602974	0.256073
766.798023	0.255685
766.993054	0.255345
767.188066	0.255136
767.383060	0.255179
767.578036	0.254993
767.772993	0.254847
767.967933	0.254676
768.162854	0.254778
768.357757	0.254410
768.552642	0.254332
768.747508	0.254325
768.942356	0.254315
769.137186	0.254403
769.331998	0.254546
769.526792	0.254529
769.721567	0.254502
769.916324	0.254367
770.111063	0.254742
770.305784	0.254868
770.500486	0.254783
770.695171	0.254856
770.889837	0.254535
771.084484	0.254452
771.279114	0.254430
771.473725	0.254237
771.668318	0.254213
771.862893	0.254097
772.057450	0.253773
772.251988	0.253649
772.446509	0.253362
772.641011	0.253283
772.835494	0.253316
773.029960	0.253037
773.224407	0.252925
773.418836	0.252726
773.613247	0.252310
773.807640	0.252275
774.002014	0.252244
774.196370	0.252168
774.390708	0.251982
774.585028	0.251935
774.779330	0.251905
774.973613	0.251936
775.167878	0.251899
775.362125	0.252073
775.556354	0.252021
775.750564	0.251838
775.944756	0.251816
776.138930	0.251753
776.333086	0.251758
776.527223	0.251739
776.721343	0.251768
776.915444	0.251765
777.109526	0.251624
777.303591	0.251587
777.497637	0.251733
777.691666	0.251752
777.885676	0.251713
778.079667	0.251565
778.273641	0.251653
778.467596	0.251417
778.661533	0.251508
778.855452	0.251335
779.049352	0.251340
779.243235	0.251250
779.437099	0.251019
779.630945	0.251201
779.824773	0.250964
780.018582	0.250814
780.212373	0.250829
780.406146	0.250678
780.599901	0.250530
780.793638	0.250279
780.987356	0.250187
781.181056	0.250235
781.374738	0.249835
781.568402	0.249988
781.762047	0.249880
781.955674	0.249851
782.149283	0.249833
782.342874	0.250057
782.536447	0.250144
782.730001	0.250166
782.923537	0.250161
783.117055	0.250181
783.310555	0.249979
783.504036	0.249980
783.697499	0.249901
783.890944	0.249669
784.084371	0.249632
784.277780	0.249916
784.471170	0.249849
784.664542	0.249809
784.857896	0.249966
785.051231	0.249941
785.244549	0.249978
785.437848	0.250043
785.631129	0.250493
785.824392	0.250548
786.017636	0.250345
786.210863	0.250424
786.404071	0.250268
786.597260	0.250277
786.790432	0.250346
786.983585	0.250199
787.176721	0.250102
787.369838	0.249912
787.562936	0.249820
787.756017	0.249877
787.949079	0.249690
788.142123	0.249701
788.335149	0.249476
788.528156	0.249345
788.721146	0.249360
788.914117	0.249300
789.107070	0.248952
789.300005	0.248923
789.492921	0.248846
789.685819	0.248980
789.878699	0.249266
790.071561	0.249381
790.264405	0.249469
790.457230	0.249830
790.650037	0.250111
790.842826	0.250369
791.035597	0.250726
791.228349	0.250845
791.421084	0.250927
791.613800	0.251012
791.806497	0.251066
791.999177	0.251479
792.191838	0.251582
792.384481	0.251679
792.577106	0.252006
792.769713	0.252001
792.962301	0.252256
793.154871	0.252347
793.347423	0.252377
793.539957	0.252661
793.732473	0.252681
793.924970	0.252705
794.117449	0.253043
794.309910	0.252880
794.502353	0.253091
794.694777	0.253012
794.887183	0.253047
795.079571	0.253261
795.271941	0.253277
795.464293	0.253378
795.656626	0.253455
795.848941	0.253353
796.041238	0.253737
796.233516	0.253812
796.425777	0.254084
796.618019	0.254350
796.810243	0.254489
797.002449	0.254900
797.194636	0.255143
797.386805	0.255093
797.578956	0.255126
797.771089	0.255372
797.963204	0.255502
798.155300	0.255545
798.347378	0.255875
798.539438	0.255891
798.731480	0.255742
798.923503	0.255743
799.115509	0.256029
799.307496	0.256258
799.499465	0.256116
799.691415	0.256448
799.883348	0.256576
800.075262	0.256598
800.267158	0.256809
800.459035	0.257074
800.650895	0.257396
800.842736	0.257709
801.034559	0.257936
801.226364	0.258513
801.418150	0.258504
801.609919	0.258738
801.801669	0.258761
801.993401	0.258977
802.185114	0.259050
802.376810	0.258929
802.568487	0.258915
802.760146	0.259111
802.951787	0.258894
803.143409	0.258988
803.335014	0.259153
803.526600	0.259438
803.718168	0.259511
803.909717	0.260000
804.101249	0.260445
804.292762	0.260529
804.484257	0.260566
804.675734	0.261139
804.867192	0.261362
805.058632	0.261589
805.250054	0.261666
805.441458	0.261795
805.632844	0.261722
805.824211	0.261651
806.015561	0.261770
806.206891	0.262170
806.398204	0.262067
806.589499	0.262245
806.780775	0.262269
806.972033	0.262580
807.163273	0.263034
807.354495	0.263599
807.545698	0.263976
807.736883	0.264276
807.928050	0.264307
808.119199	0.264521
808.310329	0.264877
808.501441	0.265193
808.692535	0.265094
808.883611	0.265096
809.074669	0.265017
809.265708	0.265334
809.456729	0.265427
809.647732	0.265620
809.838717	0.265685
810.029683	0.265670
810.220632	0.265613
810.411562	0.265942
810.602474	0.266235
810.793367	0.266090
810.984242	0.266018
811.175100	0.266451
811.365938	0.266600
811.556759	0.266867
811.747562	0.267230
811.938346	0.267687
812.129112	0.268113
812.319860	0.268199
812.510589	0.268769
812.701300	0.269258
812.891994	0.269571
813.082668	0.269784
813.273325	0.270174
813.463964	0.270007
813.654584	0.270151
813.845186	0.270223
814.035769	0.270328
814.226335	0.270654
814.416882	0.270765
814.607411	0.271165
814.797922	0.271785
814.988415	0.272044
815.178889	0.272550
815.369345	0.272958
815.559783	0.273509
815.750203	0.274071
815.940605	0.274286
816.130988	0.274670
816.321353	0.274604
816.511700	0.274634
816.702028	0.274775
816.892339	0.275146
817.082631	0.275356
817.272905	0.275399
817.463161	0.275672
817.653398	0.275886
817.843617	0.275848
818.033819	0.276119
818.224001	0.276574
818.414166	0.277093
818.604312	0.277359
818.794440	0.277824
818.984550	0.277769
819.174642	0.277975
819.364716	0.278325
819.554771	0.278802
819.744808	0.279010
819.934827	0.279188
820.124827	0.279098
820.314810	0.279392
820.504774	0.279319
820.694720	0.279764
820.884647	0.280131
821.074557	0.280271
821.264448	0.280619
821.454321	0.281316
821.644176	0.281554
821.834012	0.282187
822.023831	0.282377
822.213631	0.282599
822.403413	0.283085
822.593176	0.283113
822.782922	0.283535
822.972649	0.283707
823.162358	0.283762
823.352049	0.283764
823.541721	0.283819
823.731376	0.284003
823.921012	0.284497
824.110629	0.284686
824.300229	0.284930
824.489811	0.285123
824.679374	0.285366
824.868919	0.285659
825.058445	0.286219
825.247954	0.286280
825.437444	0.286664
825.626916	0.286793
825.816370	0.286987
826.005806	0.287491
826.195223	0.287552
826.384622	0.287876
826.574003	0.288254
826.763366	0.288377
826.952711	0.288824
827.142037	0.289289
827.331345	0.289943
827.520635	0.290345
827.709906	0.290921
827.899160	0.291621
828.088395	0.292071
828.277612	0.292330
828.466810	0.292927
828.655991	0.293199
828.845153	0.293326
829.034297	0.293630
829.223423	0.294057
829.412531	0.293985
829.601620	0.294510
829.790691	0.294588
829.979744	0.294860
830.168779	0.295085
830.357795	0.295663
830.546793	0.296310
830.735773	0.296698
830.924735	0.297292
831.113679	0.297653
831.302604	0.297792
831.491511	0.298299
831.680400	0.298839
831.869271	0.299309
832.058123	0.299599
832.246957	0.299900
832.435773	0.299961
832.624571	0.300171
832.813351	0.300751
833.002112	0.301136
833.190855	0.301485
833.379580	0.301651
833.568287	0.301836
833.756975	0.302150
833.945645	0.302411
834.134297	0.302904
834.322931	0.303184
834.511547	0.303408
834.700144	0.303750
834.888723	0.304129
835.077284	0.304449
835.265826	0.304818
835.454351	0.305226
835.642857	0.305585
835.831345	0.306148
836.019815	0.306588
836.208266	0.307214
836.396699	0.307513
836.585114	0.307939
836.773511	0.308608
836.961890	0.309020
837.150250	0.309302
837.338592	0.309736
837.526916	0.310172
837.715222	0.310402
837.903510	0.310757
838.091779	0.311337
838.280030	0.311568
838.468263	0.311700
838.656477	0.312076
838.844674	0.312499
839.032852	0.312590
839.221012	0.312981
839.409153	0.313501
839.597277	0.313672
839.785382	0.313662
839.973469	0.314101
840.161538	0.314529
840.349589	0.314542
840.537621	0.314892
840.725635	0.315364
840.913631	0.315470
841.101609	0.315934
841.289568	0.316477
841.477509	0.317248
841.665432	0.317381
841.853337	0.317807
842.041224	0.318767
842.229092	0.318945
842.416942	0.319474
842.604774	0.319778
842.792588	0.320245
842.980383	0.320710
843.168160	0.321239
843.355919	0.322036
843.543660	0.322459
843.731382	0.323047
843.919087	0.323770
844.106773	0.324154
844.294441	0.324769
844.482090	0.325061
844.669722	0.325133
844.857335	0.325162
845.044930	0.325290
845.232507	0.325901
845.420065	0.326045
845.607605	0.326308
845.795127	0.326826
845.982631	0.327369
846.170117	0.327671
846.357584	0.328025
846.545033	0.328682
846.732464	0.329289
846.919877	0.329583
847.107272	0.330059
847.294648	0.330880
847.482006	0.331308
847.669346	0.331916
847.856667	0.332561
848.043971	0.333277
848.231256	0.333403
848.418523	0.333896
848.605771	0.334129
848.793002	0.334732
848.980214	0.334882
849.167408	0.335177
849.354584	0.335321
849.541742	0.335395
849.728881	0.335803
849.916002	0.336434
850.103105	0.336754
850.290190	0.337265
850.477256	0.337554
850.664304	0.337990
850.851334	0.338487
851.038346	0.338691
851.225340	0.338984
851.412315	0.339084
851.599272	0.339369
851.786211	0.339855
851.973132	0.339880
852.160034	0.339891
852.346918	0.340191
852.533784	0.340148
852.720632	0.340488
852.907462	0.340964
853.094273	0.341330
853.281066	0.341729
853.467841	0.341677
853.654598	0.342381
853.841336	0.342939
854.028056	0.342805
854.214758	0.343186
854.401442	0.343352
854.588107	0.343506
854.774755	0.343871
854.961384	0.343612
855.147995	0.344260
855.334587	0.344458
855.521162	0.344721
855.707718	0.345228
855.894256	0.345319
856.080775	0.346018
856.267277	0.346714
856.453760	0.346987
856.640225	0.347770
856.826672	0.347908
857.013101	0.348243
857.199511	0.348447
857.385903	0.348950
857.572277	0.349721
857.758633	0.349888
857.944970	0.350049
858.131290	0.350834
858.317591	0.351396
858.503873	0.352150
858.690138	0.352647
858.876384	0.353236
859.062612	0.353445
859.248822	0.354007
859.435014	0.354342
859.621188	0.354762
859.807343	0.355071
859.993480	0.355266
860.179599	0.355206
860.365699	0.355328
860.551781	0.355276
860.737846	0.355858
860.923891	0.355738
861.109919	0.355822
861.295929	0.356024
861.481920	0.356078
861.667893	0.355975
861.853848	0.356342
862.039784	0.357094
862.225702	0.358041
862.411603	0.358675
862.597484	0.359069
862.783348	0.359640
862.969193	0.359859
863.155021	0.360458
863.340830	0.361135
863.526620	0.361588
863.712393	0.361325
863.898147	0.361170
864.083883	0.361428
864.269601	0.362102
864.455301	0.362613
864.640982	0.362746
864.826645	0.363057
865.012290	0.363291
865.197917	0.363016
865.383526	0.363379
865.569116	0.363554
865.754688	0.363541
865.940242	0.364009
866.125777	0.364129
866.311295	0.364617
866.496794	0.364585
866.682275	0.365024
866.867737	0.365599
867.053182	0.366172
867.238608	0.366436
867.424016	0.366898
867.609406	0.366722
867.794778	0.367034
867.980131	0.367278
868.165466	0.367205
868.350783	0.366939
868.536082	0.367166
868.721362	0.366795
868.906625	0.367178
869.091869	0.367407
869.277094	0.367469
869.462302	0.367300
869.647491	0.367618
869.832662	0.367774
870.017815	0.368352
870.202950	0.368857
870.388066	0.369339
870.573165	0.369864
870.758245	0.369825
870.943306	0.370601
871.128350	0.371400
871.313375	0.371741
871.498382	0.372390
871.683371	0.372787
871.868342	0.372680
872.053294	0.373383
872.238229	0.373508
872.423144	0.374060
872.608042	0.373982
872.792922	0.373798
872.977783	0.373492
873.162626	0.373851
873.347451	0.374271
873.532258	0.375164
873.717046	0.375327
873.901816	0.375081
874.086568	0.374816
874.271302	0.374372
874.456017	0.374542
874.640715	0.374932
874.825394	0.374816
875.010055	0.374631
875.194697	0.374356
875.379322	0.374440
875.563928	0.374758
875.748516	0.375253
875.933085	0.376045
876.117637	0.376344
876.302170	0.376790
876.486685	0.377144
876.671182	0.377570
876.855661	0.377754
877.040121	0.377467
877.224563	0.377843
877.408987	0.378202
877.593393	0.378113
877.777780	0.378335
877.962150	0.378669
878.146501	0.378736
878.330833	0.378774
878.515148	0.379373
878.699444	0.379606
878.883722	0.380067
879.067982	0.379584
879.252224	0.379961
879.436447	0.380358
879.620653	0.380418
879.804840	0.381102
879.989008	0.381029
880.173159	0.380269
880.357291	0.380727
880.541405	0.380175
880.725501	0.380681
880.909579	0.380857
881.093638	0.380806
881.277680	0.380980
881.461703	0.380618
881.645707	0.380655
881.829694	0.381611
882.013662	0.381720
882.197612	0.381838
882.381544	0.381977
882.565458	0.382338
882.749353	0.382195
882.933230	0.382115
883.117089	0.382319
883.300930	0.382356
883.484753	0.382365
883.668557	0.382461
883.852343	0.382978
884.036111	0.382870
884.219861	0.382731
884.403592	0.382578
884.587305	0.382666
884.771000	0.382739
884.954677	0.383128
885.138335	0.382918
885.321976	0.383212
885.505598	0.383192
885.689201	0.383056
885.872787	0.383291
886.056354	0.383772
886.239904	0.383539
886.423434	0.383485
886.606947	0.383296
886.790442	0.383263
886.973918	0.382815
887.157376	0.382986
887.340816	0.383265
887.524237	0.382667
887.707641	0.382164
887.891026	0.382346
888.074393	0.382329
888.257741	0.382090
888.441072	0.382194
888.624384	0.381980
888.807678	0.381820
888.990954	0.381692
889.174211	0.381551
889.357451	0.381787
889.540672	0.381668
889.723875	0.381532
889.907059	0.381918
890.090226	0.381547
890.273374	0.381319
890.456504	0.380905
890.639616	0.380849
890.822709	0.380948
891.005785	0.380949
891.188842	0.380876
891.371881	0.381005
891.554901	0.380604
891.737904	0.380594
891.920888	0.381040
892.103854	0.380905
892.286802	0.380809
892.469731	0.380927
892.652643	0.380896
892.835536	0.381091
893.018410	0.380795
893.201267	0.381297
893.384106	0.381390
893.566926	0.381362
893.749728	0.381303
893.932511	0.381481
894.115277	0.381257
894.298024	0.380980
894.480753	0.380770
894.663464	0.380531
894.846157	0.379966
895.028831	0.379842
895.211487	0.380328
895.394125	0.380445
895.576745	0.380341
895.759346	0.379792
895.941930	0.379713
896.124495	0.379219
896.307041	0.379137
896.489570	0.378767
896.672080	0.378577
896.854573	0.377494
897.037046	0.377341
897.219502	0.377039
897.401940	0.377290
897.584359	0.377407
897.766760	0.377897
897.949143	0.377880
898.131507	0.378000
898.313854	0.377610
898.496182	0.377175
898.678492	0.376619
898.860783	0.376426
899.043057	0.375851
899.225312	0.375697
899.407549	0.374798
899.589768	0.374614
899.771968	0.374151
899.954151	0.374160
900.136315	0.374323
900.318461	0.374238
900.500588	0.373615
900.682698	0.373917
900.864789	0.373437
901.046862	0.373054
901.228917	0.372667
901.410953	0.372369
901.592971	0.372146
901.774972	0.371248
901.956953	0.370818
902.138917	0.370764
902.320862	0.370515
902.502790	0.370213
902.684699	0.370503
902.866589	0.369834
903.048462	0.369455
903.230316	0.368622
903.412152	0.368875
903.593970	0.368867
903.775770	0.368166
903.957551	0.367168
904.139314	0.366829
904.321059	0.365829
904.502786	0.365329
904.684494	0.365230
904.866185	0.364861
905.047857	0.364119
905.229510	0.363756
905.411146	0.364132
905.592763	0.364649
905.774363	0.364162
905.955943	0.364353
906.137506	0.364366
906.319051	0.364676
906.500577	0.364360
906.682085	0.364821
906.863575	0.364153
907.045046	0.363337
907.226500	0.362482
907.407935	0.362445
907.589352	0.361824
907.770750	0.361312
907.952131	0.360346
908.133493	0.360279
908.314837	0.359833
908.496163	0.359838
908.677470	0.359450
908.858760	0.358410
909.040031	0.357625
909.221284	0.357281
909.402518	0.356645
909.583735	0.355834
909.764933	0.355301
909.946113	0.353791
910.127275	0.353137
910.308418	0.353139
910.489544	0.353564
910.670651	0.352817
910.851740	0.352684
911.032810	0.353377
911.213863	0.353088
911.394897	0.352850
911.575913	0.353081
911.756911	0.352740
911.937890	0.352175
912.118851	0.351213
912.299794	0.351179
912.480719	0.350553
912.661626	0.349601
912.842514	0.348960
913.023384	0.348323
913.204236	0.347382
913.385070	0.346482
913.565886	0.345848
913.746683	0.345399
913.927462	0.344957
914.108223	0.344217
914.288965	0.343374
914.469690	0.342864
914.650396	0.342303
914.831084	0.342078
915.011754	0.341590
915.192405	0.340245
915.373038	0.339476
915.553653	0.338782
915.734250	0.338080
915.914829	0.337022
916.095389	0.336630
916.275931	0.336101
916.456455	0.334953
916.636961	0.334252
916.817448	0.333553
916.997917	0.333187
917.178368	0.332040
917.358801	0.330999
917.539216	0.330956
917.719612	0.330447
917.899990	0.329752
918.080350	0.329395
918.260692	0.328528
918.441015	0.328156
918.621320	0.327196
918.801607	0.326442
918.981876	0.326411
919.162127	0.325012
919.342359	0.324206
919.522573	0.323483
919.702769	0.322953
919.882947	0.322549
920.063106	0.321944
920.243247	0.321308
920.423370	0.320878
920.603475	0.319907
920.783562	0.319458
920.963630	0.318505
921.143680	0.317892
921.323712	0.317117
921.503725	0.316609
921.683721	0.316179
921.863698	0.315604
922.043657	0.315198
922.223598	0.314507
922.403520	0.314367
922.583424	0.313640
922.763311	0.312850
922.943178	0.312343
923.123028	0.311483
923.302859	0.310218
923.482673	0.309479
923.662467	0.308405
923.842244	0.307364
924.022003	0.305893
924.201743	0.305735
924.381465	0.304808
924.561169	0.304049
924.740854	0.303074
924.920522	0.302214
925.100171	0.301319
925.279802	0.300476
925.459414	0.300589
925.639009	0.300083
925.818585	0.298306
925.998143	0.297841
926.177683	0.296784
926.357205	0.296729
926.536708	0.295989
926.716193	0.295387
926.895660	0.294759
927.075109	0.293167
927.254539	0.292069
927.433951	0.291475
927.613345	0.290064
927.792721	0.289694
927.972079	0.287992
928.151418	0.287611
928.330739	0.287065
928.510042	0.286488
928.689327	0.285568
928.868593	0.285812
929.047841	0.285227
929.227071	0.284781
929.406283	0.283808
929.585476	0.283548
929.764652	0.282240
929.943809	0.281368
930.122948	0.280094
930.302068	0.278941
930.481171	0.277259
930.660255	0.276381
930.839321	0.275649
931.018369	0.273935
931.197398	0.272653
931.376409	0.272014
931.555402	0.270398
931.734377	0.269832
931.913334	0.269727
932.092272	0.268493
932.271192	0.267568
932.450094	0.266400
932.628978	0.266212
932.807844	0.264952
932.986691	0.263422
933.165520	0.262824
933.344331	0.261527
933.523123	0.259912
933.701898	0.258953
933.880654	0.258085
934.059392	0.256425
934.238111	0.254242
934.416813	0.254155
934.595496	0.253453
934.774161	0.252561
934.952808	0.251019
935.131437	0.250235
935.310047	0.249444
935.488639	0.248057
935.667213	0.247600
935.845769	0.247660
936.024306	0.245575
936.202825	0.244331
936.381326	0.243496
936.559809	0.243806
936.738274	0.242886
936.916720	0.241481
937.095148	0.240611
937.273558	0.239572
937.451950	0.238829
937.630323	0.238667
937.808678	0.238544
937.987015	0.236595
938.165334	0.234125
938.343635	0.232361
938.521917	0.232570
938.700181	0.231568
938.878427	0.230852
939.056655	0.229212
939.234864	0.227429
939.413055	0.225809
939.591228	0.226058
939.769383	0.225812
939.947519	0.225142
940.125638	0.223678
940.303738	0.222688
940.481820	0.220757
940.659883	0.219791
940.837929	0.219219
941.015956	0.218606
941.193965	0.216669
941.371955	0.215512
941.549928	0.216022
941.727882	0.215131
941.905818	0.213255
942.083736	0.213434
942.261636	0.212728
942.439517	0.211573
942.617380	0.210571
942.795225	0.209189
942.973052	0.206806
943.150860	0.204619
943.328651	0.202390
943.506423	0.202857
943.684176	0.201114
943.861912	0.198616
944.039629	0.197412
944.217328	0.196663
944.395009	0.196623
944.572672	0.196597
944.750317	0.195315
944.927943	0.194075
945.105551	0.191294
945.283141	0.190046
945.460712	0.189877
945.638265	0.188343
945.815801	0.186672
945.993317	0.185770
946.170816	0.184675
946.348297	0.184581
946.525759	0.183643
946.703203	0.183056
946.880629	0.181147
947.058036	0.179862
947.235425	0.179395
947.412797	0.178347
947.590149	0.176646
947.767484	0.176322
947.944800	0.174465
948.122099	0.174192
948.299379	0.172834
948.476640	0.172860
948.653884	0.171588
948.831109	0.170733
949.008316	0.169376
949.185505	0.167102
949.362676	0.164448
949.539828	0.161545
949.716962	0.159248
949.894078	0.158538
950.071176	0.155923
950.248256	0.156138
950.425317	0.154778
950.602360	0.153551
950.779385	0.152560
950.956391	0.152094
951.133380	0.152070
951.310350	0.152005
951.487302	0.149529
951.664235	0.149147
951.841151	0.147068
952.018048	0.144829
952.194927	0.144794
952.371788	0.146100
952.548631	0.143460
952.725455	0.142962
952.902261	0.142152
953.079049	0.141836
953.255819	0.141696
953.432570	0.140689
953.609303	0.140061
953.786018	0.138484
953.962715	0.136228
954.139394	0.137618
954.316054	0.136253
954.492696	0.132716
954.669320	0.132411
954.845926	0.131325
955.022513	0.127820
955.199083	0.126916
955.375634	0.124687
955.552166	0.123287
955.728681	0.121045
955.905177	0.120946
956.081655	0.121552
956.258115	0.119263
956.434557	0.117142
956.610980	0.117880
956.787385	0.117687
956.963772	0.118059
957.140141	0.116500
957.316492	0.117947
957.492824	0.117975
957.669138	0.118041
957.845434	0.118218
958.021712	0.115834
958.197971	0.115764
958.374212	0.113818
958.550435	0.111207
958.726640	0.113059
958.902826	0.111220
959.078995	0.109164
959.255145	0.106494
959.431277	0.106349
959.607390	0.107070
959.783486	0.105748
959.959563	0.105207
960.135622	0.103148
960.311662	0.101773
960.487685	0.099662
960.663689	0.098374
960.839675	0.099162
961.015643	0.098931
961.191593	0.098312
961.367524	0.097384
961.543437	0.096532
961.719332	0.098503
961.895209	0.096304
962.071067	0.095872
962.246907	0.096826
962.422730	0.096579
962.598533	0.095110
962.774319	0.094881
962.950086	0.096751
963.125835	0.095586
963.301566	0.095455
963.477279	0.095815
963.652973	0.096862
963.828650	0.094861
964.004308	0.091962
964.179947	0.090596
964.355569	0.089860
964.531172	0.087809
964.706757	0.089368
964.882324	0.089599
965.057873	0.087927
965.233403	0.084761
965.408916	0.085685
965.584410	0.088720
965.759885	0.089033
965.935343	0.090833
966.110782	0.091797
966.286203	0.091121
966.461606	0.091175
966.636991	0.092397
966.812357	0.094083
966.987705	0.092892
967.163035	0.089437
967.338347	0.091111
967.513641	0.091551
967.688916	0.090527
967.864173	0.089930
968.039412	0.087498
968.214632	0.085813
968.389835	0.087376
968.565019	0.087533
968.740185	0.090513
968.915333	0.088729
969.090462	0.087721
969.265573	0.088016
969.440667	0.087969
969.615741	0.088087
969.790798	0.088426
969.965836	0.087377
970.140856	0.086290
970.315858	0.084725
970.490842	0.086038
970.665808	0.085865
970.840755	0.085891
971.015684	0.088184
971.190595	0.087892
971.365487	0.088594
971.540362	0.087871
971.715218	0.088318
971.890056	0.089580
972.064875	0.089172
972.239677	0.087946
972.414460	0.087749
972.589225	0.086752
972.763972	0.087447
972.938700	0.087281
973.113411	0.088681
973.288103	0.090326
973.462777	0.089046
973.637432	0.087685
973.812070	0.089446
973.986689	0.090099
974.161290	0.090686
974.335873	0.092162
974.510437	0.092508
974.684984	0.093028
974.859512	0.090864
975.034022	0.091549
975.208513	0.092920
975.382987	0.092212
975.557442	0.092512
975.731879	0.090347
975.906298	0.091150
976.080698	0.090383
976.255080	0.089369
976.429445	0.090199
976.603790	0.092071
976.778118	0.091713
976.952427	0.090964
977.126719	0.088882
977.300992	0.090816
977.475246	0.088799
977.649483	0.089906
977.823701	0.087697
977.997901	0.088461
978.172083	0.088571
978.346247	0.087242
978.520392	0.087913
978.694519	0.090415
978.868628	0.088531
979.042719	0.087817
979.216791	0.087045
979.390845	0.087052
979.564882	0.085150
979.738899	0.083995
979.912899	0.084584
980.086880	0.084463
980.260843	0.082601
980.434788	0.084415
980.608715	0.086591
980.782623	0.088095
980.956514	0.087815
981.130386	0.089668
981.304240	0.088449
981.478075	0.087752
981.651892	0.086683
981.825692	0.088215
981.999472	0.087963
982.173235	0.086909
982.346980	0.085524
982.520706	0.087688
982.694414	0.086924
982.868104	0.087276
983.041775	0.089473
983.215428	0.090490
983.389064	0.090891
983.562680	0.089089
983.736279	0.089439
983.909860	0.091018
984.083422	0.091223
984.256966	0.091107
984.430491	0.091216
984.603999	0.091497
984.777488	0.090699
984.950959	0.091199
985.124412	0.092636
985.297847	0.091717
985.471263	0.089721
985.644661	0.088630
985.818041	0.088235
985.991403	0.086973
986.164747	0.087879
986.338072	0.089765
986.511379	0.088032
986.684668	0.086529
986.857938	0.086694
987.031191	0.087974
987.204425	0.088583
987.377641	0.090273
987.550839	0.091094
987.724018	0.088802
987.897179	0.087651
988.070322	0.086950
988.243447	0.086770
988.416554	0.087784
988.589642	0.086897
988.762712	0.086389
988.935764	0.085312
989.108798	0.086348
989.281813	0.088147
989.454811	0.088416
989.627790	0.088600
989.800751	0.088455
989.973693	0.088509
990.146617	0.089771
990.319524	0.090841
990.492412	0.090759
990.665281	0.089224
990.838133	0.089202
991.010966	0.088964
991.183781	0.090718
991.356578	0.092754
991.529356	0.092532
991.702117	0.091699
991.874859	0.090958
992.047583	0.091350
992.220288	0.093343
992.392976	0.091474
992.565645	0.090854
992.738296	0.089756
992.910929	0.090316
993.083543	0.090234
993.256139	0.091035
993.428718	0.090421
993.601277	0.090233
993.773819	0.088678
993.946342	0.089524
994.118848	0.088828
994.291335	0.087069
994.463803	0.085599
994.636254	0.085410
994.808686	0.085077
994.981100	0.084880
995.153496	0.085925
995.325874	0.085741
995.498233	0.085596
995.670574	0.085744
995.842897	0.088159
996.015202	0.088926
996.187488	0.089251
996.359757	0.088634
996.532007	0.089736
996.704239	0.089622
996.876452	0.089704
997.048648	0.088971
997.220825	0.087917
997.392984	0.086694
997.565124	0.086148
997.737247	0.085834
997.909351	0.086461
998.081437	0.086625
998.253505	0.086435
998.425554	0.086124
998.597586	0.086461
998.769599	0.089101
998.941594	0.090529
999.113571	0.091201
999.285529	0.089319
999.457469	0.089285
999.629391	0.089079
999.801295	0.087624
999.973181	0.089354
1000.145048	0.089660
1000.316897	0.090699
1000.488728	0.088145
1000.660541	0.087193
1000.832335	0.087965
1001.004111	0.087928
1001.175869	0.089757
1001.347609	0.091633
1001.519331	0.091194
1001.691034	0.092017
1001.862719	0.091029
1002.034386	0.092472
1002.206035	0.093321
1002.377665	0.094503
1002.549277	0.093929
1002.720871	0.092686
1002.892447	0.092154
1003.064004	0.091440
1003.235544	0.090015
1003.407065	0.089994
1003.578568	0.089827
1003.750052	0.088835
1003.921519	0.089127
1004.092967	0.089254
1004.264397	0.088813
1004.435809	0.089148
1004.607202	0.087911
1004.778577	0.088432
1004.949934	0.087387
1005.121273	0.088327
1005.292594	0.088330
1005.463896	0.087147
1005.635180	0.086971
1005.806446	0.087614
1005.977694	0.085781
1006.148923	0.087211
1006.320135	0.087906
1006.491328	0.087154
1006.662503	0.086248
1006.833659	0.086876
1007.004798	0.087431
1007.175918	0.090466
1007.347020	0.089251
1007.518103	0.090739
1007.689169	0.090304
1007.860216	0.088624
1008.031245	0.088396
1008.202256	0.089455
1008.373248	0.088985
1008.544223	0.088056
1008.715179	0.086572
1008.886117	0.089143
1009.057036	0.089420
1009.227938	0.089767
1009.398821	0.091198
1009.569686	0.092123
1009.740533	0.091093
1009.911361	0.091203
1010.082172	0.093892
1010.252964	0.092138
1010.423738	0.089428
1010.594493	0.089433
1010.765231	0.089375
1010.935950	0.088248
1011.106651	0.089826
1011.277334	0.090602
1011.447998	0.090100
1011.618645	0.089618
1011.789273	0.090996
1011.959882	0.093177
1012.130474	0.093545
1012.301048	0.093537
1012.471603	0.093636
1012.642140	0.093282
1012.812658	0.093346
1012.983159	0.095900
1013.153641	0.096089
1013.324105	0.095473
1013.494551	0.093382
1013.664979	0.093255
1013.835388	0.093672
1014.005779	0.093141
1014.176152	0.093931
1014.346507	0.095220
1014.516843	0.092598
1014.687162	0.091551
1014.857462	0.089635
1015.027744	0.090255
1015.198007	0.089341
1015.368252	0.090021
1015.538480	0.091217
1015.708689	0.090859
1015.878879	0.089335
1016.049052	0.091202
1016.219206	0.091369
1016.389342	0.091340
1016.559460	0.091555
1016.729559	0.091584
1016.899641	0.090695
1017.069704	0.090786
1017.239749	0.090666
1017.409775	0.091196
1017.579784	0.089899
1017.749774	0.089608
1017.919746	0.092487
1018.089700	0.092320
1018.259635	0.091839
1018.429553	0.092032
1018.599452	0.089664
1018.769333	0.088154
1018.939195	0.088707
1019.109040	0.089271
1019.278866	0.088991
1019.448674	0.087209
1019.618464	0.087087
1019.788235	0.086863
1019.957989	0.086788
1020.127724	0.088230
1020.297441	0.087668
1020.467139	0.086063
1020.636820	0.084670
1020.806482	0.084487
1020.976126	0.085080
1021.145752	0.084006
1021.315359	0.084264
1021.484948	0.083541
1021.654519	0.084517
1021.824072	0.087024
1021.993607	0.085807
1022.163123	0.085590
1022.332621	0.085788
1022.502101	0.083734
1022.671563	0.084681
1022.841007	0.084851
1023.010432	0.084559
1023.179839	0.084489
1023.349228	0.083822
1023.518598	0.085589
1023.687951	0.087737
1023.857285	0.087867
1024.026601	0.089283
1024.195899	0.088925
1024.365178	0.089207
1024.534439	0.090750
1024.703682	0.091727
1024.872907	0.090616
1025.042114	0.090182
1025.211302	0.089645
1025.380472	0.089707
1025.549624	0.089509
1025.718758	0.090188
1025.887873	0.090099
1026.056970	0.089866
1026.226049	0.088784
1026.395110	0.087977
1026.564153	0.088496
1026.733177	0.088429
1026.902183	0.087140
1027.071171	0.088390
1027.240141	0.088108
1027.409092	0.088666
1027.578026	0.087852
1027.746940	0.088655
1027.915837	0.089111
1028.084716	0.089255
1028.253576	0.087557
1028.422418	0.089123
1028.591242	0.087627
1028.760048	0.086272
1028.928835	0.085569
1029.097604	0.085569
1029.266355	0.083889
1029.435088	0.085645
1029.603803	0.084144
1029.772499	0.085172
1029.941177	0.083647
1030.109837	0.085010
1030.278478	0.086062
1030.447102	0.086129
1030.615707	0.085918
1030.784294	0.085826
1030.952863	0.084940
1031.121413	0.085587
1031.289945	0.084691
1031.458460	0.084936
1031.626955	0.083880
1031.795433	0.083735
1031.963892	0.083856
1032.132334	0.083180
1032.300756	0.084396
1032.469161	0.082169
1032.637548	0.081676
1032.805916	0.083832
1032.974266	0.086178
1033.142598	0.086563
1033.310911	0.087280
1033.479207	0.087053
1033.647484	0.086656
1033.815743	0.086005
1033.983983	0.087127
1034.152206	0.087622
1034.320410	0.086666
1034.488596	0.084127
1034.656764	0.083617
1034.824914	0.083633
1034.993045	0.085003
1035.161158	0.085303
1035.329253	0.085717
1035.497330	0.086789
1035.665388	0.087048
1035.833428	0.086646
1036.001450	0.088492
1036.169454	0.088708
1036.337440	0.088117
1036.505407	0.086474
1036.673356	0.088136
1036.841287	0.086371
1037.009200	0.087479
1037.177094	0.088035
1037.344970	0.087347
1037.512828	0.087189
1037.680668	0.087356
1037.848489	0.087037
1038.016293	0.087557
1038.184078	0.087756
1038.351845	0.087044
1038.519593	0.083945
1038.687324	0.083996
1038.855036	0.087140
1039.022730	0.085795
1039.190406	0.086290
1039.358063	0.086085
1039.525702	0.085983
1039.693323	0.085515
1039.860926	0.086295
1040.028511	0.089880
1040.196077	0.090074
1040.363625	0.087213
1040.531155	0.088534
1040.698667	0.087759
1040.866161	0.088068
1041.033636	0.088345
1041.201093	0.087599
1041.368532	0.089564
1041.535952	0.087011
1041.703355	0.086079
1041.870739	0.086319
1042.038105	0.086794
1042.205452	0.087476
1042.372782	0.088302
1042.540093	0.087258
1042.707386	0.086795
1042.874661	0.086186
1043.041918	0.085984
1043.209156	0.085546
1043.376376	0.084868
1043.543578	0.084356
1043.710762	0.085335
1043.877927	0.083120
1044.045074	0.082827
1044.212203	0.082984
1044.379314	0.083147
1044.546407	0.085301
1044.713481	0.087339
1044.880537	0.088772
1045.047575	0.088156
1045.214595	0.086499
1045.381596	0.090074
1045.548579	0.091315
1045.715544	0.093361
1045.882491	0.093936
1046.049420	0.093101
1046.216330	0.091703
1046.383222	0.090732
1046.550096	0.090501
1046.716951	0.090953
1046.883789	0.089403
1047.050608	0.089241
1047.217409	0.088098
1047.384192	0.085824
1047.550956	0.084780
1047.717703	0.083337
1047.884431	0.084459
1048.051140	0.083904
1048.217832	0.082992
1048.384505	0.082421
1048.551161	0.082322
1048.717798	0.083225
1048.884416	0.084965
1049.051017	0.085151
1049.217599	0.086372
1049.384163	0.087031
1049.550709	0.086998
1049.717237	0.087241
1049.883746	0.088049
1050.050237	0.087253
1050.216710	0.086073
1050.383165	0.084776
1050.549601	0.085792
1050.716019	0.085567
1050.882420	0.086187
1051.048801	0.086156
1051.215165	0.086769
1051.381510	0.088438
1051.547837	0.088942
1051.714146	0.091425
1051.880437	0.091983
1052.046709	0.091678
1052.212964	0.092931
1052.379200	0.091289
1052.545417	0.092787
1052.711617	0.093392
1052.877798	0.089515
1053.043961	0.089787
1053.210106	0.087478
1053.376233	0.089029
1053.542341	0.088660
1053.708432	0.087031
1053.874504	0.085619
1054.040557	0.084754
1054.206593	0.084753
1054.372610	0.086025
1054.538609	0.084968
1054.704590	0.085876
1054.870553	0.084710
1055.036497	0.085757
1055.202424	0.086654
1055.368331	0.088065
1055.534221	0.088059
1055.700093	0.086532
1055.865946	0.086568
1056.031781	0.086024
1056.197598	0.085724
1056.363397	0.086789
1056.529177	0.085763
1056.694939	0.085969
1056.860683	0.085648
1057.026409	0.084841
1057.192116	0.086726
1057.357806	0.088162
1057.523477	0.090015
1057.689130	0.090291
1057.854764	0.091843
1058.020381	0.091084
1058.185979	0.090944
1058.351559	0.091449
1058.517120	0.092721
1058.682664	0.091956
1058.848189	0.092204
1059.013696	0.092120
1059.179185	0.089617
1059.344656	0.087308
1059.510108	0.088075
1059.675542	0.088339
1059.840958	0.089494
1060.006356	0.088953
1060.171735	0.088596
1060.337096	0.087322
1060.502439	0.087646
1060.667764	0.091384
1060.833071	0.091302
1060.998359	0.091918
1061.163629	0.090555
1061.328881	0.088604
1061.494115	0.089887
1061.659330	0.089513
1061.824527	0.090867
1061.989706	0.090522
1062.154867	0.092045
1062.320010	0.093045
1062.485134	0.091452
1062.650240	0.095504
1062.815328	0.096311
1062.980398	0.096868
1063.145449	0.097662
1063.310482	0.096169
1063.475497	0.095209
1063.640494	0.090180
1063.805473	0.089566
1063.970433	0.088847
1064.135375	0.083616
1064.300299	0.083416
1064.465204	0.083678
1064.630092	0.085729
1064.794961	0.085963
1064.959812	0.086838
1065.124645	0.089311
1065.289459	0.089450
1065.454256	0.090874
1065.619034	0.092826
1065.783793	0.092288
1065.948535	0.093200
1066.113258	0.092533
1066.277964	0.093147
1066.442651	0.094777
1066.607319	0.095441
1066.771970	0.095107
1066.936602	0.097366
1067.101216	0.099230
1067.265812	0.101386
1067.430389	0.098601
1067.594949	0.096582
1067.759490	0.097231
1067.924013	0.097579
1068.088518	0.096787
1068.253004	0.098174
1068.417472	0.097233
1068.581922	0.096848
1068.746354	0.094423
1068.910768	0.092582
1069.075163	0.093530
1069.239540	0.094229
1069.403899	0.092569
1069.568240	0.092777
1069.732562	0.091814
1069.896866	0.093747
1070.061152	0.093441
1070.225420	0.095439
1070.389670	0.098813
1070.553901	0.096681
1070.718114	0.095313
1070.882309	0.096635
1071.046486	0.094896
1071.210644	0.094693
1071.374784	0.093157
1071.538906	0.093840
1071.703010	0.095302
1071.867096	0.095403
1072.031163	0.099975
1072.195212	0.102378
1072.359243	0.102836
1072.523256	0.102820
1072.687250	0.104731
1072.851226	0.102231
1073.015184	0.100828
1073.179124	0.099605
1073.343045	0.098742
1073.506949	0.096086
1073.670834	0.093836
1073.834701	0.091880
1073.998549	0.094358
1074.162380	0.093237
1074.326192	0.094858
1074.489986	0.095713
1074.653761	0.095244
1074.817519	0.096039
1074.981258	0.098542
1075.144979	0.098371
1075.308682	0.100040
1075.472367	0.099912
1075.636033	0.097778
1075.799681	0.097108
1075.963311	0.095209
1076.126923	0.094456
1076.290516	0.095749
1076.454092	0.092436
1076.617649	0.093467
1076.781187	0.092989
1076.944708	0.091306
1077.108210	0.092924
1077.271695	0.095247
1077.435160	0.097025
1077.598608	0.096820
1077.762038	0.095268
1077.925449	0.097449
1078.088842	0.098136
1078.252217	0.098124
1078.415573	0.100502
1078.578912	0.101091
1078.742232	0.102507
1078.905534	0.103944
1079.068817	0.105499
1079.232083	0.103956
1079.395330	0.105889
1079.558559	0.103945
1079.721770	0.104215
1079.884962	0.104253
1080.048136	0.106829
1080.211293	0.104875
1080.374430	0.103271
1080.537550	0.101050
1080.700651	0.104476
1080.863735	0.101286
1081.026800	0.103306
1081.189846	0.101860
1081.352875	0.103109
1081.515885	0.102534
1081.678877	0.101229
1081.841851	0.100586
1082.004807	0.100294
1082.167744	0.099539
1082.330663	0.099950
1082.493564	0.099074
1082.656447	0.100410
1082.819312	0.097088
1082.982158	0.096769
1083.144986	0.099890
1083.307796	0.099728
1083.470587	0.102566
1083.633361	0.102980
1083.796116	0.104448
1083.958853	0.106232
1084.121571	0.107614
1084.284272	0.106919
1084.446954	0.106551
1084.609618	0.105513
1084.772264	0.107120
1084.934892	0.107769
1085.097501	0.104858
1085.260092	0.106245
1085.422665	0.101933
1085.585220	0.101269
1085.747756	0.102165
1085.910274	0.102178
1086.072774	0.099392
1086.235256	0.098958
1086.397720	0.098627
1086.560165	0.100094
1086.722592	0.098888
1086.885001	0.104948
1087.047392	0.103319
1087.209764	0.102842
1087.372119	0.099922
1087.534455	0.103937
1087.696772	0.103321
1087.859072	0.103787
1088.021353	0.102092
1088.183616	0.102744
1088.345861	0.100949
1088.508088	0.104242
1088.670296	0.107170
1088.832486	0.108278
1088.994658	0.106652
1089.156812	0.108998
1089.318948	0.108156
1089.481065	0.108865
1089.643164	0.108907
1089.805245	0.108446
1089.967308	0.107083
1090.129352	0.105595
1090.291378	0.105082
1090.453386	0.102645
1090.615376	0.100458
1090.777347	0.101562
1090.939301	0.106877
1091.101236	0.107185
1091.263153	0.105133
1091.425051	0.105346
1091.586932	0.105922
1091.748794	0.108271
1091.910638	0.114096
1092.072463	0.117698
1092.234271	0.116036
1092.396060	0.114090
1092.557831	0.113866
1092.719584	0.115352
1092.881319	0.113171
1093.043035	0.112627
1093.204733	0.112414
1093.366413	0.110076
1093.528075	0.107714
1093.689718	0.108538
1093.851343	0.107384
1094.012950	0.106576
1094.174539	0.107571
1094.336110	0.110182
1094.497662	0.113506
1094.659196	0.114163
1094.820712	0.111001
1094.982210	0.111706
1095.143689	0.111231
1095.305151	0.110697
1095.466594	0.111596
1095.628018	0.110543
1095.789425	0.112589
1095.950813	0.113435
1096.112183	0.115486
1096.273535	0.119216
1096.434869	0.118065
1096.596184	0.119289
1096.757482	0.124581
1096.918761	0.127364
1097.080021	0.128664
1097.241264	0.127917
1097.402488	0.124775
1097.563694	0.121898
1097.724882	0.123255
1097.886052	0.126891
1098.047203	0.127955
1098.208336	0.122683
1098.369451	0.120857
1098.530548	0.121979
1098.691627	0.121374
1098.852687	0.124740
1099.013729	0.128615
1099.174753	0.126999
1099.335758	0.124656
1099.496746	0.122036
1099.657715	0.124071
1099.818666	0.122502
1099.979599	0.120547
1100.140513	0.119736
1100.301409	0.114071
1100.462287	0.112599
1100.623147	0.110829
1100.783989	0.111629
1100.944812	0.114730
1101.105617	0.113994
1101.266404	0.117860
1101.427173	0.116754
1101.587923	0.120147
1101.748656	0.120559
1101.909370	0.119238
1102.070066	0.118164
1102.230743	0.117922
1102.391403	0.115387
1102.552044	0.117512
1102.712667	0.116871
1102.873271	0.121809
1103.033858	0.121152
1103.194426	0.127614
1103.354976	0.124977
1103.515508	0.131033
1103.676021	0.132005
1103.836517	0.135640
1103.996994	0.135619
1104.157453	0.137284
1104.317893	0.132557
1104.478316	0.128758
1104.638720	0.124671
1104.799106	0.127866
1104.959474	0.125913
1105.119823	0.123116
1105.280155	0.123139
1105.440468	0.119606
1105.600763	0.112556
1105.761039	0.113022
1105.921298	0.111495
1106.081538	0.111674
1106.241760	0.112129
1106.401964	0.112871
1106.562149	0.114000
1106.722316	0.116143
1106.882465	0.116973
1107.042596	0.121130
1107.202709	0.122041
1107.362803	0.125919
1107.522879	0.127520
1107.682937	0.126115
1107.842977	0.124512
1108.002999	0.124251
1108.163002	0.123410
1108.322987	0.123081
1108.482954	0.120346
1108.642902	0.122417
1108.802833	0.123336
1108.962745	0.121355
1109.122639	0.122470
1109.282515	0.121515
1109.442372	0.123728
1109.602211	0.121327
1109.762032	0.123377
1109.921835	0.122141
1110.081620	0.122655
1110.241386	0.120276
1110.401134	0.123786
1110.560864	0.128814
1110.720576	0.129547
1110.880269	0.133442
1111.039945	0.134946
1111.199602	0.132126
1111.359240	0.139925
1111.518861	0.138707
1111.678463	0.133890
1111.838047	0.136994
1111.997613	0.133078
1112.157161	0.139079
1112.316690	0.137058
1112.476202	0.135650
1112.635695	0.138351
1112.795169	0.136731
1112.954626	0.145274
1113.114064	0.155615
1113.273484	0.145852
1113.432886	0.146577
1113.592270	0.143883
1113.751635	0.139464
1113.910983	0.135157
1114.070312	0.134934
1114.229622	0.133594
1114.388915	0.125338
1114.548189	0.121444
1114.707445	0.123768
1114.866683	0.124882
1115.025903	0.123084
1115.185104	0.127981
1115.344287	0.132626
1115.503452	0.135463
1115.662599	0.132702
1115.821727	0.130049
1115.980838	0.131231
1116.139930	0.132738
1116.299004	0.126844
1116.458059	0.128103
1116.617097	0.124081
1116.776116	0.127441
1116.935117	0.125009
1117.094099	0.128295
1117.253064	0.127924
1117.412010	0.127248
1117.570938	0.129790
1117.729848	0.131130
1117.888740	0.126205
1118.047613	0.130596
1118.206468	0.131320
1118.365305	0.130334
1118.524124	0.129140
1118.682924	0.135620
1118.841707	0.135431
1119.000471	0.136650
1119.159216	0.139941
1119.317944	0.147854
1119.476653	0.145405
1119.635344	0.142183
1119.794017	0.139665
1119.952672	0.144389
1120.111308	0.141266
1120.269927	0.146264
1120.428527	0.144617
1120.587108	0.142530
1120.745672	0.138507
1120.904217	0.135190
1121.062744	0.136223
1121.221253	0.141243
1121.379744	0.139499
1121.538216	0.138046
1121.696671	0.132781
1121.855107	0.129302
1122.013524	0.127553
1122.171924	0.126166
1122.330305	0.133692
1122.488668	0.132063
1122.647013	0.134702
1122.805340	0.133396
1122.963648	0.140193
1123.121938	0.140315
1123.280210	0.139122
1123.438464	0.138738
1123.596700	0.140226
1123.754917	0.139861
1123.913116	0.143049
1124.071297	0.140219
1124.229459	0.144346
1124.387604	0.139502
1124.545730	0.140345
1124.703838	0.148387
1124.861928	0.160113
1125.019999	0.161718
1125.178052	0.167417
1125.336088	0.162553
1125.494104	0.167948
1125.652103	0.161403
1125.810083	0.162821
1125.968045	0.169476
1126.125989	0.168060
1126.283915	0.160485
1126.441823	0.160099
1126.599712	0.153293
1126.757583	0.156424
1126.915436	0.152066
1127.073270	0.157918
1127.231087	0.156344
1127.388885	0.149606
1127.546665	0.147322
1127.704426	0.146319
1127.862170	0.146284
1128.019895	0.144985
1128.177602	0.142125
1128.335291	0.136697
1128.492961	0.132421
1128.650614	0.136177
1128.808248	0.140898
1128.965864	0.140525
1129.123461	0.143784
1129.281041	0.146693
1129.438602	0.145972
1129.596145	0.148827
1129.753670	0.156508
1129.911176	0.159326
1130.068665	0.160185
1130.226135	0.148851
1130.383587	0.152581
1130.541020	0.145867
1130.698436	0.142661
1130.855833	0.144522
1131.013212	0.143009
1131.170573	0.136290
1131.327915	0.129712
1131.485239	0.124907
1131.642545	0.133373
1131.799833	0.139057
1131.957103	0.151527
1132.114354	0.156186
1132.271588	0.156342
1132.428803	0.159882
1132.585999	0.169688
1132.743178	0.173404
1132.900338	0.173474
1133.057480	0.172316
1133.214604	0.167122
1133.371710	0.160711
1133.528797	0.159993
1133.685866	0.154646
1133.842917	0.155164
1133.999950	0.148126
1134.156964	0.151577
1134.313960	0.151860
1134.470938	0.158795
1134.627898	0.155912
1134.784840	0.156041
1134.941763	0.147929
1135.098668	0.155456
1135.255555	0.156364
1135.412424	0.154498
1135.569274	0.155676
1135.726107	0.151359
1135.882921	0.143577
1136.039716	0.138552
1136.196494	0.134682
1136.353253	0.137922
1136.509995	0.136027
1136.666717	0.126971
1136.823422	0.132026
1136.980109	0.130766
1137.136777	0.134032
1137.293427	0.129590
1137.450059	0.134631
1137.606672	0.138756
1137.763267	0.140452
1137.919844	0.132834
1138.076403	0.136217
1138.232944	0.136650
1138.389466	0.137902
1138.545971	0.141527
1138.702457	0.151269
1138.858924	0.149971
1139.015374	0.156687
1139.171805	0.156936
1139.328218	0.169491
1139.484613	0.176705
1139.640990	0.178546
1139.797348	0.173480
1139.953688	0.178928
1140.110010	0.173855
1140.266314	0.175828
1140.422600	0.175189
1140.578867	0.180119
1140.735116	0.175370
1140.891347	0.165892
1141.047559	0.162664
1141.203754	0.160324
1141.359930	0.155526
1141.516088	0.155737
1141.672228	0.153701
1141.828349	0.148539
1141.984452	0.137513
1142.140537	0.138468
1142.296604	0.149397
1142.452653	0.150391
1142.608683	0.156719
1142.764695	0.154638
1142.920689	0.154141
1143.076665	0.161197
1143.232622	0.155268
1143.388562	0.163689
1143.544483	0.162545
1143.700385	0.159199
1143.856270	0.160305
1144.012136	0.161359
1144.167985	0.169066
1144.323814	0.165604
1144.479626	0.157465
1144.635420	0.165737
1144.791195	0.164815
1144.946952	0.167492
1145.102691	0.162735
1145.258411	0.155632
1145.414113	0.147221
1145.569798	0.133151
1145.725463	0.136243
1145.881111	0.138697
1146.036741	0.135007
1146.192352	0.138915
1146.347945	0.129915
1146.503519	0.136489
1146.659076	0.139698
1146.814614	0.144206
1146.970134	0.147890
1147.125636	0.159205
1147.281120	0.159723
1147.436585	0.161223
1147.592032	0.155260
1147.747461	0.157524
1147.902872	0.158183
1148.058265	0.155531
1148.213639	0.155639
1148.368995	0.161660
1148.524333	0.155672
1148.679653	0.155233
1148.834954	0.149901
1148.990237	0.152884
1149.145502	0.149543
1149.300749	0.140736
1149.455977	0.144806
1149.611188	0.148090
1149.766380	0.142752
1149.921553	0.140078
1150.076709	0.140505
1150.231846	0.145789
1150.386966	0.150440
1150.542066	0.160405
1150.697149	0.164496
1150.852214	0.159353
1151.007260	0.156020
1151.162288	0.160824
1151.317298	0.161944
1151.472289	0.156280
1151.627263	0.151611
1151.782218	0.137806
1151.937155	0.133171
1152.092073	0.134717
1152.246974	0.150449
1152.401856	0.148179
1152.556720	0.149591
1152.711566	0.146918
1152.866393	0.152364
1153.021203	0.162562
1153.175994	0.172361
1153.330767	0.177458
1153.485521	0.164265
1153.640258	0.152460
1153.794976	0.157145
1153.949676	0.148703
1154.104358	0.152561
1154.259021	0.157367
1154.413667	0.154804
1154.568294	0.148577
1154.722903	0.145777
1154.877493	0.159499
1155.032066	0.157356
1155.186620	0.156738
1155.341156	0.154759
1155.495674	0.161870
1155.650173	0.152027
1155.804654	0.152552
1155.959118	0.151272
1156.113562	0.152238
1156.267989	0.143786
1156.422397	0.158263
1156.576788	0.158374
1156.731160	0.166470
1156.885513	0.163420
1157.039849	0.169796
1157.194166	0.170546
1157.348465	0.176755
1157.502746	0.173760
1157.657009	0.174438
1157.811253	0.166044
1157.965479	0.158703
1158.119687	0.157444
1158.273877	0.150860
1158.428048	0.149547
1158.582201	0.145219
1158.736337	0.148639
1158.890453	0.155077
1159.044552	0.161111
1159.198632	0.157965
1159.352694	0.171509
1159.506738	0.174911
1159.660764	0.161903
1159.814771	0.154912
1159.968761	0.153817
1160.122732	0.152330
1160.276685	0.150953
1160.430619	0.154780
1160.584535	0.151047
1160.738434	0.145856
1160.892313	0.143950
1161.046175	0.164801
1161.200019	0.164943
1161.353844	0.168327
1161.507651	0.175986
1161.661440	0.187193
1161.815210	0.186639
1161.968962	0.189324
1162.122697	0.184441
1162.276412	0.179991
1162.430110	0.175117
1162.583789	0.183320
1162.737451	0.183542
1162.891094	0.170888
1163.044718	0.169345
1163.198325	0.160920
1163.351913	0.154525
1163.505483	0.147847
1163.659035	0.157960
1163.812569	0.140140
1163.966084	0.133887
1164.119581	0.125348
1164.273060	0.125150
1164.426521	0.102596
1164.579964	0.108740
1164.733388	0.112617
1164.886794	0.126098
1165.040182	0.122904
1165.193551	0.139928
1165.346903	0.151636
1165.500236	0.144760
1165.653551	0.137648
1165.806848	0.149692
1165.960126	0.151905
1166.113386	0.153579
1166.266628	0.143651
1166.419852	0.142480
1166.573058	0.138039
1166.726245	0.133576
1166.879414	0.138856
1167.032565	0.164739
1167.185698	0.160985
1167.338812	0.153623
1167.491909	0.155783
1167.644987	0.160399
1167.798046	0.154331
1167.951088	0.171264
1168.104111	0.161284
1168.257117	0.175279
1168.410103	0.160432
1168.563072	0.167782
1168.716023	0.152902
1168.868955	0.152531
1169.021869	0.158501
1169.174765	0.161957
1169.327642	0.154769
1169.480501	0.172452
1169.633343	0.169361
1169.786165	0.169834
1169.938970	0.167140
1170.091757	0.172310
1170.244525	0.177131
1170.397275	0.181907
1170.550007	0.202633
1170.702720	0.184077
1170.855415	0.172942
1171.008092	0.162675
1171.160751	0.151339
1171.313392	0.145103
1171.466014	0.162247
1171.618619	0.089765
1171.771205	0.089765
1171.923772	0.089765
