sample name	sample
index	628
start time	 03-19-2021  02:53:31 PM


Wavelength (nm)	Absorbance
494.344910	-0.133672
494.563924	-0.133672
494.782919	-0.133672
495.001897	NaN
495.220856	0.089358
495.439797	0.182808
495.658719	0.314004
495.877624	0.244962
496.096510	0.113354
496.315378	0.144928
496.534227	0.082970
496.753059	0.241050
496.971872	0.446252
497.190667	0.107761
497.409444	0.093649
497.628203	0.090710
497.846943	0.092528
498.065665	0.092392
498.284369	0.092617
498.503055	0.092878
498.721723	0.091814
498.940372	0.090112
499.159003	0.089184
499.377616	0.088429
499.596210	0.088085
499.814787	0.087804
500.033345	0.087588
500.251885	0.086797
500.470406	0.085914
500.688910	0.085866
500.907395	0.086160
501.125862	0.086493
501.344311	0.087009
501.562742	0.087530
501.781154	0.086806
501.999548	0.086806
502.217924	0.087228
502.436282	0.087031
502.654621	0.087221
502.872942	0.087960
503.091245	0.088282
503.309530	0.089348
503.527797	0.088895
503.746045	0.088798
503.964275	0.089444
504.182487	0.089268
504.400681	0.089403
504.618856	0.090169
504.837013	0.089576
505.055152	0.089795
505.273273	0.089125
505.491376	0.089829
505.709460	0.090121
505.927526	0.089999
506.145574	0.090000
506.363604	0.091389
506.581615	0.091655
506.799608	0.091798
507.017583	0.091344
507.235540	0.091937
507.453478	0.091890
507.671399	0.092909
507.889301	0.093198
508.107185	0.093665
508.325050	0.093562
508.542898	0.092970
508.760727	0.093254
508.978538	0.093339
509.196330	0.093076
509.414105	0.093025
509.631861	0.092462
509.849599	0.090835
510.067319	0.090381
510.285021	0.089649
510.502704	0.089798
510.720369	0.089761
510.938016	0.090233
511.155645	0.089844
511.373255	0.089679
511.590848	0.089967
511.808422	0.091035
512.025977	0.091868
512.243515	0.091912
512.461034	0.091944
512.678536	0.092227
512.896018	0.092323
513.113483	0.093159
513.330930	0.093598
513.548358	0.093712
513.765768	0.093869
513.983160	0.093299
514.200533	0.093469
514.417889	0.093219
514.635226	0.093536
514.852545	0.093291
515.069845	0.093245
515.287128	0.092364
515.504392	0.091656
515.721638	0.092550
515.938866	0.092687
516.156075	0.093343
516.373267	0.093406
516.590440	0.093275
516.807594	0.093678
517.024731	0.094011
517.241850	0.095313
517.458950	0.095691
517.676032	0.095211
517.893095	0.096234
518.110141	0.096001
518.327168	0.096541
518.544177	0.096634
518.761168	0.096574
518.978141	0.096052
519.195095	0.095947
519.412031	0.096643
519.628949	0.096949
519.845849	0.096136
520.062731	0.096031
520.279594	0.096103
520.496439	0.096643
520.713266	0.096646
520.930074	0.097076
521.146865	0.097577
521.363637	0.097536
521.580391	0.097598
521.797127	0.097537
522.013844	0.098126
522.230543	0.098028
522.447224	0.097432
522.663887	0.098081
522.880532	0.098199
523.097158	0.097757
523.313766	0.097606
523.530356	0.097304
523.746928	0.097779
523.963481	0.097517
524.180017	0.097907
524.396534	0.098416
524.613032	0.098145
524.829513	0.098122
525.045975	0.097953
525.262420	0.098473
525.478845	0.098925
525.695253	0.099079
525.911643	0.100066
526.128014	0.100460
526.344367	0.100931
526.560702	0.102117
526.777018	0.102755
526.993316	0.103451
527.209597	0.103399
527.425858	0.103525
527.642102	0.103337
527.858328	0.103289
528.074535	0.103161
528.290724	0.103323
528.506894	0.102638
528.723047	0.102392
528.939181	0.102235
529.155297	0.102272
529.371395	0.102603
529.587475	0.103494
529.803536	0.103580
530.019579	0.103831
530.235604	0.103624
530.451611	0.104078
530.667600	0.104209
530.883570	0.104876
531.099522	0.105285
531.315456	0.105314
531.531372	0.105298
531.747269	0.105117
531.963148	0.105368
532.179009	0.105816
532.394852	0.105450
532.610676	0.105532
532.826482	0.105588
533.042271	0.106006
533.258040	0.106620
533.473792	0.106974
533.689525	0.107208
533.905240	0.107229
534.120937	0.107448
534.336616	0.107699
534.552277	0.107851
534.767919	0.107747
534.983543	0.107777
535.199149	0.108093
535.414736	0.108048
535.630306	0.108123
535.845857	0.108619
536.061390	0.108565
536.276904	0.108612
536.492401	0.109182
536.707879	0.109508
536.923339	0.109671
537.138781	0.109318
537.354204	0.109744
537.569610	0.109597
537.784997	0.109698
538.000366	0.109680
538.215716	0.109724
538.431049	0.109696
538.646363	0.109939
538.861659	0.109692
539.076937	0.110005
539.292196	0.109779
539.507438	0.110451
539.722661	0.109869
539.937866	0.110141
540.153052	0.110156
540.368221	0.110265
540.583371	0.110036
540.798503	0.110314
541.013617	0.110440
541.228712	0.110516
541.443789	0.110720
541.658848	0.111831
541.873889	0.111939
542.088912	0.112807
542.303916	0.113146
542.518902	0.113687
542.733870	0.114366
542.948820	0.114579
543.163752	0.115173
543.378665	0.115104
543.593560	0.114781
543.808437	0.115306
544.023295	0.115249
544.238136	0.115284
544.452958	0.115345
544.667762	0.115036
544.882548	0.114957
545.097315	0.114646
545.312064	0.115021
545.526795	0.114731
545.741508	0.114541
545.956203	0.114624
546.170879	0.114696
546.385537	0.114559
546.600177	0.114727
546.814799	0.114969
547.029402	0.115195
547.243988	0.114838
547.458555	0.115344
547.673103	0.115651
547.887634	0.115371
548.102146	0.115523
548.316640	0.115571
548.531116	0.115243
548.745574	0.115346
548.960013	0.115085
549.174435	0.115494
549.388838	0.115557
549.603222	0.115435
549.817589	0.115926
550.031937	0.115936
550.246267	0.116539
550.460579	0.116890
550.674873	0.116991
550.889148	0.117334
551.103405	0.117750
551.317644	0.118022
551.531865	0.118528
551.746068	0.118450
551.960252	0.118863
552.174418	0.118873
552.388566	0.119337
552.602696	0.119754
552.816807	0.119802
553.030900	0.119546
553.244975	0.119674
553.459032	0.119515
553.673070	0.119628
553.887091	0.119466
554.101093	0.119198
554.315077	0.119022
554.529042	0.118884
554.742990	0.119168
554.956919	0.119287
555.170830	0.119602
555.384722	0.119771
555.598597	0.120126
555.812453	0.120404
556.026291	0.121016
556.240111	0.121400
556.453913	0.121533
556.667696	0.121786
556.881461	0.121958
557.095208	0.121635
557.308937	0.121746
557.522647	0.121869
557.736339	0.122193
557.950013	0.122398
558.163669	0.122268
558.377307	0.122065
558.590926	0.122124
558.804527	0.122825
559.018110	0.123491
559.231675	0.123356
559.445221	0.123761
559.658749	0.123525
559.872259	0.123241
560.085751	0.123421
560.299225	0.123840
560.512680	0.123838
560.726117	0.123481
560.939536	0.123352
561.152937	0.123503
561.366319	0.123265
561.579683	0.123438
561.793029	0.123960
562.006357	0.124224
562.219667	0.124338
562.432958	0.124537
562.646231	0.124558
562.859486	0.124273
563.072723	0.124415
563.285941	0.124672
563.499141	0.125167
563.712323	0.124699
563.925487	0.124787
564.138632	0.124599
564.351760	0.124970
564.564869	0.125036
564.777960	0.125208
564.991032	0.125354
565.204087	0.125257
565.417123	0.124925
565.630141	0.125139
565.843140	0.125188
566.056122	0.125351
566.269085	0.125042
566.482030	0.125247
566.694957	0.125419
566.907866	0.125832
567.120756	0.126113
567.333628	0.126278
567.546482	0.126580
567.759318	0.126272
567.972135	0.126540
568.184935	0.126641
568.397716	0.126405
568.610478	0.126681
568.823223	0.126592
569.035949	0.126780
569.248657	0.126888
569.461347	0.127033
569.674019	0.127645
569.886672	0.127756
570.099308	0.127938
570.311925	0.128187
570.524523	0.127992
570.737104	0.128164
570.949666	0.128156
571.162210	0.128158
571.374736	0.128465
571.587244	0.128623
571.799733	0.128618
572.012205	0.128503
572.224658	0.128500
572.437092	0.128790
572.649509	0.128922
572.861907	0.129062
573.074287	0.129339
573.286649	0.128994
573.498993	0.129032
573.711318	0.128924
573.923625	0.129342
574.135914	0.129693
574.348185	0.129698
574.560438	0.129646
574.772672	0.129528
574.984888	0.129554
575.197086	0.129362
575.409266	0.129151
575.621427	0.129645
575.833570	0.129834
576.045695	0.129817
576.257802	0.129891
576.469890	0.129946
576.681961	0.130053
576.894013	0.130402
577.106046	0.131166
577.318062	0.131525
577.530059	0.131403
577.742039	0.131124
577.954000	0.131356
578.165942	0.131720
578.377867	0.131951
578.589773	0.132139
578.801661	0.132113
579.013531	0.132095
579.225382	0.132131
579.437216	0.132006
579.649031	0.132219
579.860828	0.132338
580.072606	0.132187
580.284367	0.132095
580.496109	0.132278
580.707833	0.131994
580.919539	0.132052
581.131227	0.131949
581.342896	0.132146
581.554547	0.132359
581.766180	0.132579
581.977795	0.132973
582.189391	0.133358
582.400969	0.133299
582.612529	0.133588
582.824071	0.133767
583.035595	0.133725
583.247100	0.133955
583.458587	0.134049
583.670056	0.133940
583.881506	0.133751
584.092939	0.133546
584.304353	0.133797
584.515749	0.133680
584.727127	0.133385
584.938486	0.133755
585.149828	0.133843
585.361151	0.133777
585.572456	0.133632
585.783742	0.133713
585.995011	0.134185
586.206261	0.134466
586.417493	0.134477
586.628706	0.134740
586.839902	0.134684
587.051079	0.134787
587.262238	0.134938
587.473379	0.135126
587.684502	0.135399
587.895606	0.135194
588.106692	0.134928
588.317760	0.135232
588.528810	0.135318
588.739841	0.135586
588.950855	0.135441
589.161850	0.135658
589.372827	0.136002
589.583785	0.135568
589.794726	0.135283
590.005648	0.135499
590.216552	0.135456
590.427437	0.135386
590.638305	0.135494
590.849154	0.135795
591.059985	0.135858
591.270798	0.135586
591.481592	0.135945
591.692369	0.136056
591.903127	0.136275
592.113867	0.136659
592.324588	0.136834
592.535292	0.137016
592.745977	0.137332
592.956644	0.137146
593.167293	0.137421
593.377923	0.137791
593.588536	0.138075
593.799130	0.137974
594.009706	0.138024
594.220263	0.138433
594.430803	0.138565
594.641324	0.138600
594.851827	0.138739
595.062312	0.138949
595.272778	0.139048
595.483227	0.139242
595.693657	0.139226
595.904069	0.139158
596.114462	0.139072
596.324838	0.138691
596.535195	0.138749
596.745534	0.139244
596.955855	0.139368
597.166157	0.139119
597.376441	0.139113
597.586707	0.139306
597.796955	0.139362
598.007185	0.139245
598.217396	0.139585
598.427589	0.139505
598.637764	0.139440
598.847921	0.139262
599.058060	0.139657
599.268180	0.139774
599.478282	0.139768
599.688366	0.139802
599.898431	0.139831
600.108479	0.139742
600.318508	0.139695
600.528519	0.139574
600.738511	0.139661
600.948486	0.139648
601.158442	0.139895
601.368380	0.139899
601.578300	0.139937
601.788202	0.140132
601.998085	0.140176
602.207950	0.140428
602.417797	0.140448
602.627626	0.140282
602.837436	0.139927
603.047228	0.139762
603.257002	0.140063
603.466758	0.140391
603.676496	0.140533
603.886215	0.140625
604.095916	0.140697
604.305599	0.140972
604.515264	0.141307
604.724910	0.141585
604.934538	0.141729
605.144148	0.141629
605.353740	0.141418
605.563314	0.141565
605.772869	0.141702
605.982406	0.141754
606.191925	0.141499
606.401425	0.141567
606.610908	0.141587
606.820372	0.141668
607.029818	0.141682
607.239246	0.141902
607.448655	0.142056
607.658047	0.142303
607.867420	0.142328
608.076775	0.142628
608.286111	0.142375
608.495430	0.142592
608.704730	0.142887
608.914012	0.143288
609.123275	0.143454
609.332521	0.143219
609.541748	0.143329
609.750957	0.143455
609.960148	0.143484
610.169321	0.143868
610.378475	0.144145
610.587611	0.143879
610.796729	0.143704
611.005829	0.143683
611.214910	0.143900
611.423974	0.143753
611.633019	0.143865
611.842045	0.143799
612.051054	0.143917
612.260044	0.143863
612.469017	0.144093
612.677970	0.144393
612.886906	0.144495
613.095824	0.144239
613.304723	0.144489
613.513604	0.144609
613.722467	0.144890
613.931311	0.144873
614.140138	0.144812
614.348946	0.144951
614.557736	0.144686
614.766507	0.144615
614.975261	0.144956
615.183996	0.145032
615.392713	0.145025
615.601412	0.145246
615.810092	0.145597
616.018754	0.145978
616.227399	0.145851
616.436024	0.146062
616.644632	0.146267
616.853222	0.146461
617.061793	0.146657
617.270346	0.146637
617.478880	0.146717
617.687397	0.146329
617.895895	0.146051
618.104375	0.146184
618.312837	0.146289
618.521281	0.146490
618.729706	0.146383
618.938113	0.146102
619.146502	0.146230
619.354873	0.145915
619.563226	0.146417
619.771560	0.146644
619.979876	0.146774
620.188174	0.146836
620.396453	0.146557
620.604715	0.146821
620.812958	0.147122
621.021183	0.147150
621.229390	0.147252
621.437578	0.147314
621.645748	0.147414
621.853900	0.147408
622.062034	0.147465
622.270150	0.147939
622.478247	0.148099
622.686326	0.148241
622.894387	0.148269
623.102430	0.148439
623.310454	0.148315
623.518461	0.148332
623.726449	0.148265
623.934418	0.148332
624.142370	0.148379
624.350303	0.148215
624.558218	0.147968
624.766115	0.148100
624.973994	0.148216
625.181855	0.148089
625.389697	0.147969
625.597521	0.148282
625.805327	0.148457
626.013114	0.148374
626.220883	0.148470
626.428634	0.148568
626.636367	0.148535
626.844082	0.148347
627.051778	0.148408
627.259457	0.148400
627.467117	0.148546
627.674758	0.148607
627.882382	0.148809
628.089987	0.148977
628.297574	0.148719
628.505143	0.148823
628.712694	0.149187
628.920226	0.149688
629.127740	0.150189
629.335236	0.150066
629.542714	0.149858
629.750174	0.149792
629.957615	0.149674
630.165038	0.150206
630.372443	0.150239
630.579829	0.150403
630.787198	0.150234
630.994548	0.150205
631.201880	0.150319
631.409194	0.150442
631.616489	0.150628
631.823766	0.150879
632.031025	0.150958
632.238266	0.151232
632.445489	0.151066
632.652693	0.151112
632.859879	0.151212
633.067047	0.151110
633.274197	0.151308
633.481329	0.151375
633.688442	0.151230
633.895537	0.151370
634.102614	0.151622
634.309672	0.151908
634.516713	0.152072
634.723735	0.152298
634.930739	0.152607
635.137724	0.152741
635.344692	0.152793
635.551641	0.152978
635.758572	0.153002
635.965485	0.152895
636.172379	0.152917
636.379256	0.152787
636.586114	0.152561
636.792954	0.152785
636.999775	0.152890
637.206579	0.152985
637.413364	0.153233
637.620131	0.153411
637.826880	0.153522
638.033610	0.153781
638.240323	0.154239
638.447017	0.154487
638.653692	0.154333
638.860350	0.154427
639.066990	0.154370
639.273611	0.154462
639.480214	0.154611
639.686798	0.154588
639.893365	0.154602
640.099913	0.154588
640.306443	0.154600
640.512955	0.154556
640.719449	0.154480
640.925924	0.154634
641.132381	0.154592
641.338820	0.154660
641.545241	0.154695
641.751644	0.154806
641.958028	0.154931
642.164394	0.154980
642.370742	0.155396
642.577071	0.155703
642.783383	0.155816
642.989676	0.155947
643.195951	0.155689
643.402207	0.155748
643.608446	0.155622
643.814666	0.155619
644.020868	0.155901
644.227052	0.155879
644.433218	0.155720
644.639365	0.155801
644.845494	0.156024
645.051605	0.156414
645.257698	0.156617
645.463772	0.156704
645.669828	0.156881
645.875866	0.156767
646.081886	0.156829
646.287888	0.156940
646.493871	0.156884
646.699836	0.156769
646.905783	0.156615
647.111712	0.156465
647.317622	0.156876
647.523514	0.156982
647.729388	0.157010
647.935244	0.157044
648.141082	0.157182
648.346901	0.157339
648.552702	0.157462
648.758485	0.157640
648.964250	0.158056
649.169996	0.158009
649.375724	0.157958
649.581434	0.158242
649.787126	0.158591
649.992800	0.158756
650.198455	0.158834
650.404092	0.158941
650.609711	0.159125
650.815311	0.159072
651.020894	0.159210
651.226458	0.159464
651.432004	0.159351
651.637532	0.159451
651.843041	0.159440
652.048532	0.159667
652.254006	0.159877
652.459460	0.159950
652.664897	0.160126
652.870315	0.160091
653.075716	0.160087
653.281097	0.160305
653.486461	0.159995
653.691807	0.160232
653.897134	0.160212
654.102443	0.160241
654.307734	0.160227
654.513006	0.160020
654.718261	0.160271
654.923497	0.160059
655.128715	0.159958
655.333915	0.160138
655.539096	0.160241
655.744259	0.160364
655.949404	0.160329
656.154531	0.160527
656.359640	0.160801
656.564730	0.160892
656.769802	0.161303
656.974856	0.161701
657.179892	0.162080
657.384909	0.162098
657.589908	0.162489
657.794889	0.162827
657.999852	0.163033
658.204797	0.163265
658.409723	0.163365
658.614631	0.163517
658.819521	0.163648
659.024393	0.163706
659.229246	0.163899
659.434081	0.163608
659.638898	0.163656
659.843697	0.163575
660.048478	0.163774
660.253240	0.163867
660.457984	0.163658
660.662710	0.163526
660.867417	0.163385
661.072107	0.163438
661.276778	0.163829
661.481431	0.163844
661.686066	0.163916
661.890682	0.163869
662.095281	0.163801
662.299861	0.164074
662.504422	0.164265
662.708966	0.164497
662.913491	0.164502
663.117999	0.164564
663.322488	0.164647
663.526958	0.164877
663.731411	0.164974
663.935845	0.165229
664.140261	0.165642
664.344659	0.165753
664.549038	0.165933
664.753400	0.166375
664.957743	0.166327
665.162068	0.166672
665.366375	0.166981
665.570663	0.167139
665.774933	0.167182
665.979185	0.166960
666.183419	0.167281
666.387635	0.167481
666.591832	0.167169
666.796011	0.167311
667.000172	0.167314
667.204315	0.167221
667.408439	0.167112
667.612545	0.167245
667.816634	0.167577
668.020703	0.167445
668.224755	0.167357
668.428788	0.167762
668.632803	0.167934
668.836800	0.168030
669.040779	0.168114
669.244739	0.168454
669.448681	0.168572
669.652605	0.168498
669.856511	0.168712
670.060399	0.168868
670.264268	0.168881
670.468119	0.168784
670.671952	0.168701
670.875767	0.168776
671.079563	0.168788
671.283341	0.168797
671.487101	0.168966
671.690843	0.169092
671.894567	0.169178
672.098272	0.169212
672.301959	0.169371
672.505628	0.169620
672.709278	0.169698
672.912911	0.170011
673.116525	0.170225
673.320121	0.170432
673.523699	0.170500
673.727258	0.170707
673.930799	0.170747
674.134322	0.171010
674.337827	0.170945
674.541314	0.171197
674.744782	0.171131
674.948232	0.170998
675.151664	0.171070
675.355078	0.171182
675.558474	0.171222
675.761851	0.171509
675.965210	0.171592
676.168551	0.171896
676.371873	0.171932
676.575178	0.172034
676.778464	0.172207
676.981732	0.172406
677.184981	0.172431
677.388213	0.172460
677.591426	0.172514
677.794621	0.172775
677.997798	0.172831
678.200956	0.172961
678.404097	0.173176
678.607219	0.173357
678.810323	0.173454
679.013408	0.173649
679.216476	0.173879
679.419525	0.174014
679.622556	0.173904
679.825569	0.173999
680.028563	0.174120
680.231540	0.174176
680.434498	0.174316
680.637438	0.174363
680.840359	0.174277
681.043263	0.174227
681.246148	0.174135
681.449015	0.174206
681.651864	0.174224
681.854694	0.174338
682.057506	0.174303
682.260301	0.174462
682.463076	0.174413
682.665834	0.174583
682.868573	0.174736
683.071295	0.174881
683.273998	0.175260
683.476682	0.175273
683.679349	0.175303
683.881997	0.175775
684.084627	0.175711
684.287239	0.175623
684.489833	0.175652
684.692408	0.175780
684.894965	0.175938
685.097504	0.175743
685.300025	0.175860
685.502527	0.175774
685.705012	0.175835
685.907478	0.175889
686.109925	0.176135
686.312355	0.176177
686.514766	0.176144
686.717159	0.176196
686.919534	0.176204
687.121891	0.176496
687.324230	0.176697
687.526550	0.176661
687.728852	0.176724
687.931136	0.176822
688.133401	0.177051
688.335649	0.177084
688.537878	0.177100
688.740089	0.177419
688.942281	0.177205
689.144456	0.177468
689.346612	0.177041
689.548750	0.177409
689.750870	0.177505
689.952971	0.177399
690.155055	0.177692
690.357120	0.177906
690.559167	0.177831
690.761195	0.178160
690.963206	0.178117
691.165198	0.178721
691.367172	0.178654
691.569128	0.178710
691.771065	0.179118
691.972984	0.179295
692.174885	0.179467
692.376768	0.179645
692.578633	0.179797
692.780479	0.180155
692.982308	0.179954
693.184118	0.180043
693.385909	0.180191
693.587683	0.180200
693.789438	0.180078
693.991175	0.180000
694.192894	0.180067
694.394595	0.180026
694.596277	0.179698
694.797941	0.180035
694.999587	0.179990
695.201215	0.180201
695.402824	0.180261
695.604416	0.180366
695.805989	0.180510
696.007543	0.180482
696.209080	0.180451
696.410598	0.180620
696.612099	0.180595
696.813580	0.180838
697.015044	0.180980
697.216490	0.181174
697.417917	0.181264
697.619326	0.181461
697.820717	0.181513
698.022089	0.181707
698.223444	0.181851
698.424780	0.181993
698.626098	0.182027
698.827397	0.181966
699.028679	0.181886
699.229942	0.181835
699.431187	0.181667
699.632414	0.182022
699.833622	0.182006
700.034813	0.181886
700.235985	0.181866
700.437139	0.182034
700.638274	0.182092
700.839392	0.182185
701.040491	0.182433
701.241572	0.182479
701.442635	0.182331
701.643679	0.182690
701.844706	0.182842
702.045714	0.182966
702.246704	0.182899
702.447675	0.182836
702.648629	0.182988
702.849564	0.182867
703.050481	0.182987
703.251380	0.183024
703.452260	0.182646
703.653122	0.182769
703.853966	0.182598
704.054792	0.182539
704.255600	0.182500
704.456389	0.182237
704.657160	0.182259
704.857913	0.182273
705.058648	0.182256
705.259365	0.182153
705.460063	0.182054
705.660743	0.182296
705.861405	0.182247
706.062048	0.182435
706.262674	0.182622
706.463281	0.182608
706.663870	0.182533
706.864441	0.182438
707.064993	0.182669
707.265527	0.182692
707.466043	0.182691
707.666541	0.182858
707.867021	0.182892
708.067482	0.182985
708.267925	0.183199
708.468350	0.183340
708.668757	0.183533
708.869145	0.183550
709.069516	0.183629
709.269868	0.183582
709.470201	0.183557
709.670517	0.183566
709.870814	0.183501
710.071093	0.183357
710.271354	0.183298
710.471597	0.183228
710.671821	0.183334
710.872028	0.183243
711.072216	0.183254
711.272385	0.183241
711.472537	0.183037
711.672670	0.182931
711.872785	0.183160
712.072882	0.183121
712.272961	0.183123
712.473021	0.182996
712.673063	0.182902
712.873087	0.182865
713.073093	0.182779
713.273081	0.182747
713.473050	0.182824
713.673001	0.182716
713.872934	0.182708
714.072849	0.182941
714.272745	0.183092
714.472623	0.183257
714.672483	0.183106
714.872325	0.183085
715.072148	0.183254
715.271954	0.183127
715.471741	0.183239
715.671509	0.183377
715.871260	0.183038
716.070992	0.182935
716.270707	0.182816
716.470403	0.182824
716.670080	0.182987
716.869740	0.182931
717.069381	0.183019
717.269004	0.182676
717.468609	0.182557
717.668195	0.182503
717.867764	0.182712
718.067314	0.182835
718.266846	0.183019
718.466360	0.182909
718.665855	0.182844
718.865332	0.182759
719.064791	0.182786
719.264232	0.182571
719.463655	0.182724
719.663059	0.182507
719.862445	0.182383
720.061813	0.182174
720.261163	0.182174
720.460494	0.182121
720.659807	0.181942
720.859102	0.181860
721.058379	0.181989
721.257638	0.181980
721.456878	0.182001
721.656100	0.181838
721.855304	0.182049
722.054490	0.181883
722.253657	0.181765
722.452806	0.182004
722.651937	0.182002
722.851050	0.181996
723.050145	0.181917
723.249221	0.181521
723.448279	0.181577
723.647319	0.181157
723.846340	0.181131
724.045344	0.181092
724.244329	0.180673
724.443296	0.180596
724.642245	0.180424
724.841175	0.180180
725.040088	0.180416
725.238982	0.180381
725.437857	0.180563
725.636715	0.180529
725.835554	0.180481
726.034376	0.180515
726.233179	0.180450
726.431963	0.180554
726.630730	0.180675
726.829478	0.180597
727.028208	0.180575
727.226920	0.180440
727.425614	0.180476
727.624289	0.180349
727.822946	0.180572
728.021585	0.180480
728.220206	0.180229
728.418808	0.180010
728.617392	0.179836
728.815958	0.179802
729.014506	0.179632
729.213036	0.179471
729.411547	0.179523
729.610040	0.179238
729.808515	0.179329
730.006972	0.179156
730.205410	0.179300
730.403831	0.179210
730.602233	0.179027
730.800616	0.178937
730.998982	0.178628
731.197329	0.178471
731.395658	0.178407
731.593969	0.178203
731.792262	0.178287
731.990536	0.178032
732.188793	0.178003
732.387031	0.177971
732.585250	0.177933
732.783452	0.178054
732.981635	0.178073
733.179800	0.178040
733.377947	0.177989
733.576076	0.177792
733.774186	0.177769
733.972278	0.177824
734.170352	0.177838
734.368408	0.177683
734.566446	0.177762
734.764465	0.177622
734.962466	0.177429
735.160449	0.177473
735.358413	0.177650
735.556360	0.177562
735.754288	0.177099
735.952198	0.176984
736.150090	0.176921
736.347963	0.176668
736.545818	0.176536
736.743655	0.176710
736.941474	0.176571
737.139275	0.176447
737.337057	0.176287
737.534821	0.176570
737.732567	0.176354
737.930295	0.176272
738.128005	0.176106
738.325696	0.176064
738.523369	0.175612
738.721024	0.175441
738.918660	0.175082
739.116279	0.174786
739.313879	0.174451
739.511461	0.174230
739.709024	0.174148
739.906570	0.174081
740.104097	0.173979
740.301606	0.173951
740.499097	0.173782
740.696569	0.173933
740.894024	0.173930
741.091460	0.173744
741.288878	0.173813
741.486277	0.173956
741.683659	0.173935
741.881022	0.173960
742.078367	0.173922
742.275694	0.173831
742.473002	0.173764
742.670293	0.174047
742.867565	0.174113
743.064819	0.173923
743.262054	0.173721
743.459272	0.173583
743.656471	0.173322
743.853652	0.173348
744.050815	0.173130
744.247959	0.172882
744.445085	0.172463
744.642194	0.172632
744.839283	0.172571
745.036355	0.172371
745.233408	0.172252
745.430444	0.172218
745.627461	0.172013
745.824459	0.172077
746.021440	0.171963
746.218402	0.171837
746.415346	0.171493
746.612272	0.171591
746.809180	0.171483
747.006069	0.171443
747.202940	0.171292
747.399793	0.171217
747.596628	0.171059
747.793444	0.170893
747.990243	0.171055
748.187023	0.170727
748.383784	0.170399
748.580528	0.170188
748.777253	0.169984
748.973960	0.169851
749.170649	0.169486
749.367320	0.169383
749.563973	0.169158
749.760607	0.168982
749.957223	0.169140
750.153821	0.169067
750.350400	0.168961
750.546962	0.168590
750.743505	0.168535
750.940030	0.168725
751.136536	0.168620
751.333025	0.168784
751.529495	0.168641
751.725947	0.168496
751.922381	0.168320
752.118796	0.168406
752.315194	0.168588
752.511573	0.168511
752.707934	0.168460
752.904276	0.168689
753.100601	0.168705
753.296907	0.168656
753.493195	0.168616
753.689465	0.168661
753.885716	0.168563
754.081949	0.168606
754.278164	0.168614
754.474361	0.168515
754.670540	0.168301
754.866700	0.167998
755.062843	0.167946
755.258967	0.167854
755.455072	0.167784
755.651160	0.167950
755.847229	0.167893
756.043280	0.167642
756.239313	0.167482
756.435328	0.167347
756.631324	0.167279
756.827302	0.167000
757.023262	0.166623
757.219204	0.166251
757.415127	0.165915
757.611033	0.165689
757.806920	0.165812
758.002788	0.165878
758.198639	0.165656
758.394471	0.165553
758.590286	0.165539
758.786081	0.165825
758.981859	0.165917
759.177619	0.165786
759.373360	0.165871
759.569083	0.165813
759.764788	0.165575
759.960474	0.165769
760.156143	0.165925
760.351793	0.165893
760.547425	0.165651
760.743038	0.165580
760.938634	0.165534
761.134211	0.165473
761.329770	0.165141
761.525311	0.165093
761.720833	0.164916
761.916338	0.164737
762.111824	0.164803
762.307292	0.164765
762.502741	0.164954
762.698173	0.165012
762.893586	0.164775
763.088981	0.164805
763.284358	0.164925
763.479716	0.164862
763.675057	0.164683
763.870379	0.164507
764.065683	0.164398
764.260968	0.164179
764.456236	0.163873
764.651485	0.163735
764.846716	0.163599
765.041929	0.163338
765.237123	0.163211
765.432299	0.163061
765.627457	0.163094
765.822597	0.163276
766.017719	0.162971
766.212822	0.162916
766.407907	0.162958
766.602974	0.162871
766.798023	0.163086
766.993054	0.163107
767.188066	0.163283
767.383060	0.163234
767.578036	0.162921
767.772993	0.163311
767.967933	0.163372
768.162854	0.163372
768.357757	0.163413
768.552642	0.163011
768.747508	0.162941
768.942356	0.162933
769.137186	0.162782
769.331998	0.162969
769.526792	0.162644
769.721567	0.162595
769.916324	0.162676
770.111063	0.162829
770.305784	0.162890
770.500486	0.162776
770.695171	0.162855
770.889837	0.162922
771.084484	0.162813
771.279114	0.162940
771.473725	0.163100
771.668318	0.163120
771.862893	0.163096
772.057450	0.163165
772.251988	0.163238
772.446509	0.162912
772.641011	0.162844
772.835494	0.162800
773.029960	0.162686
773.224407	0.162564
773.418836	0.162383
773.613247	0.162284
773.807640	0.162180
774.002014	0.162117
774.196370	0.162295
774.390708	0.162422
774.585028	0.162533
774.779330	0.162438
774.973613	0.162454
775.167878	0.162635
775.362125	0.162669
775.556354	0.162771
775.750564	0.162633
775.944756	0.162557
776.138930	0.162444
776.333086	0.162228
776.527223	0.162297
776.721343	0.162239
776.915444	0.162386
777.109526	0.162394
777.303591	0.162313
777.497637	0.162715
777.691666	0.162573
777.885676	0.162513
778.079667	0.162600
778.273641	0.162804
778.467596	0.162900
778.661533	0.162616
778.855452	0.162467
779.049352	0.162708
779.243235	0.162324
779.437099	0.162647
779.630945	0.162731
779.824773	0.162758
780.018582	0.162464
780.212373	0.162456
780.406146	0.162670
780.599901	0.162814
780.793638	0.162456
780.987356	0.162791
781.181056	0.162715
781.374738	0.162788
781.568402	0.162868
781.762047	0.163076
781.955674	0.163245
782.149283	0.163233
782.342874	0.163091
782.536447	0.163314
782.730001	0.163171
782.923537	0.163015
783.117055	0.162787
783.310555	0.162846
783.504036	0.162936
783.697499	0.162816
783.890944	0.162738
784.084371	0.162746
784.277780	0.162626
784.471170	0.162398
784.664542	0.162668
784.857896	0.162826
785.051231	0.162805
785.244549	0.162663
785.437848	0.162558
785.631129	0.162515
785.824392	0.162639
786.017636	0.162828
786.210863	0.163163
786.404071	0.163068
786.597260	0.163284
786.790432	0.163495
786.983585	0.163773
787.176721	0.164079
787.369838	0.164093
787.562936	0.164138
787.756017	0.164300
787.949079	0.164313
788.142123	0.164401
788.335149	0.164291
788.528156	0.164167
788.721146	0.164103
788.914117	0.164111
789.107070	0.164383
789.300005	0.164393
789.492921	0.164324
789.685819	0.164506
789.878699	0.164580
790.071561	0.164768
790.264405	0.164664
790.457230	0.164853
790.650037	0.164537
790.842826	0.164415
791.035597	0.164656
791.228349	0.164753
791.421084	0.164660
791.613800	0.164706
791.806497	0.164904
791.999177	0.165199
792.191838	0.165226
792.384481	0.165754
792.577106	0.165879
792.769713	0.165942
792.962301	0.166016
793.154871	0.165952
793.347423	0.166124
793.539957	0.165930
793.732473	0.166104
793.924970	0.166078
794.117449	0.166274
794.309910	0.166486
794.502353	0.166641
794.694777	0.166862
794.887183	0.167318
795.079571	0.167286
795.271941	0.167365
795.464293	0.167227
795.656626	0.167503
795.848941	0.167622
796.041238	0.167680
796.233516	0.167771
796.425777	0.168139
796.618019	0.168201
796.810243	0.168441
797.002449	0.168564
797.194636	0.168849
797.386805	0.168948
797.578956	0.168771
797.771089	0.168814
797.963204	0.168711
798.155300	0.168575
798.347378	0.168528
798.539438	0.168751
798.731480	0.169075
798.923503	0.169178
799.115509	0.169245
799.307496	0.169268
799.499465	0.169495
799.691415	0.169797
799.883348	0.169883
800.075262	0.170292
800.267158	0.170389
800.459035	0.170366
800.650895	0.170414
800.842736	0.170544
801.034559	0.170692
801.226364	0.170818
801.418150	0.171094
801.609919	0.171129
801.801669	0.171079
801.993401	0.171336
802.185114	0.171472
802.376810	0.171680
802.568487	0.171883
802.760146	0.172223
802.951787	0.172410
803.143409	0.172750
803.335014	0.172987
803.526600	0.172987
803.718168	0.172910
803.909717	0.173161
804.101249	0.173543
804.292762	0.173862
804.484257	0.174023
804.675734	0.173954
804.867192	0.173860
805.058632	0.174111
805.250054	0.174590
805.441458	0.174979
805.632844	0.174928
805.824211	0.174873
806.015561	0.174814
806.206891	0.175021
806.398204	0.175118
806.589499	0.175170
806.780775	0.175247
806.972033	0.175329
807.163273	0.175293
807.354495	0.175406
807.545698	0.175587
807.736883	0.175736
807.928050	0.175906
808.119199	0.176311
808.310329	0.176571
808.501441	0.176857
808.692535	0.177083
808.883611	0.177401
809.074669	0.177946
809.265708	0.178290
809.456729	0.178675
809.647732	0.178744
809.838717	0.178771
810.029683	0.179054
810.220632	0.179040
810.411562	0.179204
810.602474	0.179165
810.793367	0.179211
810.984242	0.179346
811.175100	0.179345
811.365938	0.179505
811.556759	0.179843
811.747562	0.179784
811.938346	0.179989
812.129112	0.180373
812.319860	0.180904
812.510589	0.181049
812.701300	0.181080
812.891994	0.181254
813.082668	0.181646
813.273325	0.181872
813.463964	0.182534
813.654584	0.182767
813.845186	0.182749
814.035769	0.182731
814.226335	0.182828
814.416882	0.183197
814.607411	0.183349
814.797922	0.183282
814.988415	0.183389
815.178889	0.183297
815.369345	0.183624
815.559783	0.183644
815.750203	0.183685
815.940605	0.183899
816.130988	0.184157
816.321353	0.184376
816.511700	0.184865
816.702028	0.185056
816.892339	0.185234
817.082631	0.185540
817.272905	0.185705
817.463161	0.185953
817.653398	0.186410
817.843617	0.186430
818.033819	0.186640
818.224001	0.186735
818.414166	0.187287
818.604312	0.187496
818.794440	0.187395
818.984550	0.187731
819.174642	0.188067
819.364716	0.188138
819.554771	0.188352
819.744808	0.188561
819.934827	0.188674
820.124827	0.188805
820.314810	0.189138
820.504774	0.189316
820.694720	0.189558
820.884647	0.189767
821.074557	0.190040
821.264448	0.190292
821.454321	0.190569
821.644176	0.190859
821.834012	0.190806
822.023831	0.190789
822.213631	0.191075
822.403413	0.191094
822.593176	0.191046
822.782922	0.191298
822.972649	0.191409
823.162358	0.191660
823.352049	0.191741
823.541721	0.191916
823.731376	0.192167
823.921012	0.192256
824.110629	0.192586
824.300229	0.192997
824.489811	0.193193
824.679374	0.193337
824.868919	0.193426
825.058445	0.193885
825.247954	0.194192
825.437444	0.194388
825.626916	0.194653
825.816370	0.194889
826.005806	0.195229
826.195223	0.195577
826.384622	0.195890
826.574003	0.195936
826.763366	0.196149
826.952711	0.196457
827.142037	0.196515
827.331345	0.196881
827.520635	0.197493
827.709906	0.197758
827.899160	0.197848
828.088395	0.198239
828.277612	0.198544
828.466810	0.198551
828.655991	0.198858
828.845153	0.199105
829.034297	0.199461
829.223423	0.199516
829.412531	0.199649
829.601620	0.200020
829.790691	0.200201
829.979744	0.200659
830.168779	0.201044
830.357795	0.201013
830.546793	0.201343
830.735773	0.201556
830.924735	0.201617
831.113679	0.202072
831.302604	0.202228
831.491511	0.202507
831.680400	0.202507
831.869271	0.202615
832.058123	0.202710
832.246957	0.202814
832.435773	0.202855
832.624571	0.202960
832.813351	0.202998
833.002112	0.203211
833.190855	0.203481
833.379580	0.203961
833.568287	0.204227
833.756975	0.204995
833.945645	0.205443
834.134297	0.205766
834.322931	0.206161
834.511547	0.206433
834.700144	0.206615
834.888723	0.206674
835.077284	0.206646
835.265826	0.206956
835.454351	0.206838
835.642857	0.207204
835.831345	0.207363
836.019815	0.207646
836.208266	0.207819
836.396699	0.208013
836.585114	0.208265
836.773511	0.208859
836.961890	0.209152
837.150250	0.209434
837.338592	0.209873
837.526916	0.210132
837.715222	0.210390
837.903510	0.210884
838.091779	0.211298
838.280030	0.211668
838.468263	0.211599
838.656477	0.211852
838.844674	0.212236
839.032852	0.212211
839.221012	0.212458
839.409153	0.212563
839.597277	0.212708
839.785382	0.212797
839.973469	0.213082
840.161538	0.213654
840.349589	0.213930
840.537621	0.214373
840.725635	0.214698
840.913631	0.215018
841.101609	0.215380
841.289568	0.215603
841.477509	0.216050
841.665432	0.216422
841.853337	0.216897
842.041224	0.217239
842.229092	0.217454
842.416942	0.217481
842.604774	0.217693
842.792588	0.217799
842.980383	0.217926
843.168160	0.218270
843.355919	0.218563
843.543660	0.218312
843.731382	0.218490
843.919087	0.218899
844.106773	0.219400
844.294441	0.219848
844.482090	0.220348
844.669722	0.220900
844.857335	0.220807
845.044930	0.221041
845.232507	0.221645
845.420065	0.221658
845.607605	0.221851
845.795127	0.222149
845.982631	0.222440
846.170117	0.223035
846.357584	0.223164
846.545033	0.223798
846.732464	0.223899
846.919877	0.223943
847.107272	0.224483
847.294648	0.224489
847.482006	0.224723
847.669346	0.224959
847.856667	0.224896
848.043971	0.225135
848.231256	0.225182
848.418523	0.225329
848.605771	0.225771
848.793002	0.226079
848.980214	0.226154
849.167408	0.226725
849.354584	0.226911
849.541742	0.227199
849.728881	0.227586
849.916002	0.227857
850.103105	0.228103
850.290190	0.228176
850.477256	0.228011
850.664304	0.228515
850.851334	0.228467
851.038346	0.228775
851.225340	0.229268
851.412315	0.229297
851.599272	0.229691
851.786211	0.229868
851.973132	0.230469
852.160034	0.231105
852.346918	0.231552
852.533784	0.231814
852.720632	0.232150
852.907462	0.232095
853.094273	0.232671
853.281066	0.233014
853.467841	0.233414
853.654598	0.233240
853.841336	0.233401
854.028056	0.233551
854.214758	0.233835
854.401442	0.234155
854.588107	0.234286
854.774755	0.234186
854.961384	0.234313
855.147995	0.234506
855.334587	0.235014
855.521162	0.235353
855.707718	0.235318
855.894256	0.235487
856.080775	0.235366
856.267277	0.235990
856.453760	0.236336
856.640225	0.236467
856.826672	0.237012
857.013101	0.237128
857.199511	0.237226
857.385903	0.237667
857.572277	0.238091
857.758633	0.238378
857.944970	0.238495
858.131290	0.238980
858.317591	0.239302
858.503873	0.239394
858.690138	0.239884
858.876384	0.239977
859.062612	0.240480
859.248822	0.240653
859.435014	0.240979
859.621188	0.240797
859.807343	0.240781
859.993480	0.241120
860.179599	0.241395
860.365699	0.241446
860.551781	0.242007
860.737846	0.242184
860.923891	0.242395
861.109919	0.242890
861.295929	0.243864
861.481920	0.244102
861.667893	0.244518
861.853848	0.245082
862.039784	0.245377
862.225702	0.245760
862.411603	0.245677
862.597484	0.245658
862.783348	0.245657
862.969193	0.245746
863.155021	0.246385
863.340830	0.246763
863.526620	0.246457
863.712393	0.246610
863.898147	0.246429
864.083883	0.246926
864.269601	0.247415
864.455301	0.247532
864.640982	0.247654
864.826645	0.247555
865.012290	0.247317
865.197917	0.247756
865.383526	0.248093
865.569116	0.248691
865.754688	0.248988
865.940242	0.249289
866.125777	0.249768
866.311295	0.249788
866.496794	0.249955
866.682275	0.250138
866.867737	0.250413
867.053182	0.250640
867.238608	0.250685
867.424016	0.250781
867.609406	0.250827
867.794778	0.250826
867.980131	0.251168
868.165466	0.251566
868.350783	0.252035
868.536082	0.251898
868.721362	0.252338
868.906625	0.252623
869.091869	0.252873
869.277094	0.253028
869.462302	0.253368
869.647491	0.253353
869.832662	0.253225
870.017815	0.252953
870.202950	0.253630
870.388066	0.253344
870.573165	0.253446
870.758245	0.253231
870.943306	0.253523
871.128350	0.253704
871.313375	0.254028
871.498382	0.254407
871.683371	0.254714
871.868342	0.254708
872.053294	0.255097
872.238229	0.255198
872.423144	0.255509
872.608042	0.255664
872.792922	0.256006
872.977783	0.256043
873.162626	0.256163
873.347451	0.256470
873.532258	0.256464
873.717046	0.256527
873.901816	0.256672
874.086568	0.256660
874.271302	0.256859
874.456017	0.257248
874.640715	0.257526
874.825394	0.257713
875.010055	0.257433
875.194697	0.257580
875.379322	0.257893
875.563928	0.258132
875.748516	0.258456
875.933085	0.258421
876.117637	0.257803
876.302170	0.257679
876.486685	0.257261
876.671182	0.257529
876.855661	0.257766
877.040121	0.257707
877.224563	0.257742
877.408987	0.257576
877.593393	0.257762
877.777780	0.258017
877.962150	0.258584
878.146501	0.259277
878.330833	0.259171
878.515148	0.259003
878.699444	0.259261
878.883722	0.259458
879.067982	0.260058
879.252224	0.260329
879.436447	0.260477
879.620653	0.260519
879.804840	0.260329
879.989008	0.260772
880.173159	0.261244
880.357291	0.261129
880.541405	0.261090
880.725501	0.260793
880.909579	0.260504
881.093638	0.260786
881.277680	0.260910
881.461703	0.261182
881.645707	0.261175
881.829694	0.261405
882.013662	0.261514
882.197612	0.262011
882.381544	0.262327
882.565458	0.262546
882.749353	0.262509
882.933230	0.262578
883.117089	0.262578
883.300930	0.262584
883.484753	0.262111
883.668557	0.261982
883.852343	0.261658
884.036111	0.261601
884.219861	0.261693
884.403592	0.261675
884.587305	0.261190
884.771000	0.261179
884.954677	0.261254
885.138335	0.261603
885.321976	0.261889
885.505598	0.261587
885.689201	0.261244
885.872787	0.260981
886.056354	0.261146
886.239904	0.261347
886.423434	0.260996
886.606947	0.261070
886.790442	0.261249
886.973918	0.260934
887.157376	0.261416
887.340816	0.262102
887.524237	0.262175
887.707641	0.262151
887.891026	0.262210
888.074393	0.262560
888.257741	0.262237
888.441072	0.262301
888.624384	0.262604
888.807678	0.262079
888.990954	0.261737
889.174211	0.262282
889.357451	0.262383
889.540672	0.262177
889.723875	0.262077
889.907059	0.262299
890.090226	0.262232
890.273374	0.262175
890.456504	0.262450
890.639616	0.262578
890.822709	0.262266
891.005785	0.262125
891.188842	0.262491
891.371881	0.262797
891.554901	0.262969
891.737904	0.262234
891.920888	0.262214
892.103854	0.262378
892.286802	0.262279
892.469731	0.262281
892.652643	0.262325
892.835536	0.261964
893.018410	0.261789
893.201267	0.261581
893.384106	0.261760
893.566926	0.261511
893.749728	0.261372
893.932511	0.261244
894.115277	0.261431
894.298024	0.260785
894.480753	0.260894
894.663464	0.260815
894.846157	0.260884
895.028831	0.260831
895.211487	0.261160
895.394125	0.261093
895.576745	0.261249
895.759346	0.260356
895.941930	0.260151
896.124495	0.260001
896.307041	0.259672
896.489570	0.259465
896.672080	0.259290
896.854573	0.259366
897.037046	0.259521
897.219502	0.259470
897.401940	0.259573
897.584359	0.260157
897.766760	0.260076
897.949143	0.260265
898.131507	0.260236
898.313854	0.260390
898.496182	0.259624
898.678492	0.259052
898.860783	0.258955
899.043057	0.258970
899.225312	0.258911
899.407549	0.258428
899.589768	0.257575
899.771968	0.257923
899.954151	0.257693
900.136315	0.258060
900.318461	0.258019
900.500588	0.257084
900.682698	0.257220
900.864789	0.257159
901.046862	0.257663
901.228917	0.258369
901.410953	0.257647
901.592971	0.257371
901.774972	0.256782
901.956953	0.256669
902.138917	0.257044
902.320862	0.256836
902.502790	0.256378
902.684699	0.255474
902.866589	0.255020
903.048462	0.255128
903.230316	0.255112
903.412152	0.255426
903.593970	0.255225
903.775770	0.255108
903.957551	0.254880
904.139314	0.254733
904.321059	0.254925
904.502786	0.254879
904.684494	0.254562
904.866185	0.254532
905.047857	0.254037
905.229510	0.254041
905.411146	0.253698
905.592763	0.253274
905.774363	0.252919
905.955943	0.252664
906.137506	0.252786
906.319051	0.252062
906.500577	0.251932
906.682085	0.251636
906.863575	0.250967
907.045046	0.250506
907.226500	0.249970
907.407935	0.250022
907.589352	0.249483
907.770750	0.248928
907.952131	0.249394
908.133493	0.248487
908.314837	0.247845
908.496163	0.247899
908.677470	0.247711
908.858760	0.247698
909.040031	0.247166
909.221284	0.247107
909.402518	0.246716
909.583735	0.245670
909.764933	0.245783
909.946113	0.245890
910.127275	0.245402
910.308418	0.245075
910.489544	0.244647
910.670651	0.244259
910.851740	0.244110
911.032810	0.243967
911.213863	0.243865
911.394897	0.243264
911.575913	0.242936
911.756911	0.242648
911.937890	0.242515
912.118851	0.242333
912.299794	0.242007
912.480719	0.241826
912.661626	0.241404
912.842514	0.241015
913.023384	0.240539
913.204236	0.240195
913.385070	0.240056
913.565886	0.239718
913.746683	0.239262
913.927462	0.239362
914.108223	0.238636
914.288965	0.237952
914.469690	0.237757
914.650396	0.237632
914.831084	0.237459
915.011754	0.237230
915.192405	0.236906
915.373038	0.237074
915.553653	0.236516
915.734250	0.236043
915.914829	0.236086
916.095389	0.235773
916.275931	0.235337
916.456455	0.234591
916.636961	0.234108
916.817448	0.233836
916.997917	0.233207
917.178368	0.232854
917.358801	0.232578
917.539216	0.232044
917.719612	0.232265
917.899990	0.232048
918.080350	0.231951
918.260692	0.231264
918.441015	0.230553
918.621320	0.230316
918.801607	0.230042
918.981876	0.229905
919.162127	0.229016
919.342359	0.228760
919.522573	0.228347
919.702769	0.227953
919.882947	0.227665
920.063106	0.227403
920.243247	0.226579
920.423370	0.225531
920.603475	0.225014
920.783562	0.225147
920.963630	0.223702
921.143680	0.223201
921.323712	0.222910
921.503725	0.222683
921.683721	0.221910
921.863698	0.220825
922.043657	0.221085
922.223598	0.220566
922.403520	0.220290
922.583424	0.220459
922.763311	0.219843
922.943178	0.219292
923.123028	0.218505
923.302859	0.217873
923.482673	0.218215
923.662467	0.217268
923.842244	0.217332
924.022003	0.216685
924.201743	0.216048
924.381465	0.215500
924.561169	0.215039
924.740854	0.214166
924.920522	0.214707
925.100171	0.214421
925.279802	0.213937
925.459414	0.212595
925.639009	0.212373
925.818585	0.211972
925.998143	0.211492
926.177683	0.210909
926.357205	0.210741
926.536708	0.210077
926.716193	0.209833
926.895660	0.208674
927.075109	0.208230
927.254539	0.207346
927.433951	0.206614
927.613345	0.206186
927.792721	0.205509
927.972079	0.205240
928.151418	0.204053
928.330739	0.202580
928.510042	0.202881
928.689327	0.202523
928.868593	0.202377
929.047841	0.201808
929.227071	0.201754
929.406283	0.201066
929.585476	0.199881
929.764652	0.199404
929.943809	0.199413
930.122948	0.198156
930.302068	0.197985
930.481171	0.196957
930.660255	0.195929
930.839321	0.195092
931.018369	0.195516
931.197398	0.195068
931.376409	0.194422
931.555402	0.193765
931.734377	0.193508
931.913334	0.192120
932.092272	0.191106
932.271192	0.190640
932.450094	0.189961
932.628978	0.188705
932.807844	0.188278
932.986691	0.187850
933.165520	0.186895
933.344331	0.187460
933.523123	0.187890
933.701898	0.187769
933.880654	0.187807
934.059392	0.187585
934.238111	0.186863
934.416813	0.186199
934.595496	0.185530
934.774161	0.185484
934.952808	0.183959
935.131437	0.182912
935.310047	0.182629
935.488639	0.181223
935.667213	0.180653
935.845769	0.179739
936.024306	0.179861
936.202825	0.179541
936.381326	0.178575
936.559809	0.178070
936.738274	0.177688
936.916720	0.176675
937.095148	0.176867
937.273558	0.175857
937.451950	0.175400
937.630323	0.174446
937.808678	0.173860
937.987015	0.173941
938.165334	0.173018
938.343635	0.171577
938.521917	0.170891
938.700181	0.169784
938.878427	0.168374
939.056655	0.167327
939.234864	0.166058
939.413055	0.164913
939.591228	0.162807
939.769383	0.162440
939.947519	0.162322
940.125638	0.161105
940.303738	0.160631
940.481820	0.160251
940.659883	0.159847
940.837929	0.159690
941.015956	0.159784
941.193965	0.160678
941.371955	0.160176
941.549928	0.159920
941.727882	0.159313
941.905818	0.158580
942.083736	0.158369
942.261636	0.157136
942.439517	0.156545
942.617380	0.155863
942.795225	0.154927
942.973052	0.153039
943.150860	0.152153
943.328651	0.152068
943.506423	0.150878
943.684176	0.150280
943.861912	0.150421
944.039629	0.150806
944.217328	0.149758
944.395009	0.148564
944.572672	0.148368
944.750317	0.146713
944.927943	0.145471
945.105551	0.144722
945.283141	0.144117
945.460712	0.143364
945.638265	0.141831
945.815801	0.140813
945.993317	0.141067
946.170816	0.140342
946.348297	0.139388
946.525759	0.139268
946.703203	0.138749
946.880629	0.137871
947.058036	0.136696
947.235425	0.134962
947.412797	0.134777
947.590149	0.133786
947.767484	0.133432
947.944800	0.134058
948.122099	0.133415
948.299379	0.132365
948.476640	0.133105
948.653884	0.132915
948.831109	0.132494
949.008316	0.131685
949.185505	0.130210
949.362676	0.130639
949.539828	0.128940
949.716962	0.128399
949.894078	0.128738
950.071176	0.126792
950.248256	0.124861
950.425317	0.124746
950.602360	0.123126
950.779385	0.122416
950.956391	0.120708
951.133380	0.120368
951.310350	0.120748
951.487302	0.119729
951.664235	0.118696
951.841151	0.119966
952.018048	0.118777
952.194927	0.118633
952.371788	0.117577
952.548631	0.116727
952.725455	0.117073
952.902261	0.117098
953.079049	0.118166
953.255819	0.116699
953.432570	0.115671
953.609303	0.116075
953.786018	0.115550
953.962715	0.113690
954.139394	0.113644
954.316054	0.111619
954.492696	0.109255
954.669320	0.108346
954.845926	0.110366
955.022513	0.110535
955.199083	0.109411
955.375634	0.109650
955.552166	0.111697
955.728681	0.109855
955.905177	0.110255
956.081655	0.108596
956.258115	0.108096
956.434557	0.106329
956.610980	0.105654
956.787385	0.105033
956.963772	0.103549
957.140141	0.102182
957.316492	0.102737
957.492824	0.102362
957.669138	0.101555
957.845434	0.099350
958.021712	0.098871
958.197971	0.098663
958.374212	0.100101
958.550435	0.100573
958.726640	0.100327
958.902826	0.100737
959.078995	0.099213
959.255145	0.098521
959.431277	0.099132
959.607390	0.097752
959.783486	0.097060
959.959563	0.096280
960.135622	0.096512
960.311662	0.095958
960.487685	0.094324
960.663689	0.092630
960.839675	0.093930
961.015643	0.092393
961.191593	0.093331
961.367524	0.093033
961.543437	0.091297
961.719332	0.089892
961.895209	0.089796
962.071067	0.088073
962.246907	0.090943
962.422730	0.090886
962.598533	0.090054
962.774319	0.088894
962.950086	0.088226
963.125835	0.087189
963.301566	0.085332
963.477279	0.083937
963.652973	0.087000
963.828650	0.087008
964.004308	0.087427
964.179947	0.088726
964.355569	0.088863
964.531172	0.089215
964.706757	0.089086
964.882324	0.090506
965.057873	0.090824
965.233403	0.089465
965.408916	0.087171
965.584410	0.084723
965.759885	0.082495
965.935343	0.081884
966.110782	0.078142
966.286203	0.080244
966.461606	0.079798
966.636991	0.080158
966.812357	0.080576
966.987705	0.080944
967.163035	0.080622
967.338347	0.083042
967.513641	0.085117
967.688916	0.088543
967.864173	0.088437
968.039412	0.089156
968.214632	0.087475
968.389835	0.086379
968.565019	0.085486
968.740185	0.086013
968.915333	0.086047
969.090462	0.082556
969.265573	0.079849
969.440667	0.077793
969.615741	0.076641
969.790798	0.077219
969.965836	0.077823
970.140856	0.079713
970.315858	0.079131
970.490842	0.079432
970.665808	0.080690
970.840755	0.082414
971.015684	0.081491
971.190595	0.081860
971.365487	0.081690
971.540362	0.083467
971.715218	0.083720
971.890056	0.084218
972.064875	0.083747
972.239677	0.083929
972.414460	0.083514
972.589225	0.082422
972.763972	0.083035
972.938700	0.085308
973.113411	0.083240
973.288103	0.083638
973.462777	0.083850
973.637432	0.083766
973.812070	0.083905
973.986689	0.083314
974.161290	0.086632
974.335873	0.086775
974.510437	0.086674
974.684984	0.085052
974.859512	0.084226
975.034022	0.086332
975.208513	0.084390
975.382987	0.084581
975.557442	0.085374
975.731879	0.083737
975.906298	0.083973
976.080698	0.083199
976.255080	0.085670
976.429445	0.086889
976.603790	0.085345
976.778118	0.089256
976.952427	0.087756
977.126719	0.086812
977.300992	0.087463
977.475246	0.086152
977.649483	0.085573
977.823701	0.083900
977.997901	0.083672
978.172083	0.082174
978.346247	0.079575
978.520392	0.082496
978.694519	0.083740
978.868628	0.083430
979.042719	0.083224
979.216791	0.082915
979.390845	0.084417
979.564882	0.082420
979.738899	0.083264
979.912899	0.082150
980.086880	0.082810
980.260843	0.084271
980.434788	0.084482
980.608715	0.086689
980.782623	0.088090
980.956514	0.086537
981.130386	0.085761
981.304240	0.086965
981.478075	0.089550
981.651892	0.087880
981.825692	0.086392
981.999472	0.086873
982.173235	0.085945
982.346980	0.086982
982.520706	0.087328
982.694414	0.088802
982.868104	0.089516
983.041775	0.090174
983.215428	0.087901
983.389064	0.088586
983.562680	0.088085
983.736279	0.087928
983.909860	0.086659
984.083422	0.086752
984.256966	0.084946
984.430491	0.084141
984.603999	0.083085
984.777488	0.083713
984.950959	0.083043
985.124412	0.082220
985.297847	0.081581
985.471263	0.082028
985.644661	0.082022
985.818041	0.084608
985.991403	0.084632
986.164747	0.084486
986.338072	0.086557
986.511379	0.087818
986.684668	0.090746
986.857938	0.091783
987.031191	0.090929
987.204425	0.091093
987.377641	0.089777
987.550839	0.087373
987.724018	0.086769
987.897179	0.086300
988.070322	0.084592
988.243447	0.082901
988.416554	0.082060
988.589642	0.082458
988.762712	0.081057
988.935764	0.081863
989.108798	0.082534
989.281813	0.082896
989.454811	0.082049
989.627790	0.082454
989.800751	0.080351
989.973693	0.080428
990.146617	0.080326
990.319524	0.082037
990.492412	0.083012
990.665281	0.084403
990.838133	0.082996
991.010966	0.082961
991.183781	0.084788
991.356578	0.087190
991.529356	0.086993
991.702117	0.088278
991.874859	0.088019
992.047583	0.087640
992.220288	0.087426
992.392976	0.089067
992.565645	0.089738
992.738296	0.088322
992.910929	0.088350
993.083543	0.089678
993.256139	0.089074
993.428718	0.089357
993.601277	0.089955
993.773819	0.091393
993.946342	0.090036
994.118848	0.088722
994.291335	0.088010
994.463803	0.087365
994.636254	0.086878
994.808686	0.086288
994.981100	0.088137
995.153496	0.086850
995.325874	0.085649
995.498233	0.086284
995.670574	0.088747
995.842897	0.088904
996.015202	0.089408
996.187488	0.089195
996.359757	0.088832
996.532007	0.085423
996.704239	0.085702
996.876452	0.084493
997.048648	0.084832
997.220825	0.084369
997.392984	0.086301
997.565124	0.085450
997.737247	0.084423
997.909351	0.084762
998.081437	0.085918
998.253505	0.086753
998.425554	0.086917
998.597586	0.086183
998.769599	0.085210
998.941594	0.083225
999.113571	0.084050
999.285529	0.086073
999.457469	0.085084
999.629391	0.085977
999.801295	0.085707
999.973181	0.086548
1000.145048	0.087172
1000.316897	0.087898
1000.488728	0.089440
1000.660541	0.089889
1000.832335	0.088135
1001.004111	0.089549
1001.175869	0.088921
1001.347609	0.087235
1001.519331	0.087132
1001.691034	0.088124
1001.862719	0.087776
1002.034386	0.086646
1002.206035	0.085335
1002.377665	0.086650
1002.549277	0.086376
1002.720871	0.087021
1002.892447	0.088854
1003.064004	0.088730
1003.235544	0.087068
1003.407065	0.087079
1003.578568	0.087158
1003.750052	0.088470
1003.921519	0.088253
1004.092967	0.087369
1004.264397	0.087473
1004.435809	0.087016
1004.607202	0.087137
1004.778577	0.087495
1004.949934	0.087884
1005.121273	0.088424
1005.292594	0.087605
1005.463896	0.087102
1005.635180	0.087344
1005.806446	0.086375
1005.977694	0.086118
1006.148923	0.086830
1006.320135	0.087075
1006.491328	0.086399
1006.662503	0.085671
1006.833659	0.086105
1007.004798	0.086811
1007.175918	0.087243
1007.347020	0.086637
1007.518103	0.087674
1007.689169	0.087195
1007.860216	0.087865
1008.031245	0.087347
1008.202256	0.087679
1008.373248	0.086742
1008.544223	0.086420
1008.715179	0.086395
1008.886117	0.086834
1009.057036	0.085791
1009.227938	0.086581
1009.398821	0.085604
1009.569686	0.087487
1009.740533	0.087838
1009.911361	0.088081
1010.082172	0.086811
1010.252964	0.088004
1010.423738	0.088905
1010.594493	0.087241
1010.765231	0.084657
1010.935950	0.086692
1011.106651	0.085553
1011.277334	0.087764
1011.447998	0.087728
1011.618645	0.089759
1011.789273	0.088105
1011.959882	0.089122
1012.130474	0.090709
1012.301048	0.092300
1012.471603	0.090786
1012.642140	0.091572
1012.812658	0.089326
1012.983159	0.088430
1013.153641	0.088072
1013.324105	0.088487
1013.494551	0.087717
1013.664979	0.088341
1013.835388	0.087762
1014.005779	0.086979
1014.176152	0.085661
1014.346507	0.084533
1014.516843	0.086292
1014.687162	0.085715
1014.857462	0.085880
1015.027744	0.084338
1015.198007	0.084251
1015.368252	0.084445
1015.538480	0.085811
1015.708689	0.084713
1015.878879	0.086723
1016.049052	0.087079
1016.219206	0.087129
1016.389342	0.087727
1016.559460	0.088893
1016.729559	0.087725
1016.899641	0.087636
1017.069704	0.086385
1017.239749	0.086743
1017.409775	0.086417
1017.579784	0.085768
1017.749774	0.087633
1017.919746	0.086509
1018.089700	0.085195
1018.259635	0.085015
1018.429553	0.084424
1018.599452	0.083679
1018.769333	0.084607
1018.939195	0.083274
1019.109040	0.083138
1019.278866	0.082514
1019.448674	0.084191
1019.618464	0.084717
1019.788235	0.085059
1019.957989	0.085674
1020.127724	0.087285
1020.297441	0.087940
1020.467139	0.088567
1020.636820	0.088657
1020.806482	0.086279
1020.976126	0.084069
1021.145752	0.084305
1021.315359	0.085739
1021.484948	0.087405
1021.654519	0.086988
1021.824072	0.087168
1021.993607	0.086809
1022.163123	0.086953
1022.332621	0.088031
1022.502101	0.089684
1022.671563	0.089097
1022.841007	0.087445
1023.010432	0.086641
1023.179839	0.085837
1023.349228	0.084226
1023.518598	0.084892
1023.687951	0.084785
1023.857285	0.084008
1024.026601	0.082341
1024.195899	0.084170
1024.365178	0.083595
1024.534439	0.084338
1024.703682	0.085452
1024.872907	0.085691
1025.042114	0.084059
1025.211302	0.084617
1025.380472	0.085507
1025.549624	0.086128
1025.718758	0.083880
1025.887873	0.085812
1026.056970	0.085305
1026.226049	0.085474
1026.395110	0.086049
1026.564153	0.086451
1026.733177	0.085497
1026.902183	0.084236
1027.071171	0.084286
1027.240141	0.084954
1027.409092	0.083594
1027.578026	0.082268
1027.746940	0.082651
1027.915837	0.082957
1028.084716	0.083301
1028.253576	0.081814
1028.422418	0.084589
1028.591242	0.084769
1028.760048	0.084844
1028.928835	0.084985
1029.097604	0.085568
1029.266355	0.083931
1029.435088	0.083974
1029.603803	0.084841
1029.772499	0.087018
1029.941177	0.084070
1030.109837	0.085408
1030.278478	0.085813
1030.447102	0.086401
1030.615707	0.086309
1030.784294	0.086255
1030.952863	0.085812
1031.121413	0.085683
1031.289945	0.087387
1031.458460	0.088021
1031.626955	0.086633
1031.795433	0.086053
1031.963892	0.085674
1032.132334	0.085175
1032.300756	0.085967
1032.469161	0.085928
1032.637548	0.085256
1032.805916	0.084905
1032.974266	0.086238
1033.142598	0.085647
1033.310911	0.086457
1033.479207	0.088318
1033.647484	0.088308
1033.815743	0.089862
1033.983983	0.091057
1034.152206	0.091587
1034.320410	0.090751
1034.488596	0.089588
1034.656764	0.088938
1034.824914	0.089557
1034.993045	0.087318
1035.161158	0.088142
1035.329253	0.085659
1035.497330	0.084626
1035.665388	0.083489
1035.833428	0.083150
1036.001450	0.083736
1036.169454	0.085085
1036.337440	0.085325
1036.505407	0.085192
1036.673356	0.084121
1036.841287	0.084185
1037.009200	0.084282
1037.177094	0.085676
1037.344970	0.085983
1037.512828	0.085468
1037.680668	0.085365
1037.848489	0.083778
1038.016293	0.084201
1038.184078	0.084650
1038.351845	0.085399
1038.519593	0.084455
1038.687324	0.083079
1038.855036	0.082922
1039.022730	0.083499
1039.190406	0.082363
1039.358063	0.084250
1039.525702	0.084750
1039.693323	0.083911
1039.860926	0.084286
1040.028511	0.084651
1040.196077	0.085758
1040.363625	0.085208
1040.531155	0.085762
1040.698667	0.087214
1040.866161	0.085672
1041.033636	0.086699
1041.201093	0.087902
1041.368532	0.087436
1041.535952	0.088533
1041.703355	0.086447
1041.870739	0.086200
1042.038105	0.085289
1042.205452	0.085566
1042.372782	0.083742
1042.540093	0.082672
1042.707386	0.082661
1042.874661	0.082884
1043.041918	0.083110
1043.209156	0.084677
1043.376376	0.085409
1043.543578	0.085429
1043.710762	0.085384
1043.877927	0.086584
1044.045074	0.084941
1044.212203	0.085511
1044.379314	0.086723
1044.546407	0.086806
1044.713481	0.086557
1044.880537	0.084344
1045.047575	0.083105
1045.214595	0.080051
1045.381596	0.082610
1045.548579	0.082782
1045.715544	0.082997
1045.882491	0.082417
1046.049420	0.082271
1046.216330	0.083011
1046.383222	0.085141
1046.550096	0.087107
1046.716951	0.088246
1046.883789	0.085637
1047.050608	0.086619
1047.217409	0.086453
1047.384192	0.086871
1047.550956	0.088496
1047.717703	0.088799
1047.884431	0.086866
1048.051140	0.085999
1048.217832	0.087623
1048.384505	0.088250
1048.551161	0.086840
1048.717798	0.087568
1048.884416	0.086750
1049.051017	0.084436
1049.217599	0.082794
1049.384163	0.085805
1049.550709	0.085630
1049.717237	0.087177
1049.883746	0.088001
1050.050237	0.089526
1050.216710	0.088511
1050.383165	0.088680
1050.549601	0.089692
1050.716019	0.089395
1050.882420	0.088019
1051.048801	0.089003
1051.215165	0.088608
1051.381510	0.089564
1051.547837	0.089922
1051.714146	0.090923
1051.880437	0.091280
1052.046709	0.090295
1052.212964	0.092762
1052.379200	0.093639
1052.545417	0.094151
1052.711617	0.093159
1052.877798	0.092421
1053.043961	0.092006
1053.210106	0.091841
1053.376233	0.090839
1053.542341	0.091261
1053.708432	0.089790
1053.874504	0.088111
1054.040557	0.086915
1054.206593	0.088335
1054.372610	0.087699
1054.538609	0.087510
1054.704590	0.086250
1054.870553	0.087493
1055.036497	0.088135
1055.202424	0.089893
1055.368331	0.091033
1055.534221	0.090429
1055.700093	0.088920
1055.865946	0.090332
1056.031781	0.090356
1056.197598	0.090893
1056.363397	0.090198
1056.529177	0.090105
1056.694939	0.088555
1056.860683	0.087964
1057.026409	0.090347
1057.192116	0.088649
1057.357806	0.087838
1057.523477	0.089528
1057.689130	0.088951
1057.854764	0.091909
1058.020381	0.089970
1058.185979	0.092899
1058.351559	0.093759
1058.517120	0.094124
1058.682664	0.096013
1058.848189	0.096178
1059.013696	0.095045
1059.179185	0.095752
1059.344656	0.092217
1059.510108	0.095324
1059.675542	0.091698
1059.840958	0.091134
1060.006356	0.090154
1060.171735	0.091293
1060.337096	0.090762
1060.502439	0.091742
1060.667764	0.092661
1060.833071	0.092656
1060.998359	0.092841
1061.163629	0.094669
1061.328881	0.094589
1061.494115	0.093909
1061.659330	0.092128
1061.824527	0.092119
1061.989706	0.092939
1062.154867	0.090928
1062.320010	0.090652
1062.485134	0.087018
1062.650240	0.086110
1062.815328	0.084741
1062.980398	0.084615
1063.145449	0.084344
1063.310482	0.083868
1063.475497	0.081993
1063.640494	0.081475
1063.805473	0.083390
1063.970433	0.085998
1064.135375	0.085879
1064.300299	0.086708
1064.465204	0.088835
1064.630092	0.089761
1064.794961	0.091322
1064.959812	0.090166
1065.124645	0.093007
1065.289459	0.092668
1065.454256	0.095173
1065.619034	0.095705
1065.783793	0.096248
1065.948535	0.093920
1066.113258	0.095214
1066.277964	0.094320
1066.442651	0.096773
1066.607319	0.095574
1066.771970	0.095612
1066.936602	0.091767
1067.101216	0.092982
1067.265812	0.092439
1067.430389	0.094518
1067.594949	0.093245
1067.759490	0.094004
1067.924013	0.092663
1068.088518	0.093888
1068.253004	0.093286
1068.417472	0.094241
1068.581922	0.092504
1068.746354	0.096143
1068.910768	0.093721
1069.075163	0.094731
1069.239540	0.092589
1069.403899	0.093180
1069.568240	0.091902
1069.732562	0.090021
1069.896866	0.090314
1070.061152	0.092468
1070.225420	0.088853
1070.389670	0.087414
1070.553901	0.087781
1070.718114	0.089985
1070.882309	0.090379
1071.046486	0.090979
1071.210644	0.094040
1071.374784	0.093973
1071.538906	0.091839
1071.703010	0.092174
1071.867096	0.094476
1072.031163	0.095006
1072.195212	0.095552
1072.359243	0.093651
1072.523256	0.093999
1072.687250	0.091211
1072.851226	0.090653
1073.015184	0.090772
1073.179124	0.090685
1073.343045	0.090537
1073.506949	0.087703
1073.670834	0.085203
1073.834701	0.086638
1073.998549	0.084109
1074.162380	0.086661
1074.326192	0.088058
1074.489986	0.088717
1074.653761	0.088149
1074.817519	0.086497
1074.981258	0.089412
1075.144979	0.089020
1075.308682	0.089846
1075.472367	0.091874
1075.636033	0.090673
1075.799681	0.090596
1075.963311	0.092108
1076.126923	0.094362
1076.290516	0.096356
1076.454092	0.095612
1076.617649	0.098814
1076.781187	0.097570
1076.944708	0.099584
1077.108210	0.097405
1077.271695	0.095848
1077.435160	0.094263
1077.598608	0.092561
1077.762038	0.093926
1077.925449	0.092249
1078.088842	0.091144
1078.252217	0.090098
1078.415573	0.089872
1078.578912	0.093231
1078.742232	0.092597
1078.905534	0.094496
1079.068817	0.096448
1079.232083	0.094691
1079.395330	0.096596
1079.558559	0.096273
1079.721770	0.098303
1079.884962	0.095046
1080.048136	0.094984
1080.211293	0.096838
1080.374430	0.095403
1080.537550	0.094664
1080.700651	0.097067
1080.863735	0.095837
1081.026800	0.098094
1081.189846	0.094886
1081.352875	0.094782
1081.515885	0.096058
1081.678877	0.096751
1081.841851	0.096110
1082.004807	0.095570
1082.167744	0.093703
1082.330663	0.092795
1082.493564	0.092558
1082.656447	0.095063
1082.819312	0.097722
1082.982158	0.095252
1083.144986	0.095674
1083.307796	0.096262
1083.470587	0.098206
1083.633361	0.098650
1083.796116	0.101300
1083.958853	0.099734
1084.121571	0.099234
1084.284272	0.100069
1084.446954	0.102749
1084.609618	0.101529
1084.772264	0.102905
1084.934892	0.100773
1085.097501	0.101488
1085.260092	0.098775
1085.422665	0.100494
1085.585220	0.102086
1085.747756	0.102454
1085.910274	0.102177
1086.072774	0.102276
1086.235256	0.100312
1086.397720	0.102540
1086.560165	0.102354
1086.722592	0.105836
1086.885001	0.103083
1087.047392	0.104118
1087.209764	0.101075
1087.372119	0.098437
1087.534455	0.099360
1087.696772	0.102308
1087.859072	0.101118
1088.021353	0.100346
1088.183616	0.094699
1088.345861	0.093762
1088.508088	0.091331
1088.670296	0.093190
1088.832486	0.092279
1088.994658	0.090927
1089.156812	0.088877
1089.318948	0.088074
1089.481065	0.088697
1089.643164	0.093141
1089.805245	0.097067
1089.967308	0.096906
1090.129352	0.095717
1090.291378	0.098417
1090.453386	0.098195
1090.615376	0.098184
1090.777347	0.098812
1090.939301	0.099750
1091.101236	0.096735
1091.263153	0.095991
1091.425051	0.098503
1091.586932	0.099519
1091.748794	0.095998
1091.910638	0.095660
1092.072463	0.097054
1092.234271	0.097708
1092.396060	0.097252
1092.557831	0.099871
1092.719584	0.100139
1092.881319	0.100011
1093.043035	0.099632
1093.204733	0.104096
1093.366413	0.105749
1093.528075	0.103187
1093.689718	0.103587
1093.851343	0.104594
1094.012950	0.103050
1094.174539	0.101701
1094.336110	0.104665
1094.497662	0.105090
1094.659196	0.104627
1094.820712	0.106060
1094.982210	0.108441
1095.143689	0.108266
1095.305151	0.110155
1095.466594	0.113971
1095.628018	0.113724
1095.789425	0.110782
1095.950813	0.110461
1096.112183	0.112742
1096.273535	0.111452
1096.434869	0.109172
1096.596184	0.109738
1096.757482	0.104366
1096.918761	0.105329
1097.080021	0.103036
1097.241264	0.106042
1097.402488	0.107322
1097.563694	0.103533
1097.724882	0.105790
1097.886052	0.110425
1098.047203	0.109062
1098.208336	0.109535
1098.369451	0.102436
1098.530548	0.105253
1098.691627	0.095968
1098.852687	0.092787
1099.013729	0.094625
1099.174753	0.089128
1099.335758	0.085789
1099.496746	0.087326
1099.657715	0.090040
1099.818666	0.095175
1099.979599	0.094098
1100.140513	0.100577
1100.301409	0.104846
1100.462287	0.103611
1100.623147	0.105982
1100.783989	0.106759
1100.944812	0.102642
1101.105617	0.102964
1101.266404	0.100421
1101.427173	0.102332
1101.587923	0.100608
1101.748656	0.095111
1101.909370	0.094572
1102.070066	0.095278
1102.230743	0.099249
1102.391403	0.101604
1102.552044	0.099859
1102.712667	0.099260
1102.873271	0.102288
1103.033858	0.109468
1103.194426	0.115331
1103.354976	0.118741
1103.515508	0.120906
1103.676021	0.115986
1103.836517	0.116035
1103.996994	0.115370
1104.157453	0.120227
1104.317893	0.117882
1104.478316	0.111118
1104.638720	0.114328
1104.799106	0.111179
1104.959474	0.106380
1105.119823	0.105586
1105.280155	0.103168
1105.440468	0.107292
1105.600763	0.103685
1105.761039	0.102418
1105.921298	0.101097
1106.081538	0.096184
1106.241760	0.098515
1106.401964	0.103548
1106.562149	0.105422
1106.722316	0.107433
1106.882465	0.105369
1107.042596	0.105072
1107.202709	0.105655
1107.362803	0.107367
1107.522879	0.107729
1107.682937	0.105376
1107.842977	0.103748
1108.002999	0.101601
1108.163002	0.102582
1108.322987	0.103863
1108.482954	0.107191
1108.642902	0.106371
1108.802833	0.108012
1108.962745	0.112915
1109.122639	0.110730
1109.282515	0.109675
1109.442372	0.117730
1109.602211	0.120017
1109.762032	0.119760
1109.921835	0.117288
1110.081620	0.115790
1110.241386	0.118827
1110.401134	0.116455
1110.560864	0.118563
1110.720576	0.121751
1110.880269	0.117697
1111.039945	0.112615
1111.199602	0.109983
1111.359240	0.110845
1111.518861	0.110923
1111.678463	0.110354
1111.838047	0.112620
1111.997613	0.113943
1112.157161	0.113182
1112.316690	0.112240
1112.476202	0.113333
1112.635695	0.118474
1112.795169	0.120102
1112.954626	0.122208
1113.114064	0.121246
1113.273484	0.113416
1113.432886	0.115772
1113.592270	0.113727
1113.751635	0.114708
1113.910983	0.116446
1114.070312	0.115314
1114.229622	0.113789
1114.388915	0.113035
1114.548189	0.109183
1114.707445	0.113373
1114.866683	0.110506
1115.025903	0.112804
1115.185104	0.112188
1115.344287	0.113153
1115.503452	0.114316
1115.662599	0.115843
1115.821727	0.115610
1115.980838	0.116304
1116.139930	0.119239
1116.299004	0.120879
1116.458059	0.115780
1116.617097	0.115857
1116.776116	0.117209
1116.935117	0.112909
1117.094099	0.116161
1117.253064	0.117718
1117.412010	0.119374
1117.570938	0.114882
1117.729848	0.115993
1117.888740	0.119322
1118.047613	0.115267
1118.206468	0.119196
1118.365305	0.119151
1118.524124	0.117708
1118.682924	0.116707
1118.841707	0.117385
1119.000471	0.116030
1119.159216	0.116169
1119.317944	0.114174
1119.476653	0.118380
1119.635344	0.116852
1119.794017	0.117180
1119.952672	0.115419
1120.111308	0.116290
1120.269927	0.117624
1120.428527	0.117531
1120.587108	0.123395
1120.745672	0.124006
1120.904217	0.123015
1121.062744	0.126611
1121.221253	0.123541
1121.379744	0.125382
1121.538216	0.127679
1121.696671	0.126724
1121.855107	0.129738
1122.013524	0.124013
1122.171924	0.128130
1122.330305	0.124684
1122.488668	0.115290
1122.647013	0.118721
1122.805340	0.115410
1122.963648	0.118555
1123.121938	0.117788
1123.280210	0.112295
1123.438464	0.108157
1123.596700	0.107822
1123.754917	0.116970
1123.913116	0.119960
1124.071297	0.119574
1124.229459	0.122740
1124.387604	0.120155
1124.545730	0.125228
1124.703838	0.131259
1124.861928	0.136694
1125.019999	0.132037
1125.178052	0.128298
1125.336088	0.129000
1125.494104	0.130912
1125.652103	0.128750
1125.810083	0.130867
1125.968045	0.128032
1126.125989	0.126908
1126.283915	0.125610
1126.441823	0.131323
1126.599712	0.131306
1126.757583	0.133003
1126.915436	0.127689
1127.073270	0.128747
1127.231087	0.121236
1127.388885	0.121388
1127.546665	0.123132
1127.704426	0.118880
1127.862170	0.117274
1128.019895	0.114046
1128.177602	0.108071
1128.335291	0.111536
1128.492961	0.112428
1128.650614	0.114647
1128.808248	0.111485
1128.965864	0.108676
1129.123461	0.106165
1129.281041	0.102854
1129.438602	0.103421
1129.596145	0.107514
1129.753670	0.107790
1129.911176	0.103605
1130.068665	0.103088
1130.226135	0.105712
1130.383587	0.107302
1130.541020	0.110184
1130.698436	0.112149
1130.855833	0.114118
1131.013212	0.118905
1131.170573	0.116997
1131.327915	0.118270
1131.485239	0.114628
1131.642545	0.115860
1131.799833	0.114221
1131.957103	0.121354
1132.114354	0.126898
1132.271588	0.126148
1132.428803	0.123226
1132.585999	0.122751
1132.743178	0.126611
1132.900338	0.132065
1133.057480	0.129444
1133.214604	0.131812
1133.371710	0.128081
1133.528797	0.119254
1133.685866	0.121772
1133.842917	0.121468
1133.999950	0.122965
1134.156964	0.126873
1134.313960	0.124797
1134.470938	0.123700
1134.627898	0.127357
1134.784840	0.124916
1134.941763	0.128707
1135.098668	0.128618
1135.255555	0.124942
1135.412424	0.117923
1135.569274	0.111512
1135.726107	0.116204
1135.882921	0.117987
1136.039716	0.115635
1136.196494	0.117489
1136.353253	0.126846
1136.509995	0.128458
1136.666717	0.131653
1136.823422	0.146250
1136.980109	0.148819
1137.136777	0.143845
1137.293427	0.143930
1137.450059	0.139871
1137.606672	0.145722
1137.763267	0.137726
1137.919844	0.137206
1138.076403	0.138066
1138.232944	0.133964
1138.389466	0.128654
1138.545971	0.132339
1138.702457	0.129408
1138.858924	0.133196
1139.015374	0.130767
1139.171805	0.129165
1139.328218	0.135084
1139.484613	0.128568
1139.640990	0.128197
1139.797348	0.129622
1139.953688	0.121569
1140.110010	0.125165
1140.266314	0.127866
1140.422600	0.125812
1140.578867	0.124285
1140.735116	0.123740
1140.891347	0.124241
1141.047559	0.117848
1141.203754	0.114078
1141.359930	0.117384
1141.516088	0.117509
1141.672228	0.112451
1141.828349	0.113327
1141.984452	0.117784
1142.140537	0.107386
1142.296604	0.113508
1142.452653	0.119405
1142.608683	0.124685
1142.764695	0.128598
1142.920689	0.122127
1143.076665	0.123259
1143.232622	0.116379
1143.388562	0.114361
1143.544483	0.111581
1143.700385	0.104688
1143.856270	0.094211
1144.012136	0.091075
1144.167985	0.099198
1144.323814	0.099315
1144.479626	0.097618
1144.635420	0.103779
1144.791195	0.104110
1144.946952	0.106533
1145.102691	0.107088
1145.258411	0.115524
1145.414113	0.122244
1145.569798	0.107124
1145.725463	0.114525
1145.881111	0.116392
1146.036741	0.114931
1146.192352	0.112938
1146.347945	0.110716
1146.503519	0.114465
1146.659076	0.115529
1146.814614	0.114793
1146.970134	0.121941
1147.125636	0.112144
1147.281120	0.103982
1147.436585	0.105229
1147.592032	0.110773
1147.747461	0.116521
1147.902872	0.125075
1148.058265	0.128233
1148.213639	0.127082
1148.368995	0.128681
1148.524333	0.139469
1148.679653	0.146502
1148.834954	0.140089
1148.990237	0.134988
1149.145502	0.129573
1149.300749	0.115118
1149.455977	0.109180
1149.611188	0.118350
1149.766380	0.120852
1149.921553	0.114204
1150.076709	0.115583
1150.231846	0.124167
1150.386966	0.124944
1150.542066	0.127702
1150.697149	0.129902
1150.852214	0.129291
1151.007260	0.114105
1151.162288	0.107834
1151.317298	0.109708
1151.472289	0.104600
1151.627263	0.098588
1151.782218	0.096002
1151.937155	0.102645
1152.092073	0.098521
1152.246974	0.102228
1152.401856	0.117677
1152.556720	0.118981
1152.711566	0.117440
1152.866393	0.112765
1153.021203	0.114545
1153.175994	0.111465
1153.330767	0.097422
1153.485521	0.110129
1153.640258	0.114264
1153.794976	0.101973
1153.949676	0.096488
1154.104358	0.097310
1154.259021	0.110469
1154.413667	0.115224
1154.568294	0.114639
1154.722903	0.114538
1154.877493	0.112965
1155.032066	0.114845
1155.186620	0.113791
1155.341156	0.119875
1155.495674	0.126575
1155.650173	0.127984
1155.804654	0.127041
1155.959118	0.135595
1156.113562	0.151798
1156.267989	0.155769
1156.422397	0.146443
1156.576788	0.151394
1156.731160	0.149404
1156.885513	0.152622
1157.039849	0.155222
1157.194166	0.159025
1157.348465	0.153385
1157.502746	0.146669
1157.657009	0.137622
1157.811253	0.143170
1157.965479	0.137974
1158.119687	0.134827
1158.273877	0.127570
1158.428048	0.122708
1158.582201	0.127842
1158.736337	0.129510
1158.890453	0.131604
1159.044552	0.131418
1159.198632	0.140204
1159.352694	0.153215
1159.506738	0.151791
1159.660764	0.155454
1159.814771	0.150848
1159.968761	0.139979
1160.122732	0.154415
1160.276685	0.154355
1160.430619	0.157383
1160.584535	0.145832
1160.738434	0.140554
1160.892313	0.145749
1161.046175	0.146464
1161.200019	0.144876
1161.353844	0.141811
1161.507651	0.131629
1161.661440	0.135951
1161.815210	0.138318
1161.968962	0.129731
1162.122697	0.126457
1162.276412	0.130373
1162.430110	0.123222
1162.583789	0.124947
1162.737451	0.127574
1162.891094	0.115907
1163.044718	0.120456
1163.198325	0.114292
1163.351913	0.132875
1163.505483	0.125834
1163.659035	0.119100
1163.812569	0.119301
1163.966084	0.120435
1164.119581	0.120030
1164.273060	0.130956
1164.426521	0.116489
1164.579964	0.135183
1164.733388	0.121952
1164.886794	0.123241
1165.040182	0.126554
1165.193551	0.127727
1165.346903	0.119798
1165.500236	0.121605
1165.653551	0.118472
1165.806848	0.120990
1165.960126	0.099582
1166.113386	0.093718
1166.266628	0.101545
1166.419852	0.104774
1166.573058	0.114278
1166.726245	0.123765
1166.879414	0.118699
1167.032565	0.125421
1167.185698	0.122679
1167.338812	0.133625
1167.491909	0.155960
1167.644987	0.160903
1167.798046	0.160348
1167.951088	0.135086
1168.104111	0.145095
1168.257117	0.147651
1168.410103	0.140871
1168.563072	0.137055
1168.716023	0.142421
1168.868955	0.132571
1169.021869	0.118852
1169.174765	0.114351
1169.327642	0.118710
1169.480501	0.099713
1169.633343	0.112482
1169.786165	0.119692
1169.938970	0.126807
1170.091757	0.118925
1170.244525	0.114315
1170.397275	0.115014
1170.550007	0.113263
1170.702720	0.115373
1170.855415	0.136479
1171.008092	0.121882
1171.160751	0.114023
1171.313392	0.114769
1171.466014	0.226793
1171.618619	0.121926
1171.771205	0.121926
1171.923772	0.121926
