sample name	sample
index	106
start time	 02-15-2021  11:25:20 AM
880	0.427024
Peak Time (s)	90.036
Peak Height 	0.427
calc peak height	90,93
Baseline Time (s)	11.535
Baseline Value 	-0.003459
subtract baseline	10,4
Abs	0.340491
Peak Time (s)	92.035
Peak Height 	0.3405
calc peak height	90,93
Baseline Time (s)	10.534
Baseline Value 	0.01219
subtract baseline	10,3
PK_550	0.160045
Peak Time (s)	90.036
Peak Height 	0.16
calc peak height	90,93
Baseline Time (s)	11.535
Baseline Value 	4.6254E-6
subtract baseline	10,2
PK_880	0.312248
Peak Time (s)	90.537
Peak Height 	0.3122
calc peak height	90,93
Baseline Time (s)	11.535
Baseline Value 	0.003274
subtract baseline	10,1


Time (s)	A880-A510	A880-A775	A880-A975	A880	I510	I775	I975	I880	
0.036500	0.004029	0.001534	-0.000127	0.002211	4155.885615	14959.551384	3212.818820	8602.864723
0.537000	-0.003683	-0.001749	0.000746	0.001875	4135.960224	14878.809843	3213.633703	8607.236855
1.037500	-0.004806	-0.000488	-0.002385	0.003933	4127.472494	14857.045935	3210.150479	8580.505945
1.534500	0.002891	0.001153	-0.004068	0.000778	4156.687168	14988.512743	3211.134418	8621.536343
2.038000	-0.000795	-0.001029	0.007658	-0.001493	4152.837904	14990.965880	3220.659503	8651.255522
2.538000	-0.001230	0.000718	-0.005221	-0.000768	4149.686040	15019.122796	3211.397083	8641.740209
3.038000	-0.000519	0.001640	-0.012695	0.004754	4136.722991	14892.732532	3202.816415	8569.870817
3.536000	-0.004179	0.002232	0.002248	0.002049	4134.167636	14983.205063	3214.532210	8604.968173
4.039000	-0.000630	-0.000031	-0.001647	0.000682	4147.389041	14958.563596	3212.824828	8622.787937
4.536500	-0.001001	-0.001705	-0.003649	-0.001332	4151.840298	14967.884390	3212.832643	8649.139020
5.039500	0.000256	-0.001096	0.017353	-0.000575	4153.199080	14963.830388	3226.790393	8639.224655
5.537500	-0.000590	-0.000223	-0.013327	0.000077	4149.133011	14969.900927	3205.459882	8630.688494
6.040000	0.000645	0.001849	0.007894	0.001966	4147.362756	14974.927776	3218.438514	8606.045331
6.535000	0.000119	-0.000320	0.001633	-0.000006	4151.282575	14969.515048	3215.508936	8631.779126
7.035000	-0.002849	0.001513	-0.004346	0.000522	4141.830640	15005.457426	3211.118720	8624.867832
7.535500	-0.001103	0.002803	-0.001959	0.002478	4141.265950	14987.119410	3211.408272	8599.387615
8.035500	0.000843	0.000850	-0.002567	0.001104	4150.232942	14971.167275	3211.922103	8617.279241
8.536000	0.003758	0.000807	-0.004540	0.001430	4157.272411	14961.006240	3210.382194	8613.021628
9.036000	0.001755	0.002068	0.001686	0.001871	4150.628259	14983.592773	3214.271955	8607.287057
9.537000	-0.001114	0.000627	-0.020255	0.000836	4145.662808	14972.398961	3200.457561	8620.775543
10.037000	-0.002496	-0.000229	-0.017083	-0.000813	4146.383085	14994.254184	3203.584046	8642.331591
10.534500	-0.000922	-0.000794	0.000000	-0.000003	4148.450433	14956.420825	3214.399302	8631.738066
11.035000	0.000754	-0.001107	0.009524	-0.000370	4153.991987	14957.868614	3221.172955	8636.528556
11.535000	0.000000	0.000000	0.011291	0.000000	4150.940965	14978.158659	3222.142314	8631.694722
12.037500	-0.001064	0.000981	0.006017	0.001724	4143.401878	14957.701822	3217.318207	8609.195373
12.535500	0.003538	0.000763	0.002833	0.000756	4158.509500	14978.333873	3215.806614	8621.811970
13.036000	0.000257	-0.000543	-0.000567	-0.001498	4155.711747	15004.492161	3215.028689	8651.320465
13.536000	0.001285	0.000796	0.007343	-0.000971	4157.079175	15026.920691	3220.080827	8644.411517
14.036500	0.004328	0.000523	-0.008053	0.002386	4156.219023	14926.960280	3207.412578	8600.577092
14.536000	0.000171	0.000198	0.005730	0.001984	4146.034360	14929.076665	3216.944496	8605.814040
15.036500	-0.002364	0.002660	-0.001040	0.000200	4144.005945	15046.079025	3213.558048	8629.074006
15.537500	-0.001035	0.001117	0.005584	-0.000380	4149.164880	15019.440925	3218.462854	8636.665094
16.043000	0.001427	0.002041	0.007722	0.001908	4149.635940	14981.819494	3218.360070	8606.799692
16.535000	0.000080	0.000124	-0.000163	-0.001172	4154.343379	15013.895738	3215.081209	8647.044835
17.035500	-0.001221	0.001085	0.001459	0.002541	4140.779722	14938.140671	3213.665187	8598.563194
17.536000	-0.001236	0.000393	-0.018233	0.000488	4146.271867	14975.527982	3201.990412	8625.313747
18.036000	0.001496	0.000630	-0.000026	0.001042	4152.173904	14966.804976	3213.674499	8618.084500
18.536000	-0.004269	0.001697	-0.007058	0.001701	4134.857279	14978.053647	3208.525964	8609.496571
19.036500	-0.001723	0.001520	0.002364	0.002217	4140.301596	14958.974634	3214.496836	8602.781641
19.537000	-0.002853	0.001355	0.002180	0.001935	4138.023570	14962.196087	3214.562868	8606.447598
20.037500	0.000514	0.000886	0.002870	0.001842	4147.345117	14951.859983	3215.093981	8607.660690
20.534500	-0.001234	-0.000429	0.006236	0.000205	4147.044318	14960.728064	3218.509211	8629.016853
21.035000	-0.001419	-0.000177	-0.012254	0.000626	4145.407663	14956.089274	3205.804140	8623.521844
21.537500	0.000551	0.000228	-0.009304	0.000650	4150.673270	14966.538226	3207.734148	8623.201606
22.035500	-0.007070	0.000276	0.007309	0.001014	4129.213697	14957.847136	3218.690351	8618.450793
22.536000	0.002151	0.000946	-0.000502	0.001233	4153.433770	14970.240022	3213.224687	8615.591569
23.036000	-0.000323	0.000400	-0.016623	0.000462	4148.813437	14976.442069	3203.052932	8625.653569
23.536500	0.003200	0.000273	-0.012427	0.001299	4156.108694	14949.952889	3205.248755	8614.737697
24.036000	0.000267	0.000075	0.017243	0.000785	4149.536036	14958.631876	3225.754538	8621.441949
24.537000	0.000132	0.002873	0.002321	0.002799	4143.726887	14980.179205	3214.073377	8595.211220
25.037000	0.001965	0.001215	0.005716	0.001323	4152.684392	14975.193738	3217.386872	8614.422301
25.537500	-0.001054	-0.001450	-0.009444	-0.000692	4149.961443	14957.314789	3208.530922	8640.754313
26.035500	-0.001098	-0.000638	-0.000746	0.000398	4146.890806	14949.666730	3213.623633	8626.494892
26.535500	-0.000071	0.001632	-0.003868	0.001996	4145.344766	14968.115746	3210.452891	8605.650519
27.035500	-0.001628	-0.000668	-0.005115	0.003304	4137.638678	14869.309695	3208.751516	8588.660683
27.536000	0.000924	0.001428	-0.008260	-0.001524	4157.602410	15059.733811	3209.871892	8651.663173
28.036000	-0.000399	0.000968	-0.006275	-0.000912	4152.334432	15030.052256	3210.788060	8643.637000
28.536500	-0.000560	-0.000293	-0.011878	-0.002418	4155.992337	15036.820231	3208.061124	8663.402649
29.036500	-0.005515	-0.000579	-0.004298	0.003455	4126.858297	14867.601840	3209.194048	8586.695336
29.537500	0.006041	0.001643	0.002109	-0.000819	4169.695722	15046.128501	3216.386185	8642.407936
30.034500	-0.003557	0.001196	-0.003545	0.001324	4137.772674	14974.625558	3211.118272	8614.404193
30.538000	0.000107	0.002052	-0.013849	0.002966	4143.211211	14953.035181	3203.229649	8593.047792
31.038000	0.001519	0.000791	0.011311	0.003983	4144.274480	14890.578867	3219.401108	8579.851599
31.535000	0.004931	0.001113	0.014324	-0.001473	4168.441390	15049.579423	3225.290300	8650.991443
32.035500	0.006594	0.001600	0.012526	0.000477	4167.652584	15009.122766	3222.669675	8625.459817
32.536000	0.002297	0.002434	-0.003146	-0.000126	4157.530225	15048.855529	3212.358782	8633.336553
33.039000	0.005453	0.002256	0.005618	0.004741	4152.873033	14909.919777	3214.991198	8570.039090
33.537000	-0.002359	0.002265	-0.009214	0.002278	4138.429411	14977.805702	3206.718054	8601.988687
34.039500	-0.000068	-0.000868	-0.002145	0.001188	4147.538847	14921.680982	3212.148860	8616.186380
34.537000	0.002675	0.001684	0.003819	0.002706	4150.856922	14950.031296	3215.151682	8596.417874
35.040000	-0.005316	0.002414	0.004168	0.002942	4128.750493	14963.612674	3215.227870	8593.353741
35.538000	0.001364	-0.000002	0.003876	0.000688	4152.776687	14959.180226	3216.564175	8622.711201
36.037500	-0.002461	0.001294	-0.000137	0.002181	4138.416664	14953.768139	3212.831438	8603.249003
36.535500	-0.004534	-0.000302	0.009126	0.000885	4136.332714	14945.521614	3220.029961	8620.132539
37.036000	-0.000610	0.000862	-0.011719	0.002297	4143.082353	14938.711213	3205.058147	8601.737966
37.536500	-0.001717	0.001851	-0.002546	0.003062	4138.047286	14944.866989	3210.624495	8591.799505
38.036500	-0.000232	-0.000739	-0.011184	0.001630	4145.902044	14913.106183	3205.847571	8610.426544
38.536500	-0.000568	0.000629	-0.001258	0.001369	4145.699470	14957.806706	3212.624218	8613.826887
39.037000	0.002476	-0.000222	-0.008363	0.000773	4155.570142	14950.794320	3208.275556	8621.596985
39.534500	0.000419	0.000007	0.008095	0.001086	4149.132764	14948.501274	3219.181718	8617.514832
40.034000	-0.002177	0.001626	-0.000468	0.002355	4138.711533	14958.126685	3212.491913	8600.990280
40.535500	-0.002748	0.000010	0.004816	0.001236	4140.184943	14944.445202	3216.831642	8615.560675
41.037500	-0.000810	-0.000266	-0.001306	0.001425	4144.894557	14931.701886	3212.553900	8613.097011
41.536000	0.002327	0.001535	-0.007831	0.002802	4149.652146	14943.302140	3207.284696	8595.168747
42.036000	0.001696	0.001291	0.010452	0.002951	4147.541911	14932.541851	3219.520192	8593.241330
42.536500	0.001399	0.001693	-0.002798	0.002701	4147.413696	14950.451306	3210.696999	8596.489859
43.036500	-0.000045	-0.000650	0.013612	0.000958	4148.223945	14933.960160	3223.091619	8619.185480
43.537000	0.002938	0.004340	0.002564	-0.000346	4159.881227	15107.870442	3216.373791	8636.216169
44.034000	-0.002207	0.000538	-0.003236	0.000263	4144.261190	14985.741513	3212.037814	8628.263302
44.537000	0.000692	0.002372	0.004053	0.000416	4151.688565	15032.117371	3216.869513	8626.253466
45.037000	0.003741	0.000641	-0.005171	-0.001025	4163.940378	15024.104509	3211.603098	8645.109328
45.535000	0.000498	-0.001384	-0.013030	-0.002021	4157.793374	14995.703108	3207.036543	8658.178516
46.038000	0.003138	0.002629	-0.002995	0.002567	4152.491798	14979.877409	3210.654774	8598.229299
46.536000	0.000307	0.001289	-0.010347	0.000263	4151.060731	15006.444134	3207.300103	8628.256955
47.038500	-0.001775	0.001015	-0.016158	0.002403	4139.661658	14940.001274	3202.094246	8600.363009
47.536500	0.002405	0.001139	0.006959	0.002895	4149.613113	14929.902971	3217.162009	8593.966996
48.037000	0.000818	0.001929	-0.004369	0.002431	4146.571628	14964.331112	3209.828616	8599.992867
48.537500	0.002167	0.001786	-0.000704	0.000171	4156.366458	15022.713886	3213.804928	8629.455307
49.037000	0.000041	0.001111	0.003622	0.004029	4140.171800	14898.087691	3214.121162	8579.254740
49.534500	0.004144	0.002445	0.001187	-0.000995	4164.965554	15073.266538	3215.878740	8644.724927
50.038000	0.000440	0.001530	0.013679	0.003054	4143.872098	14936.269942	3221.680108	8591.901781
50.535500	-0.050560	-0.036610	0.059693	0.262599	3545.669592	9024.263060	3104.638575	6055.090324
51.035500	-0.047365	-0.027511	0.001423	0.089824	3831.841567	12147.058883	3160.239464	7570.697704
51.536000	-0.007052	-0.010547	-0.002570	-0.149074	4606.659328	19470.902714	3332.377884	10957.245023
52.038000	0.004748	-0.010958	0.005543	-0.101038	4475.870610	17734.440471	3296.189531	10119.138419
52.536500	0.006760	-0.009440	0.007845	-0.056070	4334.322411	16333.536352	3261.020577	9414.261475
53.036500	0.013546	-0.007217	0.008425	-0.067418	4392.374180	16756.140017	3270.507568	9585.325132
53.534500	0.025451	-0.001125	0.036020	-0.078171	4468.403116	17299.386919	3302.833426	9751.589606
54.034500	0.033852	0.000566	0.032766	-0.053940	4414.870145	16577.218797	3279.376583	9382.664301
54.538000	0.047653	0.002027	0.039500	-0.012566	4326.162457	15386.791788	3251.851318	8798.403034
55.034500	0.057280	0.005477	0.064135	0.017306	4264.526451	14656.851956	3247.877709	8409.864077
55.535500	0.070561	0.011234	0.070058	0.047931	4213.954430	14009.224098	3229.766999	8038.315291
56.035500	0.084960	0.018457	0.074476	0.090540	4135.900933	13149.361304	3203.719140	7563.096481
56.536500	0.103575	0.028212	0.104614	0.121071	4104.422908	12676.203431	3203.462259	7250.136093
57.036500	0.127418	0.037812	0.141262	0.150818	4089.144628	12238.487066	3207.997329	6965.663025
57.537000	0.138155	0.049980	0.151573	0.166477	4076.564990	12164.675843	3204.476701	6823.563194
58.037000	0.166561	0.061725	0.174501	0.217178	4021.334246	11380.142448	3186.875087	6397.093587
58.534500	0.183616	0.074236	0.196612	0.244674	3996.426259	11096.595843	3183.589994	6185.801361
59.037500	0.196488	0.086994	0.213640	0.291641	3919.142645	10484.834173	3166.053673	5854.439420
59.534500	0.221012	0.099962	0.224688	0.314600	3922.558647	10315.079554	3159.406696	5705.044375
60.037500	0.228515	0.101932	0.237640	0.332321	3900.474156	10055.234144	3156.795385	5595.008536
60.535000	0.233744	0.110172	0.256638	0.345178	3884.323916	9980.842710	3160.162828	5517.945456
61.038500	0.249202	0.119696	0.267405	0.362975	3879.428527	9849.505323	3156.311833	5414.962291
61.536000	0.261376	0.122916	0.284753	0.362688	3905.818816	9904.884725	3166.091388	5416.592872
62.039500	0.258888	0.130008	0.289125	0.354211	3918.770847	10156.154877	3173.470536	5465.146315
62.537000	0.256355	0.132176	0.281355	0.352974	3915.953429	10212.320924	3169.690994	5472.311430
63.051000	0.263155	0.132875	0.275088	0.346068	3946.190215	10339.374565	3170.058164	5512.691544
63.537000	0.262187	0.133430	0.277600	0.343850	3948.996171	10386.263799	3172.792916	5525.797133
64.038000	0.273719	0.136828	0.286806	0.344730	3973.236946	10429.096962	3177.679836	5520.592101
64.535500	0.281529	0.138635	0.293429	0.346941	3986.216595	10422.210536	3180.307225	5507.551456
65.036000	0.282596	0.137867	0.283699	0.347127	3988.272778	10405.954553	3174.438689	5506.457335
65.536000	0.281801	0.141420	0.305300	0.350734	3978.034062	10405.045996	3185.188654	5485.342658
66.038500	0.275708	0.142054	0.295750	0.352001	3961.143486	10394.299752	3178.673087	5477.964392
66.536500	0.281618	0.142459	0.280784	0.354227	3969.562291	10363.447412	3168.646497	5465.058238
67.036500	0.281869	0.144296	0.306858	0.357775	3962.024093	10334.566620	3181.865622	5444.618483
67.537500	0.280043	0.144598	0.281940	0.359215	3954.611935	10315.420791	3166.464497	5436.367305
68.039500	0.278600	0.142621	0.291546	0.358824	3952.236822	10288.838410	3172.196286	5438.607140
68.537500	0.284570	0.146653	0.306605	0.365576	3950.474175	10243.439555	3177.059693	5400.261920
69.035000	0.290837	0.146770	0.309539	0.368581	3957.846163	10195.570114	3177.017914	5383.387588
69.535500	0.288377	0.146384	0.307222	0.368113	3953.338334	10196.934277	3175.927750	5386.010289
70.038000	0.283533	0.144241	0.294736	0.369869	3938.549890	10132.785910	3167.681717	5376.192724
70.536000	0.288017	0.147618	0.303438	0.373142	3941.246999	10134.480106	3170.793261	5357.998006
71.039000	0.288726	0.149599	0.308889	0.376837	3934.611987	10106.465665	3171.808150	5337.624096
71.536500	0.285540	0.149039	0.317083	0.377814	3925.436146	10081.426966	3176.021805	5332.266946
72.036500	0.287720	0.147988	0.284219	0.380890	3923.473296	10014.650595	3155.714601	5315.474917
72.537000	0.293472	0.150409	0.320405	0.380970	3935.970374	10052.455023	3176.119408	5315.039198
73.034000	0.294304	0.149201	0.310354	0.383608	3931.971599	9990.439667	3168.754238	5300.733936
73.538000	0.301485	0.157985	0.306674	0.389780	3934.203873	10032.501693	3163.182330	5267.609419
74.035000	0.291128	0.148196	0.304366	0.383400	3925.439456	9977.664965	3165.470040	5301.858470
74.535000	0.293216	0.151999	0.307172	0.387547	3920.935036	9972.159365	3164.714355	5279.538193
75.035500	0.300325	0.152206	0.327277	0.389236	3932.839854	9948.462436	3175.299791	5270.506334
75.536000	0.295240	0.150435	0.311698	0.387713	3925.000413	9944.512548	3167.179832	5278.648799
76.036500	0.293413	0.152625	0.318601	0.393387	3908.695871	9889.193755	3167.879245	5248.462196
76.536500	0.295101	0.154150	0.323963	0.391693	3916.011434	9940.288092	3171.933845	5257.433473
77.037000	0.295391	0.152599	0.305107	0.392425	3915.051132	9904.012605	3160.837970	5253.551899
77.536500	0.301013	0.154311	0.313698	0.392839	3926.419176	9924.623105	3165.409861	5251.363442
78.040000	0.301974	0.155187	0.307034	0.399337	3914.339304	9835.818384	3158.093372	5217.230353
78.535000	0.297459	0.153208	0.316140	0.394284	3915.506677	9884.236889	3165.972906	5243.730844
79.035500	0.304532	0.156819	0.329298	0.398405	3921.935211	9876.181381	3171.137519	5222.095983
79.536000	0.298857	0.151712	0.325464	0.396314	3914.135148	9828.725907	3170.133371	5233.046117
80.035500	0.307333	0.156826	0.340163	0.401723	3920.807019	9824.104823	3175.533898	5204.825915
80.535500	0.307231	0.155774	0.298006	0.402277	3919.376446	9798.998392	3151.631219	5201.956403
81.036500	0.303630	0.156869	0.323660	0.403288	3909.377559	9800.304475	3165.135026	5196.726404
81.537000	0.300059	0.155267	0.322104	0.403701	3900.825203	9768.916054	3164.027870	5194.594680
82.036500	0.301208	0.156287	0.319889	0.404480	3901.616282	9772.657749	3162.353023	5190.575789
82.537000	0.301660	0.155944	0.320671	0.404473	3902.599016	9767.448489	3162.793747	5190.613870
83.038000	0.297636	0.156195	0.322814	0.407104	3888.459305	9730.570783	3162.521235	5177.099516
83.535000	0.306194	0.155392	0.320666	0.406814	3907.303442	9722.633342	3161.487187	5178.582881
84.035500	0.305270	0.153355	0.324856	0.409656	3899.236869	9647.761289	3162.236932	5164.066332
84.535500	0.301460	0.152408	0.323380	0.405486	3900.006258	9697.143413	3163.742518	5185.401049
85.035500	0.306247	0.159727	0.328002	0.415202	3889.541152	9660.377475	3160.903485	5136.011965
85.536500	0.304282	0.154297	0.320401	0.409208	3898.084763	9669.012736	3160.015272	5166.348670
86.036000	0.299137	0.153989	0.322888	0.413655	3877.874038	9596.617916	3158.936209	5143.802969
86.536500	0.301391	0.154831	0.344489	0.413416	3883.082924	9612.998045	3171.241352	5145.006224
87.037000	0.309567	0.155127	0.326982	0.415011	3896.983251	9593.319339	3160.445323	5136.974757
87.540500	0.308014	0.154734	0.290369	0.415033	3893.636965	9587.040058	3141.021598	5136.863729
88.035000	0.304625	0.155705	0.319428	0.419234	3877.684804	9538.381829	3154.021713	5115.842575
88.535000	0.310121	0.156926	0.329569	0.418838	3890.045464	9562.699619	3159.760336	5117.814872
89.036000	0.309749	0.156077	0.338546	0.418418	3890.147394	9556.234210	3164.997608	5119.909897
89.536000	0.305322	0.155353	0.316875	0.419910	3877.727838	9522.952830	3152.290283	5112.474357
90.036000	0.309342	0.160045	0.320107	0.427024	3871.303949	9486.798103	3150.226249	5077.391200
90.536500	0.312248	0.155333	0.322706	0.422944	3885.874452	9477.408424	3153.789103	5097.445322
91.037000	0.304948	0.153781	0.321872	0.421571	3873.498870	9474.744531	3154.079189	5104.235391
91.537000	0.303703	0.154164	0.314822	0.420362	3873.422633	9498.433111	3150.956009	5110.228656
92.034500	0.308258	0.156190	0.340491	0.423057	3877.289783	9488.462086	3163.484363	5096.885492
92.535000	0.307395	0.153724	0.310109	0.422942	3875.732231	9453.545490	3147.115531	5097.451669
93.035000	0.304617	0.157467	0.330408	0.424542	3866.675860	9485.368954	3157.093286	5089.567808
93.535000	0.310666	0.157614	0.333473	0.426491	3875.154054	9458.589422	3157.702309	5080.000123
94.035000	0.307411	0.156135	0.337363	0.424309	3872.928944	9469.038631	3161.044879	5090.715744
94.536000	0.315635	0.160111	0.337858	0.429187	3879.889508	9455.649881	3158.627567	5066.839697
95.035500	0.305328	0.154877	0.350895	0.423848	3869.572035	9457.196474	3168.926513	5092.982921
95.536500	0.311027	0.153996	0.336352	0.425283	3878.420792	9422.973175	3159.946589	5085.925345
96.037000	0.314330	0.155128	0.337130	0.427712	3880.244853	9403.877591	3159.038012	5074.031283
