sample name	sample
index	565
start time	 03-16-2021  02:36:50 PM


Wavelength (nm)	Absorbance
494.344910	0.028803
494.563924	0.028803
494.782919	0.028803
495.001897	0.044494
495.220856	0.003087
495.439797	-0.009225
495.658719	-0.012032
495.877624	-0.023010
496.096510	-0.045640
496.315378	-0.047294
496.534227	-0.047850
496.753059	-0.039887
496.971872	-0.034476
497.190667	0.030471
497.409444	0.065943
497.628203	0.076576
497.846943	0.083285
498.065665	0.088640
498.284369	0.090650
498.503055	0.090807
498.721723	0.090944
498.940372	0.091638
499.159003	0.091886
499.377616	0.092083
499.596210	0.091957
499.814787	0.092937
500.033345	0.093344
500.251885	0.092688
500.470406	0.093293
500.688910	0.094239
500.907395	0.094873
501.125862	0.095384
501.344311	0.096367
501.562742	0.096843
501.781154	0.095910
501.999548	0.097173
502.217924	0.097359
502.436282	0.097945
502.654621	0.098604
502.872942	0.096949
503.091245	0.097017
503.309530	0.095933
503.527797	0.096820
503.746045	0.097432
503.964275	0.096730
504.182487	0.097677
504.400681	0.097101
504.618856	0.096983
504.837013	0.097550
505.055152	0.097572
505.273273	0.097709
505.491376	0.096472
505.709460	0.095834
505.927526	0.094165
506.145574	0.095379
506.363604	0.095040
506.581615	0.094667
506.799608	0.095574
507.017583	0.096216
507.235540	0.096406
507.453478	0.096802
507.671399	0.097148
507.889301	0.098471
508.107185	0.098153
508.325050	0.098981
508.542898	0.099706
508.760727	0.099642
508.978538	0.099939
509.196330	0.100145
509.414105	0.100271
509.631861	0.099727
509.849599	0.099548
510.067319	0.099495
510.285021	0.099050
510.502704	0.098179
510.720369	0.098053
510.938016	0.097994
511.155645	0.097710
511.373255	0.097996
511.590848	0.098759
511.808422	0.098937
512.025977	0.099094
512.243515	0.100047
512.461034	0.101149
512.678536	0.101467
512.896018	0.100959
513.113483	0.101975
513.330930	0.102278
513.548358	0.102983
513.765768	0.103430
513.983160	0.103252
514.200533	0.103884
514.417889	0.103715
514.635226	0.103968
514.852545	0.104538
515.069845	0.103528
515.287128	0.103458
515.504392	0.103315
515.721638	0.103625
515.938866	0.103414
516.156075	0.102467
516.373267	0.102045
516.590440	0.102342
516.807594	0.101796
517.024731	0.102994
517.241850	0.103148
517.458950	0.103293
517.676032	0.102820
517.893095	0.103444
518.110141	0.103774
518.327168	0.105031
518.544177	0.106186
518.761168	0.106688
518.978141	0.106673
519.195095	0.106688
519.412031	0.106775
519.628949	0.106924
519.845849	0.106605
520.062731	0.107123
520.279594	0.107404
520.496439	0.105843
520.713266	0.106325
520.930074	0.106075
521.146865	0.105348
521.363637	0.105043
521.580391	0.105731
521.797127	0.105501
522.013844	0.105910
522.230543	0.105748
522.447224	0.106305
522.663887	0.105748
522.880532	0.105534
523.097158	0.106833
523.313766	0.107411
523.530356	0.106858
523.746928	0.107413
523.963481	0.107124
524.180017	0.107737
524.396534	0.108084
524.613032	0.108717
524.829513	0.109422
525.045975	0.109354
525.262420	0.110083
525.478845	0.111061
525.695253	0.111260
525.911643	0.111145
526.128014	0.111298
526.344367	0.112081
526.560702	0.112753
526.777018	0.113379
526.993316	0.113900
527.209597	0.114302
527.425858	0.114892
527.642102	0.115492
527.858328	0.116175
528.074535	0.116172
528.290724	0.115865
528.506894	0.115499
528.723047	0.115726
528.939181	0.115547
529.155297	0.114605
529.371395	0.114329
529.587475	0.114611
529.803536	0.114412
530.019579	0.113803
530.235604	0.113723
530.451611	0.113417
530.667600	0.112549
530.883570	0.112427
531.099522	0.112694
531.315456	0.113166
531.531372	0.113065
531.747269	0.113832
531.963148	0.114670
532.179009	0.115334
532.394852	0.116472
532.610676	0.117303
532.826482	0.117956
533.042271	0.119333
533.258040	0.119082
533.473792	0.119069
533.689525	0.118621
533.905240	0.118448
534.120937	0.118407
534.336616	0.118741
534.552277	0.119058
534.767919	0.119124
534.983543	0.118792
535.199149	0.119274
535.414736	0.119794
535.630306	0.120255
535.845857	0.120573
536.061390	0.120970
536.276904	0.121100
536.492401	0.121303
536.707879	0.120925
536.923339	0.120710
537.138781	0.120954
537.354204	0.121334
537.569610	0.121655
537.784997	0.121774
538.000366	0.121684
538.215716	0.121238
538.431049	0.121665
538.646363	0.122085
538.861659	0.122774
539.076937	0.122172
539.292196	0.121789
539.507438	0.121725
539.722661	0.121820
539.937866	0.121267
540.153052	0.121426
540.368221	0.120878
540.583371	0.121105
540.798503	0.121250
541.013617	0.122190
541.228712	0.122410
541.443789	0.123028
541.658848	0.123803
541.873889	0.124839
542.088912	0.125024
542.303916	0.125466
542.518902	0.125993
542.733870	0.125942
542.948820	0.125837
543.163752	0.126179
543.378665	0.126181
543.593560	0.125848
543.808437	0.126077
544.023295	0.126589
544.238136	0.127049
544.452958	0.127112
544.667762	0.126648
544.882548	0.126607
545.097315	0.126423
545.312064	0.126919
545.526795	0.127256
545.741508	0.127198
545.956203	0.127753
546.170879	0.127779
546.385537	0.127819
546.600177	0.128189
546.814799	0.128450
547.029402	0.129118
547.243988	0.128977
547.458555	0.129277
547.673103	0.129899
547.887634	0.129910
548.102146	0.130232
548.316640	0.131114
548.531116	0.131656
548.745574	0.132033
548.960013	0.132379
549.174435	0.132327
549.388838	0.132399
549.603222	0.132108
549.817589	0.132121
550.031937	0.132110
550.246267	0.131599
550.460579	0.131687
550.674873	0.131684
550.889148	0.131569
551.103405	0.131751
551.317644	0.131895
551.531865	0.131826
551.746068	0.132055
551.960252	0.132089
552.174418	0.131971
552.388566	0.131775
552.602696	0.132009
552.816807	0.132607
553.030900	0.132547
553.244975	0.132692
553.459032	0.133207
553.673070	0.132952
553.887091	0.133104
554.101093	0.133930
554.315077	0.134229
554.529042	0.134239
554.742990	0.134150
554.956919	0.134589
555.170830	0.134736
555.384722	0.134785
555.598597	0.135220
555.812453	0.135339
556.026291	0.135308
556.240111	0.135326
556.453913	0.135684
556.667696	0.135529
556.881461	0.135871
557.095208	0.135879
557.308937	0.136350
557.522647	0.136367
557.736339	0.136329
557.950013	0.136272
558.163669	0.136509
558.377307	0.136649
558.590926	0.136697
558.804527	0.136482
559.018110	0.136652
559.231675	0.136147
559.445221	0.136406
559.658749	0.136814
559.872259	0.136901
560.085751	0.137082
560.299225	0.137333
560.512680	0.137641
560.726117	0.137983
560.939536	0.138050
561.152937	0.138296
561.366319	0.137972
561.579683	0.137914
561.793029	0.138264
562.006357	0.138483
562.219667	0.138439
562.432958	0.138447
562.646231	0.138234
562.859486	0.138677
563.072723	0.138800
563.285941	0.139339
563.499141	0.139524
563.712323	0.139443
563.925487	0.139416
564.138632	0.139210
564.351760	0.139360
564.564869	0.139024
564.777960	0.138849
564.991032	0.139063
565.204087	0.138976
565.417123	0.138917
565.630141	0.138930
565.843140	0.138785
566.056122	0.139198
566.269085	0.139196
566.482030	0.139769
566.694957	0.139867
566.907866	0.139493
567.120756	0.139372
567.333628	0.139534
567.546482	0.139883
567.759318	0.140577
567.972135	0.140649
568.184935	0.141085
568.397716	0.140950
568.610478	0.140924
568.823223	0.141678
569.035949	0.142241
569.248657	0.142490
569.461347	0.142576
569.674019	0.142803
569.886672	0.142521
570.099308	0.142070
570.311925	0.142672
570.524523	0.142396
570.737104	0.142234
570.949666	0.141762
571.162210	0.141619
571.374736	0.141353
571.587244	0.140975
571.799733	0.141489
572.012205	0.141596
572.224658	0.141584
572.437092	0.142562
572.649509	0.142529
572.861907	0.142810
573.074287	0.143080
573.286649	0.143483
573.498993	0.143944
573.711318	0.143981
573.923625	0.143960
574.135914	0.143614
574.348185	0.143526
574.560438	0.143891
574.772672	0.144493
574.984888	0.144258
575.197086	0.144417
575.409266	0.144090
575.621427	0.144303
575.833570	0.144865
576.045695	0.145257
576.257802	0.145246
576.469890	0.145432
576.681961	0.145077
576.894013	0.145355
577.106046	0.144767
577.318062	0.144949
577.530059	0.144469
577.742039	0.144536
577.954000	0.144637
578.165942	0.144447
578.377867	0.144068
578.589773	0.144412
578.801661	0.144576
579.013531	0.145172
579.225382	0.145419
579.437216	0.145377
579.649031	0.145531
579.860828	0.146148
580.072606	0.146533
580.284367	0.146858
580.496109	0.147007
580.707833	0.146993
580.919539	0.147305
581.131227	0.147031
581.342896	0.147713
581.554547	0.147681
581.766180	0.147593
581.977795	0.147610
582.189391	0.147654
582.400969	0.147593
582.612529	0.147696
582.824071	0.147350
583.035595	0.147611
583.247100	0.147271
583.458587	0.147011
583.670056	0.147054
583.881506	0.147174
584.092939	0.147282
584.304353	0.147520
584.515749	0.147737
584.727127	0.148002
584.938486	0.148547
585.149828	0.148836
585.361151	0.149469
585.572456	0.149162
585.783742	0.149082
585.995011	0.149165
586.206261	0.148664
586.417493	0.148555
586.628706	0.148493
586.839902	0.147951
587.051079	0.148277
587.262238	0.148162
587.473379	0.148381
587.684502	0.149041
587.895606	0.149334
588.106692	0.149775
588.317760	0.150013
588.528810	0.150509
588.739841	0.150791
588.950855	0.151152
589.161850	0.151061
589.372827	0.151149
589.583785	0.150577
589.794726	0.150726
590.005648	0.150946
590.216552	0.151122
590.427437	0.151033
590.638305	0.151487
590.849154	0.151274
591.059985	0.151617
591.270798	0.151578
591.481592	0.151846
591.692369	0.151742
591.903127	0.151648
592.113867	0.151635
592.324588	0.151589
592.535292	0.151800
592.745977	0.151713
592.956644	0.151361
593.167293	0.151872
593.377923	0.151984
593.588536	0.151700
593.799130	0.151801
594.009706	0.152050
594.220263	0.152110
594.430803	0.151711
594.641324	0.151798
594.851827	0.152656
595.062312	0.152594
595.272778	0.152765
595.483227	0.153479
595.693657	0.153749
595.904069	0.154425
596.114462	0.154705
596.324838	0.155071
596.535195	0.155362
596.745534	0.155187
596.955855	0.155303
597.166157	0.155293
597.376441	0.155140
597.586707	0.154982
597.796955	0.154616
598.007185	0.154770
598.217396	0.154420
598.427589	0.154237
598.637764	0.154361
598.847921	0.154581
599.058060	0.154482
599.268180	0.154461
599.478282	0.154716
599.688366	0.154703
599.898431	0.154853
600.108479	0.155172
600.318508	0.155410
600.528519	0.155196
600.738511	0.155147
600.948486	0.155338
601.158442	0.155766
601.368380	0.155848
601.578300	0.156102
601.788202	0.155958
601.998085	0.155921
602.207950	0.156006
602.417797	0.156354
602.627626	0.155971
602.837436	0.156359
603.047228	0.156547
603.257002	0.156615
603.466758	0.156319
603.676496	0.156495
603.886215	0.156713
604.095916	0.156958
604.305599	0.156990
604.515264	0.157298
604.724910	0.157101
604.934538	0.157074
605.144148	0.157256
605.353740	0.157222
605.563314	0.157296
605.772869	0.157744
605.982406	0.157408
606.191925	0.157445
606.401425	0.157755
606.610908	0.157745
606.820372	0.157621
607.029818	0.157727
607.239246	0.158153
607.448655	0.158328
607.658047	0.158138
607.867420	0.158320
608.076775	0.158386
608.286111	0.158553
608.495430	0.159117
608.704730	0.159301
608.914012	0.159463
609.123275	0.159704
609.332521	0.159815
609.541748	0.159678
609.750957	0.160128
609.960148	0.160322
610.169321	0.160280
610.378475	0.160198
610.587611	0.160115
610.796729	0.159928
611.005829	0.159804
611.214910	0.159859
611.423974	0.159953
611.633019	0.159807
611.842045	0.159896
612.051054	0.159940
612.260044	0.159672
612.469017	0.159839
612.677970	0.159906
612.886906	0.159894
613.095824	0.159951
613.304723	0.160487
613.513604	0.160522
613.722467	0.160362
613.931311	0.160378
614.140138	0.160868
614.348946	0.160976
614.557736	0.161239
614.766507	0.161399
614.975261	0.161712
615.183996	0.161475
615.392713	0.161619
615.601412	0.162035
615.810092	0.162519
616.018754	0.162433
616.227399	0.162460
616.436024	0.162308
616.644632	0.162686
616.853222	0.162649
617.061793	0.163252
617.270346	0.163536
617.478880	0.163608
617.687397	0.163686
617.895895	0.163908
618.104375	0.164000
618.312837	0.164314
618.521281	0.164193
618.729706	0.164528
618.938113	0.164312
619.146502	0.164296
619.354873	0.164368
619.563226	0.164391
619.771560	0.164275
619.979876	0.164504
620.188174	0.164648
620.396453	0.164387
620.604715	0.164227
620.812958	0.164180
621.021183	0.164196
621.229390	0.164062
621.437578	0.163765
621.645748	0.164233
621.853900	0.164029
622.062034	0.164089
622.270150	0.164246
622.478247	0.163901
622.686326	0.163824
622.894387	0.164117
623.102430	0.164552
623.310454	0.164998
623.518461	0.164841
623.726449	0.165223
623.934418	0.165433
624.142370	0.165950
624.350303	0.166325
624.558218	0.166507
624.766115	0.166603
624.973994	0.166520
625.181855	0.166345
625.389697	0.166375
625.597521	0.166268
625.805327	0.166044
626.013114	0.165888
626.220883	0.166215
626.428634	0.166463
626.636367	0.166575
626.844082	0.166661
627.051778	0.166918
627.259457	0.167118
627.467117	0.167747
627.674758	0.167717
627.882382	0.167817
628.089987	0.167570
628.297574	0.167473
628.505143	0.167527
628.712694	0.167352
628.920226	0.167456
629.127740	0.167663
629.335236	0.167354
629.542714	0.167839
629.750174	0.168293
629.957615	0.168736
630.165038	0.168894
630.372443	0.169029
630.579829	0.169394
630.787198	0.169237
630.994548	0.169247
631.201880	0.169452
631.409194	0.169305
631.616489	0.169174
631.823766	0.169353
632.031025	0.169263
632.238266	0.169055
632.445489	0.169209
632.652693	0.169598
632.859879	0.169360
633.067047	0.169357
633.274197	0.169656
633.481329	0.169697
633.688442	0.169668
633.895537	0.169721
634.102614	0.169932
634.309672	0.169878
634.516713	0.169956
634.723735	0.170342
634.930739	0.170498
635.137724	0.170409
635.344692	0.170441
635.551641	0.170466
635.758572	0.170740
635.965485	0.171169
636.172379	0.171528
636.379256	0.171569
636.586114	0.171589
636.792954	0.171650
636.999775	0.171911
637.206579	0.172107
637.413364	0.172304
637.620131	0.172556
637.826880	0.172436
638.033610	0.172533
638.240323	0.172572
638.447017	0.172830
638.653692	0.173025
638.860350	0.173292
639.066990	0.173495
639.273611	0.173579
639.480214	0.173629
639.686798	0.173858
639.893365	0.174107
640.099913	0.174210
640.306443	0.174333
640.512955	0.174462
640.719449	0.174336
640.925924	0.174335
641.132381	0.174452
641.338820	0.174510
641.545241	0.174565
641.751644	0.174311
641.958028	0.174395
642.164394	0.174418
642.370742	0.174546
642.577071	0.174654
642.783383	0.174780
642.989676	0.174768
643.195951	0.174870
643.402207	0.175050
643.608446	0.175337
643.814666	0.175591
644.020868	0.175665
644.227052	0.175716
644.433218	0.175961
644.639365	0.176003
644.845494	0.176044
645.051605	0.176334
645.257698	0.176375
645.463772	0.176192
645.669828	0.176114
645.875866	0.176134
646.081886	0.176418
646.287888	0.176260
646.493871	0.176564
646.699836	0.176852
646.905783	0.176832
647.111712	0.177013
647.317622	0.177186
647.523514	0.177393
647.729388	0.177677
647.935244	0.177716
648.141082	0.177873
648.346901	0.178153
648.552702	0.178252
648.758485	0.178378
648.964250	0.178049
649.169996	0.178254
649.375724	0.178241
649.581434	0.178263
649.787126	0.178279
649.992800	0.178688
650.198455	0.178542
650.404092	0.178486
650.609711	0.178596
650.815311	0.178958
651.020894	0.179074
651.226458	0.179220
651.432004	0.179309
651.637532	0.179280
651.843041	0.179210
652.048532	0.179283
652.254006	0.179424
652.459460	0.179554
652.664897	0.179411
652.870315	0.179602
653.075716	0.179705
653.281097	0.179930
653.486461	0.180238
653.691807	0.180496
653.897134	0.180559
654.102443	0.180799
654.307734	0.180821
654.513006	0.180981
654.718261	0.180982
654.923497	0.181244
655.128715	0.181242
655.333915	0.181300
655.539096	0.181323
655.744259	0.181837
655.949404	0.181831
656.154531	0.182143
656.359640	0.182486
656.564730	0.182768
656.769802	0.182677
656.974856	0.183036
657.179892	0.183242
657.384909	0.183341
657.589908	0.183065
657.794889	0.183514
657.999852	0.183755
658.204797	0.184052
658.409723	0.183866
658.614631	0.184393
658.819521	0.184580
659.024393	0.184846
659.229246	0.185351
659.434081	0.185632
659.638898	0.185493
659.843697	0.185559
660.048478	0.185722
660.253240	0.185909
660.457984	0.185780
660.662710	0.185542
660.867417	0.185352
661.072107	0.185131
661.276778	0.185239
661.481431	0.185412
661.686066	0.185628
661.890682	0.185648
662.095281	0.186184
662.299861	0.186087
662.504422	0.186089
662.708966	0.186305
662.913491	0.186645
663.117999	0.186812
663.322488	0.186898
663.526958	0.186817
663.731411	0.186832
663.935845	0.186605
664.140261	0.187104
664.344659	0.187415
664.549038	0.187535
664.753400	0.187447
664.957743	0.187407
665.162068	0.187506
665.366375	0.187528
665.570663	0.187724
665.774933	0.187825
665.979185	0.187743
666.183419	0.187816
666.387635	0.187987
666.591832	0.188022
666.796011	0.188076
667.000172	0.188272
667.204315	0.188511
667.408439	0.188634
667.612545	0.188982
667.816634	0.189328
668.020703	0.189571
668.224755	0.189662
668.428788	0.189732
668.632803	0.190085
668.836800	0.190308
669.040779	0.190449
669.244739	0.190708
669.448681	0.190937
669.652605	0.191152
669.856511	0.191530
670.060399	0.191482
670.264268	0.191812
670.468119	0.192021
670.671952	0.192034
670.875767	0.192018
671.079563	0.192013
671.283341	0.192144
671.487101	0.192305
671.690843	0.191998
671.894567	0.192138
672.098272	0.192309
672.301959	0.192373
672.505628	0.192655
672.709278	0.193060
672.912911	0.193417
673.116525	0.193442
673.320121	0.193643
673.523699	0.193920
673.727258	0.194320
673.930799	0.194268
674.134322	0.194105
674.337827	0.194155
674.541314	0.194221
674.744782	0.194234
674.948232	0.194411
675.151664	0.194323
675.355078	0.194568
675.558474	0.194799
675.761851	0.195007
675.965210	0.195573
676.168551	0.195790
676.371873	0.195936
676.575178	0.195895
676.778464	0.195763
676.981732	0.195895
677.184981	0.196019
677.388213	0.195959
677.591426	0.196159
677.794621	0.196096
677.997798	0.196093
678.200956	0.196278
678.404097	0.196660
678.607219	0.196973
678.810323	0.197122
679.013408	0.197178
679.216476	0.197259
679.419525	0.197546
679.622556	0.197733
679.825569	0.197849
680.028563	0.198068
680.231540	0.197979
680.434498	0.198226
680.637438	0.198321
680.840359	0.198451
681.043263	0.198804
681.246148	0.198799
681.449015	0.199014
681.651864	0.199296
681.854694	0.199041
682.057506	0.199438
682.260301	0.199652
682.463076	0.199782
682.665834	0.199991
682.868573	0.200066
683.071295	0.200039
683.273998	0.200097
683.476682	0.200120
683.679349	0.200483
683.881997	0.200154
684.084627	0.199958
684.287239	0.200290
684.489833	0.200424
684.692408	0.200564
684.894965	0.200887
685.097504	0.201045
685.300025	0.201112
685.502527	0.201311
685.705012	0.201668
685.907478	0.202119
686.109925	0.202094
686.312355	0.202199
686.514766	0.202176
686.717159	0.202231
686.919534	0.202190
687.121891	0.202537
687.324230	0.202759
687.526550	0.203030
687.728852	0.203103
687.931136	0.202986
688.133401	0.202941
688.335649	0.203051
688.537878	0.203225
688.740089	0.203525
688.942281	0.203500
689.144456	0.203552
689.346612	0.203249
689.548750	0.203004
689.750870	0.203269
689.952971	0.203541
690.155055	0.203834
690.357120	0.203801
690.559167	0.203723
690.761195	0.203916
690.963206	0.203790
691.165198	0.204087
691.367172	0.204327
691.569128	0.204520
691.771065	0.204740
691.972984	0.204888
692.174885	0.205173
692.376768	0.205357
692.578633	0.205458
692.780479	0.205751
692.982308	0.205702
693.184118	0.205773
693.385909	0.205630
693.587683	0.205475
693.789438	0.205395
693.991175	0.205381
694.192894	0.205272
694.394595	0.205092
694.596277	0.205143
694.797941	0.205379
694.999587	0.205488
695.201215	0.205756
695.402824	0.205886
695.604416	0.206027
695.805989	0.206115
696.007543	0.206398
696.209080	0.206616
696.410598	0.206684
696.612099	0.206594
696.813580	0.206775
697.015044	0.206699
697.216490	0.206870
697.417917	0.206783
697.619326	0.206873
697.820717	0.206934
698.022089	0.206794
698.223444	0.206702
698.424780	0.206953
698.626098	0.207129
698.827397	0.207476
699.028679	0.207495
699.229942	0.207482
699.431187	0.207463
699.632414	0.207299
699.833622	0.207456
700.034813	0.207725
700.235985	0.207697
700.437139	0.207703
700.638274	0.207795
700.839392	0.207921
701.040491	0.208264
701.241572	0.208590
701.442635	0.208715
701.643679	0.208726
701.844706	0.208562
702.045714	0.208533
702.246704	0.208563
702.447675	0.208179
702.648629	0.208125
702.849564	0.208005
703.050481	0.208041
703.251380	0.208458
703.452260	0.208644
703.653122	0.208591
703.853966	0.209078
704.054792	0.208930
704.255600	0.209104
704.456389	0.209075
704.657160	0.209102
704.857913	0.208802
705.058648	0.208637
705.259365	0.208598
705.460063	0.208759
705.660743	0.208625
705.861405	0.208738
706.062048	0.208737
706.262674	0.208789
706.463281	0.208735
706.663870	0.208775
706.864441	0.208598
707.064993	0.208974
707.265527	0.208879
707.466043	0.208877
707.666541	0.209093
707.867021	0.209190
708.067482	0.209207
708.267925	0.209256
708.468350	0.209313
708.668757	0.209517
708.869145	0.209247
709.069516	0.209621
709.269868	0.209426
709.470201	0.209150
709.670517	0.209248
709.870814	0.209398
710.071093	0.209649
710.271354	0.209656
710.471597	0.209582
710.671821	0.209322
710.872028	0.208958
711.072216	0.209187
711.272385	0.209195
711.472537	0.209098
711.672670	0.208962
711.872785	0.208927
712.072882	0.209033
712.272961	0.209035
712.473021	0.209042
712.673063	0.209063
712.873087	0.208787
713.073093	0.209069
713.273081	0.208961
713.473050	0.208908
713.673001	0.208544
713.872934	0.208781
714.072849	0.208741
714.272745	0.208960
714.472623	0.209053
714.672483	0.209198
714.872325	0.208815
715.072148	0.208992
715.271954	0.208952
715.471741	0.209055
715.671509	0.208689
715.871260	0.208860
716.070992	0.208587
716.270707	0.208510
716.470403	0.208605
716.670080	0.208575
716.869740	0.208555
717.069381	0.208748
717.269004	0.209020
717.468609	0.208869
717.668195	0.208679
717.867764	0.208945
718.067314	0.208879
718.266846	0.208707
718.466360	0.208666
718.665855	0.208277
718.865332	0.208176
719.064791	0.207935
719.264232	0.207800
719.463655	0.207636
719.663059	0.207466
719.862445	0.207470
720.061813	0.207389
720.261163	0.207466
720.460494	0.207532
720.659807	0.207472
720.859102	0.207498
721.058379	0.207775
721.257638	0.207659
721.456878	0.207754
721.656100	0.207354
721.855304	0.207413
722.054490	0.207349
722.253657	0.207273
722.452806	0.207107
722.651937	0.206658
722.851050	0.206407
723.050145	0.206441
723.249221	0.206169
723.448279	0.206554
723.647319	0.206240
723.846340	0.206029
724.045344	0.206247
724.244329	0.205903
724.443296	0.206174
724.642245	0.206055
724.841175	0.205775
725.040088	0.205602
725.238982	0.205277
725.437857	0.205257
725.636715	0.205191
725.835554	0.204797
726.034376	0.204902
726.233179	0.204562
726.431963	0.204523
726.630730	0.204625
726.829478	0.204457
727.028208	0.204289
727.226920	0.204259
727.425614	0.204401
727.624289	0.204447
727.822946	0.204580
728.021585	0.204440
728.220206	0.204273
728.418808	0.204307
728.617392	0.204427
728.815958	0.204225
729.014506	0.204067
729.213036	0.203596
729.411547	0.203158
729.610040	0.202960
729.808515	0.202872
730.006972	0.202978
730.205410	0.202765
730.403831	0.202581
730.602233	0.202716
730.800616	0.202417
730.998982	0.202678
731.197329	0.202931
731.395658	0.202818
731.593969	0.202555
731.792262	0.202476
731.990536	0.202232
732.188793	0.202223
732.387031	0.202131
732.585250	0.202220
732.783452	0.201757
732.981635	0.201488
733.179800	0.201149
733.377947	0.201396
733.576076	0.200923
733.774186	0.201075
733.972278	0.200838
734.170352	0.200856
734.368408	0.200896
734.566446	0.200932
734.764465	0.200799
734.962466	0.200640
735.160449	0.200250
735.358413	0.200135
735.556360	0.199817
735.754288	0.199661
735.952198	0.199027
736.150090	0.198678
736.347963	0.198334
736.545818	0.198115
736.743655	0.198042
736.941474	0.197995
737.139275	0.197845
737.337057	0.197856
737.534821	0.197702
737.732567	0.197869
737.930295	0.197723
738.128005	0.197435
738.325696	0.197482
738.523369	0.197416
738.721024	0.197249
738.918660	0.197130
739.116279	0.196620
739.313879	0.196430
739.511461	0.196229
739.709024	0.196108
739.906570	0.196174
740.104097	0.195907
740.301606	0.195656
740.499097	0.195569
740.696569	0.195594
740.894024	0.195891
741.091460	0.196109
741.288878	0.196139
741.486277	0.195847
741.683659	0.195761
741.881022	0.195847
742.078367	0.195750
742.275694	0.195529
742.473002	0.195439
742.670293	0.194994
742.867565	0.194611
743.064819	0.194397
743.262054	0.194332
743.459272	0.194173
743.656471	0.193769
743.853652	0.193673
744.050815	0.193856
744.247959	0.193635
744.445085	0.193562
744.642194	0.193500
744.839283	0.193272
745.036355	0.193306
745.233408	0.193031
745.430444	0.193079
745.627461	0.192832
745.824459	0.192246
746.021440	0.192211
746.218402	0.192178
746.415346	0.192117
746.612272	0.192295
746.809180	0.192040
747.006069	0.192290
747.202940	0.192203
747.399793	0.192457
747.596628	0.192356
747.793444	0.192124
747.990243	0.191780
748.187023	0.191751
748.383784	0.191498
748.580528	0.191383
748.777253	0.191169
748.973960	0.191014
749.170649	0.190842
749.367320	0.191205
749.563973	0.191183
749.760607	0.191257
749.957223	0.190993
750.153821	0.191351
750.350400	0.191178
750.546962	0.190954
750.743505	0.190880
750.940030	0.190723
751.136536	0.190501
751.333025	0.190604
751.529495	0.190447
751.725947	0.190413
751.922381	0.189730
752.118796	0.189712
752.315194	0.189479
752.511573	0.189358
752.707934	0.189047
752.904276	0.188965
753.100601	0.188480
753.296907	0.188464
753.493195	0.188362
753.689465	0.188370
753.885716	0.188229
754.081949	0.188599
754.278164	0.188610
754.474361	0.188455
754.670540	0.188302
754.866700	0.188592
755.062843	0.188621
755.258967	0.188565
755.455072	0.188552
755.651160	0.188705
755.847229	0.188499
756.043280	0.188301
756.239313	0.188620
756.435328	0.188339
756.631324	0.188078
756.827302	0.187953
757.023262	0.187759
757.219204	0.187334
757.415127	0.187083
757.611033	0.186702
757.806920	0.186780
758.002788	0.186512
758.198639	0.186746
758.394471	0.186511
758.590286	0.186296
758.786081	0.186272
758.981859	0.186605
759.177619	0.186466
759.373360	0.186760
759.569083	0.186219
759.764788	0.186272
759.960474	0.186066
760.156143	0.186017
760.351793	0.186134
760.547425	0.185751
760.743038	0.185620
760.938634	0.185302
761.134211	0.185130
761.329770	0.185090
761.525311	0.184657
761.720833	0.184657
761.916338	0.184425
762.111824	0.184085
762.307292	0.184440
762.502741	0.184266
762.698173	0.184470
762.893586	0.184172
763.088981	0.184116
763.284358	0.184242
763.479716	0.184185
763.675057	0.184072
763.870379	0.184291
764.065683	0.183929
764.260968	0.183626
764.456236	0.183569
764.651485	0.183783
764.846716	0.183994
765.041929	0.183834
765.237123	0.183467
765.432299	0.183710
765.627457	0.183461
765.822597	0.183386
766.017719	0.183468
766.212822	0.183403
766.407907	0.183214
766.602974	0.183118
766.798023	0.183157
766.993054	0.183145
767.188066	0.182898
767.383060	0.182638
767.578036	0.182591
767.772993	0.182654
767.967933	0.182824
768.162854	0.182676
768.357757	0.182790
768.552642	0.182766
768.747508	0.182914
768.942356	0.183078
769.137186	0.183293
769.331998	0.183269
769.526792	0.183254
769.721567	0.183149
769.916324	0.183085
770.111063	0.182774
770.305784	0.182865
770.500486	0.182604
770.695171	0.182508
770.889837	0.182260
771.084484	0.182418
771.279114	0.182306
771.473725	0.182309
771.668318	0.182429
771.862893	0.182689
772.057450	0.182360
772.251988	0.182497
772.446509	0.182461
772.641011	0.182637
772.835494	0.182504
773.029960	0.182686
773.224407	0.182618
773.418836	0.182562
773.613247	0.182280
773.807640	0.182228
774.002014	0.182219
774.196370	0.181894
774.390708	0.181987
774.585028	0.181972
774.779330	0.181590
774.973613	0.181522
775.167878	0.181448
775.362125	0.181426
775.556354	0.181502
775.750564	0.181489
775.944756	0.181689
776.138930	0.181398
776.333086	0.181188
776.527223	0.181380
776.721343	0.181368
776.915444	0.181282
777.109526	0.181293
777.303591	0.181492
777.497637	0.181422
777.691666	0.181497
777.885676	0.181524
778.079667	0.181353
778.273641	0.181566
778.467596	0.181533
778.661533	0.181513
778.855452	0.181902
779.049352	0.181827
779.243235	0.181818
779.437099	0.181842
779.630945	0.181968
779.824773	0.182181
780.018582	0.182088
780.212373	0.182186
780.406146	0.182270
780.599901	0.182208
780.793638	0.182153
780.987356	0.182384
781.181056	0.182391
781.374738	0.182490
781.568402	0.182578
781.762047	0.182477
781.955674	0.182439
782.149283	0.182712
782.342874	0.182559
782.536447	0.182604
782.730001	0.182691
782.923537	0.182748
783.117055	0.182615
783.310555	0.182922
783.504036	0.182918
783.697499	0.182841
783.890944	0.182842
784.084371	0.182896
784.277780	0.182939
784.471170	0.182816
784.664542	0.182902
784.857896	0.183163
785.051231	0.183184
785.244549	0.183241
785.437848	0.183528
785.631129	0.183680
785.824392	0.183649
786.017636	0.183749
786.210863	0.183719
786.404071	0.183475
786.597260	0.183481
786.790432	0.183456
786.983585	0.183460
787.176721	0.183510
787.369838	0.183397
787.562936	0.183448
787.756017	0.183370
787.949079	0.183474
788.142123	0.183668
788.335149	0.183626
788.528156	0.183594
788.721146	0.183760
788.914117	0.183701
789.107070	0.183676
789.300005	0.183773
789.492921	0.183859
789.685819	0.183957
789.878699	0.184125
790.071561	0.184390
790.264405	0.184295
790.457230	0.184573
790.650037	0.184555
790.842826	0.184942
791.035597	0.185130
791.228349	0.185192
791.421084	0.185146
791.613800	0.185064
791.806497	0.184968
791.999177	0.185216
792.191838	0.185043
792.384481	0.185104
792.577106	0.184868
792.769713	0.184597
792.962301	0.184789
793.154871	0.185068
793.347423	0.185527
793.539957	0.185607
793.732473	0.185639
793.924970	0.185896
794.117449	0.186202
794.309910	0.186243
794.502353	0.186786
794.694777	0.186734
794.887183	0.186702
795.079571	0.186449
795.271941	0.186681
795.464293	0.186574
795.656626	0.186608
795.848941	0.186749
796.041238	0.186873
796.233516	0.186811
796.425777	0.187112
796.618019	0.187141
796.810243	0.187251
797.002449	0.186948
797.194636	0.187159
797.386805	0.187084
797.578956	0.186868
797.771089	0.186886
797.963204	0.186881
798.155300	0.187035
798.347378	0.187113
798.539438	0.187233
798.731480	0.187318
798.923503	0.187429
799.115509	0.187424
799.307496	0.187693
799.499465	0.187916
799.691415	0.188238
799.883348	0.188309
800.075262	0.188569
800.267158	0.188994
800.459035	0.189318
800.650895	0.189698
800.842736	0.189944
801.034559	0.190281
801.226364	0.190219
801.418150	0.190078
801.609919	0.190105
801.801669	0.190296
801.993401	0.189977
802.185114	0.190386
802.376810	0.190392
802.568487	0.190476
802.760146	0.190508
802.951787	0.190744
803.143409	0.191180
803.335014	0.191407
803.526600	0.191452
803.718168	0.191996
803.909717	0.191774
804.101249	0.191939
804.292762	0.192223
804.484257	0.192272
804.675734	0.192599
804.867192	0.192497
805.058632	0.192680
805.250054	0.192992
805.441458	0.193119
805.632844	0.193477
805.824211	0.193755
806.015561	0.193761
806.206891	0.193995
806.398204	0.194461
806.589499	0.194751
806.780775	0.195007
806.972033	0.195043
807.163273	0.195176
807.354495	0.195386
807.545698	0.195296
807.736883	0.195778
807.928050	0.196028
808.119199	0.195858
808.310329	0.195911
808.501441	0.196078
808.692535	0.196240
808.883611	0.196378
809.074669	0.196781
809.265708	0.197212
809.456729	0.197163
809.647732	0.197188
809.838717	0.197318
810.029683	0.197470
810.220632	0.197608
810.411562	0.197784
810.602474	0.198088
810.793367	0.198083
810.984242	0.198246
811.175100	0.198617
811.365938	0.198824
811.556759	0.199418
811.747562	0.199731
811.938346	0.199844
812.129112	0.200033
812.319860	0.199909
812.510589	0.199914
812.701300	0.200164
812.891994	0.200137
813.082668	0.200216
813.273325	0.200172
813.463964	0.200397
813.654584	0.200898
813.845186	0.201187
814.035769	0.201675
814.226335	0.201702
814.416882	0.201778
814.607411	0.202099
814.797922	0.202251
814.988415	0.202644
815.178889	0.202936
815.369345	0.202886
815.559783	0.203142
815.750203	0.203353
815.940605	0.203477
816.130988	0.203552
816.321353	0.203541
816.511700	0.203682
816.702028	0.203611
816.892339	0.203523
817.082631	0.203415
817.272905	0.203499
817.463161	0.203489
817.653398	0.203859
817.843617	0.204638
818.033819	0.205063
818.224001	0.205627
818.414166	0.205782
818.604312	0.206042
818.794440	0.206061
818.984550	0.206343
819.174642	0.206558
819.364716	0.206871
819.554771	0.206651
819.744808	0.206962
819.934827	0.207225
820.124827	0.207591
820.314810	0.207731
820.504774	0.208432
820.694720	0.208420
820.884647	0.208828
821.074557	0.209401
821.264448	0.209695
821.454321	0.209851
821.644176	0.209660
821.834012	0.209588
822.023831	0.209797
822.213631	0.209766
822.403413	0.209992
822.593176	0.210027
822.782922	0.209811
822.972649	0.209853
823.162358	0.210152
823.352049	0.210479
823.541721	0.210656
823.731376	0.211015
823.921012	0.211535
824.110629	0.211823
824.300229	0.212096
824.489811	0.212406
824.679374	0.212633
824.868919	0.212637
825.058445	0.212838
825.247954	0.213141
825.437444	0.213764
825.626916	0.214042
825.816370	0.214418
826.005806	0.214542
826.195223	0.214410
826.384622	0.214551
826.574003	0.215158
826.763366	0.215316
826.952711	0.215648
827.142037	0.215488
827.331345	0.215466
827.520635	0.215579
827.709906	0.215893
827.899160	0.216563
828.088395	0.217140
828.277612	0.216940
828.466810	0.217428
828.655991	0.217831
828.845153	0.217986
829.034297	0.218622
829.223423	0.218955
829.412531	0.219177
829.601620	0.219530
829.790691	0.219436
829.979744	0.219748
830.168779	0.219858
830.357795	0.219905
830.546793	0.220207
830.735773	0.220234
830.924735	0.220310
831.113679	0.220466
831.302604	0.220622
831.491511	0.221188
831.680400	0.221285
831.869271	0.222050
832.058123	0.222168
832.246957	0.222328
832.435773	0.222510
832.624571	0.222892
832.813351	0.222998
833.002112	0.223310
833.190855	0.223435
833.379580	0.223966
833.568287	0.223638
833.756975	0.224145
833.945645	0.224374
834.134297	0.224584
834.322931	0.224929
834.511547	0.225539
834.700144	0.225650
834.888723	0.225629
835.077284	0.225774
835.265826	0.226075
835.454351	0.226284
835.642857	0.226891
835.831345	0.227063
836.019815	0.227248
836.208266	0.227550
836.396699	0.227585
836.585114	0.228452
836.773511	0.228603
836.961890	0.228935
837.150250	0.229190
837.338592	0.229608
837.526916	0.229942
837.715222	0.230160
837.903510	0.230345
838.091779	0.230871
838.280030	0.230601
838.468263	0.230882
838.656477	0.231097
838.844674	0.231668
839.032852	0.231399
839.221012	0.231804
839.409153	0.231999
839.597277	0.232403
839.785382	0.232676
839.973469	0.233207
840.161538	0.233641
840.349589	0.233879
840.537621	0.234023
840.725635	0.234398
840.913631	0.234288
841.101609	0.234683
841.289568	0.234689
841.477509	0.235126
841.665432	0.235420
841.853337	0.235688
842.041224	0.236117
842.229092	0.235768
842.416942	0.236119
842.604774	0.236996
842.792588	0.237266
842.980383	0.237445
843.168160	0.237533
843.355919	0.237594
843.543660	0.237622
843.731382	0.238063
843.919087	0.238670
844.106773	0.238760
844.294441	0.238417
844.482090	0.238346
844.669722	0.238760
844.857335	0.239109
845.044930	0.239768
845.232507	0.240418
845.420065	0.240338
845.607605	0.240952
845.795127	0.241172
845.982631	0.241854
846.170117	0.242571
846.357584	0.242931
846.545033	0.243033
846.732464	0.242978
846.919877	0.243402
847.107272	0.243925
847.294648	0.244124
847.482006	0.244831
847.669346	0.245377
847.856667	0.245760
848.043971	0.246079
848.231256	0.246649
848.418523	0.246780
848.605771	0.246712
848.793002	0.247153
848.980214	0.247767
849.167408	0.248069
849.354584	0.248394
849.541742	0.248913
849.728881	0.249202
849.916002	0.249129
850.103105	0.249766
850.290190	0.250120
850.477256	0.250613
850.664304	0.250441
850.851334	0.250952
851.038346	0.250998
851.225340	0.250927
851.412315	0.250930
851.599272	0.251351
851.786211	0.251856
851.973132	0.252190
852.160034	0.252240
852.346918	0.252503
852.533784	0.252351
852.720632	0.252904
852.907462	0.252885
853.094273	0.253438
853.281066	0.253602
853.467841	0.253715
853.654598	0.254048
853.841336	0.253893
854.028056	0.254373
854.214758	0.254790
854.401442	0.254639
854.588107	0.255570
854.774755	0.255739
854.961384	0.256454
855.147995	0.256581
855.334587	0.256726
855.521162	0.257422
855.707718	0.257541
855.894256	0.257952
856.080775	0.258574
856.267277	0.258608
856.453760	0.259244
856.640225	0.259504
856.826672	0.259844
857.013101	0.259877
857.199511	0.260078
857.385903	0.260257
857.572277	0.260499
857.758633	0.260132
857.944970	0.260309
858.131290	0.260300
858.317591	0.260348
858.503873	0.260697
858.690138	0.261117
858.876384	0.261196
859.062612	0.261561
859.248822	0.261749
859.435014	0.262011
859.621188	0.262219
859.807343	0.262604
859.993480	0.263315
860.179599	0.263401
860.365699	0.263981
860.551781	0.264471
860.737846	0.264784
860.923891	0.264881
861.109919	0.265472
861.295929	0.266121
861.481920	0.266156
861.667893	0.266132
861.853848	0.266341
862.039784	0.266541
862.225702	0.266966
862.411603	0.267593
862.597484	0.267959
862.783348	0.268543
862.969193	0.268810
863.155021	0.269272
863.340830	0.269211
863.526620	0.269820
863.712393	0.270124
863.898147	0.269941
864.083883	0.270294
864.269601	0.270657
864.455301	0.270693
864.640982	0.270562
864.826645	0.270572
865.012290	0.270966
865.197917	0.270822
865.383526	0.270935
865.569116	0.271667
865.754688	0.271589
865.940242	0.271723
866.125777	0.271865
866.311295	0.272401
866.496794	0.272697
866.682275	0.272822
866.867737	0.273526
867.053182	0.273720
867.238608	0.273504
867.424016	0.273777
867.609406	0.273968
867.794778	0.274361
867.980131	0.274074
868.165466	0.274417
868.350783	0.274750
868.536082	0.274310
868.721362	0.274352
868.906625	0.274978
869.091869	0.274744
869.277094	0.274622
869.462302	0.274200
869.647491	0.274661
869.832662	0.274916
870.017815	0.274962
870.202950	0.275362
870.388066	0.275714
870.573165	0.275505
870.758245	0.276073
870.943306	0.276712
871.128350	0.276946
871.313375	0.277306
871.498382	0.277527
871.683371	0.278029
871.868342	0.278801
872.053294	0.278899
872.238229	0.278776
872.423144	0.278852
872.608042	0.278651
872.792922	0.279145
872.977783	0.279188
873.162626	0.279483
873.347451	0.279308
873.532258	0.278942
873.717046	0.279424
873.901816	0.280090
874.086568	0.279918
874.271302	0.280653
874.456017	0.280828
874.640715	0.280756
874.825394	0.281118
875.010055	0.281434
875.194697	0.281616
875.379322	0.281614
875.563928	0.281731
875.748516	0.282446
875.933085	0.282641
876.117637	0.282967
876.302170	0.283191
876.486685	0.283237
876.671182	0.283459
876.855661	0.283761
877.040121	0.283930
877.224563	0.284059
877.408987	0.283861
877.593393	0.284451
877.777780	0.284719
877.962150	0.285049
878.146501	0.285092
878.330833	0.284961
878.515148	0.285151
878.699444	0.285124
878.883722	0.285405
879.067982	0.285651
879.252224	0.285055
879.436447	0.284894
879.620653	0.284879
879.804840	0.285022
879.989008	0.285608
880.173159	0.285752
880.357291	0.286349
880.541405	0.286268
880.725501	0.286346
880.909579	0.286927
881.093638	0.287119
881.277680	0.287076
881.461703	0.286723
881.645707	0.286952
881.829694	0.286892
882.013662	0.286764
882.197612	0.287127
882.381544	0.287396
882.565458	0.287124
882.749353	0.287119
882.933230	0.287401
883.117089	0.288052
883.300930	0.287592
883.484753	0.288012
883.668557	0.288426
883.852343	0.288364
884.036111	0.287897
884.219861	0.287835
884.403592	0.287716
884.587305	0.287888
884.771000	0.287340
884.954677	0.287775
885.138335	0.287659
885.321976	0.287684
885.505598	0.287617
885.689201	0.288474
885.872787	0.288243
886.056354	0.288502
886.239904	0.288136
886.423434	0.288279
886.606947	0.288301
886.790442	0.288190
886.973918	0.287839
887.157376	0.287601
887.340816	0.286936
887.524237	0.287267
887.707641	0.286977
887.891026	0.287157
888.074393	0.287526
888.257741	0.287444
888.441072	0.287208
888.624384	0.286685
888.807678	0.287177
888.990954	0.287377
889.174211	0.287145
889.357451	0.287680
889.540672	0.287564
889.723875	0.287518
889.907059	0.287217
890.090226	0.287542
890.273374	0.288284
890.456504	0.287783
890.639616	0.287495
890.822709	0.287632
891.005785	0.287639
891.188842	0.288017
891.371881	0.287548
891.554901	0.287855
891.737904	0.287741
891.920888	0.287089
892.103854	0.287206
892.286802	0.287190
892.469731	0.287201
892.652643	0.287078
892.835536	0.287018
893.018410	0.287532
893.201267	0.287161
893.384106	0.287635
893.566926	0.287766
893.749728	0.287325
893.932511	0.287692
894.115277	0.287714
894.298024	0.287638
894.480753	0.287450
894.663464	0.287526
894.846157	0.287786
895.028831	0.287213
895.211487	0.287189
895.394125	0.287505
895.576745	0.286925
895.759346	0.287445
895.941930	0.286754
896.124495	0.286608
896.307041	0.285857
896.489570	0.285514
896.672080	0.285701
896.854573	0.285503
897.037046	0.285770
897.219502	0.285696
897.401940	0.284773
897.584359	0.285232
897.766760	0.284957
897.949143	0.285650
898.131507	0.286132
898.313854	0.285685
898.496182	0.285816
898.678492	0.285514
898.860783	0.285325
899.043057	0.285427
899.225312	0.285140
899.407549	0.285033
899.589768	0.284032
899.771968	0.283479
899.954151	0.283879
900.136315	0.283467
900.318461	0.283291
900.500588	0.283465
900.682698	0.283367
900.864789	0.283446
901.046862	0.283474
901.228917	0.283424
901.410953	0.283190
901.592971	0.282379
901.774972	0.282359
901.956953	0.282205
902.138917	0.281716
902.320862	0.281166
902.502790	0.280981
902.684699	0.280792
902.866589	0.280699
903.048462	0.280443
903.230316	0.280059
903.412152	0.279751
903.593970	0.279661
903.775770	0.279594
903.957551	0.279515
904.139314	0.279174
904.321059	0.279148
904.502786	0.278526
904.684494	0.278085
904.866185	0.278066
905.047857	0.278074
905.229510	0.277655
905.411146	0.276856
905.592763	0.276499
905.774363	0.276182
905.955943	0.275053
906.137506	0.275056
906.319051	0.275428
906.500577	0.275050
906.682085	0.274796
906.863575	0.274569
907.045046	0.275052
907.226500	0.274977
907.407935	0.274484
907.589352	0.274881
907.770750	0.274928
907.952131	0.274167
908.133493	0.274120
908.314837	0.273745
908.496163	0.273561
908.677470	0.273371
908.858760	0.273112
909.040031	0.272603
909.221284	0.272542
909.402518	0.271909
909.583735	0.271838
909.764933	0.271462
909.946113	0.271639
910.127275	0.270777
910.308418	0.269860
910.489544	0.269433
910.670651	0.269242
910.851740	0.268363
911.032810	0.268080
911.213863	0.267521
911.394897	0.267665
911.575913	0.266690
911.756911	0.266495
911.937890	0.266337
912.118851	0.265868
912.299794	0.266363
912.480719	0.266618
912.661626	0.266788
912.842514	0.266224
913.023384	0.265836
913.204236	0.265616
913.385070	0.265197
913.565886	0.265250
913.746683	0.265127
913.927462	0.264345
914.108223	0.263675
914.288965	0.262830
914.469690	0.262946
914.650396	0.261776
914.831084	0.261032
915.011754	0.260876
915.192405	0.260151
915.373038	0.259170
915.553653	0.258957
915.734250	0.258313
915.914829	0.257606
916.095389	0.256955
916.275931	0.256753
916.456455	0.256071
916.636961	0.255274
916.817448	0.255012
916.997917	0.254979
917.178368	0.254341
917.358801	0.254354
917.539216	0.253954
917.719612	0.253520
917.899990	0.253166
918.080350	0.253305
918.260692	0.253145
918.441015	0.252648
918.621320	0.251917
918.801607	0.251312
918.981876	0.250659
919.162127	0.250831
919.342359	0.250195
919.522573	0.249126
919.702769	0.248875
919.882947	0.248144
920.063106	0.247858
920.243247	0.247894
920.423370	0.247848
920.603475	0.246763
920.783562	0.245853
920.963630	0.245446
921.143680	0.245237
921.323712	0.244347
921.503725	0.243456
921.683721	0.242775
921.863698	0.242237
922.043657	0.241210
922.223598	0.241072
922.403520	0.240919
922.583424	0.240939
922.763311	0.240445
922.943178	0.239731
923.123028	0.239701
923.302859	0.239357
923.482673	0.238336
923.662467	0.237728
923.842244	0.237347
924.022003	0.236728
924.201743	0.235476
924.381465	0.235244
924.561169	0.234622
924.740854	0.234220
924.920522	0.233092
925.100171	0.232525
925.279802	0.232051
925.459414	0.231084
925.639009	0.230264
925.818585	0.229789
925.998143	0.228417
926.177683	0.228869
926.357205	0.228201
926.536708	0.227496
926.716193	0.227710
926.895660	0.227055
927.075109	0.226222
927.254539	0.225334
927.433951	0.224531
927.613345	0.224512
927.792721	0.222709
927.972079	0.221861
928.151418	0.221920
928.330739	0.221039
928.510042	0.220319
928.689327	0.220221
928.868593	0.219840
929.047841	0.219319
929.227071	0.219551
929.406283	0.219526
929.585476	0.219548
929.764652	0.218010
929.943809	0.217589
930.122948	0.216820
930.302068	0.215715
930.481171	0.215196
930.660255	0.215327
930.839321	0.213514
931.018369	0.212786
931.197398	0.211608
931.376409	0.212173
931.555402	0.210968
931.734377	0.210529
931.913334	0.210543
932.092272	0.209523
932.271192	0.207370
932.450094	0.207323
932.628978	0.206678
932.807844	0.206113
932.986691	0.204806
933.165520	0.204089
933.344331	0.203251
933.523123	0.202093
933.701898	0.201583
933.880654	0.201963
934.059392	0.200879
934.238111	0.199385
934.416813	0.198766
934.595496	0.197882
934.774161	0.196837
934.952808	0.195535
935.131437	0.195033
935.310047	0.193684
935.488639	0.192192
935.667213	0.191115
935.845769	0.189619
936.024306	0.189208
936.202825	0.188411
936.381326	0.187488
936.559809	0.186798
936.738274	0.185059
936.916720	0.185621
937.095148	0.185482
937.273558	0.184621
937.451950	0.186133
937.630323	0.185529
937.808678	0.184435
937.987015	0.183609
938.165334	0.182687
938.343635	0.183440
938.521917	0.182338
938.700181	0.181518
938.878427	0.180959
939.056655	0.179222
939.234864	0.178416
939.413055	0.177907
939.591228	0.177868
939.769383	0.177825
939.947519	0.176200
940.125638	0.174374
940.303738	0.173235
940.481820	0.173265
940.659883	0.172800
940.837929	0.170389
941.015956	0.169796
941.193965	0.167347
941.371955	0.167013
941.549928	0.166062
941.727882	0.166052
941.905818	0.165178
942.083736	0.163207
942.261636	0.161966
942.439517	0.161933
942.617380	0.161923
942.795225	0.163539
942.973052	0.162751
943.150860	0.162630
943.328651	0.162703
943.506423	0.162747
943.684176	0.162008
943.861912	0.160872
944.039629	0.161478
944.217328	0.160369
944.395009	0.158829
944.572672	0.158206
944.750317	0.157635
944.927943	0.153454
945.105551	0.152312
945.283141	0.152186
945.460712	0.152098
945.638265	0.150226
945.815801	0.149393
945.993317	0.147786
946.170816	0.148060
946.348297	0.146796
946.525759	0.147943
946.703203	0.147404
946.880629	0.145944
947.058036	0.144507
947.235425	0.143420
947.412797	0.142037
947.590149	0.141494
947.767484	0.138228
947.944800	0.137357
948.122099	0.136295
948.299379	0.133969
948.476640	0.132959
948.653884	0.131867
948.831109	0.130930
949.008316	0.129450
949.185505	0.127717
949.362676	0.126200
949.539828	0.125760
949.716962	0.126065
949.894078	0.127871
950.071176	0.127600
950.248256	0.127197
950.425317	0.125127
950.602360	0.124574
950.779385	0.124352
950.956391	0.123992
951.133380	0.120472
951.310350	0.118685
951.487302	0.116375
951.664235	0.115417
951.841151	0.114176
952.018048	0.115785
952.194927	0.115290
952.371788	0.115666
952.548631	0.116866
952.725455	0.117999
952.902261	0.116875
953.079049	0.114370
953.255819	0.114807
953.432570	0.114616
953.609303	0.114822
953.786018	0.113187
953.962715	0.112480
954.139394	0.109681
954.316054	0.108703
954.492696	0.108379
954.669320	0.108165
954.845926	0.105349
955.022513	0.104878
955.199083	0.102207
955.375634	0.101623
955.552166	0.100056
955.728681	0.100002
955.905177	0.100640
956.081655	0.100265
956.258115	0.099771
956.434557	0.100853
956.610980	0.101160
956.787385	0.101759
956.963772	0.102256
957.140141	0.101588
957.316492	0.102586
957.492824	0.102383
957.669138	0.099778
957.845434	0.100487
958.021712	0.100167
958.197971	0.100279
958.374212	0.100557
958.550435	0.100318
958.726640	0.101034
958.902826	0.099937
959.078995	0.098240
959.255145	0.101352
959.431277	0.098843
959.607390	0.097939
959.783486	0.096876
959.959563	0.094260
960.135622	0.095049
960.311662	0.093346
960.487685	0.093143
960.663689	0.091520
960.839675	0.090275
961.015643	0.092331
961.191593	0.092101
961.367524	0.091201
961.543437	0.091867
961.719332	0.089378
961.895209	0.090835
962.071067	0.089166
962.246907	0.088904
962.422730	0.089321
962.598533	0.089526
962.774319	0.089355
962.950086	0.089144
963.125835	0.087965
963.301566	0.088569
963.477279	0.088470
963.652973	0.090148
963.828650	0.093872
964.004308	0.092579
964.179947	0.091165
964.355569	0.089472
964.531172	0.086545
964.706757	0.086982
964.882324	0.087436
965.057873	0.086322
965.233403	0.085134
965.408916	0.082944
965.584410	0.081926
965.759885	0.081696
965.935343	0.083564
966.110782	0.085262
966.286203	0.084130
966.461606	0.083308
966.636991	0.083059
966.812357	0.082131
966.987705	0.080001
967.163035	0.080362
967.338347	0.079762
967.513641	0.081292
967.688916	0.081740
967.864173	0.082250
968.039412	0.082175
968.214632	0.082780
968.389835	0.082139
968.565019	0.083484
968.740185	0.082228
968.915333	0.082407
969.090462	0.080207
969.265573	0.080821
969.440667	0.082176
969.615741	0.082387
969.790798	0.080691
969.965836	0.084201
970.140856	0.086505
970.315858	0.086790
970.490842	0.087580
970.665808	0.086224
970.840755	0.087460
971.015684	0.087246
971.190595	0.088601
971.365487	0.091847
971.540362	0.090155
971.715218	0.087335
971.890056	0.088545
972.064875	0.086110
972.239677	0.088017
972.414460	0.085420
972.589225	0.085458
972.763972	0.082546
972.938700	0.079960
973.113411	0.080243
973.288103	0.080230
973.462777	0.080031
973.637432	0.083866
973.812070	0.081186
973.986689	0.079556
974.161290	0.078346
974.335873	0.081079
974.510437	0.081799
974.684984	0.081269
974.859512	0.081564
975.034022	0.082841
975.208513	0.081470
975.382987	0.083515
975.557442	0.085014
975.731879	0.085179
975.906298	0.083293
976.080698	0.082860
976.255080	0.084129
976.429445	0.086180
976.603790	0.085192
976.778118	0.085375
976.952427	0.083113
977.126719	0.081846
977.300992	0.082145
977.475246	0.081310
977.649483	0.080910
977.823701	0.080717
977.997901	0.078835
978.172083	0.078124
978.346247	0.077729
978.520392	0.079287
978.694519	0.082257
978.868628	0.083858
979.042719	0.086112
979.216791	0.086971
979.390845	0.084058
979.564882	0.084094
979.738899	0.085796
979.912899	0.085871
980.086880	0.087658
980.260843	0.089327
980.434788	0.089057
980.608715	0.087728
980.782623	0.086723
980.956514	0.088092
981.130386	0.088588
981.304240	0.087343
981.478075	0.087970
981.651892	0.087246
981.825692	0.084220
981.999472	0.081800
982.173235	0.081569
982.346980	0.081845
982.520706	0.082491
982.694414	0.081918
982.868104	0.082150
983.041775	0.081897
983.215428	0.080092
983.389064	0.080436
983.562680	0.080044
983.736279	0.081600
983.909860	0.081530
984.083422	0.079669
984.256966	0.080116
984.430491	0.080443
984.603999	0.080995
984.777488	0.083799
984.950959	0.084880
985.124412	0.084819
985.297847	0.083852
985.471263	0.082248
985.644661	0.083352
985.818041	0.083575
985.991403	0.082988
986.164747	0.082107
986.338072	0.080132
986.511379	0.077888
986.684668	0.079065
986.857938	0.080360
987.031191	0.083089
987.204425	0.082715
987.377641	0.083151
987.550839	0.083583
987.724018	0.084334
987.897179	0.086104
988.070322	0.087364
988.243447	0.088348
988.416554	0.088342
988.589642	0.087452
988.762712	0.087649
988.935764	0.087580
989.108798	0.088146
989.281813	0.085117
989.454811	0.083371
989.627790	0.083076
989.800751	0.081206
989.973693	0.081099
990.146617	0.081196
990.319524	0.082402
990.492412	0.079972
990.665281	0.079388
990.838133	0.080111
991.010966	0.079710
991.183781	0.079481
991.356578	0.081196
991.529356	0.079306
991.702117	0.078367
991.874859	0.076141
992.047583	0.079761
992.220288	0.079228
992.392976	0.080931
992.565645	0.082402
992.738296	0.083783
992.910929	0.083715
993.083543	0.085185
993.256139	0.086195
993.428718	0.086630
993.601277	0.083978
993.773819	0.084955
993.946342	0.083499
994.118848	0.084619
994.291335	0.083982
994.463803	0.084400
994.636254	0.082840
994.808686	0.085243
994.981100	0.085903
995.153496	0.087722
995.325874	0.086323
995.498233	0.086356
995.670574	0.087208
995.842897	0.088795
996.015202	0.087662
996.187488	0.089317
996.359757	0.086250
996.532007	0.086997
996.704239	0.084507
996.876452	0.086364
997.048648	0.089821
997.220825	0.088099
997.392984	0.086479
997.565124	0.085629
997.737247	0.086969
997.909351	0.085860
998.081437	0.084254
998.253505	0.084743
998.425554	0.085195
998.597586	0.084186
998.769599	0.085689
998.941594	0.083998
999.113571	0.085567
999.285529	0.083014
999.457469	0.085318
999.629391	0.087810
999.801295	0.087216
999.973181	0.087314
1000.145048	0.087621
1000.316897	0.086419
1000.488728	0.088665
1000.660541	0.087389
1000.832335	0.088999
1001.004111	0.088041
1001.175869	0.087078
1001.347609	0.090891
1001.519331	0.088428
1001.691034	0.086371
1001.862719	0.086244
1002.034386	0.085864
1002.206035	0.086495
1002.377665	0.085436
1002.549277	0.086097
1002.720871	0.086437
1002.892447	0.085491
1003.064004	0.089641
1003.235544	0.088310
1003.407065	0.088613
1003.578568	0.088132
1003.750052	0.087269
1003.921519	0.089829
1004.092967	0.090649
1004.264397	0.089076
1004.435809	0.089942
1004.607202	0.088060
1004.778577	0.091727
1004.949934	0.091953
1005.121273	0.090321
1005.292594	0.091190
1005.463896	0.089633
1005.635180	0.091555
1005.806446	0.091955
1005.977694	0.091392
1006.148923	0.091245
1006.320135	0.088207
1006.491328	0.086491
1006.662503	0.088115
1006.833659	0.089090
1007.004798	0.088149
1007.175918	0.085598
1007.347020	0.086799
1007.518103	0.085916
1007.689169	0.085480
1007.860216	0.087309
1008.031245	0.087456
1008.202256	0.088029
1008.373248	0.088228
1008.544223	0.088577
1008.715179	0.088439
1008.886117	0.088736
1009.057036	0.086796
1009.227938	0.085928
1009.398821	0.086282
1009.569686	0.086002
1009.740533	0.086671
1009.911361	0.088344
1010.082172	0.090258
1010.252964	0.091912
1010.423738	0.090841
1010.594493	0.093756
1010.765231	0.095214
1010.935950	0.095306
1011.106651	0.096070
1011.277334	0.093393
1011.447998	0.091077
1011.618645	0.089013
1011.789273	0.087600
1011.959882	0.087616
1012.130474	0.086445
1012.301048	0.084070
1012.471603	0.082307
1012.642140	0.082092
1012.812658	0.084956
1012.983159	0.083939
1013.153641	0.083579
1013.324105	0.085059
1013.494551	0.085249
1013.664979	0.086229
1013.835388	0.088596
1014.005779	0.089544
1014.176152	0.089646
1014.346507	0.089659
1014.516843	0.089029
1014.687162	0.089398
1014.857462	0.086941
1015.027744	0.089672
1015.198007	0.088320
1015.368252	0.089574
1015.538480	0.088556
1015.708689	0.088249
1015.878879	0.086447
1016.049052	0.087346
1016.219206	0.085946
1016.389342	0.084900
1016.559460	0.083061
1016.729559	0.083470
1016.899641	0.083428
1017.069704	0.083585
1017.239749	0.084611
1017.409775	0.083659
1017.579784	0.084326
1017.749774	0.087694
1017.919746	0.089109
1018.089700	0.085438
1018.259635	0.084959
1018.429553	0.084553
1018.599452	0.086751
1018.769333	0.086694
1018.939195	0.087869
1019.109040	0.087392
1019.278866	0.085146
1019.448674	0.085001
1019.618464	0.089148
1019.788235	0.088564
1019.957989	0.086973
1020.127724	0.086847
1020.297441	0.085814
1020.467139	0.085923
1020.636820	0.087130
1020.806482	0.087643
1020.976126	0.087830
1021.145752	0.087005
1021.315359	0.088226
1021.484948	0.088295
1021.654519	0.085592
1021.824072	0.084951
1021.993607	0.082462
1022.163123	0.081486
1022.332621	0.081992
1022.502101	0.082569
1022.671563	0.080997
1022.841007	0.082596
1023.010432	0.083382
1023.179839	0.083513
1023.349228	0.085735
1023.518598	0.088157
1023.687951	0.087434
1023.857285	0.086343
1024.026601	0.084258
1024.195899	0.084273
1024.365178	0.082941
1024.534439	0.081338
1024.703682	0.084521
1024.872907	0.086089
1025.042114	0.087819
1025.211302	0.087267
1025.380472	0.088531
1025.549624	0.090818
1025.718758	0.092081
1025.887873	0.091981
1026.056970	0.093275
1026.226049	0.091780
1026.395110	0.089581
1026.564153	0.089297
1026.733177	0.091612
1026.902183	0.090733
1027.071171	0.089785
1027.240141	0.090592
1027.409092	0.091035
1027.578026	0.092289
1027.746940	0.091579
1027.915837	0.091521
1028.084716	0.091148
1028.253576	0.088531
1028.422418	0.090417
1028.591242	0.090703
1028.760048	0.090398
1028.928835	0.092208
1029.097604	0.088972
1029.266355	0.088560
1029.435088	0.087398
1029.603803	0.087629
1029.772499	0.089262
1029.941177	0.087362
1030.109837	0.086509
1030.278478	0.084818
1030.447102	0.082628
1030.615707	0.083196
1030.784294	0.084202
1030.952863	0.086430
1031.121413	0.086016
1031.289945	0.087133
1031.458460	0.085723
1031.626955	0.085323
1031.795433	0.084759
1031.963892	0.085732
1032.132334	0.086466
1032.300756	0.086383
1032.469161	0.086114
1032.637548	0.084503
1032.805916	0.084785
1032.974266	0.085841
1033.142598	0.087130
1033.310911	0.090693
1033.479207	0.090376
1033.647484	0.090032
1033.815743	0.090437
1033.983983	0.090561
1034.152206	0.090667
1034.320410	0.088462
1034.488596	0.088837
1034.656764	0.088613
1034.824914	0.087799
1034.993045	0.087476
1035.161158	0.088099
1035.329253	0.087373
1035.497330	0.087212
1035.665388	0.087491
1035.833428	0.089104
1036.001450	0.090000
1036.169454	0.091952
1036.337440	0.090953
1036.505407	0.091887
1036.673356	0.090368
1036.841287	0.091417
1037.009200	0.091686
1037.177094	0.093156
1037.344970	0.090588
1037.512828	0.089835
1037.680668	0.086333
1037.848489	0.085557
1038.016293	0.086168
1038.184078	0.087137
1038.351845	0.085882
1038.519593	0.084790
1038.687324	0.082746
1038.855036	0.083013
1039.022730	0.083341
1039.190406	0.085176
1039.358063	0.085140
1039.525702	0.083605
1039.693323	0.082587
1039.860926	0.082334
1040.028511	0.081892
1040.196077	0.083059
1040.363625	0.086709
1040.531155	0.088045
1040.698667	0.089130
1040.866161	0.088996
1041.033636	0.087677
1041.201093	0.088834
1041.368532	0.089459
1041.535952	0.088512
1041.703355	0.087057
1041.870739	0.085814
1042.038105	0.084888
1042.205452	0.082213
1042.372782	0.084047
1042.540093	0.085648
1042.707386	0.086971
1042.874661	0.087216
1043.041918	0.087572
1043.209156	0.090029
1043.376376	0.087803
1043.543578	0.087694
1043.710762	0.088903
1043.877927	0.087268
1044.045074	0.085376
1044.212203	0.085592
1044.379314	0.084887
1044.546407	0.086865
1044.713481	0.087769
1044.880537	0.087263
1045.047575	0.087740
1045.214595	0.085458
1045.381596	0.086489
1045.548579	0.089022
1045.715544	0.087567
1045.882491	0.086524
1046.049420	0.084298
1046.216330	0.084523
1046.383222	0.087341
1046.550096	0.087137
1046.716951	0.090961
1046.883789	0.090286
1047.050608	0.088349
1047.217409	0.087922
1047.384192	0.090497
1047.550956	0.091458
1047.717703	0.087345
1047.884431	0.086319
1048.051140	0.084707
1048.217832	0.083168
1048.384505	0.083720
1048.551161	0.084773
1048.717798	0.085274
1048.884416	0.084482
1049.051017	0.084568
1049.217599	0.086814
1049.384163	0.087239
1049.550709	0.090092
1049.717237	0.090659
1049.883746	0.089899
1050.050237	0.089723
1050.216710	0.090907
1050.383165	0.091083
1050.549601	0.088828
1050.716019	0.088951
1050.882420	0.088162
1051.048801	0.085929
1051.215165	0.085932
1051.381510	0.084602
1051.547837	0.083064
1051.714146	0.083274
1051.880437	0.083787
1052.046709	0.084839
1052.212964	0.084685
1052.379200	0.085754
1052.545417	0.085969
1052.711617	0.086817
1052.877798	0.087829
1053.043961	0.088924
1053.210106	0.086466
1053.376233	0.084658
1053.542341	0.085562
1053.708432	0.085211
1053.874504	0.085513
1054.040557	0.087470
1054.206593	0.086807
1054.372610	0.089484
1054.538609	0.091050
1054.704590	0.091785
1054.870553	0.093784
1055.036497	0.093206
1055.202424	0.093295
1055.368331	0.093093
1055.534221	0.091105
1055.700093	0.091494
1055.865946	0.088118
1056.031781	0.085768
1056.197598	0.086521
1056.363397	0.086307
1056.529177	0.088067
1056.694939	0.089992
1056.860683	0.089687
1057.026409	0.089819
1057.192116	0.089600
1057.357806	0.089856
1057.523477	0.092083
1057.689130	0.091458
1057.854764	0.090725
1058.020381	0.088531
1058.185979	0.087017
1058.351559	0.084190
1058.517120	0.082881
1058.682664	0.081619
1058.848189	0.083935
1059.013696	0.082987
1059.179185	0.083549
1059.344656	0.082971
1059.510108	0.084923
1059.675542	0.084446
1059.840958	0.088403
1060.006356	0.089416
1060.171735	0.090552
1060.337096	0.092308
1060.502439	0.092650
1060.667764	0.092970
1060.833071	0.092719
1060.998359	0.093692
1061.163629	0.093617
1061.328881	0.093961
1061.494115	0.095515
1061.659330	0.095215
1061.824527	0.093624
1061.989706	0.092741
1062.154867	0.094006
1062.320010	0.094217
1062.485134	0.091540
1062.650240	0.092581
1062.815328	0.091404
1062.980398	0.088803
1063.145449	0.088909
1063.310482	0.087215
1063.475497	0.087746
1063.640494	0.087821
1063.805473	0.087425
1063.970433	0.088282
1064.135375	0.088402
1064.300299	0.088245
1064.465204	0.091929
1064.630092	0.092995
1064.794961	0.091625
1064.959812	0.089891
1065.124645	0.090070
1065.289459	0.090538
1065.454256	0.088954
1065.619034	0.089739
1065.783793	0.086962
1065.948535	0.084696
1066.113258	0.082271
1066.277964	0.083610
1066.442651	0.084749
1066.607319	0.082961
1066.771970	0.083690
1066.936602	0.086377
1067.101216	0.085822
1067.265812	0.088839
1067.430389	0.090470
1067.594949	0.092122
1067.759490	0.092660
1067.924013	0.092269
1068.088518	0.092293
1068.253004	0.092367
1068.417472	0.093560
1068.581922	0.093309
1068.746354	0.094659
1068.910768	0.094885
1069.075163	0.097786
1069.239540	0.098539
1069.403899	0.101113
1069.568240	0.102939
1069.732562	0.103133
1069.896866	0.099634
1070.061152	0.096707
1070.225420	0.095737
1070.389670	0.094986
1070.553901	0.091733
1070.718114	0.090577
1070.882309	0.087542
1071.046486	0.084206
1071.210644	0.085410
1071.374784	0.087435
1071.538906	0.089772
1071.703010	0.089542
1071.867096	0.088022
1072.031163	0.087076
1072.195212	0.089055
1072.359243	0.091843
1072.523256	0.093274
1072.687250	0.091911
1072.851226	0.091788
1073.015184	0.092407
1073.179124	0.092204
1073.343045	0.090246
1073.506949	0.090967
1073.670834	0.090244
1073.834701	0.088903
1073.998549	0.087263
1074.162380	0.088052
1074.326192	0.086466
1074.489986	0.087558
1074.653761	0.084210
1074.817519	0.088148
1074.981258	0.089199
1075.144979	0.089516
1075.308682	0.088474
1075.472367	0.089314
1075.636033	0.089065
1075.799681	0.091138
1075.963311	0.089552
1076.126923	0.092826
1076.290516	0.089014
1076.454092	0.090727
1076.617649	0.088992
1076.781187	0.091701
1076.944708	0.094532
1077.108210	0.093106
1077.271695	0.090936
1077.435160	0.093915
1077.598608	0.092726
1077.762038	0.095932
1077.925449	0.095991
1078.088842	0.098637
1078.252217	0.095650
1078.415573	0.094782
1078.578912	0.091391
1078.742232	0.092534
1078.905534	0.090631
1079.068817	0.092229
1079.232083	0.090892
1079.395330	0.087967
1079.558559	0.087931
1079.721770	0.087498
1079.884962	0.086066
1080.048136	0.091578
1080.211293	0.092642
1080.374430	0.091046
1080.537550	0.092673
1080.700651	0.094577
1080.863735	0.095552
1081.026800	0.093273
1081.189846	0.093380
1081.352875	0.093497
1081.515885	0.089013
1081.678877	0.086631
1081.841851	0.090646
1082.004807	0.088957
1082.167744	0.087257
1082.330663	0.085980
1082.493564	0.085823
1082.656447	0.087857
1082.819312	0.087221
1082.982158	0.090356
1083.144986	0.092856
1083.307796	0.089402
1083.470587	0.090794
1083.633361	0.090160
1083.796116	0.087897
1083.958853	0.090460
1084.121571	0.092160
1084.284272	0.092631
1084.446954	0.091908
1084.609618	0.091635
1084.772264	0.091703
1084.934892	0.091202
1085.097501	0.092133
1085.260092	0.097881
1085.422665	0.095100
1085.585220	0.091918
1085.747756	0.089533
1085.910274	0.090942
1086.072774	0.090672
1086.235256	0.089992
1086.397720	0.090867
1086.560165	0.091302
1086.722592	0.090617
1086.885001	0.093745
1087.047392	0.093376
1087.209764	0.098247
1087.372119	0.099816
1087.534455	0.097600
1087.696772	0.097234
1087.859072	0.090189
1088.021353	0.086781
1088.183616	0.082370
1088.345861	0.083149
1088.508088	0.083605
1088.670296	0.082288
1088.832486	0.081265
1088.994658	0.082371
1089.156812	0.084655
1089.318948	0.087692
1089.481065	0.091431
1089.643164	0.094420
1089.805245	0.093478
1089.967308	0.094580
1090.129352	0.089961
1090.291378	0.087570
1090.453386	0.088138
1090.615376	0.087388
1090.777347	0.088282
1090.939301	0.088267
1091.101236	0.086637
1091.263153	0.086078
1091.425051	0.084551
1091.586932	0.088488
1091.748794	0.090089
1091.910638	0.089895
1092.072463	0.092721
1092.234271	0.093370
1092.396060	0.092776
1092.557831	0.092011
1092.719584	0.093105
1092.881319	0.096133
1093.043035	0.094816
1093.204733	0.096344
1093.366413	0.095371
1093.528075	0.094968
1093.689718	0.095384
1093.851343	0.094027
1094.012950	0.097044
1094.174539	0.092493
1094.336110	0.089373
1094.497662	0.091182
1094.659196	0.088062
1094.820712	0.088774
1094.982210	0.087207
1095.143689	0.087156
1095.305151	0.089947
1095.466594	0.091601
1095.628018	0.095795
1095.789425	0.098248
1095.950813	0.104571
1096.112183	0.104698
1096.273535	0.103887
1096.434869	0.098787
1096.596184	0.098943
1096.757482	0.098914
1096.918761	0.093587
1097.080021	0.092653
1097.241264	0.091419
1097.402488	0.085939
1097.563694	0.085724
1097.724882	0.089217
1097.886052	0.091550
1098.047203	0.090445
1098.208336	0.086840
1098.369451	0.090488
1098.530548	0.088499
1098.691627	0.088417
1098.852687	0.087403
1099.013729	0.087122
1099.174753	0.086901
1099.335758	0.089514
1099.496746	0.089906
1099.657715	0.091581
1099.818666	0.092580
1099.979599	0.096056
1100.140513	0.096922
1100.301409	0.097883
1100.462287	0.099947
1100.623147	0.097000
1100.783989	0.094641
1100.944812	0.097933
1101.105617	0.100579
1101.266404	0.100560
1101.427173	0.093993
1101.587923	0.094250
1101.748656	0.096314
1101.909370	0.095715
1102.070066	0.097794
1102.230743	0.098321
1102.391403	0.094219
1102.552044	0.093414
1102.712667	0.095538
1102.873271	0.097230
1103.033858	0.097205
1103.194426	0.095389
1103.354976	0.099121
1103.515508	0.099127
1103.676021	0.100360
1103.836517	0.103330
1103.996994	0.100323
1104.157453	0.093067
1104.317893	0.092583
1104.478316	0.093135
1104.638720	0.091840
1104.799106	0.086485
1104.959474	0.085625
1105.119823	0.083674
1105.280155	0.080167
1105.440468	0.081636
1105.600763	0.086875
1105.761039	0.090116
1105.921298	0.089901
1106.081538	0.090807
1106.241760	0.097303
1106.401964	0.098673
1106.562149	0.100249
1106.722316	0.103010
1106.882465	0.104027
1107.042596	0.104617
1107.202709	0.100186
1107.362803	0.098420
1107.522879	0.095414
1107.682937	0.092878
1107.842977	0.094046
1108.002999	0.092381
1108.163002	0.091759
1108.322987	0.088197
1108.482954	0.086251
1108.642902	0.090187
1108.802833	0.088288
1108.962745	0.088342
1109.122639	0.086065
1109.282515	0.082536
1109.442372	0.082105
1109.602211	0.080118
1109.762032	0.082695
1109.921835	0.078153
1110.081620	0.075702
1110.241386	0.079845
1110.401134	0.084123
1110.560864	0.081212
1110.720576	0.085304
1110.880269	0.083604
1111.039945	0.086466
1111.199602	0.085353
1111.359240	0.094487
1111.518861	0.095135
1111.678463	0.091167
1111.838047	0.092924
1111.997613	0.095996
1112.157161	0.096427
1112.316690	0.097391
1112.476202	0.095920
1112.635695	0.096466
1112.795169	0.091570
1112.954626	0.093371
1113.114064	0.096119
1113.273484	0.090122
1113.432886	0.091520
1113.592270	0.089448
1113.751635	0.090854
1113.910983	0.089407
1114.070312	0.092455
1114.229622	0.092368
1114.388915	0.093913
1114.548189	0.094824
1114.707445	0.096826
1114.866683	0.093746
1115.025903	0.093860
1115.185104	0.099065
1115.344287	0.101890
1115.503452	0.103067
1115.662599	0.103048
1115.821727	0.097170
1115.980838	0.098648
1116.139930	0.099598
1116.299004	0.103977
1116.458059	0.103192
1116.617097	0.098800
1116.776116	0.099025
1116.935117	0.099401
1117.094099	0.097804
1117.253064	0.102921
1117.412010	0.097265
1117.570938	0.094117
1117.729848	0.094465
1117.888740	0.095519
1118.047613	0.095636
1118.206468	0.092415
1118.365305	0.089955
1118.524124	0.091404
1118.682924	0.087459
1118.841707	0.086965
1119.000471	0.090611
1119.159216	0.085489
1119.317944	0.082290
1119.476653	0.084031
1119.635344	0.083979
1119.794017	0.078987
1119.952672	0.081125
1120.111308	0.083790
1120.269927	0.086302
1120.428527	0.083906
1120.587108	0.085830
1120.745672	0.080560
1120.904217	0.078553
1121.062744	0.076747
1121.221253	0.078534
1121.379744	0.075182
1121.538216	0.077610
1121.696671	0.077334
1121.855107	0.074865
1122.013524	0.075864
1122.171924	0.080839
1122.330305	0.079016
1122.488668	0.082252
1122.647013	0.080623
1122.805340	0.081333
1122.963648	0.079741
1123.121938	0.082703
1123.280210	0.083232
1123.438464	0.082097
1123.596700	0.083243
1123.754917	0.081682
1123.913116	0.080651
1124.071297	0.085361
1124.229459	0.088593
1124.387604	0.091567
1124.545730	0.088489
1124.703838	0.089446
1124.861928	0.090029
1125.019999	0.090080
1125.178052	0.095690
1125.336088	0.102351
1125.494104	0.099348
1125.652103	0.092232
1125.810083	0.087522
1125.968045	0.093560
1126.125989	0.096219
1126.283915	0.093329
1126.441823	0.090488
1126.599712	0.089698
1126.757583	0.087465
1126.915436	0.088953
1127.073270	0.092059
1127.231087	0.091826
1127.388885	0.087905
1127.546665	0.089553
1127.704426	0.094421
1127.862170	0.099302
1128.019895	0.099609
1128.177602	0.098166
1128.335291	0.095799
1128.492961	0.099144
1128.650614	0.102752
1128.808248	0.098137
1128.965864	0.098728
1129.123461	0.097924
1129.281041	0.094775
1129.438602	0.095108
1129.596145	0.089752
1129.753670	0.091702
1129.911176	0.090019
1130.068665	0.089832
1130.226135	0.094980
1130.383587	0.094475
1130.541020	0.091650
1130.698436	0.087894
1130.855833	0.081381
1131.013212	0.088502
1131.170573	0.088175
1131.327915	0.086699
1131.485239	0.084952
1131.642545	0.080869
1131.799833	0.081124
1131.957103	0.081566
1132.114354	0.087051
1132.271588	0.089443
1132.428803	0.084209
1132.585999	0.080984
1132.743178	0.086971
1132.900338	0.091605
1133.057480	0.096332
1133.214604	0.093893
1133.371710	0.096548
1133.528797	0.088791
1133.685866	0.093082
1133.842917	0.094502
1133.999950	0.096796
1134.156964	0.088834
1134.313960	0.086518
1134.470938	0.082879
1134.627898	0.080720
1134.784840	0.081601
1134.941763	0.087519
1135.098668	0.085738
1135.255555	0.092201
1135.412424	0.097282
1135.569274	0.103725
1135.726107	0.097136
1135.882921	0.096876
1136.039716	0.096442
1136.196494	0.092241
1136.353253	0.090764
1136.509995	0.085183
1136.666717	0.078826
1136.823422	0.072590
1136.980109	0.069542
1137.136777	0.072651
1137.293427	0.076933
1137.450059	0.075048
1137.606672	0.078505
1137.763267	0.082405
1137.919844	0.092974
1138.076403	0.097339
1138.232944	0.104813
1138.389466	0.105520
1138.545971	0.105462
1138.702457	0.103949
1138.858924	0.105962
1139.015374	0.103693
1139.171805	0.100668
1139.328218	0.092363
1139.484613	0.088383
1139.640990	0.084901
1139.797348	0.082499
1139.953688	0.084698
1140.110010	0.080756
1140.266314	0.078139
1140.422600	0.079812
1140.578867	0.079292
1140.735116	0.080598
1140.891347	0.080479
1141.047559	0.081630
1141.203754	0.085168
1141.359930	0.080426
1141.516088	0.079724
1141.672228	0.080629
1141.828349	0.078500
1141.984452	0.079907
1142.140537	0.072561
1142.296604	0.073569
1142.452653	0.070882
1142.608683	0.068893
1142.764695	0.074477
1142.920689	0.078686
1143.076665	0.082538
1143.232622	0.078173
1143.388562	0.082489
1143.544483	0.089110
1143.700385	0.082182
1143.856270	0.079148
1144.012136	0.081510
1144.167985	0.074952
1144.323814	0.061527
1144.479626	0.060683
1144.635420	0.064949
1144.791195	0.059559
1144.946952	0.061875
1145.102691	0.064578
1145.258411	0.067317
1145.414113	0.066828
1145.569798	0.071120
1145.725463	0.082603
1145.881111	0.073565
1146.036741	0.076991
1146.192352	0.078755
1146.347945	0.080017
1146.503519	0.081214
1146.659076	0.080965
1146.814614	0.085710
1146.970134	0.089478
1147.125636	0.096055
1147.281120	0.100016
1147.436585	0.094824
1147.592032	0.096437
1147.747461	0.092521
1147.902872	0.093764
1148.058265	0.092500
1148.213639	0.080630
1148.368995	0.077291
1148.524333	0.071360
1148.679653	0.079764
1148.834954	0.074753
1148.990237	0.070772
1149.145502	0.069290
1149.300749	0.062228
1149.455977	0.063270
1149.611188	0.068272
1149.766380	0.067920
1149.921553	0.069003
1150.076709	0.065971
1150.231846	0.066053
1150.386966	0.063200
1150.542066	0.068922
1150.697149	0.075568
1150.852214	0.079459
1151.007260	0.079600
1151.162288	0.077203
1151.317298	0.078939
1151.472289	0.076449
1151.627263	0.081888
1151.782218	0.082358
1151.937155	0.081351
1152.092073	0.079991
1152.246974	0.077870
1152.401856	0.074824
1152.556720	0.077523
1152.711566	0.073570
1152.866393	0.076440
1153.021203	0.078485
1153.175994	0.079423
1153.330767	0.075145
1153.485521	0.077994
1153.640258	0.082578
1153.794976	0.082813
1153.949676	0.083641
1154.104358	0.082303
1154.259021	0.083723
1154.413667	0.077661
1154.568294	0.077625
1154.722903	0.086622
1154.877493	0.080281
1155.032066	0.073212
1155.186620	0.068923
1155.341156	0.064759
1155.495674	0.068662
1155.650173	0.069883
1155.804654	0.074668
1155.959118	0.077718
1156.113562	0.065631
1156.267989	0.071690
1156.422397	0.068999
1156.576788	0.073858
1156.731160	0.071643
1156.885513	0.069211
1157.039849	0.068439
1157.194166	0.070161
1157.348465	0.069976
1157.502746	0.075252
1157.657009	0.072339
1157.811253	0.082303
1157.965479	0.088119
1158.119687	0.085471
1158.273877	0.077186
1158.428048	0.071911
1158.582201	0.069582
1158.736337	0.071668
1158.890453	0.077513
1159.044552	0.073966
1159.198632	0.065546
1159.352694	0.064108
1159.506738	0.074870
1159.660764	0.075333
1159.814771	0.078823
1159.968761	0.080051
1160.122732	0.074864
1160.276685	0.069837
1160.430619	0.081260
1160.584535	0.079720
1160.738434	0.070695
1160.892313	0.050278
1161.046175	0.056196
1161.200019	0.051675
1161.353844	0.044436
1161.507651	0.043694
1161.661440	0.040005
1161.815210	0.031145
1161.968962	0.042352
1162.122697	0.049617
1162.276412	0.070152
1162.430110	0.076299
1162.583789	0.082521
1162.737451	0.090930
1162.891094	0.090480
1163.044718	0.084612
1163.198325	0.088261
1163.351913	0.081782
1163.505483	0.075773
1163.659035	0.076080
1163.812569	0.074375
1163.966084	0.075116
1164.119581	0.068750
1164.273060	0.070780
1164.426521	0.075144
1164.579964	0.079742
1164.733388	0.072042
1164.886794	0.080184
1165.040182	0.075990
1165.193551	0.075933
1165.346903	0.071941
1165.500236	0.078885
1165.653551	0.079263
1165.806848	0.085695
1165.960126	0.078217
1166.113386	0.081257
1166.266628	0.076232
1166.419852	0.074544
1166.573058	0.074700
1166.726245	0.078273
1166.879414	0.077017
1167.032565	0.076393
1167.185698	0.074908
1167.338812	0.077474
1167.491909	0.082471
1167.644987	0.080429
1167.798046	0.083314
1167.951088	0.079183
1168.104111	0.077082
1168.257117	0.079206
1168.410103	0.087404
1168.563072	0.084017
1168.716023	0.079622
1168.868955	0.075153
1169.021869	0.074441
1169.174765	0.070819
1169.327642	0.076080
1169.480501	0.071424
1169.633343	0.067692
1169.786165	0.059531
1169.938970	0.060468
1170.091757	0.059734
1170.244525	0.055636
1170.397275	0.055277
1170.550007	0.058359
1170.702720	0.054881
1170.855415	0.062639
1171.008092	0.057219
1171.160751	0.054251
1171.313392	0.050358
1171.466014	0.107356
1171.618619	0.025043
1171.771205	0.025043
1171.923772	0.025043
