sample name	sample
index	46
start time	 02-11-2021  02:08:40 PM
880	0.200041
Peak Time (s)	82.534
Peak Height 	0.2
calc peak height	80,83
Baseline Time (s)	11.037
Baseline Value 	-0.002649
subtract baseline	10,4
Abs	0.120767
Peak Time (s)	81.036
Peak Height 	0.1208
calc peak height	80,83
Baseline Time (s)	9.037
Baseline Value 	0.003391
subtract baseline	10,3
PK_550	0.064351
Peak Time (s)	80.538
Peak Height 	0.06435
calc peak height	80,83
Baseline Time (s)	11.537
Baseline Value 	-1.6265E-4
subtract baseline	10,2
PK_880	0.099820
Peak Time (s)	81.537
Peak Height 	0.09982
calc peak height	80,83
Baseline Time (s)	8.536
Baseline Value 	0.001144
subtract baseline	10,1


Time (s)	A880-A510	A880-A775	A880-A975	A880	I510	I775	I975	I880	
0.036500	0.000275	-0.000690	-0.009340	-0.000351	4623.487847	20146.275644	3302.463554	10956.003717
0.537000	-0.000895	0.000087	0.000553	0.001928	4610.348213	20087.112066	3309.399188	10914.082420
1.065000	-0.002224	-0.001197	-0.002792	0.000924	4609.113199	20076.126520	3307.254077	10932.530058
1.537500	0.001348	0.000818	-0.006123	0.001566	4620.264637	20130.151975	3303.639530	10920.719140
2.035500	0.002055	0.000464	0.001679	-0.000912	4632.472922	20214.102719	3313.060178	10966.375667
2.535500	0.000056	0.000169	-0.001714	-0.000132	4621.816063	20171.563515	3309.208804	10951.966893
3.036000	0.001478	0.001581	0.001907	0.003824	4612.157056	20071.303780	3308.900764	10879.351717
3.536000	-0.000882	0.000244	-0.006814	0.002517	4608.159567	20070.106537	3302.154756	10903.268526
4.039000	0.001821	-0.000382	-0.002701	0.001118	4623.787855	20100.551738	3307.160090	10928.961383
4.536500	-0.001757	0.000869	0.002801	0.002791	4603.808757	20083.908631	3310.673214	10898.250174
5.037000	-0.002729	0.000028	0.009045	0.001351	4605.580297	20107.477587	3317.818925	10924.665719
5.537500	0.004934	0.000935	0.000303	-0.001898	4647.408554	20271.917550	3312.698259	10984.606542
6.034500	0.002326	0.000441	-0.001997	-0.000815	4633.143840	20209.349761	3309.576576	10964.577929
6.543000	-0.000800	0.001064	0.000063	0.001998	4610.439174	20122.833728	3308.884686	10912.793073
7.035000	0.001920	0.001096	-0.004749	0.002039	4620.643699	20122.475974	3304.456065	10912.039224
7.535000	0.005922	0.000432	0.003746	-0.000596	4646.191377	20200.328181	3314.686793	10960.532925
8.035500	0.003334	0.000962	-0.001347	0.000530	4631.844249	20176.752908	3308.938255	10939.773382
8.535500	0.000000	0.000034	-0.007546	-0.000893	4624.512183	20196.296444	3304.578989	10966.012803
9.036500	-0.000561	-0.000244	0.000000	-0.000576	4621.155916	20172.813201	3311.196133	10960.173643
9.537000	0.000033	-0.001207	-0.005565	0.002559	4611.472156	20011.590058	3303.246057	10902.506313
10.039500	0.003210	-0.000114	0.001312	-0.004166	4649.521655	20320.433469	3315.745716	11026.707239
10.536500	0.002783	0.001086	0.006324	0.000464	4629.984614	20184.290535	3316.102970	10941.000101
11.037500	-0.002738	0.000410	0.003136	0.000000	4610.670060	20175.862918	3313.565213	10949.540081
11.537500	-0.002254	0.000000	-0.007686	0.001100	4608.331063	20116.288283	3302.647104	10929.289801
12.035000	-0.001476	-0.000413	-0.012725	-0.000274	4616.509348	20154.163299	3299.350668	10954.586768
12.535500	-0.001418	0.000458	0.005181	0.000988	4611.927554	20138.741350	3314.547947	10931.340368
13.036000	-0.001514	0.000497	-0.010920	0.000664	4612.794771	20153.074399	3300.127903	10937.302349
13.536000	-0.001030	0.001148	0.003324	0.002009	4609.525859	20125.694002	3311.878264	10912.595503
14.036000	0.001869	0.001007	0.002247	0.000924	4624.712386	20162.916700	3311.885855	10932.518686
14.536500	-0.002119	0.001080	0.013151	0.001233	4608.341439	20153.623665	3321.802449	10926.848608
15.034500	0.000700	0.000987	-0.006442	0.001381	4618.498038	20144.127051	3303.518637	10924.127395
15.534000	-0.001386	0.001497	-0.000493	0.002356	4606.861063	20125.758914	3308.046427	10906.224098
16.035000	0.000005	-0.000632	0.005747	-0.000176	4621.788295	20141.640296	3316.161273	10952.778139
16.535000	0.001558	0.000353	0.002814	0.000744	4624.211286	20144.242427	3312.577074	10935.839376
17.035000	-0.002583	0.001963	-0.002349	0.001548	4605.386962	20176.042051	3307.087964	10921.047620
17.538000	0.004484	0.001156	-0.009593	0.001557	4632.316248	20143.839921	3300.517089	10920.881967
18.035500	0.000884	0.000615	0.007566	0.000979	4620.736093	20145.321072	3316.782467	10931.517965
18.538500	0.002316	0.001765	0.001043	0.001911	4622.645186	20153.891788	3309.865010	10914.382533
19.036500	-0.000323	0.001050	-0.009865	0.001263	4615.049921	20151.260342	3300.538280	10926.297049
19.533500	-0.001279	0.000740	0.000109	0.000570	4614.049054	20166.383717	3310.239323	10939.038543
20.034000	0.000580	0.001152	-0.001028	0.001757	4616.605892	20135.813783	3308.106003	10917.222625
20.536000	0.001660	0.001012	0.001160	0.000453	4625.716168	20181.735170	3311.316045	10941.188705
21.035000	0.001259	0.000155	0.001829	0.004844	4607.454607	19975.496616	3307.894963	10860.744024
21.552000	-0.000373	0.000834	0.004593	-0.000106	4620.079504	20196.830073	3315.019037	10951.496254
22.038000	0.001335	0.002624	-0.002538	0.000944	4622.591133	20226.151054	3307.467683	10932.154081
22.536000	0.001989	0.001524	0.005662	0.000754	4625.824373	20190.115162	3315.213931	10935.650742
23.036000	0.002390	0.001915	0.002553	0.005315	4609.956898	20025.939953	3308.126299	10852.160365
23.561000	0.004147	0.002334	0.000927	0.001727	4630.370395	20183.654056	3309.927152	10917.761040
24.036500	-0.001762	0.000311	-0.008972	0.001899	4607.169026	20097.091441	3300.768634	10914.616443
24.534500	-0.002101	-0.000087	-0.011270	0.001502	4607.386077	20097.008292	3299.063197	10921.893037
25.050000	-0.002172	0.000262	0.004767	0.003102	4601.068317	20047.896599	3312.202605	10892.567402
25.537000	-0.004384	-0.001037	-0.009678	0.003392	4591.650869	19985.663071	3298.796780	10887.259072
26.034500	0.000576	-0.000358	0.005741	-0.000919	4626.817236	20181.812808	3316.850461	10966.491927
26.535000	0.004292	0.000936	0.003570	-0.000178	4638.267150	20203.753322	3314.134868	10952.829578
27.035500	0.002041	-0.000557	-0.001478	0.003814	4614.336117	19987.925703	3305.816486	10879.544055
27.536000	0.005701	0.001451	-0.000598	0.002919	4631.763664	20101.798384	3307.435304	10895.912066
28.036500	0.004173	0.001339	0.008319	0.002113	4628.990071	20129.139724	3316.426417	10910.692243
28.537000	-0.001280	0.001508	0.006604	0.001631	4610.012730	20154.842240	3315.275384	10919.539256
29.037000	-0.007375	0.000430	0.001145	0.003073	4581.650055	20055.609716	3308.891296	10893.091045
29.542500	-0.000176	0.000800	-0.001273	0.002503	4610.890718	20092.544332	3307.198476	10903.531039
30.037000	0.000579	0.001744	0.010801	0.002877	4612.341992	20114.983281	3318.035370	10896.683604
30.534500	-0.002155	0.000797	0.006190	0.001706	4606.409618	20123.793830	3314.818427	10918.150314
31.035000	-0.001404	0.002116	-0.002228	0.003699	4601.714185	20097.301519	3305.239171	10881.649789
31.535000	0.002270	0.000924	-0.004508	0.002676	4619.546090	20090.625117	3304.096934	10900.363278
32.035500	0.002528	0.001556	0.011426	0.002610	4620.785699	20118.105178	3318.873630	10901.578746
32.535500	0.001497	0.000817	-0.008235	0.001893	4619.584925	20117.222237	3301.437613	10914.725394
33.036500	0.002473	0.002135	0.007793	0.002832	4619.726678	20132.187958	3315.264040	10897.512356
33.539500	0.001858	0.000446	0.007739	0.002262	4619.554095	20088.124720	3315.744666	10907.957673
34.037500	0.002885	0.000006	0.002404	0.000615	4629.797554	20135.635895	3312.317559	10938.219239
34.546500	0.001523	0.000897	0.010864	0.002381	4617.821982	20101.151724	3318.560408	10905.764435
35.040500	-0.000116	0.001573	0.014738	0.002576	4610.843088	20120.131914	3322.033562	10902.198738
35.537500	0.001984	-0.000019	0.011165	0.002051	4620.843952	20078.116085	3319.154404	10911.828119
36.035000	0.000003	0.001776	-0.005770	0.002750	4610.635078	20121.257032	3302.887753	10899.005589
36.535500	-0.001265	-0.000423	0.002400	0.001243	4611.539401	20093.972345	3311.731981	10926.651549
37.043000	-0.000664	0.000661	-0.005109	0.001202	4613.982007	20138.328627	3304.889284	10927.412982
37.543500	-0.000924	0.001528	-0.002429	0.000924	4614.050487	20183.525186	3307.585270	10932.520191
38.036500	0.000499	0.001426	-0.003713	0.000789	4619.989432	20184.846063	3306.536487	10935.013152
38.539000	0.001550	0.001356	0.002909	0.001132	4622.698399	20168.534087	3312.306525	10928.707592
39.034000	0.000572	0.001489	-0.000732	0.000926	4619.745453	20181.903867	3309.138554	10932.486471
39.540000	-0.001546	-0.000588	0.003742	0.003298	4602.692373	20006.911588	3311.074122	10888.981251
40.037500	0.002490	0.001628	-0.001218	0.001345	4625.478267	20170.842313	3308.308713	10924.779993
40.535000	0.002002	0.000389	0.005394	0.000396	4627.245261	20159.412989	3315.298295	10942.243423
41.038500	-0.000866	0.000856	-0.001830	0.003555	4604.291922	20053.400972	3305.731743	10884.274293
41.535500	0.000408	0.000543	0.003099	0.003786	4608.240547	20032.079872	3310.031433	10880.046161
42.036000	0.003805	0.001041	0.002006	0.002274	4626.960718	20111.053938	3310.417916	10907.735617
42.550000	0.004227	0.001760	0.006308	0.001334	4632.185217	20176.492768	3315.275160	10924.978556
43.037500	-0.001897	0.000390	0.010900	0.004422	4597.124881	20001.155370	3316.680130	10868.430949
43.536500	0.001274	0.001365	-0.007549	0.004802	4607.670522	20024.484346	3299.440592	10861.505091
44.037000	0.004939	0.001288	0.001588	-0.001631	4646.390493	20275.314621	3313.642451	10979.655692
44.534500	0.003707	0.001518	0.011318	-0.002276	4644.117309	20310.166781	3323.392933	10991.614306
45.035000	-0.003751	-0.001466	-0.002069	0.011397	4564.213812	19659.160365	3298.442830	10742.183634
45.535000	-0.072814	-0.046957	0.020251	0.286693	3686.840853	10963.759488	3127.104266	7081.064315
46.035500	-0.077775	-0.040430	0.011610	0.090108	4089.051988	15707.189805	3244.472171	9449.511186
46.535500	-0.048344	-0.021675	-0.006101	-0.103263	4844.789588	23704.206338	3411.030954	13098.412326
47.036000	-0.023191	-0.011977	0.010178	-0.134011	5103.475395	25724.186071	3468.289340	13843.414814
47.536000	-0.015320	-0.003052	0.021518	-0.068694	4838.105514	22958.128187	3403.083425	12321.476455
48.036500	0.018451	0.005598	0.046471	-0.024086	4791.860537	21372.950674	3381.281308	11406.085110
48.540000	0.014549	0.011265	0.057552	0.021390	4595.163316	19764.450300	3345.423460	10564.804068
49.037000	0.018954	0.019834	0.047574	0.043636	4529.417712	19245.009276	3314.310225	10184.255639
49.539000	0.045597	0.030578	0.066089	0.057517	4576.171102	19128.143715	3318.644549	9956.502423
50.035000	0.060165	0.038485	0.078272	0.089382	4513.128239	18262.996588	3300.552929	9460.384913
50.535000	0.067820	0.043810	0.101668	0.106909	4478.264252	17840.392777	3305.863377	9202.645972
51.035500	0.071206	0.045046	0.097808	0.132918	4401.279263	17018.018845	3279.575317	8838.814493
51.535500	0.072498	0.049678	0.100840	0.150205	4349.223753	16615.704401	3267.653197	8608.779267
52.036000	0.084385	0.054289	0.105987	0.154469	4373.792946	16626.573546	3268.380634	8553.428867
52.536500	0.089900	0.056950	0.109856	0.153551	4394.864860	16739.251803	3272.349131	8565.300397
53.037500	0.093151	0.057058	0.105043	0.155055	4400.643327	16695.221085	3267.122015	8545.870537
53.540000	0.092935	0.056478	0.100760	0.154788	4400.814231	16685.345404	3263.837593	8549.315582
54.041500	0.091182	0.057363	0.098642	0.153016	4400.873571	16769.267528	3263.556303	8572.227516
54.534500	0.097761	0.060240	0.098339	0.155920	4413.108091	16768.406724	3260.957609	8534.722328
55.035000	0.096685	0.058254	0.097832	0.154893	4412.943067	16738.080488	3261.377900	8547.965264
55.535000	0.098775	0.060877	0.102789	0.163219	4392.250709	16558.957136	3258.665389	8441.542469
56.035500	0.099243	0.059019	0.112930	0.158915	4408.056127	16635.466695	3270.444531	8496.294957
56.536000	0.100628	0.062123	0.109019	0.163096	4398.779196	16601.754630	3263.798002	8443.106961
57.036000	0.099250	0.061326	0.112946	0.163879	4391.643578	16552.397977	3266.366107	8433.197982
57.536000	0.096602	0.059885	0.094464	0.167638	4370.701459	16391.181956	3248.593268	8385.887082
58.042500	0.101398	0.062402	0.106570	0.167380	4387.194791	16476.978783	3258.360585	8389.121650
58.534500	0.100349	0.062471	0.100243	0.167368	4383.795094	16479.457792	3253.337211	8389.269797
59.040000	0.099186	0.063098	0.121463	0.167641	4379.102082	16490.488035	3270.285768	8385.857601
59.537500	0.097755	0.062329	0.107134	0.170438	4365.368360	16380.221203	3256.367988	8350.919162
60.036000	0.099542	0.062795	0.104913	0.168130	4378.668276	16465.908036	3256.437635	8379.733756
60.535000	0.097386	0.065372	0.117128	0.170120	4365.201113	16484.100648	3264.681481	8354.871247
61.036000	0.099830	0.063632	0.104242	0.171622	4368.250405	16383.876802	3253.135483	8336.190844
61.537000	0.097334	0.064417	0.099644	0.171216	4361.496714	16420.618551	3249.842954	8341.238013
62.036000	0.100490	0.064902	0.111553	0.170214	4374.964075	16466.618106	3260.087505	8353.707516
62.539500	0.106013	0.065176	0.108579	0.169817	4394.362031	16487.422681	3258.018427	8358.654365
63.043000	0.101318	0.064280	0.109697	0.172812	4369.219601	16367.221884	3256.518780	8321.446793
63.537000	0.096414	0.064704	0.123181	0.170360	4361.293250	16455.956329	3269.456908	8351.891517
64.037500	0.098777	0.062651	0.107453	0.168794	4374.011183	16440.889186	3257.935405	8371.423592
64.535500	0.103860	0.064563	0.116253	0.170282	4385.752509	16454.009666	3263.837593	8352.865048
65.035500	0.097642	0.064683	0.118043	0.172760	4357.518543	16381.211847	3263.277113	8322.083451
65.535500	0.099839	0.063387	0.108011	0.173677	4361.638714	16313.222046	3254.490723	8310.736526
66.036500	0.096529	0.063849	0.107689	0.171068	4359.380402	16407.633277	3256.308032	8343.073114
66.546500	0.106408	0.065833	0.116703	0.173337	4384.090162	16398.861931	3261.722985	8314.944174
67.036500	0.096957	0.063095	0.101467	0.174111	4350.989216	16290.999694	3249.005521	8305.375046
67.534500	0.098599	0.062967	0.099013	0.175304	4352.428534	16250.666470	3246.173924	8290.667907
68.038000	0.100948	0.064057	0.116781	0.172816	4368.004104	16360.230575	3262.207966	8321.391145
68.543000	0.101355	0.064143	0.107965	0.173420	4367.366339	16344.312662	3254.658798	8313.919509
69.035000	0.100106	0.064234	0.120425	0.173440	4363.264746	16346.477991	3264.663080	8313.667375
69.535500	0.094715	0.061116	0.116796	0.176253	4337.035034	16165.560615	3259.446016	8278.996681
70.036000	0.100917	0.065119	0.116471	0.176070	4357.407127	16293.009950	3259.332268	8281.249210
70.536000	0.097355	0.063392	0.097994	0.175327	4348.376794	16262.920580	3245.369628	8290.386743
71.036500	0.100236	0.063905	0.117455	0.177298	4351.284432	16218.498068	3259.136168	8266.175175
71.539500	0.104951	0.064881	0.119630	0.179058	4360.772831	16194.704257	3259.469685	8244.653931
72.036000	0.095275	0.064283	0.107904	0.179004	4330.114936	16178.206043	3250.212447	8245.315343
72.537000	0.097720	0.063580	0.115664	0.179257	4337.038888	16149.231042	3256.137857	8242.221911
73.038000	0.100986	0.065578	0.125079	0.181532	4340.182995	16140.845283	3261.870094	8214.545447
73.537500	0.093521	0.063307	0.100287	0.181297	4317.421509	16079.445275	3242.545468	8217.397995
74.035000	0.101141	0.064484	0.119368	0.182326	4338.155914	16083.909308	3256.643873	8204.920189
74.535500	0.101915	0.066955	0.118600	0.186409	4327.704298	16035.426752	3252.797387	8155.682110
75.036000	0.098533	0.063828	0.112362	0.184184	4324.073270	16008.419911	3249.647680	8182.458411
75.535500	0.104065	0.064658	0.122686	0.186113	4335.421947	15975.552774	3256.270317	8159.240498
76.039000	0.100359	0.065517	0.119199	0.188194	4317.237463	15939.124888	3251.862886	8134.304531
76.536500	0.099899	0.066201	0.117177	0.189822	4310.737633	15911.039842	3249.005521	8114.889380
77.036500	0.096203	0.062762	0.120048	0.189164	4301.331795	15828.701683	3251.768452	8122.728484
77.534500	0.096996	0.064097	0.110385	0.190703	4299.034895	15822.700706	3243.074861	8104.413741
78.035500	0.094554	0.061985	0.115756	0.189166	4296.249197	15805.713615	3248.409494	8122.702975
78.534500	0.098466	0.063490	0.102417	0.192349	4298.490315	15756.348502	3235.790080	8084.883262
79.035500	0.100318	0.063148	0.106338	0.192947	4302.356378	15728.803364	3238.290035	8077.810165
79.535500	0.096198	0.062907	0.110844	0.193442	4288.184305	15707.275866	3241.332982	8071.965407
80.036000	0.098581	0.063876	0.100546	0.195919	4287.899811	15663.275323	3231.738853	8042.806150
80.538500	0.097864	0.064351	0.113407	0.196609	4283.608094	15657.010050	3240.873099	8034.710099
81.036000	0.098334	0.063968	0.120767	0.198820	4278.320154	15581.682593	3244.814553	8008.853904
81.536500	0.099820	0.063254	0.117921	0.197763	4286.049612	15591.605772	3243.439775	8021.193759
82.034000	0.099352	0.064006	0.117036	0.199183	4280.304151	15572.268304	3241.676190	8004.620235
82.534000	0.094446	0.064338	0.105684	0.200041	4262.921318	15557.081116	3232.491301	7994.637018
83.034500	0.097271	0.062573	0.119099	0.199502	4273.038588	15521.701150	3243.009482	8000.909278
83.535000	0.092810	0.063992	0.119435	0.205411	4242.099016	15392.987151	3238.768406	7932.570786
84.037500	0.099508	0.063945	0.114293	0.202731	4270.045326	15468.296408	3236.911729	7963.443798
84.555000	0.100162	0.064987	0.110437	0.204463	4266.803785	15448.532338	3232.736994	7943.472788
85.076500	0.095112	0.063345	0.124550	0.204163	4252.605229	15410.129682	3243.615734	7946.924990
85.536000	0.094372	0.063618	0.119264	0.204597	4249.123415	15405.564152	3239.255573	7941.932477
86.036000	0.097035	0.062187	0.113001	0.203958	4258.946013	15382.950611	3235.023275	7949.281597
86.534000	0.098688	0.062693	0.114594	0.204974	4260.849869	15368.423779	3235.454308	7937.585526
87.034000	0.099669	0.064755	0.106106	0.208393	4253.580058	15329.873667	3226.662667	7898.434054
87.534500	0.094956	0.062892	0.118070	0.208708	4238.707521	15268.222583	3235.261668	7894.835209
