sample name	sample
index	615
start time	 03-19-2021  02:09:49 PM
880	0.390856
Peak Time (s)	92.037
Peak Height 	0.3909
calc peak height	90,93
Baseline Time (s)	11.537
Baseline Value 	-0.005362
subtract baseline	10,4
Abs	0.249597
Peak Time (s)	92.537
Peak Height 	0.2496
calc peak height	90,93
Baseline Time (s)	8.536
Baseline Value 	0.005888
subtract baseline	10,3
PK_550	0.145966
Peak Time (s)	92.537
Peak Height 	0.146
calc peak height	90,93
Baseline Time (s)	9.537
Baseline Value 	7.3128E-4
subtract baseline	10,2
PK_880	0.245553
Peak Time (s)	92.537
Peak Height 	0.2456
calc peak height	90,93
Baseline Time (s)	9.036
Baseline Value 	0.001779
subtract baseline	10,1


Time (s)	A880-A510	A880-A775	A880-A975	A880	I510	I775	I975	I880	
0.036000	0.000715	-0.000265	-0.002778	0.002441	7080.749173	46958.551625	4045.126910	24748.425820
0.536500	-0.004382	-0.000444	-0.008333	0.007325	6985.880993	46448.566638	4017.807573	24504.191968
1.037000	-0.000925	-0.000637	-0.007570	0.004253	7047.694128	46737.950998	4027.769405	24657.516086
1.540000	0.000449	-0.000375	-0.000644	0.001729	7085.043311	47019.703285	4052.689453	24784.282982
2.034500	-0.000545	-0.000806	-0.000911	0.000575	7086.576060	47093.044491	4055.056742	24842.449920
2.535000	-0.003787	-0.000578	-0.005813	0.006707	6997.297754	46497.062524	4025.951201	24534.939242
3.035000	0.001198	0.000129	0.001031	-0.000580	7114.569061	47305.986402	4063.359408	24900.880340
3.535500	-0.000094	0.000402	-0.005362	0.000838	7088.387176	47189.174161	4042.528681	24829.167100
4.035500	0.000854	-0.000322	-0.002288	0.000754	7098.337841	47124.072248	4050.908740	24833.448657
4.536000	0.002692	0.000437	0.001479	0.001197	7111.825014	47156.189342	4059.790839	24811.083738
5.036500	0.001007	0.000273	-0.003138	0.000337	7103.847229	47227.091493	4049.755159	24854.480458
5.536500	0.000405	-0.000794	-0.003597	-0.000335	7104.519827	47186.825725	4050.320149	24888.463987
6.037000	0.001048	-0.000297	0.000104	0.000362	7103.996542	47166.495709	4058.342575	24853.224740
6.537000	0.000914	-0.001080	0.001615	-0.000389	7109.970122	47163.184516	4064.418020	24891.201986
7.037500	0.001439	-0.000964	-0.008191	0.000040	7110.896975	47131.379197	4037.175629	24869.510875
7.535000	-0.000217	-0.000028	0.000010	0.000337	7092.031198	47196.422297	4058.157011	24854.501904
8.035500	-0.000179	-0.000760	-0.001319	-0.000261	7098.168469	47182.846376	4056.200476	24884.750715
8.535500	0.003020	-0.000126	0.000000	0.000099	7125.662593	47210.672033	4058.768581	24866.537376
9.036000	0.000000	0.000555	-0.003827	0.000177	7095.660298	47272.062135	4048.347090	24862.554672
9.536500	0.002018	0.000000	0.000452	-0.000022	7117.116956	47235.886716	4060.304514	24872.660558
10.036500	-0.000094	-0.000693	-0.001413	-0.000618	7102.439385	47226.021289	4056.904399	24902.824270
10.537000	0.001546	0.000235	-0.002398	0.000564	7106.862430	47200.065701	4051.120848	24843.034298
11.039500	-0.000130	-0.000587	0.000830	-0.000638	7102.277819	47238.836438	4062.974956	24903.823998
11.537000	-0.000175	0.000005	0.000876	0.000000	7095.685694	47234.092160	4061.384025	24871.527569
12.035000	0.000906	0.000200	0.002894	-0.000329	7109.317288	47287.609750	4067.705454	24888.183816
12.535000	0.000822	-0.000602	-0.004700	-0.000587	7110.991197	47232.035266	4048.059706	24901.233634
13.035500	-0.000121	-0.000618	0.001481	-0.001644	7112.098540	47338.299568	4067.441361	24954.823446
13.535500	-0.000839	-0.000589	-0.003722	-0.000093	7090.175713	47183.010311	4049.346504	24876.226529
14.049500	0.001466	0.000059	-0.002524	0.000355	7108.106831	47203.454861	4051.340909	24853.571663
14.536000	-0.000365	-0.000142	-0.002407	0.002884	7066.133709	46926.241773	4044.936905	24726.169706
15.036500	0.000351	0.000051	-0.007254	0.001292	7088.304664	47107.254475	4036.349850	24806.300045
15.540000	-0.000731	-0.000435	-0.005378	0.000594	7084.607578	47128.804514	4043.133194	24841.514989
16.037500	0.000610	-0.000305	0.003010	0.000318	7100.191103	47170.119721	4066.272218	24855.460816
16.535000	0.000530	0.000136	-0.002175	0.003763	7066.281341	46865.365176	4043.224926	24682.060288
17.035000	-0.000640	-0.000722	-0.002651	-0.000423	7095.280347	47203.189191	4053.078415	24892.953463
17.535000	0.003170	0.000022	-0.000700	-0.001391	7141.632639	47377.936528	4060.887545	24941.993637
18.035500	0.001837	-0.000086	-0.003368	0.000346	7111.788304	47189.588807	4049.120504	24854.040889
18.535500	0.000494	-0.000279	-0.002268	0.001467	7087.986770	47055.920250	4049.061530	24797.445424
19.036000	0.000982	-0.000772	0.002800	0.001198	7095.296158	47033.252527	4063.337770	24811.045596
19.536500	-0.000206	-0.000014	-0.004516	0.001993	7076.198161	47029.506108	4041.715141	24770.965296
20.037000	0.003033	0.000733	0.000402	0.002554	7101.992238	47048.330254	4053.278422	24742.737273
20.540000	0.000263	-0.000071	0.001145	0.001887	7081.731166	47034.443490	4057.046843	24776.327349
21.037500	0.000233	-0.000696	-0.006833	0.001436	7085.771888	47016.755045	4037.075411	24799.010215
21.535000	-0.000004	-0.000509	-0.000818	0.001847	7079.552155	46994.141468	4051.911907	24778.334176
22.035000	-0.000058	0.000341	0.000120	0.001918	7078.338782	47073.053350	4054.222236	24774.725104
22.535500	0.001111	0.000545	0.000892	0.002002	7088.780567	47085.283748	4056.060649	24770.496667
23.035500	-0.000056	-0.000179	0.000510	0.001781	7079.682494	47034.172529	4055.630374	24781.636275
23.536500	0.000221	-0.000079	0.001865	0.001881	7081.373844	47034.162513	4058.990226	24776.591214
24.036500	-0.001480	-0.000999	0.001601	0.001030	7073.220807	47027.282386	4060.564924	24819.520663
24.536500	0.000054	-0.000753	-0.002307	0.001167	7086.647406	47038.296625	4049.758688	24812.598418
25.039500	0.000692	-0.000155	-0.005232	0.001469	7089.882424	47068.338333	4041.206801	24797.356019
25.537000	0.001187	-0.000627	-0.000356	0.001315	7096.132939	47036.053219	4054.562294	24805.102479
26.034500	0.000368	-0.000539	-0.002648	0.001530	7086.171306	47023.221114	4047.887431	24794.302058
26.535000	0.001708	0.000404	-0.001335	0.001871	7095.801310	47084.303541	4050.470563	24777.098796
27.035000	0.001574	0.000309	0.003137	0.002024	7093.030632	47059.124912	4062.021829	24769.416323
27.538500	-0.000619	0.000061	-0.001128	0.001279	7079.093793	47109.607910	4052.598547	24806.944615
28.036000	0.000844	-0.000123	0.000662	-0.001940	7124.337310	47419.279330	4066.029470	24969.870979
28.536000	-0.000781	-0.001409	-0.002925	-0.000461	7094.278838	47137.059096	4052.446102	24894.839187
29.047500	0.000348	-0.000153	-0.003671	0.000299	7097.851217	47187.606383	4048.441232	24856.426343
29.536500	-0.000904	-0.000609	-0.004990	0.000223	7086.504270	47148.862892	4045.141714	24860.245502
30.041000	0.002916	-0.000649	0.000093	0.000206	7123.606855	47146.478072	4058.728766	24861.107280
30.599500	-0.000202	-0.000549	-0.000826	0.001353	7082.387162	47040.125843	4053.204936	24803.194011
31.160000	-0.000099	-0.000697	0.002337	0.000313	7093.407125	47130.777892	4064.472192	24855.726881
31.687000	0.000737	-0.000875	0.001578	0.000070	7103.817288	47137.394017	4063.083746	24868.002450
32.059000	0.000877	-0.000170	-0.003784	0.000630	7099.759767	47152.113348	4047.261727	24839.704946
32.559500	-0.000515	-0.000839	-0.002478	0.003299	7060.717603	46813.727855	4043.648678	24705.330328
33.036500	0.000006	-0.000027	-0.002646	0.001804	7080.052119	47047.380022	4047.166467	24780.494059
33.571500	0.002580	0.000532	0.001822	0.000612	7116.411996	47225.406984	4062.281258	24840.601681
34.036000	0.000017	-0.000509	-0.000427	0.000514	7092.586944	47129.427187	4056.513561	24845.569976
34.564000	0.000261	0.000338	-0.000161	0.002033	7080.305090	47061.140862	4053.165345	24768.949802
35.034000	0.001467	0.000562	0.002001	0.000855	7103.290791	47203.778557	4062.108672	24828.345145
35.534500	-0.000331	0.000062	0.000609	0.000311	7091.183053	47208.204962	4059.832461	24855.794260
36.035000	-0.000754	-0.000361	-0.002597	0.001162	7078.920221	47078.611282	4049.000817	24812.853232
36.535000	0.001993	-0.000303	-0.003942	0.002377	7093.668397	46961.172157	4042.215976	24751.642791
37.035500	-0.001729	-0.000512	-0.002452	0.001750	7063.927473	47003.536366	4047.821984	24783.187234
37.535500	0.002090	-0.000155	0.001816	0.001922	7098.996950	47022.428188	4058.748820	24774.562003
38.036000	0.000593	-0.000836	-0.004199	0.001724	7086.471957	46973.325742	4043.261747	24784.508346
38.536500	-0.001240	-0.000406	-0.001413	0.002551	7060.942214	46933.259139	4048.456862	24742.917904
39.036500	0.000517	-0.000027	-0.002915	0.002538	7077.909966	46972.926404	4044.507748	24743.554927
39.537000	0.000122	-0.001107	-0.003963	0.001790	7081.301461	46939.200717	4043.711646	24781.186724
40.034500	0.000225	-0.000510	-0.001110	0.002275	7077.637133	46950.668786	4049.995876	24756.798795
40.535000	0.001338	0.000414	0.000106	0.002771	7083.562787	46993.918077	4051.909583	24731.815506
41.035000	0.000054	-0.000247	-0.000998	0.002137	7077.320474	46991.294542	4050.659898	24763.740769
41.535500	-0.000839	-0.001100	0.002811	0.001895	7071.066550	46929.254777	4061.489132	24775.878096
42.037500	-0.000793	0.000641	-0.001883	0.003003	7060.891373	46993.394575	4046.008376	24720.165161
42.535500	-0.000100	0.000058	-0.002777	0.002354	7073.751850	47000.196296	4045.360656	24752.820811
43.039000	0.000659	-0.000296	-0.003800	0.002497	7079.671328	46949.803973	4042.274726	24745.630729
43.567000	-0.001504	-0.001045	0.003431	0.001489	7068.582540	46976.057476	4064.251013	24796.370069
44.042500	0.000820	-0.000018	-0.005494	0.002449	7081.674297	46982.749040	4037.931692	24748.003160
44.537000	-0.000419	-0.000354	-0.001731	0.002098	7073.148375	46984.386161	4048.813893	24765.689846
45.034500	0.001760	-0.000293	0.000032	0.002244	7092.701819	46975.706203	4053.118006	24758.329086
45.537500	0.000897	0.000222	-0.000634	0.002546	7081.486150	46997.365941	4050.538936	24743.155937
46.035500	0.003207	0.000310	0.001673	-0.001753	7145.521776	47444.385229	4068.251372	24960.343391
46.535500	-0.000672	-0.000692	-0.002898	0.001112	7080.194514	47050.091192	4048.334093	24815.378531
47.036000	0.003033	0.000716	-0.001229	0.001271	7114.418662	47177.073550	4052.350910	24807.349891
47.536500	0.001345	-0.000069	-0.004140	0.001234	7098.444464	47100.919346	4044.716310	24809.206584
48.036000	0.000100	0.000300	0.000307	0.000700	7091.577233	47192.779900	4057.980208	24836.134705
48.536500	-0.000264	-0.000540	-0.002898	0.000919	7085.972536	47085.117817	4048.847632	24825.126006
49.037000	0.001137	0.000590	-0.001439	0.001057	7098.142134	47185.946245	4052.362030	24818.126964
49.537000	-0.000006	-0.000375	-0.004541	0.002669	7071.627681	46924.286669	4039.864781	24736.949972
50.034500	0.000081	-0.000487	-0.002785	0.002658	7072.570444	46914.196332	4044.533586	24737.526437
50.535000	0.000598	0.000128	-0.002060	0.001064	7092.878454	47138.312260	4050.689350	24817.783178
51.035000	-0.000831	-0.000193	-0.000991	0.000344	7086.051787	47178.980717	4055.460043	24854.159738
51.535500	0.001201	-0.000336	0.001690	0.000754	7101.696825	47122.686641	4061.545869	24833.442218
52.036000	0.002844	-0.000935	0.000937	-0.002297	7147.285806	47372.723643	4067.735733	24988.003434
52.535500	0.002032	-0.000514	-0.001870	0.004307	7075.477193	46744.841471	4042.591718	24654.805101
53.036500	-0.004742	-0.004497	0.006423	0.143009	5888.531774	34483.432457	3744.879175	18709.480336
53.539500	-0.029387	-0.022277	-0.012027	0.010174	6732.406592	44045.922107	4001.016505	24363.016183
54.037000	-0.034749	-0.028715	-0.006649	-0.088751	7652.409113	53797.387479	4301.301353	29851.346300
54.537000	-0.014318	-0.073423	0.003875	-0.219343	9626.483299	64913.977246	4841.289251	39302.910550
55.035000	-0.021453	-0.033106	0.010241	-0.133089	8326.049779	58695.279520	4514.243154	32747.251895
55.535000	-0.015813	-0.027754	0.009230	-0.124803	8293.135696	58320.002733	4479.943100	32183.356955
56.035000	-0.007955	-0.024691	0.006541	-0.135285	8525.515998	60073.857612	4508.642551	32898.510195
56.535500	0.013576	-0.026310	0.016360	-0.153407	9062.808852	62286.036517	4615.887004	34176.428158
57.036000	0.025501	-0.014491	0.017654	-0.134961	8971.042682	61387.618155	4549.235099	32876.145039
57.536000	0.037951	-0.002724	0.025426	-0.114717	8863.157746	60258.178357	4502.402559	31511.299274
58.039500	0.051594	0.007909	0.040182	-0.086030	8660.327058	57925.078131	4451.655609	29683.034147
58.537000	0.058926	0.018560	0.050587	-0.046252	8246.055469	54359.606002	4349.843684	27339.688171
59.037000	0.069284	0.026162	0.059488	-0.002601	7851.942825	50265.134766	4237.955799	25003.438402
59.534500	0.076691	0.032531	0.073753	0.040110	7465.759990	46467.660738	4152.803774	22933.957234
60.035000	0.087061	0.040736	0.086701	0.071388	7251.417627	44216.450956	4100.815331	21542.428928
60.535000	0.099030	0.048505	0.097786	0.099629	7091.592500	42316.696318	4054.102996	20369.269672
61.035500	0.104024	0.052662	0.103068	0.129340	6860.000214	40067.692844	3990.694113	19214.688361
61.536000	0.112788	0.058922	0.111374	0.151546	6739.482772	38729.892065	3956.175427	18401.899933
62.036000	0.118164	0.063067	0.119587	0.184065	6507.202374	36467.526520	3898.408167	17284.165590
62.536500	0.119827	0.064899	0.125511	0.211945	6296.204518	34516.815808	3848.934193	16390.292150
63.036000	0.130532	0.070751	0.135798	0.230675	6234.130259	33594.770408	3830.564122	15821.230894
63.536500	0.137278	0.074224	0.140847	0.246848	6162.654707	32711.861173	3806.902091	15349.212359
64.037000	0.143731	0.079625	0.151376	0.250937	6180.432264	32801.859933	3820.526188	15232.619697
64.534000	0.147303	0.083763	0.154599	0.254311	6181.930921	32854.426211	3820.205444	15137.254452
65.035000	0.149810	0.086257	0.151701	0.258188	6171.607519	32759.385312	3805.881642	15028.576692
65.544000	0.154337	0.088024	0.162147	0.258870	6200.650301	32833.917903	3826.595315	15009.556858
66.043500	0.155839	0.088510	0.160825	0.261072	6195.343784	32716.116684	3819.066288	14948.348439
66.536000	0.159084	0.090713	0.163493	0.264043	6197.421064	32663.501316	3818.420066	14866.260301
67.036500	0.161864	0.092773	0.164391	0.266292	6201.445333	32650.554861	3815.552114	14804.489669
67.539500	0.166528	0.094559	0.171963	0.268973	6216.531166	32589.477579	3825.979527	14731.292674
68.036500	0.167191	0.095829	0.167405	0.272251	6196.653207	32452.775034	3809.329026	14642.387995
68.537000	0.167236	0.097340	0.167286	0.274006	6183.717086	32436.215790	3805.392306	14595.062805
69.037500	0.172841	0.099102	0.175121	0.276716	6205.651820	32371.986563	3816.202760	14522.384367
69.535000	0.173149	0.100117	0.176876	0.279947	6183.508088	32222.191901	3813.073934	14436.277910
70.034500	0.174015	0.101313	0.180480	0.283394	6164.089529	32070.946174	3813.407829	14345.159326
70.536000	0.178992	0.103203	0.181193	0.286336	6179.388461	32000.534474	3808.704752	14267.945272
71.035500	0.181766	0.103648	0.186591	0.288607	6183.186488	31878.671471	3815.307695	14208.697052
71.536000	0.182627	0.105547	0.183390	0.292554	6159.980771	31742.606925	3800.282244	14106.470326
72.036000	0.184367	0.106697	0.194158	0.297059	6139.320331	31521.088586	3813.432996	13990.896281
72.536500	0.189900	0.109706	0.193479	0.299473	6162.626248	31560.254102	3806.916069	13929.471580
73.037000	0.192402	0.111445	0.195417	0.302803	6156.432652	31455.700238	3803.997698	13845.304600
73.537500	0.194102	0.111447	0.199584	0.305696	6147.509584	31266.577023	3806.666400	13772.673332
74.034000	0.191426	0.113432	0.199701	0.309693	6098.075242	31135.777493	3798.557201	13673.152054
74.535000	0.196884	0.114483	0.208793	0.310949	6129.114076	31122.475811	3815.011154	13642.063577
75.035000	0.199853	0.115845	0.200977	0.314016	6128.390885	31012.122351	3792.240797	13566.539029
75.536000	0.200743	0.117139	0.208599	0.317585	6108.567818	30865.571225	3800.653769	13479.310772
76.036000	0.201870	0.118560	0.212246	0.320064	6098.609496	30797.633316	3803.093545	13419.136222
76.536000	0.205479	0.120160	0.208659	0.323103	6102.803285	30705.562574	3789.340311	13345.844863
77.039000	0.208017	0.119674	0.214589	0.324456	6111.541713	30588.309046	3798.818729	13313.384980
77.537000	0.208736	0.121027	0.211177	0.328271	6088.769852	30432.084535	3783.898677	13222.375767
78.037000	0.209825	0.122338	0.215066	0.331007	6076.717104	30342.098940	3786.262954	13157.610672
78.535000	0.211877	0.123785	0.216496	0.333360	6074.518873	30285.006977	3784.368785	13102.221349
79.035000	0.214592	0.123965	0.216881	0.335583	6078.112794	30156.811262	3780.614926	13050.189982
79.535000	0.216482	0.126657	0.221762	0.339719	6061.750049	30066.533209	3782.135539	12954.070765
80.035000	0.215369	0.126384	0.217630	0.344246	6021.024144	29768.576613	3764.618687	12849.885819
80.535500	0.219072	0.127492	0.222529	0.343745	6051.330054	29868.122213	3775.502609	12861.378844
81.036000	0.219054	0.128704	0.223097	0.346277	6032.910039	29786.420570	3771.527124	12803.502243
81.537000	0.221725	0.130267	0.221610	0.349209	6031.032518	29702.018816	3762.653666	12736.938654
82.036500	0.219427	0.130312	0.220767	0.354471	5977.094843	29382.628985	3750.537634	12618.563055
82.537000	0.225693	0.131463	0.233231	0.353765	6026.804538	29495.835817	3776.885581	12634.361307
83.037000	0.224948	0.132816	0.225967	0.355217	6011.053519	29489.838337	3759.359777	12601.902478
83.537500	0.226360	0.132696	0.229425	0.357277	6006.421526	29356.988378	3762.146445	12556.026904
84.040500	0.226343	0.133073	0.230200	0.358764	5995.704092	29289.583346	3760.726740	12523.063136
84.535500	0.229660	0.135180	0.236326	0.362385	5993.537531	29197.930747	3765.734174	12443.219614
85.035500	0.229459	0.136250	0.235144	0.363823	5981.910042	29175.736465	3760.496988	12411.719873
85.536000	0.232977	0.137821	0.238875	0.367267	5982.431993	29062.876932	3761.068140	12336.639621
86.036500	0.229723	0.136332	0.235154	0.370883	5934.146546	28757.911961	3746.558688	12258.483649
86.539500	0.232859	0.138163	0.238599	0.369082	5968.770210	28974.489603	3756.908502	12297.323788
87.037000	0.235019	0.138591	0.243644	0.371013	5970.384088	28884.653130	3763.112723	12255.679805
87.537000	0.236333	0.140253	0.242506	0.373750	5960.354765	28820.511702	3755.398717	12196.944101
88.037500	0.232733	0.138677	0.237706	0.378005	5905.605605	28475.649026	3737.641508	12106.389227
88.535000	0.240246	0.141938	0.244083	0.376930	5965.520616	28731.698302	3752.228646	12129.187727
89.035000	0.240135	0.142029	0.240437	0.378098	5956.521855	28667.844608	3742.779147	12104.435101
89.535500	0.241784	0.142571	0.246386	0.379602	5957.542337	28610.980339	3751.500985	12072.642915
90.035500	0.240385	0.142750	0.245442	0.380132	5944.019244	28590.264974	3748.599363	12061.467120
90.536000	0.243897	0.144014	0.244521	0.383138	5947.553579	28487.611777	3740.913536	11998.320843
91.039000	0.245342	0.144130	0.245742	0.384034	5951.407833	28441.810837	3741.546073	11979.594660
91.537000	0.242095	0.144904	0.244676	0.385140	5921.028157	28422.326847	3737.320919	11956.510605
92.037000	0.241138	0.144428	0.241975	0.390856	5875.048009	28061.863143	3721.151939	11838.213423
92.537000	0.245553	0.145966	0.249597	0.387816	5926.466545	28327.932023	3741.690324	11900.948917
93.037500	0.247475	0.146714	0.249103	0.389513	5928.023653	28272.476302	3737.426852	11865.864981
93.535000	0.246570	0.146323	0.251561	0.390040	5918.074125	28219.052920	3741.181227	11854.998112
94.035000	0.244778	0.146465	0.247148	0.396137	5863.845532	27875.071079	3720.945993	11730.283166
94.536000	0.248260	0.146405	0.250042	0.391297	5921.079641	28150.802540	3735.788291	11829.144056
95.035500	0.247087	0.148491	0.254977	0.393787	5895.754202	28127.396604	3740.536589	11778.151643
95.581000	0.249097	0.148788	0.256906	0.396221	5892.836781	28003.847370	3739.554302	11728.574498
96.036000	0.248316	0.149128	0.252789	0.401822	5849.262035	27702.255006	3720.862971	11615.560678
96.537000	0.250933	0.150285	0.255469	0.397308	5897.994283	28027.482849	3734.657983	11706.525548
97.037500	0.250987	0.149719	0.258423	0.397526	5896.870981	27982.323351	3739.967828	11702.126317
97.534500	0.256674	0.151959	0.256799	0.400854	5913.155019	27919.683893	3730.384372	11634.987889
98.037500	0.252382	0.151699	0.260102	0.401164	5881.448281	27886.891647	3736.161692	11628.753320
98.535000	0.253970	0.152196	0.265149	0.402224	5885.074022	27854.619845	3743.921608	11607.500662
