sample name	sample
index	88
start time	 02-15-2021  10:24:53 AM
880	0.296639
Peak Time (s)	91.037
Peak Height 	0.2966
calc peak height	90,93
Baseline Time (s)	9.036
Baseline Value 	-0.001598
subtract baseline	10,4
Abs	0.231363
Peak Time (s)	90.536
Peak Height 	0.2314
calc peak height	90,93
Baseline Time (s)	8.536
Baseline Value 	-3.0048E-4
subtract baseline	10,3
PK_550	0.098526
Peak Time (s)	90.536
Peak Height 	0.09853
calc peak height	90,93
Baseline Time (s)	11.034
Baseline Value 	5.3047E-4
subtract baseline	10,2
PK_880	0.200983
Peak Time (s)	92.037
Peak Height 	0.201
calc peak height	90,93
Baseline Time (s)	8.536
Baseline Value 	5.3998E-4
subtract baseline	10,1


Time (s)	A880-A510	A880-A775	A880-A975	A880	I510	I775	I975	I880	
0.036000	-0.001485	-0.001899	0.000402	0.004208	4220.544381	16062.827162	3150.009785	9042.614988
0.537000	-0.001772	-0.001196	0.000662	0.003210	4222.773838	16114.483674	3150.990799	9056.883162
1.040000	-0.002835	-0.001975	-0.001202	0.001865	4223.656175	16131.691189	3150.585827	9076.160003
1.538000	0.001222	0.000119	0.003329	-0.000261	4243.185409	16260.810109	3155.820534	9106.746886
2.037000	0.000572	-0.000316	0.003673	0.005071	4224.287170	16084.653912	3151.890511	9030.312612
2.537500	-0.001293	-0.000152	-0.006984	-0.000114	4234.742937	16247.937904	3147.631462	9104.619584
3.035500	-0.000627	-0.000445	-0.000847	-0.002675	4244.982987	16317.795486	3154.427355	9141.655844
3.536000	-0.005388	0.000624	0.011083	0.000815	4218.949575	16243.253373	3161.151949	9091.235360
4.036000	-0.002834	-0.002244	0.008815	0.002717	4220.989798	16097.603828	3157.813132	9063.938814
4.536000	0.003796	-0.000102	-0.003504	0.000650	4248.486145	16226.044174	3149.738634	9093.616934
5.036500	-0.002138	-0.000063	0.005106	-0.000246	4232.489961	16254.745026	3157.218602	9106.518574
5.537000	-0.001103	0.000111	-0.002615	0.000836	4232.343860	16226.870937	3150.286273	9090.943487
6.037000	0.002742	-0.000476	-0.004592	0.000355	4246.063550	16223.625406	3149.122399	9097.867986
6.534500	0.001195	-0.000134	0.011759	0.000331	4241.218409	16234.845677	3162.086674	9098.209282
7.037500	0.001078	-0.000941	-0.007260	-0.000707	4244.144229	16241.926581	3147.876844	9113.177582
7.535000	0.002286	0.000594	0.003405	0.000716	4243.462985	16245.384260	3155.107454	9092.669363
8.035000	-0.002792	-0.000928	0.000685	-0.000748	4232.011144	16243.606751	3154.115476	9113.768398
8.536000	0.000000	0.000230	0.000000	0.000067	4238.261610	16254.124459	3152.934474	9102.006811
9.036000	-0.000460	-0.000160	0.014362	0.000000	4237.016368	16244.198918	3164.462140	9102.976852
9.535500	-0.000714	-0.000552	-0.010471	-0.000950	4239.220628	16261.352417	3145.587035	9116.678397
10.036000	-0.000489	-0.000816	-0.003143	-0.001277	4240.976900	16263.293715	3151.524528	9121.412965
10.539500	0.004046	0.001549	-0.000947	0.001199	4247.530339	16259.875477	3151.305672	9085.724197
11.034000	0.002002	0.000000	0.008063	-0.000290	4245.761714	16258.037964	3159.614656	9107.160525
11.534500	0.001542	0.001151	0.010055	0.000900	4240.513054	16256.864066	3160.258623	9090.024795
12.035000	-0.001491	-0.001873	-0.004225	-0.001802	4239.461593	16246.946875	3151.088762	9129.010882
12.535000	0.000146	-0.001757	0.006653	-0.001360	4243.258237	16236.913704	3159.342455	9122.607620
13.035500	0.000976	0.000057	-0.000422	-0.002940	4250.943870	16341.477547	3154.971689	9145.490042
13.538500	0.001099	0.000077	-0.001991	-0.002022	4248.405165	16313.748716	3153.011557	9132.185891
14.047000	0.000326	-0.000846	0.020413	-0.001696	4244.900722	16275.251449	3170.810612	9127.471265
14.536500	-0.001008	-0.000574	0.002502	0.001104	4231.794982	16197.685437	3154.087383	9087.084383
15.037000	0.004064	0.001117	0.008126	0.000874	4248.623896	16256.595705	3158.733431	9090.389760
15.542500	0.004989	0.000614	-0.000053	-0.001230	4258.332706	16305.894680	3153.913748	9120.732452
16.037000	0.003299	0.001050	0.020968	-0.000698	4251.205685	16302.934576	3170.444716	9113.046069
16.537000	-0.002312	-0.000604	0.006227	-0.002470	4238.976649	16306.570619	3159.890472	9138.684179
17.038500	0.000308	-0.000900	0.006828	0.003204	4229.327178	16123.654412	3155.847508	9056.971026
17.538500	0.002762	0.000608	0.000560	-0.003739	4259.239499	16383.341709	3156.382461	9157.108744
18.035500	0.000818	-0.000740	0.007326	0.000035	4240.959607	16225.325131	3158.764984	9102.470592
18.535000	-0.000828	-0.001414	-0.008418	-0.000444	4237.257778	16219.363596	3146.777952	9109.375782
19.035000	0.001675	-0.000991	-0.005136	0.001396	4239.359910	16175.998855	3147.892475	9082.887833
19.537000	-0.000101	-0.000361	0.010705	0.000314	4237.160345	16228.385487	3161.250893	9098.447912
20.040000	-0.000813	-0.001057	0.000786	0.000460	4234.447722	16202.614305	3153.243564	9096.353910
20.536500	-0.003170	-0.000877	0.000327	0.000053	4228.294838	16220.598871	3153.202699	9102.213043
21.034500	-0.001283	0.000874	0.005682	0.002293	4227.184531	16205.598781	3155.660653	9070.007700
21.535000	0.000908	0.000203	-0.000139	0.000283	4240.457667	16246.657053	3152.655731	9098.892292
22.034500	-0.001955	-0.000888	0.001901	-0.000386	4233.509307	16233.709976	3154.788741	9108.538911
22.535500	-0.000571	-0.001560	-0.000832	-0.000732	4238.984900	16223.701798	3152.908929	9113.536145
23.036000	0.000045	-0.000642	0.000888	0.001384	4234.236451	16187.022122	3152.597652	9083.055593
23.536000	-0.000852	0.000545	-0.001593	0.000219	4235.083460	16259.118825	3151.566306	9099.815979
24.036500	-0.004244	-0.001641	0.010979	-0.000845	4227.742501	16224.704033	3162.406505	9115.173493
24.537000	0.001180	-0.000604	-0.001401	0.000340	4241.141085	16220.159964	3151.622509	9098.081680
25.037000	0.002307	-0.000221	-0.007452	0.002003	4239.437185	16180.970058	3145.637367	9074.165986
25.537500	0.002959	0.000507	-0.003605	0.000803	4245.327759	16240.034905	3149.541330	9091.413737
26.035000	-0.002776	-0.001536	-0.007976	-0.000362	4230.843919	16213.084132	3147.056402	9108.192140
26.535000	0.002714	-0.001136	0.000520	-0.000483	4248.645833	16229.082373	3153.776485	9109.937958
27.035500	-0.003716	-0.002172	0.010343	0.000961	4223.728756	16153.247215	3160.440590	9089.147040
27.536000	-0.000598	-0.000359	-0.004213	0.000234	4235.839409	16230.903919	3149.510156	9099.601805
28.036000	0.002789	0.001163	-0.000867	-0.002232	4254.484529	16353.815575	3154.061080	9135.226111
28.535500	-0.000182	0.000815	0.007968	-0.001357	4242.205046	16316.026638	3160.394457	9122.572877
29.052500	0.000600	-0.001588	-0.003202	-0.002733	4249.079936	16284.344641	3152.618911	9142.490133
29.539500	0.003242	0.000546	0.003754	-0.001593	4253.889651	16315.010962	3157.215229	9125.986906
30.037500	0.002677	-0.000503	-0.004924	-0.001992	4253.354310	16294.933999	3150.690934	9131.752791
30.537500	0.002541	0.000195	0.001072	-0.001417	4251.078557	16298.733447	3154.948622	9123.432279
31.034500	0.003186	0.000609	0.005017	-0.001264	4252.654786	16306.774526	3157.959035	9121.225927
31.535000	0.002090	0.000159	0.006889	0.001922	4239.006392	16195.073638	3156.912370	9075.330678
32.035500	-0.001253	-0.000841	0.002342	0.000774	4232.064653	16199.625582	3154.221720	9091.835739
32.545500	0.001342	-0.000961	0.002771	-0.002763	4251.552928	16304.597698	3157.364437	9142.935445
33.036000	-0.001975	-0.000432	0.014324	-0.002276	4239.430119	16305.887612	3166.284475	9135.866527
33.536500	-0.001224	-0.000460	0.002976	-0.001989	4240.903134	16296.155542	3156.910941	9131.709143
34.039500	-0.002162	-0.001689	0.011678	0.000044	4231.497345	16195.995746	3162.253010	9102.339232
34.537000	0.000510	0.000591	-0.006108	0.000073	4239.860072	16265.056026	3148.164676	9101.923577
35.038500	0.002109	-0.000019	0.012308	0.001985	4238.867604	16187.713570	3161.196945	9074.432890
35.534500	-0.003598	-0.000108	0.006528	0.000677	4224.989264	16225.022419	3157.616430	9093.229163
36.035000	-0.003792	-0.000523	0.003969	-0.000077	4226.748748	16235.429715	3156.181404	9104.088570
36.535500	-0.005329	-0.000678	0.004009	0.000151	4221.212235	16223.666202	3156.032711	9100.798774
37.035000	0.003856	0.000206	0.005740	0.001161	4247.044604	16219.819751	3156.604174	9086.261046
37.536000	0.002240	0.000774	0.018358	0.001607	4240.484199	16223.554837	3166.408294	9079.860459
38.036500	-0.003468	-0.002240	0.009533	-0.000920	4230.419599	16208.633135	3161.301089	9116.248184
38.536000	0.003136	0.000382	0.009802	0.000681	4246.279267	16239.949687	3160.230220	9093.167948
39.037000	0.001721	-0.001396	0.016067	-0.000400	4245.214466	16218.558439	3166.175460	9108.743608
39.537000	0.002064	-0.001455	-0.005408	-0.000900	4247.903620	16232.061117	3149.463042	9115.958176
40.038500	0.001935	0.000099	0.004674	0.000883	4241.814127	16225.061146	3155.979745	9090.268779
40.535000	-0.000870	-0.000871	-0.002574	-0.000758	4238.120252	16245.650918	3151.563001	9113.908572
41.035000	-0.000445	0.000599	0.007667	0.001075	4233.664301	16234.490688	3158.206294	9087.494623
41.535000	-0.000286	-0.000165	0.010499	0.000602	4235.662132	16225.595708	3160.854426	9094.309598
42.035500	0.002718	-0.000862	0.003411	0.000265	4246.272004	16214.561767	3155.468616	9099.159319
42.536000	0.001960	-0.000204	0.011913	0.000359	4243.559925	16231.822291	3162.188476	9097.803555
43.036000	-0.000992	-0.001627	0.007986	0.000728	4233.032861	16176.978294	3158.738836	9092.490353
43.536500	0.002202	-0.001975	0.008613	-0.001197	4249.293479	16225.243264	3160.784624	9120.259255
44.037000	0.000497	-0.000974	-0.002731	0.000235	4239.305363	16212.043865	3150.664270	9099.591395
44.537000	0.006644	-0.002589	0.003307	-0.004280	4273.545865	16301.181988	3159.001725	9164.972305
45.035000	0.005837	0.002173	0.006260	0.003455	4246.048480	16209.815419	3155.199341	9053.381056
45.535000	-0.000494	-0.001726	0.000591	-0.003492	4248.010885	16303.497977	3156.211304	9153.514352
46.035000	-0.001254	-0.001469	-0.007875	-0.002060	4241.030311	16267.273907	3148.448152	9132.736549
46.535000	0.003015	0.000426	0.001724	-0.001719	4253.567063	16315.204250	3155.703860	9127.809673
47.035500	0.004339	-0.000076	-0.000911	0.003099	4242.409153	16151.945106	3149.850283	9058.463358
47.536000	0.001853	0.000092	0.009796	-0.001142	4248.001893	16287.106496	3161.692151	9119.464284
48.050000	0.002087	0.001189	0.017329	-0.000248	4245.898131	16293.340055	3167.083211	9106.558672
48.537000	-0.003462	-0.001195	0.004433	0.001134	4223.980739	16177.752341	3155.589130	9086.648664
49.037000	0.001836	-0.000467	0.005616	0.003472	4233.300556	16128.696496	3154.676645	9053.138454
49.561500	0.004535	0.001491	0.005987	-0.000504	4254.541497	16310.518181	3158.125906	9110.239277
50.037500	-0.002252	0.001054	-0.001133	0.000979	4228.268948	16251.407484	3151.331665	9088.877730
50.535000	0.002841	-0.000029	0.007125	-0.002530	4255.607682	16326.175368	3160.659600	9139.550592
51.037500	0.001856	0.000232	0.008453	0.003022	4234.781772	16163.695892	3157.282018	9059.568218
51.535500	0.002038	0.000925	0.015053	-0.003893	4257.406644	16397.935740	3168.205170	9159.340277
52.036000	0.000867	-0.002441	0.018494	-0.003344	4251.887324	16276.882893	3170.586644	9151.356248
52.536000	-0.068616	-0.037672	0.027709	0.167220	3661.588243	11231.509123	3059.223107	7102.509426
53.039000	-0.029491	-0.017522	0.000733	-0.006046	4166.123738	15901.208673	3158.356192	9190.734344
53.536500	0.013789	-0.005466	-0.000734	-0.090565	4612.416105	19136.899314	3231.408796	10554.429322
54.037000	-0.002762	-0.007249	0.008508	-0.096120	4568.648220	19278.495204	3245.955137	10653.703393
54.534500	0.001438	-0.002159	0.000463	-0.086879	4548.947144	19122.750725	3229.009885	10489.254194
55.035000	0.012032	-0.001048	0.011908	-0.087575	4593.386637	19190.382242	3240.841391	10501.526279
55.535000	0.010498	-0.003995	0.025262	-0.045262	4427.089250	17578.964574	3213.159618	9790.573378
56.035500	0.017487	-0.004848	0.028763	-0.005131	4312.077046	16257.806682	3180.688751	9177.373643
56.535500	0.020396	-0.001658	0.018584	0.029563	4209.720718	15323.735012	3144.467933	8691.050205
57.036000	0.041022	0.004712	0.037636	0.060422	4178.329701	14643.013898	3135.543385	8289.945158
57.536500	0.048649	0.007951	0.059545	0.096668	4094.363841	13784.211678	3125.027528	7853.817658
58.036000	0.064737	0.012055	0.078273	0.114997	4088.018857	13433.736778	3125.315359	7646.744178
58.536500	0.083238	0.020247	0.097158	0.138488	4074.009189	13069.418219	3122.007492	7393.826652
59.037000	0.096315	0.028098	0.115155	0.157907	4056.435344	12802.345383	3120.992758	7194.831205
59.534500	0.115971	0.039602	0.128694	0.180407	4048.637208	12554.981082	3114.676664	6975.120644
60.035000	0.132773	0.048578	0.154097	0.199563	4042.220829	12331.481399	3119.066434	6796.832101
60.535000	0.140785	0.055329	0.153577	0.214956	4022.328640	12145.828204	3108.008721	6659.157490
61.035500	0.155020	0.064902	0.165117	0.231678	4015.700348	11995.013747	3104.493945	6515.021107
61.536000	0.160446	0.071247	0.178292	0.242175	4002.304531	11908.560209	3106.305315	6427.336410
62.035500	0.170389	0.072989	0.186817	0.255674	3993.001166	11668.161289	3102.949594	6317.639790
62.539500	0.170818	0.076602	0.195083	0.258080	3987.865652	11692.564004	3106.906300	6298.450125
63.037000	0.175344	0.080244	0.190707	0.238495	4052.155880	12175.144149	3117.427493	6457.836483
63.537000	0.179752	0.086770	0.198316	0.243189	4051.368458	12214.300931	3119.485899	6418.971408
64.034500	0.184130	0.088765	0.187163	0.243817	4061.685140	12243.649378	3111.249265	6413.804519
64.534500	0.179152	0.088717	0.197589	0.248422	4035.498315	12144.177056	3115.291471	6376.151093
65.065500	0.182248	0.091128	0.185427	0.249369	4041.322978	12175.360160	3106.264742	6368.455354
65.535500	0.176859	0.089114	0.206921	0.247448	4031.938930	12173.374459	3122.581812	6384.083507
66.036000	0.185794	0.092049	0.197929	0.252088	4043.569482	12137.085935	3112.975135	6346.453543
66.536000	0.188469	0.090530	0.186015	0.250450	4055.363329	12139.582743	3105.929952	6359.684297
67.039000	0.182296	0.090399	0.187182	0.258313	4017.402864	11971.234182	3101.429136	6296.591652
67.537000	0.188947	0.093462	0.192001	0.257004	4038.781012	12062.926186	3105.546102	6307.019433
68.037000	0.188235	0.094304	0.193090	0.259012	4031.433778	12038.392880	3104.925133	6291.041415
68.536500	0.185940	0.092363	0.207713	0.258418	4026.859494	12010.116761	3115.380501	6295.759623
69.034500	0.183873	0.094379	0.205884	0.260064	4016.941636	12017.868788	3112.960933	6282.700480
69.535000	0.191414	0.093908	0.203322	0.262902	4029.518558	11948.721514	3109.238043	6260.298473
70.035500	0.187103	0.093762	0.218962	0.263540	4016.286530	11932.421934	3119.695821	6255.283733
70.535500	0.192286	0.094286	0.212128	0.264713	4026.995515	11918.946209	3114.068536	6246.074819
71.035500	0.185967	0.094842	0.202284	0.271319	3992.826952	11794.282496	3102.830578	6194.704564
71.536500	0.193975	0.094407	0.218245	0.267979	4022.771735	11853.909151	3116.059928	6220.579410
72.036500	0.191650	0.093737	0.201001	0.268139	4016.147494	11836.833747	3104.104982	6219.334193
72.536500	0.187425	0.093901	0.204378	0.269149	4002.315104	11819.459221	3105.702902	6211.494669
73.034500	0.184790	0.095721	0.208131	0.277379	3974.135883	11688.917231	3102.687687	6148.267143
73.537000	0.189124	0.093425	0.203576	0.271135	4001.563157	11769.098208	3103.821730	6196.130388
74.034500	0.193431	0.093112	0.199431	0.270177	4015.465608	11782.279407	3101.686241	6203.535125
74.535000	0.193347	0.093845	0.216782	0.272301	4009.614067	11753.871872	3112.032595	6187.134564
75.035500	0.185506	0.093244	0.209341	0.278039	3974.275906	11625.704246	3103.056130	6143.244040
75.535000	0.189799	0.095200	0.206155	0.275936	3990.783962	11707.567078	3102.330880	6159.267090
76.035000	0.192371	0.095744	0.200039	0.275546	3998.513272	11726.512130	3098.524433	6162.247569
76.539000	0.193339	0.093471	0.199645	0.274637	4003.436034	11698.871978	3098.864939	6169.199142
77.037000	0.185877	0.096211	0.205304	0.282082	3964.912165	11604.145400	3097.686484	6112.670813
77.537000	0.187557	0.095576	0.208880	0.278789	3977.613793	11657.528022	3102.245224	6137.550079
78.037000	0.192066	0.098301	0.217674	0.279698	3986.905596	11694.179335	3107.567997	6130.664203
78.537500	0.196402	0.099078	0.211888	0.280048	3997.280531	11702.836294	3103.418118	6128.020506
79.038000	0.194858	0.097487	0.217015	0.280450	3992.203072	11662.577943	3106.608777	6124.979957
79.535500	0.192936	0.097926	0.199546	0.280763	3986.399950	11665.099158	3094.778252	6122.613002
80.035500	0.196065	0.096590	0.208255	0.280591	3994.979333	11641.663595	3100.626114	6123.910650
80.535000	0.192718	0.098997	0.203751	0.282725	3980.766942	11647.153704	3096.243488	6107.828494
81.036500	0.192724	0.096906	0.217402	0.288516	3965.961057	11489.972552	3101.440325	6064.586810
81.536500	0.195648	0.096629	0.197497	0.282552	3988.790677	11603.098981	3092.287833	6109.130504
82.036000	0.202877	0.097116	0.209220	0.283699	4004.688983	11589.906321	3099.204084	6100.520586
82.537000	0.194040	0.096931	0.205302	0.282923	3983.669441	11601.729141	3097.131925	6106.343806
83.037500	0.194986	0.096543	0.216676	0.283825	3983.782142	11575.933698	3104.097994	6099.575001
83.537500	0.195284	0.096129	0.207337	0.287245	3975.743338	11499.748111	3095.632434	6074.028184
84.035500	0.196003	0.096842	0.221339	0.285285	3982.637398	11552.804253	3106.262040	6088.643610
84.535500	0.198950	0.097926	0.213379	0.286578	3986.914391	11548.632733	3100.052259	6078.993385
85.036000	0.198196	0.097843	0.217266	0.286725	3984.583893	11544.064201	3102.546430	6077.900433
85.536000	0.196841	0.099897	0.229005	0.287531	3979.009829	11568.910345	3109.961038	6071.902447
86.039000	0.197418	0.097123	0.216097	0.286791	3982.402905	11528.443800	3101.720428	6077.410662
86.536500	0.197608	0.099533	0.203234	0.289691	3975.432163	11518.722771	3091.383611	6055.886799
87.037000	0.199111	0.098664	0.200930	0.288888	3981.361721	11517.419984	3090.418830	6061.833138
87.537000	0.193967	0.098277	0.202249	0.288370	3969.499295	11520.034859	3091.599919	6065.676150
88.034500	0.191325	0.096323	0.214936	0.287356	3965.352888	11501.392831	3100.570600	6073.206863
88.537500	0.199914	0.098743	0.213774	0.290002	3980.557252	11496.915302	3098.048249	6053.582563
89.035000	0.199874	0.098327	0.223681	0.290058	3980.310062	11487.584071	3104.617385	6053.168535
89.535500	0.196367	0.096002	0.203145	0.293501	3962.553850	11374.404632	3088.884326	6027.827078
90.036000	0.193224	0.096513	0.211904	0.288640	3966.917061	11479.780902	3097.714129	6063.669561
90.536000	0.197294	0.098526	0.231363	0.292441	3967.601121	11444.555441	3108.213754	6035.607763
91.036500	0.192296	0.096961	0.224965	0.296639	3944.431423	11332.028156	3101.067148	6004.896104
91.536500	0.191337	0.094542	0.214646	0.293378	3950.186025	11348.396621	3096.402767	6028.727693
92.037000	0.200983	0.096571	0.212099	0.291382	3979.757231	11426.955070	3096.041381	6043.398888
92.537000	0.196734	0.095173	0.211231	0.290172	3971.961565	11423.271218	3096.265126	6052.326486
93.034500	0.195792	0.096201	0.214525	0.291128	3967.118993	11424.686872	3097.801283	6045.270926
93.535000	0.193479	0.096431	0.215246	0.297797	3944.494122	11299.357731	3093.909938	5996.477921
94.035000	0.191257	0.095562	0.205889	0.290501	3957.218874	11424.473131	3092.574012	6049.902049
94.534500	0.194987	0.097397	0.210961	0.293582	3958.856220	11400.057215	3093.864562	6027.227302
95.036000	0.193146	0.096076	0.224704	0.297828	3943.587279	11291.905376	3100.102368	5996.251565
95.547000	0.198538	0.096767	0.205585	0.298581	3955.203997	11290.692879	3087.203763	5990.788351
96.042000	0.196691	0.096165	0.228774	0.294544	3960.732506	11357.280046	3105.027314	6020.186238
96.537000	0.195980	0.093229	0.206983	0.291493	3966.671600	11359.522225	3092.640354	6042.585870
97.034000	0.190436	0.095439	0.214672	0.299213	3933.432558	11252.972607	3092.619766	5986.214441
97.537500	0.194980	0.097322	0.206551	0.300715	3940.967050	11260.288492	3086.464380	5975.362343
98.035000	0.200585	0.097209	0.214326	0.294932	3969.640504	11370.036729	3095.176596	6017.347079
98.538000	0.196203	0.094416	0.223872	0.293318	3962.602073	11347.106487	3102.555295	6029.167231
