sample name	sample
index	1416
start time	 05-10-2021  11:52:47 AM
880	0.480962
Peak Time (s)	92.035
Peak Height 	0.481
calc peak height	90,93
Baseline Time (s)	8.537
Baseline Value 	-0.002837
subtract baseline	10,4
Abs	0.333960
Peak Time (s)	91.041
Peak Height 	0.334
calc peak height	90,93
Baseline Time (s)	11.539
Baseline Value 	9.8739E-4
subtract baseline	10,3
PK_550	0.171562
Peak Time (s)	90.037
Peak Height 	0.1716
calc peak height	90,93
Baseline Time (s)	11.539
Baseline Value 	0.00132
subtract baseline	10,2
PK_880	0.309463
Peak Time (s)	90.537
Peak Height 	0.3095
calc peak height	90,93
Baseline Time (s)	10.035
Baseline Value 	8.0086E-4
subtract baseline	10,1


Time (s)	A880-A510	A880-A775	A880-A975	A880	I510	I775	I975	I880	
0.040000	0.001891	-0.000403	0.003761	0.002090	6516.103652	44234.272831	3936.647266	22587.864874
0.537500	-0.004305	-0.001189	-0.000799	0.006873	6424.595987	43708.262192	3912.780270	22371.788444
1.035000	-0.000339	-0.001822	0.001084	0.002858	6490.880786	44026.901633	3927.785152	22553.006661
1.537000	0.000959	-0.000261	0.002285	0.000967	6517.719308	44354.805710	3935.736726	22638.982805
2.036000	0.000702	-0.001175	0.000467	0.000126	6522.653978	44347.813741	3933.219195	22677.310398
2.536000	-0.002983	-0.000428	-0.002283	0.005767	6444.643121	43883.860426	3911.826765	22421.567703
3.036000	0.001502	-0.000701	-0.000273	-0.002223	6549.377132	44617.934828	3937.368987	22784.798474
3.536500	-0.000196	-0.000221	-0.001661	0.000066	6515.565940	44444.644106	3927.907318	22680.026293
4.037000	-0.001945	-0.000116	0.004082	0.000455	6497.574198	44417.488655	3941.708803	22662.301312
4.534500	-0.001777	-0.000451	-0.001220	0.000906	6495.198986	44342.542261	3926.886111	22641.741655
5.037000	-0.000172	-0.000446	0.001610	-0.000015	6516.458998	44430.839136	3936.527355	22683.743628
5.534500	0.002460	-0.000849	0.002300	-0.000037	6538.939349	44394.514027	3938.370054	22684.766039
6.035500	0.000309	0.000254	0.003905	0.000368	6517.282538	44461.119633	3941.475367	22666.247921
6.535000	0.001762	-0.000195	0.000172	-0.000300	6535.242362	44482.181582	3933.557738	22696.774284
7.038500	0.002408	-0.000080	0.004538	0.000342	6535.275564	44431.776716	3943.185899	22667.460502
7.536000	-0.000692	-0.000587	-0.000489	0.000031	6511.690440	44413.007446	3931.005332	22681.651398
8.036500	0.000167	-0.000469	0.002294	0.000610	6514.040355	44368.986397	3936.680247	22655.221022
8.537000	-0.000676	-0.000253	-0.001534	0.000000	6512.081557	44447.928858	3928.402817	22683.058601
9.037000	0.000080	0.000208	-0.000611	0.000591	6513.473492	44435.490579	3929.254296	22656.101335
9.537500	-0.003543	-0.001046	0.000425	-0.000740	6494.194018	44442.836933	3935.343048	22716.871872
10.035000	0.000000	-0.000666	-0.001497	-0.000200	6519.478793	44427.602778	3929.011100	22692.212555
10.535000	-0.000064	0.000355	0.000797	-0.000126	6518.310876	44518.094865	3934.717258	22688.808448
11.035500	0.000749	0.000227	0.002603	0.000329	6521.333438	44462.316180	3938.205594	22668.059255
11.538500	0.000087	0.000000	0.000000	0.000543	6513.936844	44420.160367	3930.944482	22658.274539
12.036000	0.000898	-0.000000	-0.000539	0.000015	6525.247427	44470.645910	3930.917576	22682.373513
12.536000	-0.001268	-0.000171	0.000997	-0.000401	6510.469260	44494.144846	3935.942293	22701.383236
13.036500	0.001431	-0.000091	0.004004	-0.000472	6533.884469	44508.476742	3943.911236	22704.593379
13.536500	0.000847	-0.000358	-0.003248	0.000212	6523.152509	44417.640927	3923.476150	22673.392491
14.037000	-0.002369	-0.000925	0.001469	0.001297	6486.961263	44260.201173	3932.783429	22623.957115
14.534500	-0.000488	-0.000642	0.001284	0.001544	6500.663412	44263.573176	3931.671608	22612.703531
15.035000	-0.001964	-0.000820	-0.000370	-0.001165	6511.046697	44505.141891	3934.388406	22736.317283
15.535000	0.002272	-0.000949	-0.000826	-0.000719	6543.137042	44450.167522	3932.068093	22715.929473
16.038000	-0.000089	0.000466	0.003214	-0.000722	6523.138230	44585.827951	3942.509863	22716.043632
16.536000	0.001517	0.000442	-0.000379	-0.000248	6532.725989	44538.166408	3932.005349	22694.404380
17.036000	0.002369	0.000404	-0.001038	-0.002884	6562.414540	44787.650830	3937.099712	22815.135568
17.536500	-0.001121	-0.000686	-0.003491	0.000285	6505.929760	44379.251473	3922.669530	22670.032215
18.036500	0.000190	-0.000299	0.001260	0.000922	6511.608718	44355.515340	3933.212051	22641.029766
18.537000	-0.002356	-0.000312	0.003713	0.000672	6492.305577	44378.153381	3940.192011	22652.417659
19.034500	-0.001031	-0.000503	-0.001462	0.000709	6503.124447	44356.345363	3926.772226	22650.739824
19.535000	-0.002069	-0.001637	0.002989	-0.000559	6505.059084	44369.147146	3941.505491	22708.593351
20.035000	-0.000883	-0.000804	0.002466	0.000355	6507.351884	44361.426888	3937.784769	22666.881088
20.535500	0.000332	-0.000408	0.001548	0.000778	6514.022025	44358.801338	3934.323269	22647.571520
21.036000	-0.000567	-0.000309	-0.002303	0.000825	6506.049872	44363.855799	3924.326424	22645.456492
21.535500	-0.000479	-0.000367	0.002992	0.000631	6508.422318	44376.746993	3938.428736	22654.257992
22.036500	-0.002205	0.000216	0.000770	0.001039	6490.497129	44393.487256	3931.651399	22635.706367
22.536500	-0.000453	-0.000832	0.004172	0.000277	6511.621416	44366.144378	3942.402793	22670.405512
23.037000	-0.000308	-0.000971	0.001463	0.000123	6514.152611	44367.669493	3935.793239	22677.466549
23.537000	0.000683	-0.000369	0.000844	0.000703	6517.615946	44369.706537	3932.703557	22650.982334
24.037500	0.000167	-0.000114	0.005520	0.000688	6513.391425	44395.519320	3944.839798	22651.688143
24.535000	-0.000588	-0.000583	0.000887	0.000174	6511.350312	44399.766775	3934.174800	22675.107025
25.035000	-0.002149	-0.000547	0.002090	0.000320	6496.991771	44389.268769	3936.904147	22668.454967
25.535500	-0.000866	-0.000748	0.003478	0.000108	6509.565481	44390.334359	3941.043869	22678.124385
26.036000	0.000598	0.000083	-0.000029	0.000328	6520.064728	44448.686975	3931.423971	22668.098658
26.535500	-0.001580	-0.000121	0.000100	-0.000085	6505.187102	44468.620456	3932.817529	22686.944506
27.036000	0.003273	-0.000335	0.002010	-0.002349	6565.564032	44665.124156	3943.609582	22790.564718
27.536000	-0.000191	-0.000209	0.001338	-0.001793	6531.334697	44623.808271	3940.423657	22765.074036
28.036500	0.000871	-0.000434	-0.000567	-0.001545	6538.249657	44578.466490	3934.860614	22753.722720
28.537500	-0.001976	-0.000221	-0.003474	-0.001260	6511.750520	44571.551462	3926.662006	22740.675844
29.035000	0.001210	-0.000023	0.005820	-0.000887	6535.532735	44554.744878	3949.726184	22723.572214
29.535000	-0.000090	-0.000340	0.002348	-0.001058	6525.975214	44540.848355	3941.136737	22731.431047
30.034500	-0.001650	-0.000943	0.002075	-0.001475	6516.302521	44523.009543	3941.507969	22750.493591
30.535500	0.001512	0.000451	-0.001314	0.001760	6515.693167	44347.127127	3924.461965	22602.899232
31.036000	0.000152	-0.000161	0.000523	0.000288	6516.635287	44429.173121	3932.946460	22669.915534
31.536500	-0.000156	-0.000158	-0.000745	-0.000358	6519.497272	44491.191169	3931.347714	22699.417165
32.039500	-0.000330	-0.000354	0.002509	-0.001478	6527.495413	44579.733003	3942.644491	22750.654341
32.537000	-0.000364	-0.000386	0.003352	-0.001327	6525.928474	44562.171854	3944.440094	22743.722143
33.037000	0.002116	-0.000258	0.001826	-0.001329	6546.987986	44574.613173	3940.484439	22743.797014
33.540000	0.000133	-0.000350	0.003997	0.001003	6510.441938	44342.880350	3940.069105	22637.312943
34.034500	-0.000530	0.000329	0.003380	0.001952	6496.887569	44317.200154	3936.021115	22594.156114
34.535500	-0.001438	-0.000171	0.003344	0.001082	6496.570712	44352.461504	3938.174936	22633.743305
35.035500	0.000430	-0.000090	0.005987	0.001041	6512.633005	44364.081332	3945.135065	22635.594316
35.536000	-0.001099	-0.000023	0.007325	0.000895	6500.981850	44384.378737	3949.001760	22642.242585
36.035500	-0.001617	-0.000971	0.001194	0.000017	6504.012169	44377.763272	3935.373171	22682.294463
36.536500	-0.000561	-0.000271	0.002400	0.000739	6506.824794	44375.602337	3936.620068	22649.345284
37.037000	0.000513	0.000421	0.003161	0.001023	6513.477840	44414.566601	3937.852539	22636.409411
37.536500	-0.000192	-0.000658	0.004827	0.000614	6510.991854	44350.600608	3943.229932	22655.063945
38.037000	0.000048	-0.000265	-0.002217	0.000651	6512.693629	44384.490030	3924.987519	22653.342729
38.537500	-0.000087	-0.001416	-0.003028	-0.000246	6519.130118	44360.406177	3925.210213	22694.309268
39.035000	-0.001313	-0.000819	-0.000773	0.000501	6502.500468	44346.023194	3929.068869	22660.201773
39.538000	-0.001248	-0.000374	0.000939	0.001011	6498.760890	44339.843835	3932.157191	22636.967829
40.035500	-0.002478	-0.000129	0.002082	0.000737	6490.730189	44389.334980	3935.804204	22649.422409
40.536000	-0.000422	-0.000959	0.001317	0.000372	6511.086372	44344.927667	3934.773237	22666.072157
41.036000	-0.000182	-0.000720	0.001289	0.000420	6512.699360	44363.150747	3934.576759	22663.876062
41.536500	-0.000545	0.000048	0.002352	0.000969	6505.022720	44384.094885	3935.905180	22638.878009
42.037000	-0.000681	-0.000247	0.001037	0.000818	6505.151577	44370.408660	3932.905663	22645.765510
42.539500	0.000078	-0.000429	0.003014	0.000931	6510.584382	44342.186082	3937.710922	22640.598500
43.034000	-0.002901	-0.001693	-0.001014	-0.000464	6497.260800	44354.671474	3930.926751	22704.245170
43.535000	0.001989	-0.000179	-0.001194	-0.003759	6566.648153	44815.802619	3938.957663	22855.387928
44.035500	-0.001936	-0.000962	-0.003774	0.000725	6495.379228	44311.077649	3920.829757	22649.990396
44.535500	0.001304	0.000278	0.001935	-0.000663	6534.433150	44562.200529	3939.044903	22713.364771
45.036000	-0.000226	-0.000961	0.002045	-0.001219	6526.185546	44496.807585	3940.767691	22738.795900
45.536000	0.001501	0.000235	0.001318	-0.000088	6531.226789	44502.983685	3935.964533	22687.090637
46.036000	-0.000979	-0.000137	-0.000826	0.001931	6493.288707	44274.761916	3925.270616	22595.096857
46.536500	0.001123	-0.000557	0.000110	-0.001107	6536.663744	44524.716025	3935.476179	22733.661587
47.036500	-0.001330	0.000291	0.002256	0.001486	6494.078945	44357.967873	3934.321462	22615.328699
47.537500	-0.000801	0.000375	-0.002151	0.002066	6493.660061	44310.718815	3921.547347	22588.996267
48.037000	-0.001716	-0.000059	-0.003982	0.001947	6486.989771	44280.709059	3917.195672	22594.397540
48.535000	-0.000103	-0.000345	0.003570	-0.000859	6524.173535	44521.254647	3943.791169	22722.288373
49.035000	0.001266	-0.000030	0.001360	-0.001158	6538.315172	44580.094548	3938.837460	22735.993555
49.535500	0.003373	0.000385	0.003941	-0.002378	6566.680911	44737.167008	3948.714755	22791.929174
50.035500	0.000045	-0.000172	0.005358	0.002591	6496.355884	44208.689975	3939.482322	22565.153520
50.535500	-0.007430	-0.010209	0.007928	-0.004107	6489.829324	43892.594803	3963.729707	22871.421564
51.042000	0.007131	-0.022477	0.021027	0.252825	4933.266983	24973.404237	3470.330239	13934.308966
51.536000	-0.005349	-0.036912	-0.026221	-0.123542	7664.883661	53640.650471	4212.932142	29206.431986
52.037000	-0.014445	-0.097361	-0.030036	-0.274253	9521.000207	65353.144092	4775.463796	40136.998409
52.537000	-0.012662	-0.107784	-0.019779	-0.285940	9731.128474	65535.000000	4877.047621	41153.753832
53.035000	0.001159	-0.059212	-0.013399	-0.225960	9037.335781	63912.205560	4637.663593	36213.803303
53.535000	0.003374	-0.043992	-0.006453	-0.193651	8623.135488	61559.494286	4534.280257	33822.378806
54.038000	0.006431	-0.031672	-0.000228	-0.162599	8262.756564	59084.860334	4438.769398	31685.744592
54.538500	0.010442	-0.023252	0.007752	-0.136795	7997.872565	56881.904078	4373.486177	30022.846486
55.036000	0.013313	-0.020291	0.012443	-0.149554	8186.502424	58870.212948	4437.371933	30832.765677
55.536500	0.028347	-0.009522	0.032345	-0.107889	7869.126887	55029.585449	4358.092643	28273.706134
56.036000	0.047426	0.001490	0.052594	-0.047030	7408.805385	49381.231755	4220.361553	24950.434022
56.537000	0.064683	0.015127	0.074983	0.019651	6918.468249	44041.691058	4084.128682	21806.016265
57.037000	0.087569	0.026273	0.094677	0.073530	6638.274499	40190.031705	3988.079875	19595.315030
57.537500	0.109515	0.039593	0.120029	0.130826	6342.171128	36602.897805	3904.913664	17526.696127
58.040500	0.125170	0.053836	0.141874	0.189161	6015.336046	33352.946241	3817.097360	15682.992993
58.535500	0.149589	0.067498	0.160639	0.228301	5909.860513	31620.117240	3771.184518	14577.766533
59.038500	0.165522	0.074857	0.194638	0.288831	5611.278715	28315.263908	3714.535689	13053.081903
59.535500	0.185701	0.086164	0.203716	0.293409	5712.257486	28711.470495	3723.901185	12946.180977
60.041000	0.195429	0.094531	0.214423	0.327857	5553.912884	27209.363678	3675.562992	12176.936362
60.536000	0.213596	0.106238	0.237796	0.319925	5721.354669	28331.986574	3739.863547	12348.677705
61.039500	0.225560	0.115856	0.249880	0.338863	5675.626752	27792.885430	3725.387766	11943.737468
61.536500	0.237359	0.124112	0.266949	0.395984	5395.654796	25148.172338	3645.207920	10824.028659
62.040000	0.241383	0.129465	0.263257	0.413478	5317.925024	24535.918221	3605.693299	10509.535398
62.534500	0.252460	0.139107	0.267022	0.410413	5399.593737	25177.104162	3618.221205	10563.725077
63.043500	0.257944	0.141903	0.271797	0.408003	5446.357255	25445.266593	3631.616668	10606.605523
63.538000	0.261007	0.145835	0.277482	0.410030	5452.554211	25544.222919	3638.522402	10570.526847
64.044000	0.265780	0.148339	0.279926	0.409333	5485.539640	25711.450829	3644.497697	10582.916216
64.538500	0.265386	0.151997	0.288763	0.411834	5468.028247	25772.182095	3656.683445	10538.551923
65.036500	0.270291	0.153023	0.289319	0.412977	5490.798972	25766.037617	3655.546545	10518.362828
65.539500	0.274449	0.155228	0.287637	0.415552	5500.447059	25746.590047	3647.349726	10473.083211
66.036500	0.273505	0.158047	0.289855	0.422518	5452.613996	25529.845228	3638.302341	10351.912546
66.536500	0.280510	0.161493	0.298866	0.419360	5514.224013	25875.969565	3661.689158	10406.599518
67.040500	0.283691	0.163002	0.295649	0.419993	5529.901463	25922.295215	3654.220000	10395.613923
67.535000	0.283774	0.164230	0.299185	0.421137	5523.363292	25926.754451	3658.853275	10375.782276
68.034500	0.280272	0.164095	0.295154	0.429907	5448.893045	25460.207722	3634.352917	10225.507521
68.535000	0.283835	0.166161	0.299513	0.427168	5486.870654	25710.749787	3647.848237	10272.113512
69.038500	0.286708	0.168708	0.302073	0.431887	5475.692239	25597.169180	3643.720151	10191.991805
69.535500	0.288529	0.168889	0.308887	0.433163	5478.987190	25540.100801	3654.351789	10170.472906
70.036500	0.286297	0.169467	0.307061	0.441939	5413.196180	25117.498418	3634.116400	10024.203477
70.536000	0.287571	0.169309	0.307025	0.437881	5444.855288	25317.532161	3641.734922	10091.470622
71.037000	0.289847	0.170037	0.305506	0.440564	5442.425973	25217.027154	3633.775670	10046.919376
71.537500	0.291527	0.172276	0.314478	0.444120	5431.247162	25149.577061	3644.047729	9988.295479
72.034500	0.293260	0.173910	0.314549	0.447526	5421.329552	25059.140857	3637.709619	9932.608206
72.535000	0.296233	0.173736	0.309022	0.449435	5427.635652	24953.306894	3623.745551	9901.572581
73.038000	0.295861	0.175146	0.309996	0.452046	5409.996686	24892.533167	3620.705238	9859.361726
73.535500	0.298563	0.175281	0.312887	0.455548	5405.277833	24722.943106	3619.571643	9803.123917
74.038500	0.293814	0.174118	0.317132	0.461174	5344.969432	24385.093419	3617.018031	9713.745620
74.536000	0.297874	0.176421	0.318187	0.458984	5381.132170	24608.117976	3623.032092	9748.404637
75.036500	0.298084	0.175984	0.314415	0.459808	5377.553565	24545.290560	3614.527457	9735.337313
75.536500	0.301381	0.177162	0.320025	0.461805	5385.132228	24504.607620	3621.206004	9703.798468
76.037000	0.297613	0.177269	0.313258	0.468895	5322.546048	24160.674741	3595.896237	9592.952346
76.537500	0.302777	0.179234	0.324500	0.465757	5370.259988	24411.476397	3622.177084	9641.787464
77.040500	0.301875	0.178228	0.318100	0.465583	5366.039963	24370.363430	3610.691041	9644.506752
77.535000	0.305423	0.178551	0.319786	0.466487	5381.402137	24341.706962	3612.124122	9630.392469
78.035500	0.298424	0.177716	0.317516	0.471436	5312.718015	24058.576046	3598.989293	9553.661151
78.535500	0.304945	0.178869	0.327379	0.467203	5374.449923	24322.056931	3624.843015	9619.228076
79.038500	0.304552	0.178636	0.325334	0.466960	5373.576481	24322.552381	3621.489549	9623.012370
79.536500	0.306963	0.180192	0.319395	0.468992	5375.780790	24299.129490	3606.828099	9591.434809
80.036500	0.304753	0.179815	0.321359	0.474736	5329.954450	24000.261535	3599.970530	9502.983867
80.536500	0.305439	0.180789	0.327932	0.469521	5363.874736	24302.537968	3621.560022	9583.252485
81.034500	0.306670	0.179178	0.323823	0.469337	5372.073278	24232.457288	3614.305228	9586.096158
81.535000	0.310034	0.179466	0.327064	0.470187	5386.718586	24204.905906	3618.717151	9572.945630
82.035000	0.308214	0.179634	0.324556	0.477096	5336.241379	23877.350977	3601.482570	9466.959218
82.535500	0.310258	0.179456	0.330338	0.472108	5376.820887	24110.550394	3621.223579	9543.307730
83.038000	0.312006	0.179030	0.331440	0.472109	5387.008959	24089.759480	3623.270640	9543.291607
83.536000	0.309693	0.177949	0.329928	0.471599	5376.496669	24061.930087	3621.407577	9551.138800
84.035500	0.310308	0.176830	0.329115	0.471564	5380.282937	24009.330997	3619.965407	9551.686900
84.536500	0.308109	0.177942	0.333081	0.472797	5360.370046	24003.466544	3625.044675	9532.710775
85.037000	0.311767	0.176176	0.328820	0.472035	5386.036749	23954.764021	3618.545702	9544.422397
85.537000	0.307273	0.175620	0.328445	0.471213	5364.692644	23967.658181	3619.374493	9557.095787
86.037000	0.304102	0.173575	0.331824	0.473047	5335.884057	23780.682900	3622.239829	9528.861660
86.540000	0.306214	0.174389	0.330204	0.471453	5357.181373	23896.556774	3622.189857	9553.390817
87.035000	0.308164	0.174379	0.325696	0.472142	5364.476926	23862.889295	3612.593025	9542.786072
87.535500	0.308095	0.173225	0.325240	0.471429	5368.207264	23841.655848	3613.064855	9553.773142
88.036000	0.304238	0.173470	0.323698	0.477907	5308.999041	23543.831876	3598.468026	9454.643124
88.535500	0.305407	0.172238	0.330651	0.471781	5350.643449	23777.292605	3622.413377	9548.342564
89.036500	0.309216	0.173122	0.337037	0.473649	5361.836835	23730.103258	3630.853323	9519.623655
89.536500	0.310314	0.172980	0.331312	0.474605	5362.660770	23677.633442	3618.402277	9504.979565
90.037000	0.305549	0.171562	0.331857	0.476440	5324.773529	23522.894037	3616.021027	9476.961294
90.537000	0.309463	0.171362	0.333307	0.474290	5359.560588	23615.508642	3622.685734	9509.800316
91.041000	0.307853	0.170892	0.333960	0.474944	5346.514632	23562.058948	3622.682497	9499.789664
91.535000	0.308186	0.169726	0.332685	0.474785	5349.346872	23514.315410	3620.611922	9502.220539
92.035000	0.306469	0.169824	0.333250	0.480962	5304.334093	23228.364156	3610.272179	9408.400715
92.535000	0.306825	0.170134	0.329952	0.476614	5331.063472	23447.116118	3612.196850	9474.311371
93.077500	0.310145	0.170674	0.331986	0.477765	5343.479322	23418.263011	3613.817389	9456.791300
93.535500	0.304853	0.169265	0.334892	0.477129	5316.891004	23381.860412	3620.356246	9466.457228
94.036000	0.304885	0.169562	0.329449	0.482524	5286.621953	23143.312941	3600.514708	9384.885034
94.537000	0.305660	0.168600	0.331756	0.477632	5318.624302	23326.991878	3613.640225	9458.819458
95.042500	0.307058	0.169027	0.331364	0.478600	5321.067451	23301.560745	3611.142817	9444.119445
95.540000	0.307693	0.167630	0.330487	0.478009	5328.051138	23263.862976	3610.620500	9453.095565
96.035000	0.301062	0.168460	0.331351	0.483517	5259.756206	23046.084337	3602.161619	9369.981287
