sample name	sample
index	70
start time	 02-11-2021  03:42:23 PM


Wavelength (nm)	Absorbance
494.344910	-0.272836
494.563924	-0.272836
494.782919	-0.272836
495.001897	-0.740694
495.220856	-0.200613
495.439797	-0.187832
495.658719	0.123874
495.877624	NaN
496.096510	NaN
496.315378	0.568928
496.534227	NaN
496.753059	0.047709
496.971872	0.374003
497.190667	0.156857
497.409444	0.117307
497.628203	0.112395
497.846943	0.110241
498.065665	0.111307
498.284369	0.113602
498.503055	0.115488
498.721723	0.116398
498.940372	0.115053
499.159003	0.114855
499.377616	0.116580
499.596210	0.117041
499.814787	0.116574
500.033345	0.117701
500.251885	0.117760
500.470406	0.117793
500.688910	0.119078
500.907395	0.120056
501.125862	0.119126
501.344311	0.119304
501.562742	0.118295
501.781154	0.119127
501.999548	0.119578
502.217924	0.117639
502.436282	0.115028
502.654621	0.116680
502.872942	0.116771
503.091245	0.118285
503.309530	0.119160
503.527797	0.120726
503.746045	0.121288
503.964275	0.120321
504.182487	0.121873
504.400681	0.123515
504.618856	0.122086
504.837013	0.122841
505.055152	0.122255
505.273273	0.121796
505.491376	0.119932
505.709460	0.119688
505.927526	0.119822
506.145574	0.120767
506.363604	0.120438
506.581615	0.118435
506.799608	0.117854
507.017583	0.119766
507.235540	0.122262
507.453478	0.124411
507.671399	0.123518
507.889301	0.123786
508.107185	0.124147
508.325050	0.124571
508.542898	0.126121
508.760727	0.126075
508.978538	0.123852
509.196330	0.122641
509.414105	0.122562
509.631861	0.125511
509.849599	0.126384
510.067319	0.126534
510.285021	0.126892
510.502704	0.127834
510.720369	0.129829
510.938016	0.131523
511.155645	0.132208
511.373255	0.132895
511.590848	0.132831
511.808422	0.132114
512.025977	0.131969
512.243515	0.133340
512.461034	0.132688
512.678536	0.131279
512.896018	0.131268
513.113483	0.130223
513.330930	0.129975
513.548358	0.128467
513.765768	0.129613
513.983160	0.130864
514.200533	0.132116
514.417889	0.133495
514.635226	0.132115
514.852545	0.131852
515.069845	0.132570
515.287128	0.133259
515.504392	0.134622
515.721638	0.134429
515.938866	0.134339
516.156075	0.132809
516.373267	0.131929
516.590440	0.133729
516.807594	0.132979
517.024731	0.132725
517.241850	0.132256
517.458950	0.131664
517.676032	0.130841
517.893095	0.129190
518.110141	0.130068
518.327168	0.131046
518.544177	0.131429
518.761168	0.132088
518.978141	0.133722
519.195095	0.133437
519.412031	0.133310
519.628949	0.134440
519.845849	0.135029
520.062731	0.134312
520.279594	0.135004
520.496439	0.135071
520.713266	0.136403
520.930074	0.136049
521.146865	0.136890
521.363637	0.138071
521.580391	0.138146
521.797127	0.139060
522.013844	0.139058
522.230543	0.138372
522.447224	0.138902
522.663887	0.138535
522.880532	0.137047
523.097158	0.136962
523.313766	0.137899
523.530356	0.138350
523.746928	0.138264
523.963481	0.139405
524.180017	0.139334
524.396534	0.140383
524.613032	0.141733
524.829513	0.143356
525.045975	0.143099
525.262420	0.142405
525.478845	0.142260
525.695253	0.142513
525.911643	0.142766
526.128014	0.144460
526.344367	0.143679
526.560702	0.142975
526.777018	0.142860
526.993316	0.144060
527.209597	0.143249
527.425858	0.142831
527.642102	0.142229
527.858328	0.142123
528.074535	0.141645
528.290724	0.142307
528.506894	0.142267
528.723047	0.141744
528.939181	0.141841
529.155297	0.143406
529.371395	0.145448
529.587475	0.146150
529.803536	0.145681
530.019579	0.145654
530.235604	0.146346
530.451611	0.146667
530.667600	0.147829
530.883570	0.148085
531.099522	0.147918
531.315456	0.148154
531.531372	0.149311
531.747269	0.150110
531.963148	0.150610
532.179009	0.149387
532.394852	0.150171
532.610676	0.150707
532.826482	0.150269
533.042271	0.151060
533.258040	0.150454
533.473792	0.150342
533.689525	0.151149
533.905240	0.151261
534.120937	0.152303
534.336616	0.151418
534.552277	0.150461
534.767919	0.151395
534.983543	0.152059
535.199149	0.151736
535.414736	0.151988
535.630306	0.151695
535.845857	0.152135
536.061390	0.152618
536.276904	0.152983
536.492401	0.154596
536.707879	0.154865
536.923339	0.155400
537.138781	0.156680
537.354204	0.156800
537.569610	0.157547
537.784997	0.157753
538.000366	0.158382
538.215716	0.159360
538.431049	0.159720
538.646363	0.160137
538.861659	0.159683
539.076937	0.160418
539.292196	0.161043
539.507438	0.161302
539.722661	0.161584
539.937866	0.161487
540.153052	0.161650
540.368221	0.161304
540.583371	0.161665
540.798503	0.162119
541.013617	0.161647
541.228712	0.162197
541.443789	0.162472
541.658848	0.161475
541.873889	0.162375
542.088912	0.163065
542.303916	0.162806
542.518902	0.162924
542.733870	0.162958
542.948820	0.163651
543.163752	0.163214
543.378665	0.162963
543.593560	0.164278
543.808437	0.164151
544.023295	0.164714
544.238136	0.166257
544.452958	0.167135
544.667762	0.167702
544.882548	0.167705
545.097315	0.168066
545.312064	0.168133
545.526795	0.168439
545.741508	0.168066
545.956203	0.167926
546.170879	0.168313
546.385537	0.167301
546.600177	0.167464
546.814799	0.167653
547.029402	0.167804
547.243988	0.168593
547.458555	0.168604
547.673103	0.169125
547.887634	0.168756
548.102146	0.168346
548.316640	0.169505
548.531116	0.169145
548.745574	0.168924
548.960013	0.169089
549.174435	0.169502
549.388838	0.170087
549.603222	0.170306
549.817589	0.171772
550.031937	0.172340
550.246267	0.171552
550.460579	0.172493
550.674873	0.172684
550.889148	0.173630
551.103405	0.174446
551.317644	0.174312
551.531865	0.174580
551.746068	0.173648
551.960252	0.173190
552.174418	0.173381
552.388566	0.173411
552.602696	0.173943
552.816807	0.173722
553.030900	0.173596
553.244975	0.173959
553.459032	0.174047
553.673070	0.174558
553.887091	0.174717
554.101093	0.176347
554.315077	0.176135
554.529042	0.176661
554.742990	0.177080
554.956919	0.177133
555.170830	0.177547
555.384722	0.178072
555.598597	0.177895
555.812453	0.178972
556.026291	0.178804
556.240111	0.179439
556.453913	0.179919
556.667696	0.180737
556.881461	0.180855
557.095208	0.181344
557.308937	0.181629
557.522647	0.182434
557.736339	0.182355
557.950013	0.182682
558.163669	0.182994
558.377307	0.182567
558.590926	0.182489
558.804527	0.182712
559.018110	0.182607
559.231675	0.182661
559.445221	0.182964
559.658749	0.183343
559.872259	0.183449
560.085751	0.183655
560.299225	0.183586
560.512680	0.183974
560.726117	0.184083
560.939536	0.184831
561.152937	0.184966
561.366319	0.185100
561.579683	0.184795
561.793029	0.185708
562.006357	0.185634
562.219667	0.186382
562.432958	0.186054
562.646231	0.186201
562.859486	0.185799
563.072723	0.186372
563.285941	0.186509
563.499141	0.186854
563.712323	0.185881
563.925487	0.186429
564.138632	0.186893
564.351760	0.187175
564.564869	0.187562
564.777960	0.187796
564.991032	0.187944
565.204087	0.188344
565.417123	0.188349
565.630141	0.188919
565.843140	0.188890
566.056122	0.188386
566.269085	0.188914
566.482030	0.189029
566.694957	0.189750
566.907866	0.189909
567.120756	0.189373
567.333628	0.189188
567.546482	0.189449
567.759318	0.189206
567.972135	0.189431
568.184935	0.189226
568.397716	0.189571
568.610478	0.189963
568.823223	0.190165
569.035949	0.190891
569.248657	0.190838
569.461347	0.190795
569.674019	0.191504
569.886672	0.191564
570.099308	0.191913
570.311925	0.191792
570.524523	0.192396
570.737104	0.193025
570.949666	0.192957
571.162210	0.194075
571.374736	0.194122
571.587244	0.194678
571.799733	0.195155
572.012205	0.194955
572.224658	0.194716
572.437092	0.194252
572.649509	0.193673
572.861907	0.194366
573.074287	0.194272
573.286649	0.194203
573.498993	0.193888
573.711318	0.194459
573.923625	0.195118
574.135914	0.195513
574.348185	0.195306
574.560438	0.195631
574.772672	0.195812
574.984888	0.196110
575.197086	0.196153
575.409266	0.196476
575.621427	0.196691
575.833570	0.196664
576.045695	0.197019
576.257802	0.197254
576.469890	0.197702
576.681961	0.197384
576.894013	0.197402
577.106046	0.197971
577.318062	0.197567
577.530059	0.197795
577.742039	0.197782
577.954000	0.197953
578.165942	0.197465
578.377867	0.197657
578.589773	0.198249
578.801661	0.198179
579.013531	0.198840
579.225382	0.199444
579.437216	0.199058
579.649031	0.198684
579.860828	0.199050
580.072606	0.199573
580.284367	0.199843
580.496109	0.199512
580.707833	0.199965
580.919539	0.199894
581.131227	0.200257
581.342896	0.200763
581.554547	0.202138
581.766180	0.202678
581.977795	0.202780
582.189391	0.202979
582.400969	0.203241
582.612529	0.203434
582.824071	0.203523
583.035595	0.203162
583.247100	0.203277
583.458587	0.202790
583.670056	0.202610
583.881506	0.202763
584.092939	0.202778
584.304353	0.202908
584.515749	0.203334
584.727127	0.202894
584.938486	0.203650
585.149828	0.203601
585.361151	0.204263
585.572456	0.204408
585.783742	0.204572
585.995011	0.204640
586.206261	0.204866
586.417493	0.205348
586.628706	0.205579
586.839902	0.206037
587.051079	0.206022
587.262238	0.205842
587.473379	0.205973
587.684502	0.206384
587.895606	0.206638
588.106692	0.207339
588.317760	0.206689
588.528810	0.207167
588.739841	0.206202
588.950855	0.206746
589.161850	0.207165
589.372827	0.207427
589.583785	0.207899
589.794726	0.207904
590.005648	0.208048
590.216552	0.208589
590.427437	0.208991
590.638305	0.210072
590.849154	0.210370
591.059985	0.209900
591.270798	0.210182
591.481592	0.210188
591.692369	0.210660
591.903127	0.210314
592.113867	0.210637
592.324588	0.210465
592.535292	0.210585
592.745977	0.210116
592.956644	0.210766
593.167293	0.210057
593.377923	0.210372
593.588536	0.210424
593.799130	0.210965
594.009706	0.210965
594.220263	0.211146
594.430803	0.211225
594.641324	0.211791
594.851827	0.211735
595.062312	0.212195
595.272778	0.211760
595.483227	0.211958
595.693657	0.211840
595.904069	0.211979
596.114462	0.212541
596.324838	0.212669
596.535195	0.213152
596.745534	0.213658
596.955855	0.213608
597.166157	0.213936
597.376441	0.213615
597.586707	0.213657
597.796955	0.213910
598.007185	0.213875
598.217396	0.213696
598.427589	0.213443
598.637764	0.212902
598.847921	0.213667
599.058060	0.214208
599.268180	0.214062
599.478282	0.214240
599.688366	0.214541
599.898431	0.214761
600.108479	0.215138
600.318508	0.215495
600.528519	0.216532
600.738511	0.216939
600.948486	0.216596
601.158442	0.216948
601.368380	0.217006
601.578300	0.217416
601.788202	0.217420
601.998085	0.217881
602.207950	0.218022
602.417797	0.218169
602.627626	0.218284
602.837436	0.219251
603.047228	0.219100
603.257002	0.219467
603.466758	0.219192
603.676496	0.219313
603.886215	0.218991
604.095916	0.218878
604.305599	0.218753
604.515264	0.218464
604.724910	0.218382
604.934538	0.219226
605.144148	0.219841
605.353740	0.220218
605.563314	0.220279
605.772869	0.220830
605.982406	0.221542
606.191925	0.221760
606.401425	0.222698
606.610908	0.222556
606.820372	0.222551
607.029818	0.222438
607.239246	0.222564
607.448655	0.223568
607.658047	0.224223
607.867420	0.224377
608.076775	0.224112
608.286111	0.223412
608.495430	0.223740
608.704730	0.224134
608.914012	0.224461
609.123275	0.224823
609.332521	0.224434
609.541748	0.223954
609.750957	0.223731
609.960148	0.224142
610.169321	0.224635
610.378475	0.224474
610.587611	0.224778
610.796729	0.224577
611.005829	0.224104
611.214910	0.224339
611.423974	0.224132
611.633019	0.224130
611.842045	0.224010
612.051054	0.224630
612.260044	0.224975
612.469017	0.225034
612.677970	0.224922
612.886906	0.225850
613.095824	0.225670
613.304723	0.226136
613.513604	0.227100
613.722467	0.227377
613.931311	0.226837
614.140138	0.227140
614.348946	0.226877
614.557736	0.226781
614.766507	0.226219
614.975261	0.226674
615.183996	0.226799
615.392713	0.226479
615.601412	0.226837
615.810092	0.227370
616.018754	0.226921
616.227399	0.227156
616.436024	0.227597
616.644632	0.227984
616.853222	0.228388
617.061793	0.228842
617.270346	0.228990
617.478880	0.229353
617.687397	0.229061
617.895895	0.229727
618.104375	0.230116
618.312837	0.230577
618.521281	0.230642
618.729706	0.230679
618.938113	0.230342
619.146502	0.230481
619.354873	0.230555
619.563226	0.231379
619.771560	0.231880
619.979876	0.232010
620.188174	0.232022
620.396453	0.232205
620.604715	0.232373
620.812958	0.232513
621.021183	0.232694
621.229390	0.232796
621.437578	0.232614
621.645748	0.232778
621.853900	0.232959
622.062034	0.233136
622.270150	0.233572
622.478247	0.233383
622.686326	0.234181
622.894387	0.234438
623.102430	0.234680
623.310454	0.234923
623.518461	0.235269
623.726449	0.235195
623.934418	0.235811
624.142370	0.235723
624.350303	0.236552
624.558218	0.236448
624.766115	0.236461
624.973994	0.236565
625.181855	0.236394
625.389697	0.236230
625.597521	0.237144
625.805327	0.236902
626.013114	0.237013
626.220883	0.236946
626.428634	0.236864
626.636367	0.237342
626.844082	0.237043
627.051778	0.237725
627.259457	0.237760
627.467117	0.237233
627.674758	0.238055
627.882382	0.237928
628.089987	0.237795
628.297574	0.238055
628.505143	0.237603
628.712694	0.238045
628.920226	0.237846
629.127740	0.237944
629.335236	0.238301
629.542714	0.238122
629.750174	0.238604
629.957615	0.238776
630.165038	0.238534
630.372443	0.238990
630.579829	0.239181
630.787198	0.239666
630.994548	0.239785
631.201880	0.239726
631.409194	0.239522
631.616489	0.239819
631.823766	0.240256
632.031025	0.240439
632.238266	0.240715
632.445489	0.240941
632.652693	0.240692
632.859879	0.241065
633.067047	0.241457
633.274197	0.241578
633.481329	0.241782
633.688442	0.241814
633.895537	0.242102
634.102614	0.242500
634.309672	0.242842
634.516713	0.243131
634.723735	0.243182
634.930739	0.243371
635.137724	0.243760
635.344692	0.244188
635.551641	0.244660
635.758572	0.244823
635.965485	0.244797
636.172379	0.244874
636.379256	0.245280
636.586114	0.245563
636.792954	0.245998
636.999775	0.246064
637.206579	0.245938
637.413364	0.246063
637.620131	0.246689
637.826880	0.246836
638.033610	0.247090
638.240323	0.247082
638.447017	0.247307
638.653692	0.246784
638.860350	0.246727
639.066990	0.247141
639.273611	0.246771
639.480214	0.246809
639.686798	0.247082
639.893365	0.246789
640.099913	0.247059
640.306443	0.247350
640.512955	0.248358
640.719449	0.249032
640.925924	0.249060
641.132381	0.249394
641.338820	0.249656
641.545241	0.249925
641.751644	0.250856
641.958028	0.251121
642.164394	0.251065
642.370742	0.250728
642.577071	0.250592
642.783383	0.250558
642.989676	0.250908
643.195951	0.251248
643.402207	0.251520
643.608446	0.251184
643.814666	0.251375
644.020868	0.251624
644.227052	0.251983
644.433218	0.252235
644.639365	0.252515
644.845494	0.252525
645.051605	0.251935
645.257698	0.251721
645.463772	0.252113
645.669828	0.251722
645.875866	0.251727
646.081886	0.251644
646.287888	0.251746
646.493871	0.252112
646.699836	0.252517
646.905783	0.253106
647.111712	0.253154
647.317622	0.253448
647.523514	0.254023
647.729388	0.254354
647.935244	0.254817
648.141082	0.255208
648.346901	0.255664
648.552702	0.255400
648.758485	0.256291
648.964250	0.256862
649.169996	0.257035
649.375724	0.257590
649.581434	0.257729
649.787126	0.258240
649.992800	0.258609
650.198455	0.258499
650.404092	0.258935
650.609711	0.259040
650.815311	0.259403
651.020894	0.259606
651.226458	0.259712
651.432004	0.259756
651.637532	0.259748
651.843041	0.259519
652.048532	0.259507
652.254006	0.260068
652.459460	0.260093
652.664897	0.260270
652.870315	0.260552
653.075716	0.260628
653.281097	0.261324
653.486461	0.261496
653.691807	0.262010
653.897134	0.262752
654.102443	0.262889
654.307734	0.262879
654.513006	0.262591
654.718261	0.262886
654.923497	0.263037
655.128715	0.263479
655.333915	0.264083
655.539096	0.264268
655.744259	0.264116
655.949404	0.264216
656.154531	0.264657
656.359640	0.265261
656.564730	0.265359
656.769802	0.265846
656.974856	0.265513
657.179892	0.265016
657.384909	0.265277
657.589908	0.265952
657.794889	0.266178
657.999852	0.265890
658.204797	0.266227
658.409723	0.266099
658.614631	0.266022
658.819521	0.266521
659.024393	0.266972
659.229246	0.267093
659.434081	0.266542
659.638898	0.267052
659.843697	0.267346
660.048478	0.267526
660.253240	0.267666
660.457984	0.267592
660.662710	0.267872
660.867417	0.268046
661.072107	0.268218
661.276778	0.269056
661.481431	0.268838
661.686066	0.269460
661.890682	0.269746
662.095281	0.270062
662.299861	0.270443
662.504422	0.270338
662.708966	0.270705
662.913491	0.270921
663.117999	0.271100
663.322488	0.271685
663.526958	0.272042
663.731411	0.272455
663.935845	0.273196
664.140261	0.273878
664.344659	0.274311
664.549038	0.274520
664.753400	0.275470
664.957743	0.275749
665.162068	0.275992
665.366375	0.276155
665.570663	0.276189
665.774933	0.276326
665.979185	0.276333
666.183419	0.276607
666.387635	0.276830
666.591832	0.276820
666.796011	0.277034
667.000172	0.277300
667.204315	0.277524
667.408439	0.277819
667.612545	0.278153
667.816634	0.278711
668.020703	0.279265
668.224755	0.279937
668.428788	0.280306
668.632803	0.280180
668.836800	0.280309
669.040779	0.280449
669.244739	0.280730
669.448681	0.280846
669.652605	0.280727
669.856511	0.280781
670.060399	0.280571
670.264268	0.280256
670.468119	0.280195
670.671952	0.280686
670.875767	0.281097
671.079563	0.281199
671.283341	0.281679
671.487101	0.281844
671.690843	0.282209
671.894567	0.282747
672.098272	0.283146
672.301959	0.284073
672.505628	0.284029
672.709278	0.284558
672.912911	0.284712
673.116525	0.284905
673.320121	0.285344
673.523699	0.285382
673.727258	0.285775
673.930799	0.286133
674.134322	0.286460
674.337827	0.286975
674.541314	0.286466
674.744782	0.286964
674.948232	0.286961
675.151664	0.287256
675.355078	0.287539
675.558474	0.287703
675.761851	0.288256
675.965210	0.288542
676.168551	0.288737
676.371873	0.288802
676.575178	0.288507
676.778464	0.288773
676.981732	0.288964
677.184981	0.289186
677.388213	0.289143
677.591426	0.289318
677.794621	0.289669
677.997798	0.289742
678.200956	0.290465
678.404097	0.291311
678.607219	0.292033
678.810323	0.292324
679.013408	0.292721
679.216476	0.293234
679.419525	0.293355
679.622556	0.293467
679.825569	0.293986
680.028563	0.294621
680.231540	0.294881
680.434498	0.294673
680.637438	0.294720
680.840359	0.294785
681.043263	0.294901
681.246148	0.294815
681.449015	0.294714
681.651864	0.294673
681.854694	0.294602
682.057506	0.294994
682.260301	0.295138
682.463076	0.295495
682.665834	0.295709
682.868573	0.296051
683.071295	0.296576
683.273998	0.297177
683.476682	0.297468
683.679349	0.297630
683.881997	0.297209
684.084627	0.297532
684.287239	0.297886
684.489833	0.298197
684.692408	0.298306
684.894965	0.298443
685.097504	0.298374
685.300025	0.298482
685.502527	0.298769
685.705012	0.299256
685.907478	0.299559
686.109925	0.299839
686.312355	0.300257
686.514766	0.300717
686.717159	0.300886
686.919534	0.300911
687.121891	0.301740
687.324230	0.301961
687.526550	0.302273
687.728852	0.302632
687.931136	0.302677
688.133401	0.301992
688.335649	0.302170
688.537878	0.302449
688.740089	0.302930
688.942281	0.302465
689.144456	0.302999
689.346612	0.302933
689.548750	0.303162
689.750870	0.303513
689.952971	0.304205
690.155055	0.304298
690.357120	0.304458
690.559167	0.304367
690.761195	0.304599
690.963206	0.304204
691.165198	0.304504
691.367172	0.304599
691.569128	0.304984
691.771065	0.304959
691.972984	0.304992
692.174885	0.305162
692.376768	0.305531
692.578633	0.305882
692.780479	0.306474
692.982308	0.306933
693.184118	0.306759
693.385909	0.306624
693.587683	0.307022
693.789438	0.307457
693.991175	0.307440
694.192894	0.307800
694.394595	0.307876
694.596277	0.307715
694.797941	0.307728
694.999587	0.308280
695.201215	0.308294
695.402824	0.308289
695.604416	0.307981
695.805989	0.308310
696.007543	0.308272
696.209080	0.308497
696.410598	0.308694
696.612099	0.308851
696.813580	0.309090
697.015044	0.309720
697.216490	0.310172
697.417917	0.310307
697.619326	0.310371
697.820717	0.310667
698.022089	0.311028
698.223444	0.311116
698.424780	0.311249
698.626098	0.310976
698.827397	0.310735
699.028679	0.310681
699.229942	0.311188
699.431187	0.311429
699.632414	0.311211
699.833622	0.311293
700.034813	0.311795
700.235985	0.311737
700.437139	0.311963
700.638274	0.312093
700.839392	0.312462
701.040491	0.312385
701.241572	0.312375
701.442635	0.312484
701.643679	0.312326
701.844706	0.312112
702.045714	0.312444
702.246704	0.312548
702.447675	0.312616
702.648629	0.312493
702.849564	0.312767
703.050481	0.312701
703.251380	0.313007
703.452260	0.313301
703.653122	0.313189
703.853966	0.313312
704.054792	0.313486
704.255600	0.313539
704.456389	0.313457
704.657160	0.313366
704.857913	0.313449
705.058648	0.313265
705.259365	0.313068
705.460063	0.313230
705.660743	0.312762
705.861405	0.312334
706.062048	0.312420
706.262674	0.312543
706.463281	0.312516
706.663870	0.312573
706.864441	0.312415
707.064993	0.312751
707.265527	0.312835
707.466043	0.312943
707.666541	0.313192
707.867021	0.313139
708.067482	0.313282
708.267925	0.313249
708.468350	0.313347
708.668757	0.313807
708.869145	0.312961
709.069516	0.313195
709.269868	0.313242
709.470201	0.313491
709.670517	0.313314
709.870814	0.313217
710.071093	0.313143
710.271354	0.313298
710.471597	0.313433
710.671821	0.314092
710.872028	0.314091
711.072216	0.314451
711.272385	0.314160
711.472537	0.314529
711.672670	0.314700
711.872785	0.314787
712.072882	0.314743
712.272961	0.314613
712.473021	0.314572
712.673063	0.314542
712.873087	0.314437
713.073093	0.314873
713.273081	0.315032
713.473050	0.315351
713.673001	0.315639
713.872934	0.315696
714.072849	0.315640
714.272745	0.315715
714.472623	0.315475
714.672483	0.315651
714.872325	0.315715
715.072148	0.315341
715.271954	0.315182
715.471741	0.315005
715.671509	0.315062
715.871260	0.315067
716.070992	0.314851
716.270707	0.314978
716.470403	0.314604
716.670080	0.314247
716.869740	0.314154
717.069381	0.314205
717.269004	0.314114
717.468609	0.314051
717.668195	0.314114
717.867764	0.314146
718.067314	0.313659
718.266846	0.313546
718.466360	0.313221
718.665855	0.313298
718.865332	0.313114
719.064791	0.312970
719.264232	0.313102
719.463655	0.312765
719.663059	0.312480
719.862445	0.313025
720.061813	0.313034
720.261163	0.313134
720.460494	0.312518
720.659807	0.311957
720.859102	0.311853
721.058379	0.311170
721.257638	0.311078
721.456878	0.311186
721.656100	0.310837
721.855304	0.310894
722.054490	0.310761
722.253657	0.311651
722.452806	0.311894
722.651937	0.312031
722.851050	0.312216
723.050145	0.312345
723.249221	0.311950
723.448279	0.311719
723.647319	0.311436
723.846340	0.311421
724.045344	0.310764
724.244329	0.310525
724.443296	0.309991
724.642245	0.309396
724.841175	0.309060
725.040088	0.309020
725.238982	0.308535
725.437857	0.308391
725.636715	0.308114
725.835554	0.307880
726.034376	0.307585
726.233179	0.307401
726.431963	0.307592
726.630730	0.307344
726.829478	0.307083
727.028208	0.307458
727.226920	0.307047
727.425614	0.306720
727.624289	0.306534
727.822946	0.306287
728.021585	0.306055
728.220206	0.306043
728.418808	0.305638
728.617392	0.305676
728.815958	0.305184
729.014506	0.305155
729.213036	0.304857
729.411547	0.305121
729.610040	0.304526
729.808515	0.304557
730.006972	0.304343
730.205410	0.304585
730.403831	0.304455
730.602233	0.304459
730.800616	0.304455
730.998982	0.304540
731.197329	0.303588
731.395658	0.303842
731.593969	0.303561
731.792262	0.303565
731.990536	0.303151
732.188793	0.302907
732.387031	0.302759
732.585250	0.302349
732.783452	0.302369
732.981635	0.302498
733.179800	0.302395
733.377947	0.302340
733.576076	0.301643
733.774186	0.301362
733.972278	0.301035
734.170352	0.300377
734.368408	0.299880
734.566446	0.299501
734.764465	0.299289
734.962466	0.299056
735.160449	0.298703
735.358413	0.298923
735.556360	0.298965
735.754288	0.298582
735.952198	0.298524
736.150090	0.298655
736.347963	0.298560
736.545818	0.298341
736.743655	0.297776
736.941474	0.297569
737.139275	0.297504
737.337057	0.297057
737.534821	0.297602
737.732567	0.297508
737.930295	0.297663
738.128005	0.297224
738.325696	0.297056
738.523369	0.297130
738.721024	0.296589
738.918660	0.296030
739.116279	0.295774
739.313879	0.295016
739.511461	0.295066
739.709024	0.294356
739.906570	0.293963
740.104097	0.293847
740.301606	0.293478
740.499097	0.293385
740.696569	0.293114
740.894024	0.293084
741.091460	0.292779
741.288878	0.292233
741.486277	0.292149
741.683659	0.292285
741.881022	0.292076
742.078367	0.292129
742.275694	0.292049
742.473002	0.291550
742.670293	0.291211
742.867565	0.291195
743.064819	0.290943
743.262054	0.290607
743.459272	0.290607
743.656471	0.289797
743.853652	0.289547
744.050815	0.289153
744.247959	0.288969
744.445085	0.289139
744.642194	0.288605
744.839283	0.288118
745.036355	0.287729
745.233408	0.287212
745.430444	0.287303
745.627461	0.286693
745.824459	0.286773
746.021440	0.286425
746.218402	0.285620
746.415346	0.285530
746.612272	0.285544
746.809180	0.285536
747.006069	0.284889
747.202940	0.284766
747.399793	0.284469
747.596628	0.283773
747.793444	0.283556
747.990243	0.283522
748.187023	0.283366
748.383784	0.283237
748.580528	0.282899
748.777253	0.283409
748.973960	0.282764
749.170649	0.283118
749.367320	0.282748
749.563973	0.283130
749.760607	0.283139
749.957223	0.282862
750.153821	0.282981
750.350400	0.282882
750.546962	0.282148
750.743505	0.282438
750.940030	0.282109
751.136536	0.282647
751.333025	0.281985
751.529495	0.281635
751.725947	0.281430
751.922381	0.281184
752.118796	0.280833
752.315194	0.280823
752.511573	0.280747
752.707934	0.280513
752.904276	0.280158
753.100601	0.279922
753.296907	0.279706
753.493195	0.279679
753.689465	0.279168
753.885716	0.279425
754.081949	0.279323
754.278164	0.279049
754.474361	0.279006
754.670540	0.278861
754.866700	0.278977
755.062843	0.279011
755.258967	0.278810
755.455072	0.279009
755.651160	0.278395
755.847229	0.277979
756.043280	0.277909
756.239313	0.277651
756.435328	0.277282
756.631324	0.277065
756.827302	0.277157
757.023262	0.276908
757.219204	0.276747
757.415127	0.276707
757.611033	0.276578
757.806920	0.276305
758.002788	0.276409
758.198639	0.276521
758.394471	0.276444
758.590286	0.276371
758.786081	0.276437
758.981859	0.276334
759.177619	0.276549
759.373360	0.276539
759.569083	0.276588
759.764788	0.276435
759.960474	0.275998
760.156143	0.275788
760.351793	0.275139
760.547425	0.275273
760.743038	0.274348
760.938634	0.273579
761.134211	0.273381
761.329770	0.273104
761.525311	0.272694
761.720833	0.272695
761.916338	0.272667
762.111824	0.272824
762.307292	0.272064
762.502741	0.272631
762.698173	0.272766
762.893586	0.272731
763.088981	0.272461
763.284358	0.272353
763.479716	0.272007
763.675057	0.271775
763.870379	0.271332
764.065683	0.271612
764.260968	0.271368
764.456236	0.271279
764.651485	0.271033
764.846716	0.271014
765.041929	0.270819
765.237123	0.270861
765.432299	0.270678
765.627457	0.270528
765.822597	0.270174
766.017719	0.269927
766.212822	0.270042
766.407907	0.269981
766.602974	0.269776
766.798023	0.269942
766.993054	0.269596
767.188066	0.269261
767.383060	0.269097
767.578036	0.268764
767.772993	0.268842
767.967933	0.268442
768.162854	0.268158
768.357757	0.268113
768.552642	0.267839
768.747508	0.268002
768.942356	0.268166
769.137186	0.268087
769.331998	0.267944
769.526792	0.267884
769.721567	0.267959
769.916324	0.268005
770.111063	0.267558
770.305784	0.267170
770.500486	0.267023
770.695171	0.266675
770.889837	0.266306
771.084484	0.266258
771.279114	0.265844
771.473725	0.265600
771.668318	0.265502
771.862893	0.265674
772.057450	0.266113
772.251988	0.265850
772.446509	0.265680
772.641011	0.266275
772.835494	0.266618
773.029960	0.266763
773.224407	0.266969
773.418836	0.266741
773.613247	0.267064
773.807640	0.266851
774.002014	0.267461
774.196370	0.267746
774.390708	0.267592
774.585028	0.267565
774.779330	0.267197
774.973613	0.267399
775.167878	0.267504
775.362125	0.267336
775.556354	0.267152
775.750564	0.266775
775.944756	0.266652
776.138930	0.266684
776.333086	0.266384
776.527223	0.266701
776.721343	0.266277
776.915444	0.266593
777.109526	0.266256
777.303591	0.265887
777.497637	0.266156
777.691666	0.266059
777.885676	0.266130
778.079667	0.265897
778.273641	0.265790
778.467596	0.265669
778.661533	0.265590
778.855452	0.265596
779.049352	0.265433
779.243235	0.264956
779.437099	0.265142
779.630945	0.264737
779.824773	0.265243
780.018582	0.265294
780.212373	0.265459
780.406146	0.265344
780.599901	0.265724
780.793638	0.266712
780.987356	0.266653
781.181056	0.266537
781.374738	0.266556
781.568402	0.266359
781.762047	0.266467
781.955674	0.266237
782.149283	0.266048
782.342874	0.265564
782.536447	0.265279
782.730001	0.265739
782.923537	0.265404
783.117055	0.265360
783.310555	0.264784
783.504036	0.264365
783.697499	0.264392
783.890944	0.264113
784.084371	0.264070
784.277780	0.263500
784.471170	0.263148
784.664542	0.263422
784.857896	0.263154
785.051231	0.263343
785.244549	0.263448
785.437848	0.263725
785.631129	0.263798
785.824392	0.263854
786.017636	0.264025
786.210863	0.264166
786.404071	0.264100
786.597260	0.264293
786.790432	0.264545
786.983585	0.264717
787.176721	0.264678
787.369838	0.264816
787.562936	0.265276
787.756017	0.265660
787.949079	0.265804
788.142123	0.265943
788.335149	0.266205
788.528156	0.266791
788.721146	0.266645
788.914117	0.267018
789.107070	0.267302
789.300005	0.267409
789.492921	0.267804
789.685819	0.267520
789.878699	0.267946
790.071561	0.267928
790.264405	0.267923
790.457230	0.267959
790.650037	0.267724
790.842826	0.267827
791.035597	0.268464
791.228349	0.268449
791.421084	0.268901
791.613800	0.269167
791.806497	0.269486
791.999177	0.269461
792.191838	0.270352
792.384481	0.270524
792.577106	0.270508
792.769713	0.269924
792.962301	0.269620
793.154871	0.270049
793.347423	0.269788
793.539957	0.269468
793.732473	0.269131
793.924970	0.268728
794.117449	0.268912
794.309910	0.269286
794.502353	0.269436
794.694777	0.269715
794.887183	0.269262
795.079571	0.269492
795.271941	0.269911
795.464293	0.270038
795.656626	0.270231
795.848941	0.269746
796.041238	0.269936
796.233516	0.270173
796.425777	0.270541
796.618019	0.270677
796.810243	0.270672
797.002449	0.271085
797.194636	0.271702
797.386805	0.271942
797.578956	0.272677
797.771089	0.272626
797.963204	0.272710
798.155300	0.272915
798.347378	0.273317
798.539438	0.274048
798.731480	0.274558
798.923503	0.274719
799.115509	0.275103
799.307496	0.275493
799.499465	0.275745
799.691415	0.276122
799.883348	0.275924
800.075262	0.276150
800.267158	0.275996
800.459035	0.275995
800.650895	0.276706
800.842736	0.276770
801.034559	0.276920
801.226364	0.277110
801.418150	0.277124
801.609919	0.277832
801.801669	0.277927
801.993401	0.277936
802.185114	0.277541
802.376810	0.277298
802.568487	0.277222
802.760146	0.277140
802.951787	0.277270
803.143409	0.277358
803.335014	0.277166
803.526600	0.277066
803.718168	0.277343
803.909717	0.277825
804.101249	0.277856
804.292762	0.278306
804.484257	0.278624
804.675734	0.278954
804.867192	0.279456
805.058632	0.279683
805.250054	0.280484
805.441458	0.280809
805.632844	0.281043
805.824211	0.281573
806.015561	0.281577
806.206891	0.282052
806.398204	0.282420
806.589499	0.282594
806.780775	0.283289
806.972033	0.283235
807.163273	0.283206
807.354495	0.283775
807.545698	0.283870
807.736883	0.284504
807.928050	0.284206
808.119199	0.284435
808.310329	0.284344
808.501441	0.284331
808.692535	0.284470
808.883611	0.285412
809.074669	0.285440
809.265708	0.285453
809.456729	0.285916
809.647732	0.286000
809.838717	0.286266
810.029683	0.286485
810.220632	0.286567
810.411562	0.287302
810.602474	0.287320
810.793367	0.287450
810.984242	0.288230
811.175100	0.288123
811.365938	0.288896
811.556759	0.289275
811.747562	0.289791
811.938346	0.290578
812.129112	0.290806
812.319860	0.290973
812.510589	0.291333
812.701300	0.291572
812.891994	0.291751
813.082668	0.292179
813.273325	0.292285
813.463964	0.292576
813.654584	0.292540
813.845186	0.292676
814.035769	0.292536
814.226335	0.293120
814.416882	0.293144
814.607411	0.293612
814.797922	0.293762
814.988415	0.293725
815.178889	0.293898
815.369345	0.294055
815.559783	0.294381
815.750203	0.294916
815.940605	0.295121
816.130988	0.295182
816.321353	0.295464
816.511700	0.296057
816.702028	0.296742
816.892339	0.297177
817.082631	0.297707
817.272905	0.298002
817.463161	0.298974
817.653398	0.299004
817.843617	0.299440
818.033819	0.299838
818.224001	0.299745
818.414166	0.299520
818.604312	0.300194
818.794440	0.300231
818.984550	0.300554
819.174642	0.299791
819.364716	0.300319
819.554771	0.300338
819.744808	0.300605
819.934827	0.300922
820.124827	0.302184
820.314810	0.302347
820.504774	0.302751
820.694720	0.303429
820.884647	0.304433
821.074557	0.304284
821.264448	0.304947
821.454321	0.305149
821.644176	0.305724
821.834012	0.305750
822.023831	0.305500
822.213631	0.305869
822.403413	0.306003
822.593176	0.306167
822.782922	0.307016
822.972649	0.307684
823.162358	0.308232
823.352049	0.308855
823.541721	0.309322
823.731376	0.309940
823.921012	0.310231
824.110629	0.310501
824.300229	0.311138
824.489811	0.311366
824.679374	0.311139
824.868919	0.310661
825.058445	0.310464
825.247954	0.310724
825.437444	0.311171
825.626916	0.311583
825.816370	0.311722
826.005806	0.312042
826.195223	0.312337
826.384622	0.313062
826.574003	0.314386
826.763366	0.314826
826.952711	0.315273
827.142037	0.315501
827.331345	0.315985
827.520635	0.316407
827.709906	0.316519
827.899160	0.316928
828.088395	0.317347
828.277612	0.317561
828.466810	0.317922
828.655991	0.317782
828.845153	0.318514
829.034297	0.319033
829.223423	0.320047
829.412531	0.320424
829.601620	0.320795
829.790691	0.320832
829.979744	0.321533
830.168779	0.322275
830.357795	0.322567
830.546793	0.322974
830.735773	0.322923
830.924735	0.322641
831.113679	0.322804
831.302604	0.322878
831.491511	0.323712
831.680400	0.324049
831.869271	0.324512
832.058123	0.325319
832.246957	0.325452
832.435773	0.326529
832.624571	0.327098
832.813351	0.327876
833.002112	0.328755
833.190855	0.328849
833.379580	0.328686
833.568287	0.328949
833.756975	0.329025
833.945645	0.329709
834.134297	0.329636
834.322931	0.329863
834.511547	0.330425
834.700144	0.331145
834.888723	0.331750
835.077284	0.332268
835.265826	0.332499
835.454351	0.333568
835.642857	0.333744
835.831345	0.334759
836.019815	0.335134
836.208266	0.335552
836.396699	0.335528
836.585114	0.335992
836.773511	0.336244
836.961890	0.336873
837.150250	0.336907
837.338592	0.338061
837.526916	0.338005
837.715222	0.339243
837.903510	0.339408
838.091779	0.339628
838.280030	0.340008
838.468263	0.340992
838.656477	0.341183
838.844674	0.341353
839.032852	0.341112
839.221012	0.341464
839.409153	0.341104
839.597277	0.341907
839.785382	0.342369
839.973469	0.342477
840.161538	0.342524
840.349589	0.343097
840.537621	0.343661
840.725635	0.344290
840.913631	0.344183
841.101609	0.344919
841.289568	0.345319
841.477509	0.346328
841.665432	0.346687
841.853337	0.347611
842.041224	0.348146
842.229092	0.349102
842.416942	0.349817
842.604774	0.351276
842.792588	0.351664
842.980383	0.351701
843.168160	0.352386
843.355919	0.353359
843.543660	0.353530
843.731382	0.353944
843.919087	0.355064
844.106773	0.355358
844.294441	0.355759
844.482090	0.356595
844.669722	0.357421
844.857335	0.357568
845.044930	0.358062
845.232507	0.358788
845.420065	0.358866
845.607605	0.358950
845.795127	0.359306
845.982631	0.359283
846.170117	0.359640
846.357584	0.360038
846.545033	0.360300
846.732464	0.360389
846.919877	0.360127
847.107272	0.360460
847.294648	0.360831
847.482006	0.361253
847.669346	0.361337
847.856667	0.361568
848.043971	0.361698
848.231256	0.361956
848.418523	0.362107
848.605771	0.362673
848.793002	0.363475
848.980214	0.363023
849.167408	0.363325
849.354584	0.364140
849.541742	0.364312
849.728881	0.364643
849.916002	0.365339
850.103105	0.366636
850.290190	0.367417
850.477256	0.368106
850.664304	0.368523
850.851334	0.368725
851.038346	0.368869
851.225340	0.369687
851.412315	0.369900
851.599272	0.369901
851.786211	0.370391
851.973132	0.371078
852.160034	0.371168
852.346918	0.371494
852.533784	0.372389
852.720632	0.373555
852.907462	0.373915
853.094273	0.374460
853.281066	0.375192
853.467841	0.375411
853.654598	0.374863
853.841336	0.374813
854.028056	0.375674
854.214758	0.375279
854.401442	0.375006
854.588107	0.375664
854.774755	0.376267
854.961384	0.376804
855.147995	0.376813
855.334587	0.378457
855.521162	0.379870
855.707718	0.380666
855.894256	0.381748
856.080775	0.382216
856.267277	0.382825
856.453760	0.383142
856.640225	0.383421
856.826672	0.384062
857.013101	0.383311
857.199511	0.383005
857.385903	0.382353
857.572277	0.382912
857.758633	0.383272
857.944970	0.382704
858.131290	0.383255
858.317591	0.383890
858.503873	0.384418
858.690138	0.385149
858.876384	0.385605
859.062612	0.386326
859.248822	0.386177
859.435014	0.386572
859.621188	0.386970
859.807343	0.387271
859.993480	0.387892
860.179599	0.387760
860.365699	0.388735
860.551781	0.389073
860.737846	0.390108
860.923891	0.391052
861.109919	0.390871
861.295929	0.391927
861.481920	0.392051
861.667893	0.392236
861.853848	0.392645
862.039784	0.392203
862.225702	0.393352
862.411603	0.393163
862.597484	0.393293
862.783348	0.394143
862.969193	0.393643
863.155021	0.394701
863.340830	0.394185
863.526620	0.394837
863.712393	0.395045
863.898147	0.394688
864.083883	0.395395
864.269601	0.396208
864.455301	0.396642
864.640982	0.397569
864.826645	0.396971
865.012290	0.398114
865.197917	0.398394
865.383526	0.399938
865.569116	0.399789
865.754688	0.400278
865.940242	0.400470
866.125777	0.401401
866.311295	0.401644
866.496794	0.402752
866.682275	0.402923
866.867737	0.402829
867.053182	0.401869
867.238608	0.402334
867.424016	0.402350
867.609406	0.402557
867.794778	0.402225
867.980131	0.402443
868.165466	0.402754
868.350783	0.403386
868.536082	0.404182
868.721362	0.405371
868.906625	0.406212
869.091869	0.406985
869.277094	0.406647
869.462302	0.406684
869.647491	0.406744
869.832662	0.406775
870.017815	0.406780
870.202950	0.407203
870.388066	0.406795
870.573165	0.406705
870.758245	0.407029
870.943306	0.407080
871.128350	0.407929
871.313375	0.408254
871.498382	0.408885
871.683371	0.409055
871.868342	0.409005
872.053294	0.409076
872.238229	0.409654
872.423144	0.409222
872.608042	0.408889
872.792922	0.409486
872.977783	0.410644
873.162626	0.411023
873.347451	0.411004
873.532258	0.411008
873.717046	0.411588
873.901816	0.412325
874.086568	0.413114
874.271302	0.413841
874.456017	0.413910
874.640715	0.412906
874.825394	0.413046
875.010055	0.413039
875.194697	0.413157
875.379322	0.413085
875.563928	0.412328
875.748516	0.412339
875.933085	0.412625
876.117637	0.412293
876.302170	0.412948
876.486685	0.412999
876.671182	0.412675
876.855661	0.413372
877.040121	0.413829
877.224563	0.413923
877.408987	0.413973
877.593393	0.414216
877.777780	0.414017
877.962150	0.414594
878.146501	0.414570
878.330833	0.416164
878.515148	0.415652
878.699444	0.415836
878.883722	0.416880
879.067982	0.416989
879.252224	0.417714
879.436447	0.418380
879.620653	0.418135
879.804840	0.419094
879.989008	0.418490
880.173159	0.419457
880.357291	0.418958
880.541405	0.419265
880.725501	0.419867
880.909579	0.419683
881.093638	0.419327
881.277680	0.418817
881.461703	0.418153
881.645707	0.417792
881.829694	0.417423
882.013662	0.418685
882.197612	0.418734
882.381544	0.418516
882.565458	0.418607
882.749353	0.418514
882.933230	0.419709
883.117089	0.419397
883.300930	0.419401
883.484753	0.419356
883.668557	0.418876
883.852343	0.418532
884.036111	0.417897
884.219861	0.417313
884.403592	0.417758
884.587305	0.418247
884.771000	0.418716
884.954677	0.419315
885.138335	0.419943
885.321976	0.419887
885.505598	0.419331
885.689201	0.420043
885.872787	0.421281
886.056354	0.421304
886.239904	0.420086
886.423434	0.419982
886.606947	0.420720
886.790442	0.420164
886.973918	0.420009
887.157376	0.419616
887.340816	0.419450
887.524237	0.418844
887.707641	0.419451
887.891026	0.420276
888.074393	0.420033
888.257741	0.419163
888.441072	0.419719
888.624384	0.419503
888.807678	0.420889
888.990954	0.420497
889.174211	0.420723
889.357451	0.420978
889.540672	0.420580
889.723875	0.420248
889.907059	0.419793
890.090226	0.419321
890.273374	0.420002
890.456504	0.419558
890.639616	0.419138
890.822709	0.418303
891.005785	0.416876
891.188842	0.417215
891.371881	0.417952
891.554901	0.418276
891.737904	0.417521
891.920888	0.416836
892.103854	0.416522
892.286802	0.416450
892.469731	0.416590
892.652643	0.416122
892.835536	0.415784
893.018410	0.415530
893.201267	0.415853
893.384106	0.417201
893.566926	0.416470
893.749728	0.415992
893.932511	0.415963
894.115277	0.416221
894.298024	0.416033
894.480753	0.415757
894.663464	0.415134
894.846157	0.414628
895.028831	0.413769
895.211487	0.414908
895.394125	0.415021
895.576745	0.414331
895.759346	0.414184
895.941930	0.415094
896.124495	0.414270
896.307041	0.414345
896.489570	0.414239
896.672080	0.414895
896.854573	0.414450
897.037046	0.414183
897.219502	0.415259
897.401940	0.415014
897.584359	0.414940
897.766760	0.414182
897.949143	0.413370
898.131507	0.412929
898.313854	0.411610
898.496182	0.411622
898.678492	0.411773
898.860783	0.411170
899.043057	0.411179
899.225312	0.411391
899.407549	0.412415
899.589768	0.412573
899.771968	0.412742
899.954151	0.412768
900.136315	0.412222
900.318461	0.410836
900.500588	0.409747
900.682698	0.410005
900.864789	0.408971
901.046862	0.408451
901.228917	0.408856
901.410953	0.409037
901.592971	0.407540
901.774972	0.407559
901.956953	0.408554
902.138917	0.409214
902.320862	0.407619
902.502790	0.407085
902.684699	0.408094
902.866589	0.407081
903.048462	0.406701
903.230316	0.408159
903.412152	0.407170
903.593970	0.406403
903.775770	0.406561
903.957551	0.406025
904.139314	0.405306
904.321059	0.404031
904.502786	0.403306
904.684494	0.401275
904.866185	0.400357
905.047857	0.400247
905.229510	0.400190
905.411146	0.399424
905.592763	0.400578
905.774363	0.399802
905.955943	0.398904
906.137506	0.398749
906.319051	0.399445
906.500577	0.398582
906.682085	0.397962
906.863575	0.397582
907.045046	0.396888
907.226500	0.395331
907.407935	0.396637
907.589352	0.394953
907.770750	0.394673
907.952131	0.394965
908.133493	0.395187
908.314837	0.394196
908.496163	0.393791
908.677470	0.393699
908.858760	0.393420
909.040031	0.392887
909.221284	0.393809
909.402518	0.393611
909.583735	0.392704
909.764933	0.391979
909.946113	0.393007
910.127275	0.392422
910.308418	0.392090
910.489544	0.392695
910.670651	0.390985
910.851740	0.391320
911.032810	0.391122
911.213863	0.390347
911.394897	0.390419
911.575913	0.389878
911.756911	0.389203
911.937890	0.388834
912.118851	0.387553
912.299794	0.387059
912.480719	0.385523
912.661626	0.385194
912.842514	0.384972
913.023384	0.383792
913.204236	0.381175
913.385070	0.380843
913.565886	0.379891
913.746683	0.379095
913.927462	0.379032
914.108223	0.377672
914.288965	0.376209
914.469690	0.376807
914.650396	0.375805
914.831084	0.377289
915.011754	0.376379
915.192405	0.375607
915.373038	0.374353
915.553653	0.374751
915.734250	0.374187
915.914829	0.373578
916.095389	0.371145
916.275931	0.371191
916.456455	0.369865
916.636961	0.368590
916.817448	0.368277
916.997917	0.368809
917.178368	0.367435
917.358801	0.368053
917.539216	0.367499
917.719612	0.367729
917.899990	0.367113
918.080350	0.366634
918.260692	0.366884
918.441015	0.366709
918.621320	0.366030
918.801607	0.364668
918.981876	0.363345
919.162127	0.361853
919.342359	0.360494
919.522573	0.359782
919.702769	0.359064
919.882947	0.358309
920.063106	0.356507
920.243247	0.355552
920.423370	0.355983
920.603475	0.354500
920.783562	0.355058
920.963630	0.354181
921.143680	0.353600
921.323712	0.353093
921.503725	0.352690
921.683721	0.352112
921.863698	0.350043
922.043657	0.349666
922.223598	0.350270
922.403520	0.349266
922.583424	0.348455
922.763311	0.347228
922.943178	0.346611
923.123028	0.344892
923.302859	0.344094
923.482673	0.345368
923.662467	0.342376
923.842244	0.341246
924.022003	0.340544
924.201743	0.341060
924.381465	0.341629
924.561169	0.340504
924.740854	0.338597
924.920522	0.337993
925.100171	0.335763
925.279802	0.335971
925.459414	0.335408
925.639009	0.334348
925.818585	0.332283
925.998143	0.329424
926.177683	0.329832
926.357205	0.331074
926.536708	0.329665
926.716193	0.328707
926.895660	0.327582
927.075109	0.327097
927.254539	0.326868
927.433951	0.327236
927.613345	0.328072
927.792721	0.325969
927.972079	0.324337
928.151418	0.324428
928.330739	0.324199
928.510042	0.324133
928.689327	0.322760
928.868593	0.321751
929.047841	0.320954
929.227071	0.319121
929.406283	0.316591
929.585476	0.315167
929.764652	0.313895
929.943809	0.313124
930.122948	0.313194
930.302068	0.311796
930.481171	0.311532
930.660255	0.309995
930.839321	0.309543
931.018369	0.310982
931.197398	0.312150
931.376409	0.310859
931.555402	0.309440
931.734377	0.308993
931.913334	0.309757
932.092272	0.307446
932.271192	0.306774
932.450094	0.306591
932.628978	0.305346
932.807844	0.304699
932.986691	0.303911
933.165520	0.303827
933.344331	0.302092
933.523123	0.299185
933.701898	0.298195
933.880654	0.297571
934.059392	0.295571
934.238111	0.295193
934.416813	0.291824
934.595496	0.291850
934.774161	0.291244
934.952808	0.289138
935.131437	0.288701
935.310047	0.289551
935.488639	0.287143
935.667213	0.286399
935.845769	0.284810
936.024306	0.285801
936.202825	0.286234
936.381326	0.284191
936.559809	0.282718
936.738274	0.280261
936.916720	0.278369
937.095148	0.276560
937.273558	0.276927
937.451950	0.274107
937.630323	0.271712
937.808678	0.270942
937.987015	0.270079
938.165334	0.271389
938.343635	0.273627
938.521917	0.271615
938.700181	0.273932
938.878427	0.272585
939.056655	0.273799
939.234864	0.271776
939.413055	0.267836
939.591228	0.265686
939.769383	0.263801
939.947519	0.260211
940.125638	0.260134
940.303738	0.257778
940.481820	0.257077
940.659883	0.254645
940.837929	0.253476
941.015956	0.253231
941.193965	0.252952
941.371955	0.251399
941.549928	0.251106
941.727882	0.250666
941.905818	0.247830
942.083736	0.245338
942.261636	0.243413
942.439517	0.244709
942.617380	0.240252
942.795225	0.239984
942.973052	0.238428
943.150860	0.237608
943.328651	0.235625
943.506423	0.236595
943.684176	0.237712
943.861912	0.238438
944.039629	0.237388
944.217328	0.238813
944.395009	0.239061
944.572672	0.238818
944.750317	0.238166
944.927943	0.239845
945.105551	0.238687
945.283141	0.234973
945.460712	0.234280
945.638265	0.232966
945.815801	0.235731
945.993317	0.235489
946.170816	0.233052
946.348297	0.230873
946.525759	0.226516
946.703203	0.223863
946.880629	0.222695
947.058036	0.222896
947.235425	0.221779
947.412797	0.218769
947.590149	0.216518
947.767484	0.216283
947.944800	0.215601
948.122099	0.213250
948.299379	0.211640
948.476640	0.209111
948.653884	0.206124
948.831109	0.205919
949.008316	0.204937
949.185505	0.202210
949.362676	0.200983
949.539828	0.202349
949.716962	0.201722
949.894078	0.200022
950.071176	0.196061
950.248256	0.192452
950.425317	0.188186
950.602360	0.185384
950.779385	0.182528
950.956391	0.181095
951.133380	0.176366
951.310350	0.179825
951.487302	0.178378
951.664235	0.179343
951.841151	0.183770
952.018048	0.187070
952.194927	0.188857
952.371788	0.190281
952.548631	0.183317
952.725455	0.185032
952.902261	0.180968
953.079049	0.181302
953.255819	0.178256
953.432570	0.172981
953.609303	0.167129
953.786018	0.162237
953.962715	0.161691
954.139394	0.168215
954.316054	0.160478
954.492696	0.155739
954.669320	0.154548
954.845926	0.154398
955.022513	0.152149
955.199083	0.151788
955.375634	0.153118
955.552166	0.150782
955.728681	0.151393
955.905177	0.154874
956.081655	0.158390
956.258115	0.157701
956.434557	0.160398
956.610980	0.164038
956.787385	0.163172
956.963772	0.163297
957.140141	0.162187
957.316492	0.158417
957.492824	0.156878
957.669138	0.153364
957.845434	0.151739
958.021712	0.149954
958.197971	0.145334
958.374212	0.143344
958.550435	0.138418
958.726640	0.141941
958.902826	0.137734
959.078995	0.136062
959.255145	0.140547
959.431277	0.141748
959.607390	0.143928
959.783486	0.145035
959.959563	0.143560
960.135622	0.143121
960.311662	0.138117
960.487685	0.145262
960.663689	0.148258
960.839675	0.142541
961.015643	0.137015
961.191593	0.133015
961.367524	0.127993
961.543437	0.131174
961.719332	0.134477
961.895209	0.139954
962.071067	0.131587
962.246907	0.127900
962.422730	0.125421
962.598533	0.126008
962.774319	0.126108
962.950086	0.131952
963.125835	0.130180
963.301566	0.124522
963.477279	0.114794
963.652973	0.118027
963.828650	0.118930
964.004308	0.118117
964.179947	0.122471
964.355569	0.122936
964.531172	0.118442
964.706757	0.119102
964.882324	0.113654
965.057873	0.115160
965.233403	0.111641
965.408916	0.113392
965.584410	0.112933
965.759885	0.113289
965.935343	0.109302
966.110782	0.111650
966.286203	0.110999
966.461606	0.113174
966.636991	0.116054
966.812357	0.117753
966.987705	0.119927
967.163035	0.124892
967.338347	0.124186
967.513641	0.127099
967.688916	0.121490
967.864173	0.118333
968.039412	0.115637
968.214632	0.112416
968.389835	0.112572
968.565019	0.107235
968.740185	0.106937
968.915333	0.101827
969.090462	0.099917
969.265573	0.105922
969.440667	0.108807
969.615741	0.119774
969.790798	0.120825
969.965836	0.115720
970.140856	0.115271
970.315858	0.110401
970.490842	0.115359
970.665808	0.114928
970.840755	0.113167
971.015684	0.112754
971.190595	0.102776
971.365487	0.096814
971.540362	0.106245
971.715218	0.106339
971.890056	0.106267
972.064875	0.102919
972.239677	0.104068
972.414460	0.101331
972.589225	0.099374
972.763972	0.104831
972.938700	0.118231
973.113411	0.105803
973.288103	0.103415
973.462777	0.103832
973.637432	0.107351
973.812070	0.107376
973.986689	0.114778
974.161290	0.117682
974.335873	0.119152
974.510437	0.115012
974.684984	0.121728
974.859512	0.124206
975.034022	0.130954
975.208513	0.122995
975.382987	0.123817
975.557442	0.117384
975.731879	0.109883
975.906298	0.113037
976.080698	0.106750
976.255080	0.107747
976.429445	0.109379
976.603790	0.105880
976.778118	0.107033
976.952427	0.109124
977.126719	0.111495
977.300992	0.119347
977.475246	0.111461
977.649483	0.119628
977.823701	0.122416
977.997901	0.125099
978.172083	0.128255
978.346247	0.130309
978.520392	0.129849
978.694519	0.126870
978.868628	0.125482
979.042719	0.133815
979.216791	0.131790
979.390845	0.128880
979.564882	0.128973
979.738899	0.127284
979.912899	0.125718
980.086880	0.123481
980.260843	0.129772
980.434788	0.134187
980.608715	0.131247
980.782623	0.129244
980.956514	0.131479
981.130386	0.130322
981.304240	0.129871
981.478075	0.133081
981.651892	0.134976
981.825692	0.130744
981.999472	0.126329
982.173235	0.124726
982.346980	0.126125
982.520706	0.120378
982.694414	0.116014
982.868104	0.114402
983.041775	0.115066
983.215428	0.114127
983.389064	0.111505
983.562680	0.111502
983.736279	0.115796
983.909860	0.114023
984.083422	0.118416
984.256966	0.120563
984.430491	0.122186
984.603999	0.119815
984.777488	0.119633
984.950959	0.123519
985.124412	0.121923
985.297847	0.115735
985.471263	0.118432
985.644661	0.115648
985.818041	0.114379
985.991403	0.112150
986.164747	0.115311
986.338072	0.118291
986.511379	0.115798
986.684668	0.119309
986.857938	0.117936
987.031191	0.118936
987.204425	0.120025
987.377641	0.124042
987.550839	0.121764
987.724018	0.122350
987.897179	0.124128
988.070322	0.126211
988.243447	0.125236
988.416554	0.131125
988.589642	0.131695
988.762712	0.134327
988.935764	0.129222
989.108798	0.134188
989.281813	0.135368
989.454811	0.126957
989.627790	0.126566
989.800751	0.127922
989.973693	0.126978
990.146617	0.121157
990.319524	0.116116
990.492412	0.117674
990.665281	0.116727
990.838133	0.116074
991.010966	0.116207
991.183781	0.115920
991.356578	0.114184
991.529356	0.108318
991.702117	0.112092
991.874859	0.110931
992.047583	0.109484
992.220288	0.107459
992.392976	0.106361
992.565645	0.107305
992.738296	0.108526
992.910929	0.108752
993.083543	0.115885
993.256139	0.112092
993.428718	0.117565
993.601277	0.116743
993.773819	0.119336
993.946342	0.116860
994.118848	0.119351
994.291335	0.116731
994.463803	0.112883
994.636254	0.108415
994.808686	0.108048
994.981100	0.110159
995.153496	0.113559
995.325874	0.113179
995.498233	0.113589
995.670574	0.114327
995.842897	0.114637
996.015202	0.116041
996.187488	0.124283
996.359757	0.125145
996.532007	0.123186
996.704239	0.121241
996.876452	0.116063
997.048648	0.119830
997.220825	0.120354
997.392984	0.120159
997.565124	0.121721
997.737247	0.120636
997.909351	0.124332
998.081437	0.120376
998.253505	0.120409
998.425554	0.121501
998.597586	0.114668
998.769599	0.113876
998.941594	0.113641
999.113571	0.113623
999.285529	0.105668
999.457469	0.106984
999.629391	0.108163
999.801295	0.111011
999.973181	0.112984
1000.145048	0.120106
1000.316897	0.120581
1000.488728	0.117937
1000.660541	0.116583
1000.832335	0.116459
1001.004111	0.114634
1001.175869	0.119810
1001.347609	0.120133
1001.519331	0.116902
1001.691034	0.114490
1001.862719	0.115286
1002.034386	0.116635
1002.206035	0.118215
1002.377665	0.121291
1002.549277	0.120233
1002.720871	0.115946
1002.892447	0.110617
1003.064004	0.113702
1003.235544	0.113359
1003.407065	0.112118
1003.578568	0.116359
1003.750052	0.113908
1003.921519	0.116783
1004.092967	0.116206
1004.264397	0.115745
1004.435809	0.119082
1004.607202	0.123556
1004.778577	0.122227
1004.949934	0.120473
1005.121273	0.118709
1005.292594	0.121529
1005.463896	0.116690
1005.635180	0.116480
1005.806446	0.116568
1005.977694	0.116576
1006.148923	0.114052
1006.320135	0.117192
1006.491328	0.117831
1006.662503	0.117333
1006.833659	0.112939
1007.004798	0.114701
1007.175918	0.115408
1007.347020	0.117552
1007.518103	0.119485
1007.689169	0.116813
1007.860216	0.116794
1008.031245	0.118221
1008.202256	0.117496
1008.373248	0.123115
1008.544223	0.124941
1008.715179	0.125804
1008.886117	0.122982
1009.057036	0.123734
1009.227938	0.125592
1009.398821	0.121535
1009.569686	0.120194
1009.740533	0.118702
1009.911361	0.117737
1010.082172	0.116772
1010.252964	0.112269
1010.423738	0.112798
1010.594493	0.112113
1010.765231	0.111771
1010.935950	0.114095
1011.106651	0.117056
1011.277334	0.119921
1011.447998	0.119581
1011.618645	0.119471
1011.789273	0.121717
1011.959882	0.123775
1012.130474	0.124527
1012.301048	0.130384
1012.471603	0.132584
1012.642140	0.132242
1012.812658	0.132800
1012.983159	0.133129
1013.153641	0.130260
1013.324105	0.133033
1013.494551	0.130429
1013.664979	0.125471
1013.835388	0.117763
1014.005779	0.116081
1014.176152	0.115065
1014.346507	0.110820
1014.516843	0.111011
1014.687162	0.116799
1014.857462	0.116482
1015.027744	0.119002
1015.198007	0.122691
1015.368252	0.126155
1015.538480	0.128356
1015.708689	0.125727
1015.878879	0.129450
1016.049052	0.124983
1016.219206	0.120292
1016.389342	0.117324
1016.559460	0.118606
1016.729559	0.118592
1016.899641	0.118182
1017.069704	0.114404
1017.239749	0.117483
1017.409775	0.117986
1017.579784	0.119470
1017.749774	0.120357
1017.919746	0.121968
1018.089700	0.123073
1018.259635	0.119304
1018.429553	0.118052
1018.599452	0.119247
1018.769333	0.118367
1018.939195	0.116166
1019.109040	0.119537
1019.278866	0.121142
1019.448674	0.121622
1019.618464	0.120153
1019.788235	0.125863
1019.957989	0.130572
1020.127724	0.126455
1020.297441	0.125053
1020.467139	0.124982
1020.636820	0.124355
1020.806482	0.123990
1020.976126	0.123825
1021.145752	0.124159
1021.315359	0.122315
1021.484948	0.116179
1021.654519	0.119123
1021.824072	0.120669
1021.993607	0.122925
1022.163123	0.122740
1022.332621	0.126196
1022.502101	0.128329
1022.671563	0.125445
1022.841007	0.126198
1023.010432	0.129083
1023.179839	0.131011
1023.349228	0.132838
1023.518598	0.129077
1023.687951	0.127016
1023.857285	0.121102
1024.026601	0.117379
1024.195899	0.117867
1024.365178	0.118571
1024.534439	0.116308
1024.703682	0.116782
1024.872907	0.111070
1025.042114	0.117030
1025.211302	0.117053
1025.380472	0.122793
1025.549624	0.120180
1025.718758	0.119842
1025.887873	0.113077
1026.056970	0.117563
1026.226049	0.115786
1026.395110	0.118349
1026.564153	0.112829
1026.733177	0.113940
1026.902183	0.112088
1027.071171	0.115499
1027.240141	0.117053
1027.409092	0.120249
1027.578026	0.117300
1027.746940	0.119988
1027.915837	0.123157
1028.084716	0.129646
1028.253576	0.127505
1028.422418	0.124057
1028.591242	0.123396
1028.760048	0.124987
1028.928835	0.127939
1029.097604	0.128238
1029.266355	0.125911
1029.435088	0.122737
1029.603803	0.120171
1029.772499	0.118448
1029.941177	0.120786
1030.109837	0.126039
1030.278478	0.120901
1030.447102	0.119583
1030.615707	0.119629
1030.784294	0.120833
1030.952863	0.124744
1031.121413	0.121100
1031.289945	0.128068
1031.458460	0.123777
1031.626955	0.118770
1031.795433	0.121655
1031.963892	0.125543
1032.132334	0.121530
1032.300756	0.120023
1032.469161	0.114616
1032.637548	0.116688
1032.805916	0.110904
1032.974266	0.110613
1033.142598	0.113611
1033.310911	0.113267
1033.479207	0.109669
1033.647484	0.112037
1033.815743	0.113022
1033.983983	0.112393
1034.152206	0.113844
1034.320410	0.116065
1034.488596	0.120207
1034.656764	0.116034
1034.824914	0.118585
1034.993045	0.122507
1035.161158	0.121583
1035.329253	0.115247
1035.497330	0.117351
1035.665388	0.114474
1035.833428	0.112624
1036.001450	0.112792
1036.169454	0.116736
1036.337440	0.111533
1036.505407	0.105088
1036.673356	0.106634
1036.841287	0.109817
1037.009200	0.109308
1037.177094	0.109160
1037.344970	0.110777
1037.512828	0.111108
1037.680668	0.109103
1037.848489	0.108587
1038.016293	0.110324
1038.184078	0.109373
1038.351845	0.111027
1038.519593	0.113491
1038.687324	0.114685
1038.855036	0.114306
1039.022730	0.113116
1039.190406	0.114585
1039.358063	0.119995
1039.525702	0.120717
1039.693323	0.122784
1039.860926	0.123696
1040.028511	0.124999
1040.196077	0.127643
1040.363625	0.129221
1040.531155	0.131807
1040.698667	0.129253
1040.866161	0.128395
1041.033636	0.128100
1041.201093	0.128638
1041.368532	0.124696
1041.535952	0.124587
1041.703355	0.123286
1041.870739	0.121845
1042.038105	0.119336
1042.205452	0.119108
1042.372782	0.121102
1042.540093	0.120319
1042.707386	0.115070
1042.874661	0.119242
1043.041918	0.116255
1043.209156	0.114310
1043.376376	0.113982
1043.543578	0.114052
1043.710762	0.117950
1043.877927	0.114568
1044.045074	0.116726
1044.212203	0.123788
1044.379314	0.127472
1044.546407	0.123617
1044.713481	0.124731
1044.880537	0.127118
1045.047575	0.127809
1045.214595	0.124642
1045.381596	0.123655
1045.548579	0.118839
1045.715544	0.113782
1045.882491	0.107387
1046.049420	0.113798
1046.216330	0.115136
1046.383222	0.114869
1046.550096	0.115577
1046.716951	0.113929
1046.883789	0.115005
1047.050608	0.116917
1047.217409	0.117844
1047.384192	0.120006
1047.550956	0.115982
1047.717703	0.113352
1047.884431	0.111852
1048.051140	0.109419
1048.217832	0.117294
1048.384505	0.118190
1048.551161	0.111845
1048.717798	0.114269
1048.884416	0.114176
1049.051017	0.116793
1049.217599	0.116768
1049.384163	0.117162
1049.550709	0.119295
1049.717237	0.114410
1049.883746	0.114003
1050.050237	0.121906
1050.216710	0.119987
1050.383165	0.125159
1050.549601	0.124082
1050.716019	0.121830
1050.882420	0.120703
1051.048801	0.120264
1051.215165	0.119820
1051.381510	0.121072
1051.547837	0.121123
1051.714146	0.117586
1051.880437	0.113633
1052.046709	0.117353
1052.212964	0.123620
1052.379200	0.126981
1052.545417	0.128928
1052.711617	0.130979
1052.877798	0.127672
1053.043961	0.128154
1053.210106	0.131134
1053.376233	0.128754
1053.542341	0.127160
1053.708432	0.121889
1053.874504	0.119914
1054.040557	0.116138
1054.206593	0.115086
1054.372610	0.114594
1054.538609	0.114079
1054.704590	0.117354
1054.870553	0.119254
1055.036497	0.113313
1055.202424	0.113195
1055.368331	0.114012
1055.534221	0.112375
1055.700093	0.111885
1055.865946	0.116169
1056.031781	0.115005
1056.197598	0.113727
1056.363397	0.117082
1056.529177	0.123134
1056.694939	0.123046
1056.860683	0.124930
1057.026409	0.126554
1057.192116	0.126156
1057.357806	0.126843
1057.523477	0.125076
1057.689130	0.128867
1057.854764	0.124960
1058.020381	0.122579
1058.185979	0.125759
1058.351559	0.122842
1058.517120	0.121132
1058.682664	0.118716
1058.848189	0.114481
1059.013696	0.124398
1059.179185	0.122625
1059.344656	0.127056
1059.510108	0.130245
1059.675542	0.129829
1059.840958	0.127643
1060.006356	0.132474
1060.171735	0.135919
1060.337096	0.138719
1060.502439	0.129778
1060.667764	0.124893
1060.833071	0.120851
1060.998359	0.121707
1061.163629	0.121588
1061.328881	0.122378
1061.494115	0.119290
1061.659330	0.114394
1061.824527	0.119016
1061.989706	0.121099
1062.154867	0.126689
1062.320010	0.130574
1062.485134	0.128784
1062.650240	0.126274
1062.815328	0.132935
1062.980398	0.135982
1063.145449	0.144679
1063.310482	0.136902
1063.475497	0.135274
1063.640494	0.135601
1063.805473	0.134042
1063.970433	0.134833
1064.135375	0.141117
1064.300299	0.138260
1064.465204	0.135409
1064.630092	0.132929
1064.794961	0.131837
1064.959812	0.134169
1065.124645	0.130190
1065.289459	0.126760
1065.454256	0.129555
1065.619034	0.123300
1065.783793	0.124915
1065.948535	0.126721
1066.113258	0.124829
1066.277964	0.127019
1066.442651	0.122958
1066.607319	0.127611
1066.771970	0.127188
1066.936602	0.122349
1067.101216	0.120395
1067.265812	0.116169
1067.430389	0.116488
1067.594949	0.117628
1067.759490	0.124558
1067.924013	0.133248
1068.088518	0.129189
1068.253004	0.132140
1068.417472	0.135262
1068.581922	0.142769
1068.746354	0.141212
1068.910768	0.141002
1069.075163	0.140006
1069.239540	0.129214
1069.403899	0.124532
1069.568240	0.123043
1069.732562	0.116545
1069.896866	0.110116
1070.061152	0.108471
1070.225420	0.112749
1070.389670	0.114379
1070.553901	0.114730
1070.718114	0.119495
1070.882309	0.118168
1071.046486	0.120075
1071.210644	0.123116
1071.374784	0.123472
1071.538906	0.126241
1071.703010	0.125699
1071.867096	0.123283
1072.031163	0.120547
1072.195212	0.123137
1072.359243	0.121862
1072.523256	0.130846
1072.687250	0.141047
1072.851226	0.140467
1073.015184	0.133971
1073.179124	0.131791
1073.343045	0.134256
1073.506949	0.140090
1073.670834	0.139275
1073.834701	0.140776
1073.998549	0.130513
1074.162380	0.124609
1074.326192	0.126868
1074.489986	0.132665
1074.653761	0.137678
1074.817519	0.132825
1074.981258	0.131161
1075.144979	0.131254
1075.308682	0.133758
1075.472367	0.131484
1075.636033	0.132557
1075.799681	0.136511
1075.963311	0.135633
1076.126923	0.126580
1076.290516	0.129989
1076.454092	0.128695
1076.617649	0.130575
1076.781187	0.129559
1076.944708	0.128619
1077.108210	0.125600
1077.271695	0.124604
1077.435160	0.124042
1077.598608	0.129518
1077.762038	0.133284
1077.925449	0.134684
1078.088842	0.132272
1078.252217	0.130057
1078.415573	0.139774
1078.578912	0.139576
1078.742232	0.139222
1078.905534	0.139553
1079.068817	0.137252
1079.232083	0.138730
1079.395330	0.140173
1079.558559	0.143100
1079.721770	0.146624
1079.884962	0.142233
1080.048136	0.145359
1080.211293	0.147956
1080.374430	0.153288
1080.537550	0.152161
1080.700651	0.145116
1080.863735	0.154130
1081.026800	0.151008
1081.189846	0.150305
1081.352875	0.145974
1081.515885	0.147328
1081.678877	0.144881
1081.841851	0.139018
1082.004807	0.145542
1082.167744	0.138217
1082.330663	0.126510
1082.493564	0.129167
1082.656447	0.130120
1082.819312	0.137101
1082.982158	0.132399
1083.144986	0.133216
1083.307796	0.128443
1083.470587	0.127897
1083.633361	0.147244
1083.796116	0.143326
1083.958853	0.136046
1084.121571	0.136825
1084.284272	0.134079
1084.446954	0.135920
1084.609618	0.139446
1084.772264	0.142593
1084.934892	0.142227
1085.097501	0.134092
1085.260092	0.143708
1085.422665	0.144988
1085.585220	0.140004
1085.747756	0.138050
1085.910274	0.140092
1086.072774	0.133608
1086.235256	0.136322
1086.397720	0.140624
1086.560165	0.136076
1086.722592	0.131575
1086.885001	0.131802
1087.047392	0.135063
1087.209764	0.142071
1087.372119	0.136654
1087.534455	0.145869
1087.696772	0.151702
1087.859072	0.151135
1088.021353	0.152588
1088.183616	0.148566
1088.345861	0.148397
1088.508088	0.147611
1088.670296	0.148915
1088.832486	0.154653
1088.994658	0.145698
1089.156812	0.133162
1089.318948	0.130119
1089.481065	0.134911
1089.643164	0.146637
1089.805245	0.148443
1089.967308	0.147880
1090.129352	0.138406
1090.291378	0.136354
1090.453386	0.146320
1090.615376	0.151061
1090.777347	0.149421
1090.939301	0.150115
1091.101236	0.144744
1091.263153	0.135728
1091.425051	0.135721
1091.586932	0.144874
1091.748794	0.147680
1091.910638	0.144356
1092.072463	0.153881
1092.234271	0.159414
1092.396060	0.155093
1092.557831	0.156717
1092.719584	0.167098
1092.881319	0.170594
1093.043035	0.160365
1093.204733	0.167430
1093.366413	0.157537
1093.528075	0.157978
1093.689718	0.150905
1093.851343	0.159367
1094.012950	0.154622
1094.174539	0.162569
1094.336110	0.153654
1094.497662	0.165633
1094.659196	0.158505
1094.820712	0.160215
1094.982210	0.158837
1095.143689	0.166355
1095.305151	0.150631
1095.466594	0.157259
1095.628018	0.152794
1095.789425	0.156073
1095.950813	0.153937
1096.112183	0.145949
1096.273535	0.147403
1096.434869	0.145031
1096.596184	0.139022
1096.757482	0.149098
1096.918761	0.148479
1097.080021	0.143154
1097.241264	0.148059
1097.402488	0.141491
1097.563694	0.154056
1097.724882	0.156054
1097.886052	0.145201
1098.047203	0.150981
1098.208336	0.142829
1098.369451	0.136364
1098.530548	0.128136
1098.691627	0.126813
1098.852687	0.125296
1099.013729	0.119829
1099.174753	0.112693
1099.335758	0.122660
1099.496746	0.114920
1099.657715	0.119169
1099.818666	0.121925
1099.979599	0.131954
1100.140513	0.138477
1100.301409	0.128301
1100.462287	0.130417
1100.623147	0.141704
1100.783989	0.142270
1100.944812	0.142251
1101.105617	0.156389
1101.266404	0.161660
1101.427173	0.155684
1101.587923	0.144471
1101.748656	0.153562
1101.909370	0.152249
1102.070066	0.149538
1102.230743	0.132976
1102.391403	0.136600
1102.552044	0.127624
1102.712667	0.133555
1102.873271	0.142334
1103.033858	0.156908
1103.194426	0.170918
1103.354976	0.182766
1103.515508	0.183778
1103.676021	0.209447
1103.836517	0.210347
1103.996994	0.203859
1104.157453	0.185596
1104.317893	0.178055
1104.478316	0.163721
1104.638720	0.165983
1104.799106	0.147484
1104.959474	0.142030
1105.119823	0.132730
1105.280155	0.125198
1105.440468	0.127158
1105.600763	0.127393
1105.761039	0.134672
1105.921298	0.124316
1106.081538	0.118056
1106.241760	0.120948
1106.401964	0.130043
1106.562149	0.148535
1106.722316	0.159257
1106.882465	0.158481
1107.042596	0.171389
1107.202709	0.182272
1107.362803	0.200551
1107.522879	0.195642
1107.682937	0.216122
1107.842977	0.217001
1108.002999	0.189194
1108.163002	0.200398
1108.322987	0.192370
1108.482954	0.191900
1108.642902	0.187841
1108.802833	0.180825
1108.962745	0.169531
1109.122639	0.160083
1109.282515	0.160637
1109.442372	0.179038
1109.602211	0.169356
1109.762032	0.172670
1109.921835	0.159047
1110.081620	0.141096
1110.241386	0.158293
1110.401134	0.170498
1110.560864	0.170106
1110.720576	0.169340
1110.880269	0.163203
1111.039945	0.163676
1111.199602	0.170392
1111.359240	0.173719
1111.518861	0.185323
1111.678463	0.183956
1111.838047	0.188015
1111.997613	0.187821
1112.157161	0.198849
1112.316690	0.197656
1112.476202	0.183788
1112.635695	0.183135
1112.795169	0.183807
1112.954626	0.181445
1113.114064	0.179090
1113.273484	0.172077
1113.432886	0.165950
1113.592270	0.147156
1113.751635	0.155242
1113.910983	0.167482
1114.070312	0.177077
1114.229622	0.189788
1114.388915	0.183817
1114.548189	0.194484
1114.707445	0.204140
1114.866683	0.201619
1115.025903	0.205188
1115.185104	0.205780
1115.344287	0.212726
1115.503452	0.204320
1115.662599	0.180228
1115.821727	0.181809
1115.980838	0.171017
1116.139930	0.166324
1116.299004	0.165589
1116.458059	0.160679
1116.617097	0.150895
1116.776116	0.144060
1116.935117	0.152940
1117.094099	0.165016
1117.253064	0.187440
1117.412010	0.188529
1117.570938	0.188937
1117.729848	0.182973
1117.888740	0.193162
1118.047613	0.183825
1118.206468	0.170397
1118.365305	0.160610
1118.524124	0.163863
1118.682924	0.147664
1118.841707	0.150237
1119.000471	0.158033
1119.159216	0.162037
1119.317944	0.149537
1119.476653	0.172803
1119.635344	0.187710
1119.794017	0.183369
1119.952672	0.178180
1120.111308	0.185461
1120.269927	0.191261
1120.428527	0.184997
1120.587108	0.181098
1120.745672	0.196749
1120.904217	0.189824
1121.062744	0.181751
1121.221253	0.171293
1121.379744	0.175041
1121.538216	0.165526
1121.696671	0.169088
1121.855107	0.161240
1122.013524	0.156353
1122.171924	0.144433
1122.330305	0.135349
1122.488668	0.135611
1122.647013	0.176285
1122.805340	0.188798
1122.963648	0.194871
1123.121938	0.169606
1123.280210	0.171102
1123.438464	0.186368
1123.596700	0.208459
1123.754917	0.188898
1123.913116	0.210205
1124.071297	0.183359
1124.229459	0.172843
1124.387604	0.176427
1124.545730	0.185894
1124.703838	0.210833
1124.861928	0.220600
1125.019999	0.216004
1125.178052	0.227757
1125.336088	0.222591
1125.494104	0.209981
1125.652103	0.225496
1125.810083	0.224039
1125.968045	0.234739
1126.125989	0.225789
1126.283915	0.223061
1126.441823	0.219019
1126.599712	0.242693
1126.757583	0.228178
1126.915436	0.238825
1127.073270	0.223771
1127.231087	0.201397
1127.388885	0.182552
1127.546665	0.181844
1127.704426	0.178476
1127.862170	0.175832
1128.019895	0.182407
1128.177602	0.185600
1128.335291	0.169133
1128.492961	0.171872
1128.650614	0.203453
1128.808248	0.228674
1128.965864	0.230618
1129.123461	0.238834
1129.281041	0.271250
1129.438602	0.241850
1129.596145	0.222851
1129.753670	0.234160
1129.911176	0.211865
1130.068665	0.210675
1130.226135	0.195713
1130.383587	0.189824
1130.541020	0.167555
1130.698436	0.128340
1130.855833	0.126005
1131.013212	0.122136
1131.170573	0.144898
1131.327915	0.166353
1131.485239	0.148744
1131.642545	0.169268
1131.799833	0.184339
1131.957103	0.185471
1132.114354	0.181851
1132.271588	0.187987
1132.428803	0.227424
1132.585999	0.199563
1132.743178	0.191276
1132.900338	0.207735
1133.057480	0.172960
1133.214604	0.148012
1133.371710	0.163144
1133.528797	0.187091
1133.685866	0.180873
1133.842917	0.191695
1133.999950	0.182377
1134.156964	0.212396
1134.313960	0.180809
1134.470938	0.189596
1134.627898	0.203747
1134.784840	0.225405
1134.941763	0.188955
1135.098668	0.183158
1135.255555	0.152996
1135.412424	0.173052
1135.569274	0.143983
1135.726107	0.162434
1135.882921	0.194181
1136.039716	0.183751
1136.196494	0.150754
1136.353253	0.221193
1136.509995	0.246195
1136.666717	0.250441
1136.823422	0.271433
1136.980109	0.279675
1137.136777	0.280461
1137.293427	0.256974
1137.450059	0.298808
1137.606672	0.325913
1137.763267	0.236078
1137.919844	0.230749
1138.076403	0.234843
1138.232944	0.229743
1138.389466	0.218305
1138.545971	0.207574
1138.702457	0.213911
1138.858924	0.206781
1139.015374	0.195283
1139.171805	0.241800
1139.328218	0.197615
1139.484613	0.226658
1139.640990	0.211889
1139.797348	0.220145
1139.953688	0.231049
1140.110010	0.217774
1140.266314	0.178398
1140.422600	0.188104
1140.578867	0.180646
1140.735116	0.214669
1140.891347	0.194037
1141.047559	0.209842
1141.203754	0.195452
1141.359930	0.173372
1141.516088	0.151162
1141.672228	0.167397
1141.828349	0.153650
1141.984452	0.184046
1142.140537	0.226164
1142.296604	0.199689
1142.452653	0.200920
1142.608683	0.232595
1142.764695	0.264320
1142.920689	0.265567
1143.076665	0.266101
1143.232622	0.285753
1143.388562	0.222914
1143.544483	0.197247
1143.700385	0.209134
1143.856270	0.204001
1144.012136	0.182784
1144.167985	0.182161
1144.323814	0.177694
1144.479626	0.200216
1144.635420	0.204748
1144.791195	0.219733
1144.946952	0.199411
1145.102691	0.211821
1145.258411	0.166657
1145.414113	0.160084
1145.569798	0.137960
1145.725463	0.167086
1145.881111	0.161423
1146.036741	0.152522
1146.192352	0.140452
1146.347945	0.159877
1146.503519	0.162440
1146.659076	0.215949
1146.814614	0.225779
1146.970134	0.237801
1147.125636	0.242543
1147.281120	0.210982
1147.436585	0.210231
1147.592032	0.240288
1147.747461	0.213733
1147.902872	0.209996
1148.058265	0.181358
1148.213639	0.181684
1148.368995	0.204220
1148.524333	0.171684
1148.679653	0.229535
1148.834954	0.238155
1148.990237	0.245967
1149.145502	0.250447
1149.300749	0.258810
1149.455977	0.271088
1149.611188	0.276126
1149.766380	0.284774
1149.921553	0.307482
1150.076709	0.196147
1150.231846	0.219395
1150.386966	0.185131
1150.542066	0.153026
1150.697149	0.160673
1150.852214	0.156610
1151.007260	0.170850
1151.162288	0.148706
1151.317298	0.169568
1151.472289	0.244057
1151.627263	0.194117
1151.782218	0.196631
1151.937155	0.250007
1152.092073	0.209304
1152.246974	0.193572
1152.401856	0.190252
1152.556720	0.220069
1152.711566	0.210116
1152.866393	0.182480
1153.021203	0.190682
1153.175994	0.220789
1153.330767	0.204069
1153.485521	0.201360
1153.640258	0.237656
1153.794976	0.186125
1153.949676	0.183395
1154.104358	0.187001
1154.259021	0.194067
1154.413667	0.191945
1154.568294	0.171860
1154.722903	0.196532
1154.877493	0.205323
1155.032066	0.209530
1155.186620	0.269248
1155.341156	0.271610
1155.495674	0.252324
1155.650173	0.263826
1155.804654	0.283049
1155.959118	0.289416
1156.113562	0.252240
1156.267989	0.271174
1156.422397	0.270268
1156.576788	0.276395
1156.731160	0.291507
1156.885513	0.229890
1157.039849	0.164718
1157.194166	0.145688
1157.348465	0.152514
1157.502746	0.142453
1157.657009	0.132775
1157.811253	0.134435
1157.965479	0.094972
1158.119687	0.084635
1158.273877	0.112591
1158.428048	0.155076
1158.582201	0.192486
1158.736337	0.189705
1158.890453	0.245551
1159.044552	0.290798
1159.198632	0.272634
1159.352694	0.319833
1159.506738	0.389642
1159.660764	0.373635
1159.814771	0.413425
1159.968761	0.402809
1160.122732	0.317277
1160.276685	0.246825
1160.430619	0.206773
1160.584535	0.187545
1160.738434	0.151848
1160.892313	0.107664
1161.046175	0.123546
1161.200019	0.131941
1161.353844	0.104295
1161.507651	0.156109
1161.661440	0.183141
1161.815210	0.177147
1161.968962	0.187762
1162.122697	0.267739
1162.276412	0.276706
1162.430110	0.289170
1162.583789	0.311473
1162.737451	0.409042
1162.891094	0.380692
1163.044718	0.307397
1163.198325	0.298208
1163.351913	0.332415
1163.505483	0.266762
1163.659035	0.266050
1163.812569	0.251061
1163.966084	0.261130
1164.119581	0.235003
1164.273060	0.246597
1164.426521	0.257534
1164.579964	0.327954
1164.733388	0.342858
1164.886794	0.372718
1165.040182	0.348692
1165.193551	0.400913
1165.346903	0.380813
1165.500236	0.381499
1165.653551	0.332952
1165.806848	0.377341
1165.960126	0.359343
1166.113386	0.232685
1166.266628	0.168816
1166.419852	0.201739
1166.573058	0.114341
1166.726245	0.092224
1166.879414	0.077671
1167.032565	0.129378
1167.185698	0.151786
1167.338812	0.105065
1167.491909	0.123093
1167.644987	0.185438
1167.798046	0.100527
1167.951088	0.164752
1168.104111	0.062919
1168.257117	0.094196
1168.410103	0.071561
1168.563072	0.035149
1168.716023	0.029903
1168.868955	0.048537
1169.021869	0.047131
1169.174765	0.073025
1169.327642	0.060143
1169.480501	0.105636
1169.633343	0.095845
1169.786165	0.115055
1169.938970	0.128688
1170.091757	0.124031
1170.244525	0.161262
1170.397275	0.126370
1170.550007	0.209831
1170.702720	0.292966
1170.855415	0.359265
1171.008092	0.324762
1171.160751	0.305949
1171.313392	0.401699
1171.466014	0.201527
1171.618619	0.850264
1171.771205	0.850264
1171.923772	0.850264
