sample name	sample
index	1447
start time	 05-10-2021  01:18:51 PM


Wavelength (nm)	Absorbance
494.344910	-0.007444
494.563924	-0.007444
494.782919	-0.007444
495.001897	0.033221
495.220856	-0.006166
495.439797	-0.009060
495.658719	-0.004491
495.877624	-0.002151
496.096510	-0.007597
496.315378	-0.006803
496.534227	-0.008459
496.753059	-0.006232
496.971872	-0.000856
497.190667	0.059077
497.409444	0.090767
497.628203	0.100916
497.846943	0.106453
498.065665	0.110593
498.284369	0.112493
498.503055	0.114404
498.721723	0.115286
498.940372	0.116153
499.159003	0.116812
499.377616	0.116747
499.596210	0.115695
499.814787	0.116546
500.033345	0.116111
500.251885	0.117048
500.470406	0.116990
500.688910	0.119071
500.907395	0.119198
501.125862	0.118745
501.344311	0.118713
501.562742	0.120152
501.781154	0.120245
501.999548	0.120366
502.217924	0.119926
502.436282	0.119867
502.654621	0.118539
502.872942	0.118932
503.091245	0.119969
503.309530	0.119768
503.527797	0.119480
503.746045	0.119760
503.964275	0.120071
504.182487	0.120524
504.400681	0.120974
504.618856	0.120926
504.837013	0.121091
505.055152	0.120595
505.273273	0.120262
505.491376	0.121333
505.709460	0.119969
505.927526	0.120961
506.145574	0.120946
506.363604	0.120134
506.581615	0.119771
506.799608	0.118915
507.017583	0.120088
507.235540	0.120511
507.453478	0.119533
507.671399	0.119342
507.889301	0.117834
508.107185	0.117629
508.325050	0.118487
508.542898	0.118371
508.760727	0.118949
508.978538	0.117421
509.196330	0.116825
509.414105	0.117636
509.631861	0.118218
509.849599	0.117608
510.067319	0.117513
510.285021	0.117248
510.502704	0.118083
510.720369	0.118537
510.938016	0.118938
511.155645	0.119991
511.373255	0.119339
511.590848	0.120207
511.808422	0.121566
512.025977	0.121413
512.243515	0.121398
512.461034	0.121402
512.678536	0.121343
512.896018	0.121790
513.113483	0.121818
513.330930	0.121598
513.548358	0.120834
513.765768	0.120832
513.983160	0.121151
514.200533	0.121475
514.417889	0.120745
514.635226	0.120594
514.852545	0.120058
515.069845	0.120130
515.287128	0.121339
515.504392	0.121813
515.721638	0.122636
515.938866	0.123148
516.156075	0.124042
516.373267	0.125050
516.590440	0.125398
516.807594	0.126096
517.024731	0.125676
517.241850	0.125336
517.458950	0.126016
517.676032	0.125384
517.893095	0.125705
518.110141	0.125392
518.327168	0.126048
518.544177	0.125758
518.761168	0.125506
518.978141	0.125869
519.195095	0.125398
519.412031	0.124817
519.628949	0.124722
519.845849	0.124209
520.062731	0.124073
520.279594	0.123624
520.496439	0.124005
520.713266	0.124616
520.930074	0.124495
521.146865	0.125211
521.363637	0.125894
521.580391	0.126709
521.797127	0.126757
522.013844	0.126467
522.230543	0.126786
522.447224	0.127052
522.663887	0.127258
522.880532	0.127790
523.097158	0.127008
523.313766	0.126932
523.530356	0.126340
523.746928	0.126660
523.963481	0.127018
524.180017	0.127637
524.396534	0.127519
524.613032	0.127112
524.829513	0.127295
525.045975	0.127013
525.262420	0.126038
525.478845	0.126916
525.695253	0.127851
525.911643	0.127716
526.128014	0.127347
526.344367	0.127812
526.560702	0.128301
526.777018	0.128287
526.993316	0.129752
527.209597	0.130601
527.425858	0.130169
527.642102	0.129521
527.858328	0.130211
528.074535	0.129853
528.290724	0.129785
528.506894	0.129165
528.723047	0.129298
528.939181	0.129534
529.155297	0.129081
529.371395	0.129414
529.587475	0.129857
529.803536	0.129580
530.019579	0.130207
530.235604	0.130326
530.451611	0.130632
530.667600	0.130627
530.883570	0.130147
531.099522	0.131146
531.315456	0.131513
531.531372	0.131701
531.747269	0.132523
531.963148	0.132359
532.179009	0.132630
532.394852	0.132603
532.610676	0.132931
532.826482	0.133742
533.042271	0.134039
533.258040	0.134073
533.473792	0.133347
533.689525	0.132991
533.905240	0.133190
534.120937	0.133045
534.336616	0.133125
534.552277	0.133613
534.767919	0.133558
534.983543	0.133474
535.199149	0.133477
535.414736	0.134088
535.630306	0.134274
535.845857	0.134771
536.061390	0.135255
536.276904	0.135966
536.492401	0.136623
536.707879	0.136517
536.923339	0.136540
537.138781	0.136807
537.354204	0.136979
537.569610	0.137073
537.784997	0.137201
538.000366	0.137025
538.215716	0.137113
538.431049	0.136284
538.646363	0.136773
538.861659	0.137169
539.076937	0.137194
539.292196	0.137442
539.507438	0.137747
539.722661	0.138211
539.937866	0.139020
540.153052	0.138700
540.368221	0.138877
540.583371	0.138743
540.798503	0.138713
541.013617	0.138899
541.228712	0.138838
541.443789	0.139136
541.658848	0.139129
541.873889	0.138891
542.088912	0.139099
542.303916	0.139583
542.518902	0.139809
542.733870	0.140215
542.948820	0.140782
543.163752	0.141220
543.378665	0.141291
543.593560	0.141447
543.808437	0.141666
544.023295	0.142038
544.238136	0.142295
544.452958	0.142338
544.667762	0.142203
544.882548	0.141692
545.097315	0.141834
545.312064	0.141631
545.526795	0.141068
545.741508	0.140856
545.956203	0.140842
546.170879	0.140872
546.385537	0.140671
546.600177	0.140521
546.814799	0.140949
547.029402	0.140741
547.243988	0.141645
547.458555	0.142140
547.673103	0.142561
547.887634	0.143303
548.102146	0.143234
548.316640	0.143753
548.531116	0.144114
548.745574	0.143757
548.960013	0.144165
549.174435	0.143384
549.388838	0.143782
549.603222	0.143796
549.817589	0.143588
550.031937	0.143530
550.246267	0.143700
550.460579	0.143759
550.674873	0.144106
550.889148	0.144098
551.103405	0.144631
551.317644	0.144679
551.531865	0.144694
551.746068	0.144457
551.960252	0.144705
552.174418	0.144515
552.388566	0.144866
552.602696	0.145131
552.816807	0.145174
553.030900	0.145054
553.244975	0.145101
553.459032	0.145248
553.673070	0.145508
553.887091	0.145892
554.101093	0.146158
554.315077	0.146631
554.529042	0.146368
554.742990	0.146520
554.956919	0.146626
555.170830	0.146762
555.384722	0.146683
555.598597	0.146997
555.812453	0.146467
556.026291	0.146105
556.240111	0.145375
556.453913	0.145903
556.667696	0.145695
556.881461	0.145705
557.095208	0.145316
557.308937	0.145454
557.522647	0.145488
557.736339	0.145434
557.950013	0.145544
558.163669	0.145756
558.377307	0.145320
558.590926	0.145562
558.804527	0.145573
559.018110	0.145879
559.231675	0.145658
559.445221	0.145388
559.658749	0.145790
559.872259	0.146005
560.085751	0.146045
560.299225	0.146169
560.512680	0.146135
560.726117	0.146386
560.939536	0.146574
561.152937	0.147186
561.366319	0.147077
561.579683	0.147142
561.793029	0.147188
562.006357	0.147049
562.219667	0.146912
562.432958	0.147365
562.646231	0.147489
562.859486	0.147498
563.072723	0.147665
563.285941	0.148252
563.499141	0.148257
563.712323	0.148457
563.925487	0.148992
564.138632	0.149777
564.351760	0.149659
564.564869	0.149298
564.777960	0.149445
564.991032	0.149421
565.204087	0.149236
565.417123	0.149753
565.630141	0.149700
565.843140	0.149724
566.056122	0.149862
566.269085	0.150170
566.482030	0.150874
566.694957	0.150769
566.907866	0.150836
567.120756	0.150730
567.333628	0.150317
567.546482	0.150622
567.759318	0.150778
567.972135	0.150543
568.184935	0.150392
568.397716	0.150177
568.610478	0.150190
568.823223	0.150262
569.035949	0.150569
569.248657	0.150817
569.461347	0.150845
569.674019	0.150576
569.886672	0.150939
570.099308	0.150747
570.311925	0.151190
570.524523	0.150853
570.737104	0.150470
570.949666	0.150719
571.162210	0.150967
571.374736	0.150492
571.587244	0.150569
571.799733	0.150176
572.012205	0.150409
572.224658	0.150266
572.437092	0.151013
572.649509	0.151263
572.861907	0.151315
573.074287	0.150946
573.286649	0.151658
573.498993	0.152100
573.711318	0.152268
573.923625	0.152411
574.135914	0.152655
574.348185	0.152759
574.560438	0.152976
574.772672	0.153167
574.984888	0.153322
575.197086	0.153421
575.409266	0.153565
575.621427	0.154030
575.833570	0.154446
576.045695	0.154730
576.257802	0.154927
576.469890	0.154982
576.681961	0.154932
576.894013	0.155127
577.106046	0.155245
577.318062	0.155081
577.530059	0.155120
577.742039	0.154698
577.954000	0.154542
578.165942	0.154220
578.377867	0.154254
578.589773	0.154304
578.801661	0.154389
579.013531	0.154491
579.225382	0.154491
579.437216	0.154769
579.649031	0.155005
579.860828	0.154955
580.072606	0.155252
580.284367	0.155323
580.496109	0.155170
580.707833	0.155390
580.919539	0.155113
581.131227	0.155024
581.342896	0.154699
581.554547	0.155008
581.766180	0.154650
581.977795	0.155001
582.189391	0.155196
582.400969	0.155757
582.612529	0.155709
582.824071	0.155782
583.035595	0.155986
583.247100	0.156422
583.458587	0.156418
583.670056	0.156981
583.881506	0.156810
584.092939	0.157032
584.304353	0.157161
584.515749	0.157545
584.727127	0.157926
584.938486	0.158336
585.149828	0.158663
585.361151	0.158759
585.572456	0.159289
585.783742	0.159603
585.995011	0.160126
586.206261	0.160302
586.417493	0.160500
586.628706	0.160672
586.839902	0.160650
587.051079	0.160112
587.262238	0.160304
587.473379	0.160096
587.684502	0.160045
587.895606	0.159505
588.106692	0.159631
588.317760	0.159451
588.528810	0.159547
588.739841	0.159565
588.950855	0.160026
589.161850	0.160078
589.372827	0.160140
589.583785	0.159806
589.794726	0.160075
590.005648	0.159959
590.216552	0.160283
590.427437	0.160317
590.638305	0.160651
590.849154	0.160359
591.059985	0.160388
591.270798	0.160303
591.481592	0.160604
591.692369	0.160703
591.903127	0.160660
592.113867	0.160808
592.324588	0.161016
592.535292	0.160876
592.745977	0.160904
592.956644	0.160643
593.167293	0.160586
593.377923	0.160808
593.588536	0.160809
593.799130	0.160863
594.009706	0.160914
594.220263	0.160593
594.430803	0.160606
594.641324	0.160832
594.851827	0.161252
595.062312	0.161394
595.272778	0.161583
595.483227	0.161540
595.693657	0.161569
595.904069	0.161331
596.114462	0.161727
596.324838	0.162052
596.535195	0.162080
596.745534	0.162342
596.955855	0.162535
597.166157	0.162877
597.376441	0.163089
597.586707	0.163452
597.796955	0.163648
598.007185	0.163743
598.217396	0.163669
598.427589	0.164239
598.637764	0.164118
598.847921	0.164309
599.058060	0.164113
599.268180	0.164479
599.478282	0.164496
599.688366	0.164728
599.898431	0.164913
600.108479	0.165342
600.318508	0.165182
600.528519	0.165191
600.738511	0.165189
600.948486	0.165462
601.158442	0.165292
601.368380	0.165464
601.578300	0.165513
601.788202	0.165372
601.998085	0.165123
602.207950	0.165053
602.417797	0.165395
602.627626	0.165372
602.837436	0.165336
603.047228	0.165449
603.257002	0.165586
603.466758	0.165583
603.676496	0.165409
603.886215	0.165683
604.095916	0.165963
604.305599	0.166129
604.515264	0.166252
604.724910	0.166250
604.934538	0.166499
605.144148	0.166340
605.353740	0.166555
605.563314	0.166866
605.772869	0.166940
605.982406	0.166819
606.191925	0.166685
606.401425	0.166756
606.610908	0.166973
606.820372	0.167025
607.029818	0.167205
607.239246	0.167169
607.448655	0.167425
607.658047	0.167311
607.867420	0.167560
608.076775	0.167748
608.286111	0.168037
608.495430	0.168061
608.704730	0.167771
608.914012	0.167538
609.123275	0.167589
609.332521	0.167764
609.541748	0.167892
609.750957	0.167955
609.960148	0.167781
610.169321	0.167644
610.378475	0.167889
610.587611	0.168068
610.796729	0.168759
611.005829	0.168842
611.214910	0.168949
611.423974	0.168847
611.633019	0.169131
611.842045	0.169362
612.051054	0.169600
612.260044	0.169374
612.469017	0.169596
612.677970	0.169291
612.886906	0.169192
613.095824	0.168945
613.304723	0.169115
613.513604	0.168821
613.722467	0.169015
613.931311	0.169306
614.140138	0.169248
614.348946	0.169520
614.557736	0.169846
614.766507	0.170256
614.975261	0.170591
615.183996	0.170811
615.392713	0.171210
615.601412	0.171074
615.810092	0.170803
616.018754	0.171003
616.227399	0.170796
616.436024	0.170770
616.644632	0.170719
616.853222	0.170525
617.061793	0.170794
617.270346	0.170688
617.478880	0.170808
617.687397	0.170886
617.895895	0.171102
618.104375	0.171302
618.312837	0.171239
618.521281	0.171440
618.729706	0.171513
618.938113	0.171719
619.146502	0.171876
619.354873	0.171914
619.563226	0.172208
619.771560	0.172008
619.979876	0.172085
620.188174	0.172538
620.396453	0.172529
620.604715	0.172907
620.812958	0.172579
621.021183	0.172749
621.229390	0.172888
621.437578	0.172896
621.645748	0.173296
621.853900	0.173232
622.062034	0.173147
622.270150	0.173279
622.478247	0.173087
622.686326	0.173445
622.894387	0.173376
623.102430	0.173587
623.310454	0.173611
623.518461	0.173489
623.726449	0.173866
623.934418	0.173617
624.142370	0.173719
624.350303	0.173889
624.558218	0.173742
624.766115	0.173947
624.973994	0.173980
625.181855	0.173940
625.389697	0.174051
625.597521	0.173956
625.805327	0.174200
626.013114	0.174043
626.220883	0.174082
626.428634	0.174203
626.636367	0.173882
626.844082	0.173762
627.051778	0.173954
627.259457	0.173788
627.467117	0.173492
627.674758	0.173535
627.882382	0.173683
628.089987	0.173561
628.297574	0.173372
628.505143	0.173729
628.712694	0.173808
628.920226	0.173765
629.127740	0.174154
629.335236	0.174361
629.542714	0.174262
629.750174	0.174245
629.957615	0.174573
630.165038	0.174938
630.372443	0.174647
630.579829	0.174734
630.787198	0.174860
630.994548	0.174612
631.201880	0.174855
631.409194	0.174801
631.616489	0.174751
631.823766	0.174608
632.031025	0.174489
632.238266	0.174734
632.445489	0.174726
632.652693	0.174954
632.859879	0.175418
633.067047	0.175345
633.274197	0.175575
633.481329	0.175851
633.688442	0.176002
633.895537	0.176143
634.102614	0.176261
634.309672	0.176590
634.516713	0.176670
634.723735	0.176501
634.930739	0.176629
635.137724	0.176641
635.344692	0.176756
635.551641	0.176932
635.758572	0.176923
635.965485	0.177174
636.172379	0.177053
636.379256	0.176990
636.586114	0.176835
636.792954	0.177209
636.999775	0.177490
637.206579	0.177788
637.413364	0.177886
637.620131	0.177922
637.826880	0.177920
638.033610	0.178190
638.240323	0.178291
638.447017	0.178819
638.653692	0.178802
638.860350	0.178712
639.066990	0.178585
639.273611	0.178776
639.480214	0.178990
639.686798	0.178885
639.893365	0.178795
640.099913	0.178852
640.306443	0.178949
640.512955	0.179043
640.719449	0.179522
640.925924	0.179784
641.132381	0.179900
641.338820	0.180028
641.545241	0.180203
641.751644	0.180411
641.958028	0.180378
642.164394	0.180258
642.370742	0.180166
642.577071	0.180105
642.783383	0.179817
642.989676	0.179807
643.195951	0.180187
643.402207	0.180446
643.608446	0.180540
643.814666	0.180678
644.020868	0.180988
644.227052	0.181137
644.433218	0.181255
644.639365	0.181642
644.845494	0.181755
645.051605	0.181585
645.257698	0.181615
645.463772	0.181800
645.669828	0.181730
645.875866	0.181725
646.081886	0.181830
646.287888	0.181731
646.493871	0.181756
646.699836	0.181652
646.905783	0.181582
647.111712	0.181803
647.317622	0.181678
647.523514	0.182024
647.729388	0.181936
647.935244	0.182039
648.141082	0.182426
648.346901	0.182411
648.552702	0.182521
648.758485	0.182706
648.964250	0.182513
649.169996	0.182662
649.375724	0.182616
649.581434	0.182837
649.787126	0.182691
649.992800	0.182482
650.198455	0.182750
650.404092	0.182745
650.609711	0.182654
650.815311	0.182659
651.020894	0.182605
651.226458	0.182562
651.432004	0.182571
651.637532	0.182595
651.843041	0.182565
652.048532	0.182268
652.254006	0.182558
652.459460	0.182883
652.664897	0.183191
652.870315	0.183412
653.075716	0.183612
653.281097	0.183741
653.486461	0.184150
653.691807	0.184376
653.897134	0.184778
654.102443	0.184781
654.307734	0.184764
654.513006	0.184826
654.718261	0.185028
654.923497	0.185253
655.128715	0.185415
655.333915	0.185490
655.539096	0.185779
655.744259	0.185842
655.949404	0.186168
656.154531	0.186371
656.359640	0.186405
656.564730	0.186577
656.769802	0.186790
656.974856	0.186930
657.179892	0.186999
657.384909	0.186932
657.589908	0.187057
657.794889	0.186902
657.999852	0.187071
658.204797	0.187320
658.409723	0.187475
658.614631	0.187526
658.819521	0.187824
659.024393	0.187917
659.229246	0.188150
659.434081	0.188208
659.638898	0.188503
659.843697	0.188502
660.048478	0.188501
660.253240	0.188143
660.457984	0.188124
660.662710	0.187958
660.867417	0.188147
661.072107	0.188162
661.276778	0.188353
661.481431	0.188219
661.686066	0.188308
661.890682	0.188489
662.095281	0.188925
662.299861	0.189075
662.504422	0.189110
662.708966	0.189125
662.913491	0.189200
663.117999	0.189135
663.322488	0.189254
663.526958	0.189188
663.731411	0.188984
663.935845	0.188818
664.140261	0.188651
664.344659	0.188656
664.549038	0.188664
664.753400	0.188599
664.957743	0.188683
665.162068	0.188827
665.366375	0.188766
665.570663	0.188839
665.774933	0.189153
665.979185	0.189404
666.183419	0.189373
666.387635	0.189303
666.591832	0.189689
666.796011	0.189809
667.000172	0.189871
667.204315	0.190127
667.408439	0.190451
667.612545	0.190366
667.816634	0.190514
668.020703	0.190785
668.224755	0.190911
668.428788	0.190809
668.632803	0.190857
668.836800	0.190910
669.040779	0.190969
669.244739	0.190870
669.448681	0.191126
669.652605	0.191044
669.856511	0.191166
670.060399	0.191307
670.264268	0.191271
670.468119	0.191439
670.671952	0.191442
670.875767	0.191789
671.079563	0.191904
671.283341	0.191769
671.487101	0.192083
671.690843	0.192252
671.894567	0.192441
672.098272	0.192722
672.301959	0.192633
672.505628	0.192818
672.709278	0.192769
672.912911	0.192890
673.116525	0.193110
673.320121	0.193355
673.523699	0.193279
673.727258	0.193287
673.930799	0.193139
674.134322	0.193496
674.337827	0.193657
674.541314	0.193684
674.744782	0.193684
674.948232	0.193725
675.151664	0.193509
675.355078	0.193679
675.558474	0.193798
675.761851	0.194091
675.965210	0.194141
676.168551	0.194184
676.371873	0.194215
676.575178	0.194556
676.778464	0.194607
676.981732	0.194690
677.184981	0.194574
677.388213	0.194692
677.591426	0.194918
677.794621	0.194702
677.997798	0.194663
678.200956	0.194867
678.404097	0.194709
678.607219	0.194831
678.810323	0.194922
679.013408	0.195278
679.216476	0.195496
679.419525	0.195564
679.622556	0.195924
679.825569	0.196308
680.028563	0.196482
680.231540	0.196841
680.434498	0.197068
680.637438	0.197360
680.840359	0.197240
681.043263	0.197250
681.246148	0.197224
681.449015	0.197188
681.651864	0.197024
681.854694	0.197117
682.057506	0.197268
682.260301	0.197388
682.463076	0.197249
682.665834	0.197521
682.868573	0.197820
683.071295	0.197947
683.273998	0.198102
683.476682	0.198289
683.679349	0.198298
683.881997	0.198285
684.084627	0.198249
684.287239	0.198371
684.489833	0.198468
684.692408	0.198299
684.894965	0.198185
685.097504	0.198231
685.300025	0.198078
685.502527	0.198061
685.705012	0.197832
685.907478	0.197858
686.109925	0.197861
686.312355	0.197900
686.514766	0.197938
686.717159	0.198035
686.919534	0.198142
687.121891	0.198276
687.324230	0.198329
687.526550	0.198594
687.728852	0.198637
687.931136	0.198793
688.133401	0.198725
688.335649	0.198721
688.537878	0.198823
688.740089	0.198707
688.942281	0.198817
689.144456	0.199089
689.346612	0.199160
689.548750	0.199202
689.750870	0.199399
689.952971	0.199554
690.155055	0.199773
690.357120	0.200122
690.559167	0.200476
690.761195	0.200869
690.963206	0.200966
691.165198	0.201152
691.367172	0.201297
691.569128	0.201378
691.771065	0.201528
691.972984	0.201608
692.174885	0.201558
692.376768	0.201483
692.578633	0.201234
692.780479	0.201177
692.982308	0.200864
693.184118	0.201025
693.385909	0.200819
693.587683	0.200575
693.789438	0.200667
693.991175	0.200423
694.192894	0.200627
694.394595	0.200829
694.596277	0.201038
694.797941	0.201376
694.999587	0.201483
695.201215	0.201657
695.402824	0.201815
695.604416	0.201862
695.805989	0.201999
696.007543	0.201967
696.209080	0.201995
696.410598	0.201903
696.612099	0.201881
696.813580	0.201794
697.015044	0.201955
697.216490	0.202233
697.417917	0.202277
697.619326	0.202708
697.820717	0.202679
698.022089	0.202841
698.223444	0.202974
698.424780	0.203162
698.626098	0.203379
698.827397	0.203463
699.028679	0.203602
699.229942	0.203579
699.431187	0.203442
699.632414	0.203520
699.833622	0.203640
700.034813	0.203781
700.235985	0.203835
700.437139	0.203713
700.638274	0.203767
700.839392	0.203834
701.040491	0.204201
701.241572	0.204206
701.442635	0.204423
701.643679	0.204486
701.844706	0.204541
702.045714	0.204561
702.246704	0.204860
702.447675	0.204709
702.648629	0.204758
702.849564	0.204600
703.050481	0.204662
703.251380	0.204570
703.452260	0.204547
703.653122	0.204697
703.853966	0.204649
704.054792	0.204303
704.255600	0.204502
704.456389	0.204603
704.657160	0.204629
704.857913	0.204634
705.058648	0.204723
705.259365	0.204684
705.460063	0.204545
705.660743	0.204551
705.861405	0.204825
706.062048	0.204958
706.262674	0.204817
706.463281	0.204800
706.663870	0.204867
706.864441	0.204998
707.064993	0.205166
707.265527	0.205214
707.466043	0.205398
707.666541	0.205389
707.867021	0.205345
708.067482	0.205522
708.267925	0.205632
708.468350	0.205968
708.668757	0.206092
708.869145	0.205877
709.069516	0.205736
709.269868	0.205693
709.470201	0.205634
709.670517	0.205793
709.870814	0.205546
710.071093	0.205349
710.271354	0.205014
710.471597	0.204611
710.671821	0.204689
710.872028	0.204552
711.072216	0.204703
711.272385	0.204711
711.472537	0.204568
711.672670	0.204509
711.872785	0.204721
712.072882	0.204863
712.272961	0.205178
712.473021	0.205467
712.673063	0.205561
712.873087	0.205427
713.073093	0.205367
713.273081	0.205418
713.473050	0.205775
713.673001	0.205755
713.872934	0.205629
714.072849	0.205547
714.272745	0.205681
714.472623	0.206078
714.672483	0.206307
714.872325	0.206605
715.072148	0.206680
715.271954	0.206633
715.471741	0.206575
715.671509	0.206624
715.871260	0.206751
716.070992	0.206672
716.270707	0.206539
716.470403	0.206448
716.670080	0.206469
716.869740	0.206499
717.069381	0.206574
717.269004	0.206755
717.468609	0.206861
717.668195	0.206656
717.867764	0.206495
718.067314	0.206632
718.266846	0.206690
718.466360	0.206772
718.665855	0.206822
718.865332	0.206570
719.064791	0.206486
719.264232	0.206465
719.463655	0.206585
719.663059	0.206384
719.862445	0.206094
720.061813	0.205880
720.261163	0.205669
720.460494	0.205533
720.659807	0.205707
720.859102	0.205635
721.058379	0.205431
721.257638	0.205395
721.456878	0.205397
721.656100	0.205354
721.855304	0.205246
722.054490	0.205156
722.253657	0.205094
722.452806	0.204787
722.651937	0.204728
722.851050	0.204815
723.050145	0.204741
723.249221	0.204998
723.448279	0.204892
723.647319	0.204962
723.846340	0.204907
724.045344	0.204763
724.244329	0.204683
724.443296	0.204677
724.642245	0.204499
724.841175	0.204230
725.040088	0.204034
725.238982	0.204013
725.437857	0.203788
725.636715	0.203700
725.835554	0.203347
726.034376	0.203354
726.233179	0.203069
726.431963	0.203043
726.630730	0.203097
726.829478	0.202859
727.028208	0.202699
727.226920	0.202658
727.425614	0.202461
727.624289	0.202837
727.822946	0.202861
728.021585	0.202938
728.220206	0.202769
728.418808	0.202617
728.617392	0.202522
728.815958	0.202618
729.014506	0.202700
729.213036	0.202864
729.411547	0.202735
729.610040	0.202697
729.808515	0.202555
730.006972	0.202710
730.205410	0.202721
730.403831	0.202583
730.602233	0.202392
730.800616	0.202288
730.998982	0.202159
731.197329	0.201820
731.395658	0.201756
731.593969	0.201671
731.792262	0.201443
731.990536	0.201282
732.188793	0.201044
732.387031	0.200844
732.585250	0.200628
732.783452	0.200375
732.981635	0.200527
733.179800	0.200352
733.377947	0.200290
733.576076	0.200146
733.774186	0.200196
733.972278	0.200381
734.170352	0.200403
734.368408	0.200507
734.566446	0.200425
734.764465	0.200413
734.962466	0.200367
735.160449	0.200331
735.358413	0.200276
735.556360	0.200085
735.754288	0.199880
735.952198	0.199972
736.150090	0.199735
736.347963	0.199644
736.545818	0.199300
736.743655	0.198998
736.941474	0.198812
737.139275	0.198587
737.337057	0.198469
737.534821	0.198480
737.732567	0.198288
737.930295	0.198419
738.128005	0.198410
738.325696	0.198387
738.523369	0.198524
738.721024	0.198403
738.918660	0.198460
739.116279	0.198582
739.313879	0.198675
739.511461	0.198765
739.709024	0.198782
739.906570	0.198956
740.104097	0.198979
740.301606	0.199003
740.499097	0.199116
740.696569	0.199258
740.894024	0.199209
741.091460	0.198902
741.288878	0.198583
741.486277	0.198147
741.683659	0.197849
741.881022	0.197583
742.078367	0.197265
742.275694	0.197130
742.473002	0.196743
742.670293	0.196374
742.867565	0.196395
743.064819	0.196404
743.262054	0.196418
743.459272	0.196408
743.656471	0.196303
743.853652	0.196203
744.050815	0.195684
744.247959	0.195814
744.445085	0.195872
744.642194	0.195642
744.839283	0.195521
745.036355	0.195436
745.233408	0.195203
745.430444	0.195195
745.627461	0.195162
745.824459	0.195522
746.021440	0.195326
746.218402	0.195265
746.415346	0.195310
746.612272	0.195145
746.809180	0.195324
747.006069	0.195210
747.202940	0.195309
747.399793	0.195454
747.596628	0.195578
747.793444	0.195639
747.990243	0.195754
748.187023	0.195808
748.383784	0.195887
748.580528	0.195566
748.777253	0.195656
748.973960	0.195531
749.170649	0.195312
749.367320	0.194980
749.563973	0.194799
749.760607	0.194524
749.957223	0.194401
750.153821	0.194388
750.350400	0.194545
750.546962	0.194513
750.743505	0.194521
750.940030	0.194446
751.136536	0.194509
751.333025	0.194558
751.529495	0.194510
751.725947	0.194351
751.922381	0.194195
752.118796	0.193936
752.315194	0.193796
752.511573	0.193660
752.707934	0.193500
752.904276	0.193298
753.100601	0.193138
753.296907	0.193091
753.493195	0.193018
753.689465	0.192719
753.885716	0.192494
754.081949	0.192368
754.278164	0.192306
754.474361	0.192278
754.670540	0.192211
754.866700	0.192112
755.062843	0.192089
755.258967	0.191893
755.455072	0.192170
755.651160	0.192291
755.847229	0.192351
756.043280	0.192327
756.239313	0.192329
756.435328	0.192180
756.631324	0.192132
756.827302	0.191948
757.023262	0.192119
757.219204	0.192024
757.415127	0.191949
757.611033	0.191853
757.806920	0.191720
758.002788	0.191792
758.198639	0.191987
758.394471	0.192094
758.590286	0.192072
758.786081	0.191700
758.981859	0.191530
759.177619	0.191467
759.373360	0.191175
759.569083	0.190924
759.764788	0.190691
759.960474	0.190460
760.156143	0.190288
760.351793	0.190100
760.547425	0.190268
760.743038	0.190191
760.938634	0.190172
761.134211	0.190280
761.329770	0.190259
761.525311	0.190028
761.720833	0.189723
761.916338	0.189587
762.111824	0.189656
762.307292	0.189364
762.502741	0.189321
762.698173	0.189123
762.893586	0.189001
763.088981	0.189000
763.284358	0.189164
763.479716	0.189465
763.675057	0.189377
763.870379	0.189422
764.065683	0.189470
764.260968	0.189374
764.456236	0.189516
764.651485	0.189613
764.846716	0.189734
765.041929	0.189683
765.237123	0.189529
765.432299	0.189367
765.627457	0.189176
765.822597	0.188975
766.017719	0.189148
766.212822	0.188931
766.407907	0.188572
766.602974	0.188434
766.798023	0.188298
766.993054	0.188282
767.188066	0.188509
767.383060	0.188424
767.578036	0.188646
767.772993	0.188369
767.967933	0.188382
768.162854	0.188464
768.357757	0.188100
768.552642	0.187995
768.747508	0.187862
768.942356	0.187643
769.137186	0.187576
769.331998	0.187206
769.526792	0.187031
769.721567	0.187086
769.916324	0.187085
770.111063	0.187274
770.305784	0.187317
770.500486	0.187327
770.695171	0.187161
770.889837	0.186987
771.084484	0.187261
771.279114	0.187283
771.473725	0.186893
771.668318	0.186734
771.862893	0.186761
772.057450	0.186787
772.251988	0.186781
772.446509	0.186752
772.641011	0.186706
772.835494	0.186722
773.029960	0.186955
773.224407	0.186981
773.418836	0.186693
773.613247	0.186546
773.807640	0.186484
774.002014	0.186363
774.196370	0.186475
774.390708	0.186505
774.585028	0.186235
774.779330	0.185746
774.973613	0.185747
775.167878	0.185905
775.362125	0.186010
775.556354	0.185889
775.750564	0.185738
775.944756	0.185654
776.138930	0.185614
776.333086	0.185555
776.527223	0.185750
776.721343	0.185587
776.915444	0.185591
777.109526	0.185372
777.303591	0.185382
777.497637	0.185548
777.691666	0.185585
777.885676	0.185900
778.079667	0.185986
778.273641	0.185894
778.467596	0.186146
778.661533	0.186290
778.855452	0.186405
779.049352	0.186480
779.243235	0.186469
779.437099	0.186287
779.630945	0.186103
779.824773	0.186190
780.018582	0.186435
780.212373	0.186488
780.406146	0.186460
780.599901	0.186458
780.793638	0.186298
780.987356	0.186316
781.181056	0.186245
781.374738	0.186212
781.568402	0.186323
781.762047	0.186073
781.955674	0.185945
782.149283	0.186000
782.342874	0.186071
782.536447	0.185960
782.730001	0.186040
782.923537	0.186336
783.117055	0.186384
783.310555	0.186384
783.504036	0.186603
783.697499	0.186833
783.890944	0.186818
784.084371	0.186837
784.277780	0.187239
784.471170	0.187286
784.664542	0.187339
784.857896	0.187456
785.051231	0.187398
785.244549	0.187502
785.437848	0.187381
785.631129	0.187553
785.824392	0.187752
786.017636	0.187729
786.210863	0.187727
786.404071	0.187986
786.597260	0.188219
786.790432	0.188550
786.983585	0.188526
787.176721	0.188768
787.369838	0.188865
787.562936	0.188812
787.756017	0.188903
787.949079	0.188897
788.142123	0.188825
788.335149	0.188591
788.528156	0.188156
788.721146	0.188048
788.914117	0.187885
789.107070	0.187848
789.300005	0.187750
789.492921	0.187642
789.685819	0.187595
789.878699	0.187457
790.071561	0.187568
790.264405	0.187750
790.457230	0.187759
790.650037	0.187865
790.842826	0.187763
791.035597	0.187981
791.228349	0.187934
791.421084	0.188123
791.613800	0.188133
791.806497	0.188230
791.999177	0.188291
792.191838	0.188478
792.384481	0.188323
792.577106	0.188598
792.769713	0.188569
792.962301	0.188573
793.154871	0.188577
793.347423	0.188760
793.539957	0.188734
793.732473	0.188849
793.924970	0.188869
794.117449	0.189281
794.309910	0.189427
794.502353	0.189261
794.694777	0.189648
794.887183	0.189841
795.079571	0.190023
795.271941	0.190099
795.464293	0.190288
795.656626	0.190628
795.848941	0.190849
796.041238	0.190988
796.233516	0.191226
796.425777	0.191223
796.618019	0.191353
796.810243	0.191282
797.002449	0.191646
797.194636	0.191679
797.386805	0.191564
797.578956	0.191469
797.771089	0.191341
797.963204	0.191753
798.155300	0.191904
798.347378	0.192034
798.539438	0.192201
798.731480	0.192291
798.923503	0.192536
799.115509	0.192456
799.307496	0.192694
799.499465	0.193020
799.691415	0.192926
799.883348	0.192788
800.075262	0.192744
800.267158	0.192990
800.459035	0.193040
800.650895	0.192837
800.842736	0.193183
801.034559	0.193231
801.226364	0.193111
801.418150	0.193124
801.609919	0.193392
801.801669	0.193343
801.993401	0.193281
802.185114	0.193597
802.376810	0.193735
802.568487	0.193963
802.760146	0.194064
802.951787	0.194428
803.143409	0.194873
803.335014	0.195326
803.526600	0.195710
803.718168	0.196087
803.909717	0.196010
804.101249	0.196307
804.292762	0.196531
804.484257	0.196614
804.675734	0.196486
804.867192	0.196549
805.058632	0.196298
805.250054	0.196327
805.441458	0.196215
805.632844	0.196620
805.824211	0.196705
806.015561	0.196650
806.206891	0.197040
806.398204	0.197393
806.589499	0.197393
806.780775	0.197753
806.972033	0.198083
807.163273	0.198357
807.354495	0.198235
807.545698	0.198558
807.736883	0.198747
807.928050	0.198897
808.119199	0.199309
808.310329	0.199749
808.501441	0.199943
808.692535	0.199964
808.883611	0.200436
809.074669	0.200642
809.265708	0.200979
809.456729	0.201346
809.647732	0.201556
809.838717	0.201509
810.029683	0.201704
810.220632	0.201944
810.411562	0.202339
810.602474	0.202661
810.793367	0.203310
810.984242	0.203240
811.175100	0.203521
811.365938	0.203650
811.556759	0.203761
811.747562	0.203972
811.938346	0.204121
812.129112	0.204439
812.319860	0.204323
812.510589	0.204152
812.701300	0.204478
812.891994	0.204622
813.082668	0.204813
813.273325	0.205251
813.463964	0.205246
813.654584	0.205622
813.845186	0.205964
814.035769	0.206090
814.226335	0.206293
814.416882	0.206671
814.607411	0.206810
814.797922	0.206945
814.988415	0.207237
815.178889	0.207712
815.369345	0.207609
815.559783	0.207611
815.750203	0.207753
815.940605	0.208048
816.130988	0.208241
816.321353	0.208442
816.511700	0.208854
816.702028	0.209261
816.892339	0.209278
817.082631	0.209654
817.272905	0.209812
817.463161	0.210282
817.653398	0.210123
817.843617	0.210423
818.033819	0.210659
818.224001	0.210509
818.414166	0.210451
818.604312	0.210614
818.794440	0.210957
818.984550	0.210991
819.174642	0.211024
819.364716	0.211389
819.554771	0.211166
819.744808	0.211245
819.934827	0.211498
820.124827	0.211426
820.314810	0.211562
820.504774	0.211550
820.694720	0.211748
820.884647	0.212136
821.074557	0.212333
821.264448	0.212786
821.454321	0.212732
821.644176	0.212960
821.834012	0.213300
822.023831	0.213259
822.213631	0.213514
822.403413	0.213691
822.593176	0.213888
822.782922	0.214116
822.972649	0.214085
823.162358	0.214533
823.352049	0.214805
823.541721	0.214828
823.731376	0.215239
823.921012	0.215290
824.110629	0.215615
824.300229	0.215426
824.489811	0.215758
824.679374	0.216327
824.868919	0.216495
825.058445	0.216777
825.247954	0.217324
825.437444	0.217839
825.626916	0.218091
825.816370	0.218230
826.005806	0.218876
826.195223	0.219003
826.384622	0.219171
826.574003	0.219706
826.763366	0.219910
826.952711	0.219822
827.142037	0.219813
827.331345	0.220068
827.520635	0.220497
827.709906	0.220473
827.899160	0.220733
828.088395	0.220760
828.277612	0.220744
828.466810	0.220491
828.655991	0.220739
828.845153	0.221016
829.034297	0.221262
829.223423	0.221160
829.412531	0.221292
829.601620	0.221505
829.790691	0.221769
829.979744	0.222075
830.168779	0.222631
830.357795	0.222951
830.546793	0.223063
830.735773	0.223442
830.924735	0.223685
831.113679	0.223933
831.302604	0.224124
831.491511	0.224199
831.680400	0.224286
831.869271	0.224308
832.058123	0.224353
832.246957	0.224899
832.435773	0.224890
832.624571	0.225198
832.813351	0.225387
833.002112	0.225566
833.190855	0.225757
833.379580	0.226175
833.568287	0.226680
833.756975	0.227011
833.945645	0.226991
834.134297	0.227342
834.322931	0.227679
834.511547	0.228042
834.700144	0.228488
834.888723	0.229201
835.077284	0.229422
835.265826	0.229748
835.454351	0.230051
835.642857	0.230361
835.831345	0.230812
836.019815	0.231134
836.208266	0.231624
836.396699	0.231700
836.585114	0.231488
836.773511	0.231811
836.961890	0.231876
837.150250	0.231995
837.338592	0.232536
837.526916	0.232961
837.715222	0.233348
837.903510	0.233765
838.091779	0.234042
838.280030	0.234719
838.468263	0.235174
838.656477	0.235571
838.844674	0.236132
839.032852	0.236222
839.221012	0.236284
839.409153	0.236536
839.597277	0.236397
839.785382	0.237228
839.973469	0.237660
840.161538	0.237601
840.349589	0.237901
840.537621	0.238481
840.725635	0.238522
840.913631	0.238711
841.101609	0.239067
841.289568	0.239535
841.477509	0.239277
841.665432	0.239090
841.853337	0.239795
842.041224	0.240274
842.229092	0.239929
842.416942	0.240884
842.604774	0.241330
842.792588	0.241457
842.980383	0.241875
843.168160	0.242330
843.355919	0.242905
843.543660	0.243238
843.731382	0.243469
843.919087	0.244241
844.106773	0.244284
844.294441	0.244716
844.482090	0.245181
844.669722	0.245295
844.857335	0.245442
845.044930	0.245607
845.232507	0.245400
845.420065	0.245610
845.607605	0.245930
845.795127	0.246145
845.982631	0.246063
846.170117	0.246356
846.357584	0.246797
846.545033	0.246993
846.732464	0.247673
846.919877	0.247833
847.107272	0.248155
847.294648	0.248320
847.482006	0.248401
847.669346	0.248921
847.856667	0.248984
848.043971	0.249143
848.231256	0.249489
848.418523	0.249451
848.605771	0.250004
848.793002	0.250452
848.980214	0.250486
849.167408	0.250762
849.354584	0.250953
849.541742	0.251184
849.728881	0.251561
849.916002	0.252195
850.103105	0.252392
850.290190	0.252781
850.477256	0.252909
850.664304	0.253324
850.851334	0.253584
851.038346	0.254154
851.225340	0.254749
851.412315	0.254818
851.599272	0.254936
851.786211	0.255565
851.973132	0.255898
852.160034	0.256310
852.346918	0.256519
852.533784	0.257108
852.720632	0.257065
852.907462	0.257099
853.094273	0.257522
853.281066	0.257791
853.467841	0.257664
853.654598	0.257888
853.841336	0.258309
854.028056	0.258874
854.214758	0.259114
854.401442	0.259222
854.588107	0.259480
854.774755	0.259853
854.961384	0.260074
855.147995	0.260352
855.334587	0.260166
855.521162	0.260298
855.707718	0.260557
855.894256	0.260611
856.080775	0.261133
856.267277	0.261384
856.453760	0.261541
856.640225	0.261717
856.826672	0.261636
857.013101	0.262177
857.199511	0.262093
857.385903	0.261912
857.572277	0.262072
857.758633	0.262097
857.944970	0.262519
858.131290	0.262843
858.317591	0.262861
858.503873	0.263218
858.690138	0.263625
858.876384	0.264122
859.062612	0.264493
859.248822	0.264482
859.435014	0.264797
859.621188	0.265006
859.807343	0.264893
859.993480	0.265253
860.179599	0.265376
860.365699	0.265425
860.551781	0.265674
860.737846	0.265718
860.923891	0.266430
861.109919	0.266839
861.295929	0.267410
861.481920	0.267966
861.667893	0.268217
861.853848	0.269068
862.039784	0.269443
862.225702	0.269927
862.411603	0.270681
862.597484	0.271284
862.783348	0.271412
862.969193	0.271295
863.155021	0.271176
863.340830	0.271464
863.526620	0.271527
863.712393	0.272032
863.898147	0.271882
864.083883	0.272167
864.269601	0.272257
864.455301	0.272592
864.640982	0.272621
864.826645	0.272967
865.012290	0.273440
865.197917	0.273579
865.383526	0.273504
865.569116	0.273670
865.754688	0.273677
865.940242	0.273762
866.125777	0.274106
866.311295	0.274324
866.496794	0.274357
866.682275	0.274510
866.867737	0.274713
867.053182	0.274554
867.238608	0.274756
867.424016	0.274644
867.609406	0.274396
867.794778	0.274216
867.980131	0.274138
868.165466	0.274442
868.350783	0.274296
868.536082	0.274539
868.721362	0.274706
868.906625	0.274781
869.091869	0.274745
869.277094	0.274936
869.462302	0.274865
869.647491	0.275065
869.832662	0.274870
870.017815	0.275282
870.202950	0.275061
870.388066	0.275416
870.573165	0.275857
870.758245	0.276282
870.943306	0.276655
871.128350	0.277188
871.313375	0.277707
871.498382	0.278666
871.683371	0.278839
871.868342	0.279512
872.053294	0.279924
872.238229	0.280008
872.423144	0.280413
872.608042	0.280867
872.792922	0.281298
872.977783	0.281427
873.162626	0.281347
873.347451	0.281622
873.532258	0.281595
873.717046	0.281805
873.901816	0.281843
874.086568	0.282200
874.271302	0.282067
874.456017	0.282005
874.640715	0.282331
874.825394	0.282834
875.010055	0.282744
875.194697	0.282962
875.379322	0.283072
875.563928	0.283441
875.748516	0.283606
875.933085	0.283974
876.117637	0.284138
876.302170	0.284292
876.486685	0.284353
876.671182	0.284744
876.855661	0.285385
877.040121	0.285438
877.224563	0.285676
877.408987	0.285913
877.593393	0.285981
877.777780	0.286423
877.962150	0.286572
878.146501	0.286365
878.330833	0.286471
878.515148	0.286622
878.699444	0.286655
878.883722	0.286581
879.067982	0.286240
879.252224	0.286401
879.436447	0.285994
879.620653	0.285803
879.804840	0.286007
879.989008	0.285931
880.173159	0.285619
880.357291	0.285792
880.541405	0.286218
880.725501	0.286569
880.909579	0.286848
881.093638	0.287145
881.277680	0.287466
881.461703	0.287752
881.645707	0.288382
881.829694	0.288296
882.013662	0.288318
882.197612	0.288011
882.381544	0.288136
882.565458	0.288075
882.749353	0.288020
882.933230	0.287996
883.117089	0.287991
883.300930	0.287571
883.484753	0.287408
883.668557	0.287772
883.852343	0.288168
884.036111	0.288072
884.219861	0.287760
884.403592	0.288077
884.587305	0.288168
884.771000	0.288031
884.954677	0.287994
885.138335	0.288544
885.321976	0.288364
885.505598	0.287877
885.689201	0.287996
885.872787	0.288231
886.056354	0.288076
886.239904	0.288154
886.423434	0.288422
886.606947	0.288097
886.790442	0.287721
886.973918	0.287973
887.157376	0.288183
887.340816	0.288261
887.524237	0.288214
887.707641	0.288235
887.891026	0.288296
888.074393	0.288096
888.257741	0.288511
888.441072	0.288435
888.624384	0.288648
888.807678	0.288817
888.990954	0.289056
889.174211	0.289517
889.357451	0.289326
889.540672	0.289495
889.723875	0.289710
889.907059	0.289637
890.090226	0.289941
890.273374	0.289360
890.456504	0.289449
890.639616	0.288914
890.822709	0.288411
891.005785	0.288820
891.188842	0.288350
891.371881	0.288240
891.554901	0.288482
891.737904	0.288748
891.920888	0.288684
892.103854	0.288517
892.286802	0.288468
892.469731	0.288680
892.652643	0.288281
892.835536	0.288708
893.018410	0.288519
893.201267	0.288376
893.384106	0.288211
893.566926	0.288474
893.749728	0.288286
893.932511	0.288250
894.115277	0.287970
894.298024	0.287808
894.480753	0.287454
894.663464	0.287179
894.846157	0.286957
895.028831	0.287095
895.211487	0.286977
895.394125	0.286961
895.576745	0.287268
895.759346	0.287201
895.941930	0.286968
896.124495	0.287093
896.307041	0.287285
896.489570	0.287484
896.672080	0.287160
896.854573	0.287399
897.037046	0.287534
897.219502	0.287344
897.401940	0.287295
897.584359	0.287730
897.766760	0.287704
897.949143	0.288099
898.131507	0.288429
898.313854	0.288232
898.496182	0.288139
898.678492	0.287806
898.860783	0.287507
899.043057	0.287396
899.225312	0.286995
899.407549	0.286289
899.589768	0.285882
899.771968	0.284858
899.954151	0.285026
900.136315	0.284302
900.318461	0.284502
900.500588	0.284046
900.682698	0.283507
900.864789	0.283084
901.046862	0.283014
901.228917	0.282452
901.410953	0.282132
901.592971	0.281419
901.774972	0.281048
901.956953	0.280223
902.138917	0.279899
902.320862	0.279949
902.502790	0.280150
902.684699	0.280048
902.866589	0.280163
903.048462	0.280040
903.230316	0.279831
903.412152	0.279803
903.593970	0.280101
903.775770	0.280535
903.957551	0.280188
904.139314	0.279861
904.321059	0.279607
904.502786	0.279201
904.684494	0.279200
904.866185	0.279327
905.047857	0.279320
905.229510	0.279106
905.411146	0.278562
905.592763	0.278546
905.774363	0.278306
905.955943	0.278221
906.137506	0.278300
906.319051	0.278528
906.500577	0.278335
906.682085	0.277841
906.863575	0.277472
907.045046	0.277135
907.226500	0.276605
907.407935	0.276434
907.589352	0.275785
907.770750	0.275330
907.952131	0.275301
908.133493	0.274602
908.314837	0.274414
908.496163	0.274456
908.677470	0.274096
908.858760	0.273818
909.040031	0.273317
909.221284	0.273617
909.402518	0.272658
909.583735	0.271652
909.764933	0.271274
909.946113	0.270547
910.127275	0.269532
910.308418	0.269660
910.489544	0.269528
910.670651	0.269065
910.851740	0.268334
911.032810	0.268630
911.213863	0.268268
911.394897	0.267856
911.575913	0.267807
911.756911	0.267095
911.937890	0.266635
912.118851	0.266241
912.299794	0.266082
912.480719	0.265765
912.661626	0.264895
912.842514	0.264808
913.023384	0.264786
913.204236	0.264510
913.385070	0.264400
913.565886	0.263903
913.746683	0.263661
913.927462	0.263463
914.108223	0.263140
914.288965	0.263403
914.469690	0.262960
914.650396	0.262147
914.831084	0.261851
915.011754	0.261858
915.192405	0.261217
915.373038	0.260783
915.553653	0.260546
915.734250	0.260411
915.914829	0.259657
916.095389	0.258856
916.275931	0.258782
916.456455	0.258564
916.636961	0.258118
916.817448	0.257624
916.997917	0.257393
917.178368	0.256988
917.358801	0.256845
917.539216	0.256315
917.719612	0.256133
917.899990	0.255804
918.080350	0.255435
918.260692	0.254589
918.441015	0.254545
918.621320	0.253469
918.801607	0.252446
918.981876	0.251026
919.162127	0.250560
919.342359	0.250516
919.522573	0.250024
919.702769	0.249470
919.882947	0.249447
920.063106	0.248734
920.243247	0.248321
920.423370	0.247393
920.603475	0.246295
920.783562	0.245853
920.963630	0.244950
921.143680	0.244405
921.323712	0.243930
921.503725	0.243336
921.683721	0.243013
921.863698	0.242492
922.043657	0.242730
922.223598	0.242914
922.403520	0.242210
922.583424	0.241030
922.763311	0.240600
922.943178	0.239376
923.123028	0.238686
923.302859	0.238350
923.482673	0.237881
923.662467	0.237393
923.842244	0.236837
924.022003	0.235881
924.201743	0.235825
924.381465	0.234285
924.561169	0.234123
924.740854	0.233611
924.920522	0.232948
925.100171	0.232162
925.279802	0.231479
925.459414	0.231334
925.639009	0.231584
925.818585	0.231148
925.998143	0.231005
926.177683	0.230483
926.357205	0.229821
926.536708	0.229155
926.716193	0.228258
926.895660	0.227952
927.075109	0.227140
927.254539	0.226177
927.433951	0.225765
927.613345	0.225534
927.792721	0.224153
927.972079	0.222948
928.151418	0.222030
928.330739	0.222038
928.510042	0.220747
928.689327	0.220591
928.868593	0.219360
929.047841	0.218471
929.227071	0.217524
929.406283	0.217862
929.585476	0.217924
929.764652	0.217154
929.943809	0.215565
930.122948	0.214965
930.302068	0.213793
930.481171	0.213970
930.660255	0.213062
930.839321	0.212101
931.018369	0.211183
931.197398	0.210907
931.376409	0.210030
931.555402	0.209898
931.734377	0.209305
931.913334	0.208820
932.092272	0.207727
932.271192	0.207237
932.450094	0.206713
932.628978	0.205673
932.807844	0.205052
932.986691	0.204734
933.165520	0.205086
933.344331	0.204363
933.523123	0.203455
933.701898	0.203327
933.880654	0.203096
934.059392	0.202924
934.238111	0.202464
934.416813	0.201210
934.595496	0.200482
934.774161	0.198808
934.952808	0.198468
935.131437	0.197717
935.310047	0.196558
935.488639	0.195461
935.667213	0.195163
935.845769	0.194084
936.024306	0.192835
936.202825	0.191537
936.381326	0.190978
936.559809	0.189713
936.738274	0.188496
936.916720	0.187919
937.095148	0.186098
937.273558	0.184858
937.451950	0.184322
937.630323	0.184340
937.808678	0.184177
937.987015	0.183760
938.165334	0.182752
938.343635	0.182327
938.521917	0.181246
938.700181	0.181451
938.878427	0.180403
939.056655	0.179562
939.234864	0.178091
939.413055	0.177793
939.591228	0.177427
939.769383	0.177458
939.947519	0.177102
940.125638	0.176216
940.303738	0.175124
940.481820	0.174955
940.659883	0.173925
940.837929	0.173320
941.015956	0.172316
941.193965	0.170196
941.371955	0.169512
941.549928	0.168308
941.727882	0.168021
941.905818	0.167610
942.083736	0.166069
942.261636	0.165358
942.439517	0.164127
942.617380	0.163303
942.795225	0.162068
942.973052	0.161121
943.150860	0.161079
943.328651	0.159083
943.506423	0.157916
943.684176	0.156886
943.861912	0.156787
944.039629	0.156775
944.217328	0.155892
944.395009	0.156576
944.572672	0.154473
944.750317	0.153411
944.927943	0.154427
945.105551	0.153199
945.283141	0.153558
945.460712	0.151204
945.638265	0.149929
945.815801	0.148660
945.993317	0.147938
946.170816	0.147620
946.348297	0.145240
946.525759	0.144122
946.703203	0.144248
946.880629	0.142539
947.058036	0.142162
947.235425	0.142974
947.412797	0.141517
947.590149	0.140941
947.767484	0.140883
947.944800	0.142196
948.122099	0.141769
948.299379	0.140996
948.476640	0.138969
948.653884	0.139141
948.831109	0.136833
949.008316	0.137292
949.185505	0.136799
949.362676	0.136138
949.539828	0.135199
949.716962	0.134399
949.894078	0.134940
950.071176	0.136612
950.248256	0.135510
950.425317	0.134285
950.602360	0.133721
950.779385	0.132431
950.956391	0.132157
951.133380	0.130101
951.310350	0.128540
951.487302	0.126272
951.664235	0.124611
951.841151	0.122622
952.018048	0.123793
952.194927	0.121781
952.371788	0.121881
952.548631	0.121376
952.725455	0.122720
952.902261	0.123014
953.079049	0.122371
953.255819	0.122636
953.432570	0.125196
953.609303	0.124206
953.786018	0.124397
953.962715	0.124491
954.139394	0.123893
954.316054	0.121676
954.492696	0.121075
954.669320	0.120381
954.845926	0.119457
955.022513	0.117902
955.199083	0.118405
955.375634	0.117851
955.552166	0.115479
955.728681	0.114437
955.905177	0.114306
956.081655	0.113539
956.258115	0.114218
956.434557	0.113401
956.610980	0.112022
956.787385	0.109307
956.963772	0.110050
957.140141	0.109340
957.316492	0.111024
957.492824	0.110718
957.669138	0.111201
957.845434	0.110133
958.021712	0.111644
958.197971	0.112595
958.374212	0.114616
958.550435	0.116196
958.726640	0.117978
958.902826	0.115993
959.078995	0.116490
959.255145	0.117445
959.431277	0.118669
959.607390	0.117782
959.783486	0.118406
959.959563	0.115874
960.135622	0.112350
960.311662	0.111355
960.487685	0.111442
960.663689	0.110869
960.839675	0.107445
961.015643	0.105229
961.191593	0.102700
961.367524	0.102691
961.543437	0.103064
961.719332	0.104846
961.895209	0.102473
962.071067	0.101418
962.246907	0.101030
962.422730	0.103530
962.598533	0.102626
962.774319	0.104078
962.950086	0.103238
963.125835	0.104108
963.301566	0.104602
963.477279	0.109126
963.652973	0.109087
963.828650	0.110039
964.004308	0.108122
964.179947	0.110642
964.355569	0.111046
964.531172	0.111383
964.706757	0.109891
964.882324	0.109464
965.057873	0.105779
965.233403	0.105320
965.408916	0.104803
965.584410	0.103320
965.759885	0.101874
965.935343	0.100880
966.110782	0.098534
966.286203	0.097921
966.461606	0.096977
966.636991	0.097210
966.812357	0.098911
966.987705	0.098672
967.163035	0.100562
967.338347	0.101218
967.513641	0.103078
967.688916	0.103904
967.864173	0.106035
968.039412	0.106777
968.214632	0.105620
968.389835	0.103751
968.565019	0.103469
968.740185	0.104541
968.915333	0.103723
969.090462	0.101542
969.265573	0.100400
969.440667	0.098649
969.615741	0.097778
969.790798	0.098812
969.965836	0.100068
970.140856	0.102735
970.315858	0.101724
970.490842	0.101940
970.665808	0.103490
970.840755	0.105377
971.015684	0.107224
971.190595	0.106770
971.365487	0.108548
971.540362	0.109708
971.715218	0.107166
971.890056	0.108434
972.064875	0.107789
972.239677	0.106080
972.414460	0.105053
972.589225	0.105281
972.763972	0.105037
972.938700	0.103320
973.113411	0.103232
973.288103	0.101621
973.462777	0.100388
973.637432	0.102757
973.812070	0.104756
973.986689	0.106388
974.161290	0.104080
974.335873	0.104279
974.510437	0.104355
974.684984	0.102377
974.859512	0.102571
975.034022	0.101149
975.208513	0.100241
975.382987	0.099862
975.557442	0.099536
975.731879	0.100964
975.906298	0.101843
976.080698	0.103495
976.255080	0.104934
976.429445	0.106067
976.603790	0.105981
976.778118	0.105979
976.952427	0.105017
977.126719	0.103951
977.300992	0.105449
977.475246	0.104200
977.649483	0.103139
977.823701	0.099974
977.997901	0.098391
978.172083	0.098481
978.346247	0.098458
978.520392	0.100559
978.694519	0.100519
978.868628	0.099276
979.042719	0.101674
979.216791	0.101489
979.390845	0.106148
979.564882	0.106591
979.738899	0.105699
979.912899	0.105819
980.086880	0.104149
980.260843	0.103540
980.434788	0.101702
980.608715	0.100227
980.782623	0.101494
980.956514	0.098792
981.130386	0.099790
981.304240	0.102220
981.478075	0.104362
981.651892	0.104348
981.825692	0.107372
981.999472	0.108558
982.173235	0.109208
982.346980	0.108222
982.520706	0.108120
982.694414	0.107756
982.868104	0.106675
983.041775	0.104476
983.215428	0.105158
983.389064	0.107331
983.562680	0.107437
983.736279	0.106206
983.909860	0.107527
984.083422	0.107916
984.256966	0.108104
984.430491	0.109161
984.603999	0.107126
984.777488	0.106316
984.950959	0.102407
985.124412	0.102255
985.297847	0.101598
985.471263	0.101056
985.644661	0.100604
985.818041	0.101431
985.991403	0.102711
986.164747	0.105498
986.338072	0.107014
986.511379	0.106117
986.684668	0.106232
986.857938	0.107691
987.031191	0.107288
987.204425	0.109674
987.377641	0.110402
987.550839	0.108521
987.724018	0.108301
987.897179	0.107769
988.070322	0.109520
988.243447	0.108773
988.416554	0.109548
988.589642	0.109237
988.762712	0.107122
988.935764	0.104799
989.108798	0.105408
989.281813	0.104203
989.454811	0.104768
989.627790	0.105252
989.800751	0.107031
989.973693	0.106933
990.146617	0.106556
990.319524	0.105912
990.492412	0.106900
990.665281	0.108473
990.838133	0.108939
991.010966	0.108201
991.183781	0.106937
991.356578	0.106988
991.529356	0.106168
991.702117	0.105216
991.874859	0.107320
992.047583	0.109066
992.220288	0.105283
992.392976	0.104901
992.565645	0.104503
992.738296	0.104317
992.910929	0.102091
993.083543	0.102631
993.256139	0.103518
993.428718	0.103418
993.601277	0.102580
993.773819	0.106537
993.946342	0.107916
994.118848	0.108402
994.291335	0.108808
994.463803	0.110398
994.636254	0.108931
994.808686	0.109850
994.981100	0.110090
995.153496	0.110584
995.325874	0.108138
995.498233	0.106341
995.670574	0.105307
995.842897	0.107046
996.015202	0.106946
996.187488	0.108648
996.359757	0.108513
996.532007	0.109138
996.704239	0.107606
996.876452	0.108800
997.048648	0.109548
997.220825	0.109481
997.392984	0.108783
997.565124	0.108912
997.737247	0.109201
997.909351	0.108746
998.081437	0.108302
998.253505	0.108997
998.425554	0.109765
998.597586	0.110437
998.769599	0.112497
998.941594	0.110512
999.113571	0.110550
999.285529	0.108950
999.457469	0.109458
999.629391	0.108425
999.801295	0.107088
999.973181	0.105369
1000.145048	0.104691
1000.316897	0.102694
1000.488728	0.104067
1000.660541	0.103965
1000.832335	0.103903
1001.004111	0.103185
1001.175869	0.102084
1001.347609	0.103227
1001.519331	0.102690
1001.691034	0.101139
1001.862719	0.101962
1002.034386	0.102879
1002.206035	0.102822
1002.377665	0.102184
1002.549277	0.103619
1002.720871	0.104717
1002.892447	0.105349
1003.064004	0.105850
1003.235544	0.108126
1003.407065	0.106851
1003.578568	0.105595
1003.750052	0.106076
1003.921519	0.106028
1004.092967	0.102506
1004.264397	0.101606
1004.435809	0.101342
1004.607202	0.100883
1004.778577	0.100796
1004.949934	0.101373
1005.121273	0.100968
1005.292594	0.099893
1005.463896	0.101481
1005.635180	0.104459
1005.806446	0.103787
1005.977694	0.103050
1006.148923	0.103682
1006.320135	0.101435
1006.491328	0.102384
1006.662503	0.103370
1006.833659	0.103974
1007.004798	0.103725
1007.175918	0.103805
1007.347020	0.105773
1007.518103	0.105380
1007.689169	0.105751
1007.860216	0.106583
1008.031245	0.105190
1008.202256	0.105469
1008.373248	0.105514
1008.544223	0.106091
1008.715179	0.106316
1008.886117	0.104271
1009.057036	0.103091
1009.227938	0.103096
1009.398821	0.102471
1009.569686	0.104454
1009.740533	0.102243
1009.911361	0.101907
1010.082172	0.099528
1010.252964	0.098817
1010.423738	0.100479
1010.594493	0.101946
1010.765231	0.101014
1010.935950	0.103197
1011.106651	0.101673
1011.277334	0.103255
1011.447998	0.102173
1011.618645	0.103443
1011.789273	0.102647
1011.959882	0.100817
1012.130474	0.103061
1012.301048	0.102830
1012.471603	0.102229
1012.642140	0.101389
1012.812658	0.101713
1012.983159	0.102696
1013.153641	0.102420
1013.324105	0.101706
1013.494551	0.103649
1013.664979	0.101792
1013.835388	0.102014
1014.005779	0.100717
1014.176152	0.100420
1014.346507	0.098272
1014.516843	0.098418
1014.687162	0.101181
1014.857462	0.101510
1015.027744	0.101148
1015.198007	0.101892
1015.368252	0.102649
1015.538480	0.103555
1015.708689	0.104199
1015.878879	0.105166
1016.049052	0.104415
1016.219206	0.101663
1016.389342	0.103188
1016.559460	0.102377
1016.729559	0.101538
1016.899641	0.101370
1017.069704	0.100646
1017.239749	0.101112
1017.409775	0.101766
1017.579784	0.101811
1017.749774	0.101718
1017.919746	0.102034
1018.089700	0.101348
1018.259635	0.101027
1018.429553	0.099944
1018.599452	0.100338
1018.769333	0.101270
1018.939195	0.102980
1019.109040	0.104410
1019.278866	0.104382
1019.448674	0.102784
1019.618464	0.103525
1019.788235	0.103906
1019.957989	0.104473
1020.127724	0.104578
1020.297441	0.104048
1020.467139	0.100485
1020.636820	0.100068
1020.806482	0.099558
1020.976126	0.099812
1021.145752	0.099863
1021.315359	0.100683
1021.484948	0.099344
1021.654519	0.099050
1021.824072	0.097601
1021.993607	0.099578
1022.163123	0.099257
1022.332621	0.099486
1022.502101	0.100255
1022.671563	0.099579
1022.841007	0.098182
1023.010432	0.099043
1023.179839	0.099122
1023.349228	0.098214
1023.518598	0.097203
1023.687951	0.097171
1023.857285	0.097872
1024.026601	0.097305
1024.195899	0.097827
1024.365178	0.098673
1024.534439	0.099778
1024.703682	0.098882
1024.872907	0.099756
1025.042114	0.100078
1025.211302	0.099014
1025.380472	0.099357
1025.549624	0.098192
1025.718758	0.097822
1025.887873	0.097474
1026.056970	0.095523
1026.226049	0.096846
1026.395110	0.097540
1026.564153	0.098633
1026.733177	0.097918
1026.902183	0.096837
1027.071171	0.096987
1027.240141	0.097327
1027.409092	0.099677
1027.578026	0.100444
1027.746940	0.100084
1027.915837	0.102083
1028.084716	0.100139
1028.253576	0.101258
1028.422418	0.102008
1028.591242	0.103708
1028.760048	0.103830
1028.928835	0.100539
1029.097604	0.102051
1029.266355	0.101086
1029.435088	0.099256
1029.603803	0.101549
1029.772499	0.101384
1029.941177	0.099710
1030.109837	0.098973
1030.278478	0.098506
1030.447102	0.100558
1030.615707	0.100207
1030.784294	0.100933
1030.952863	0.100700
1031.121413	0.100171
1031.289945	0.099326
1031.458460	0.101241
1031.626955	0.101123
1031.795433	0.101952
1031.963892	0.103184
1032.132334	0.101481
1032.300756	0.102890
1032.469161	0.103580
1032.637548	0.102093
1032.805916	0.102644
1032.974266	0.100730
1033.142598	0.102165
1033.310911	0.101109
1033.479207	0.098649
1033.647484	0.099631
1033.815743	0.099728
1033.983983	0.099109
1034.152206	0.100793
1034.320410	0.101577
1034.488596	0.103369
1034.656764	0.101349
1034.824914	0.101859
1034.993045	0.101717
1035.161158	0.101568
1035.329253	0.100084
1035.497330	0.100055
1035.665388	0.100690
1035.833428	0.100796
1036.001450	0.099992
1036.169454	0.101525
1036.337440	0.101603
1036.505407	0.101173
1036.673356	0.102385
1036.841287	0.101226
1037.009200	0.101357
1037.177094	0.100516
1037.344970	0.099748
1037.512828	0.099609
1037.680668	0.096953
1037.848489	0.098893
1038.016293	0.098315
1038.184078	0.097180
1038.351845	0.098293
1038.519593	0.097062
1038.687324	0.095211
1038.855036	0.096689
1039.022730	0.096184
1039.190406	0.097159
1039.358063	0.094858
1039.525702	0.095502
1039.693323	0.095865
1039.860926	0.095175
1040.028511	0.096398
1040.196077	0.097865
1040.363625	0.096270
1040.531155	0.096870
1040.698667	0.099278
1040.866161	0.100522
1041.033636	0.100469
1041.201093	0.099342
1041.368532	0.099514
1041.535952	0.098500
1041.703355	0.099061
1041.870739	0.099826
1042.038105	0.102065
1042.205452	0.099482
1042.372782	0.099878
1042.540093	0.100324
1042.707386	0.101071
1042.874661	0.101288
1043.041918	0.102418
1043.209156	0.100947
1043.376376	0.101016
1043.543578	0.099592
1043.710762	0.099831
1043.877927	0.098777
1044.045074	0.097092
1044.212203	0.097367
1044.379314	0.097779
1044.546407	0.098055
1044.713481	0.098474
1044.880537	0.097979
1045.047575	0.097016
1045.214595	0.096784
1045.381596	0.097412
1045.548579	0.099136
1045.715544	0.100242
1045.882491	0.101566
1046.049420	0.101301
1046.216330	0.101349
1046.383222	0.101074
1046.550096	0.102000
1046.716951	0.102055
1046.883789	0.100544
1047.050608	0.099662
1047.217409	0.098587
1047.384192	0.099366
1047.550956	0.100819
1047.717703	0.101950
1047.884431	0.102736
1048.051140	0.099950
1048.217832	0.101350
1048.384505	0.103791
1048.551161	0.104347
1048.717798	0.103966
1048.884416	0.101736
1049.051017	0.100326
1049.217599	0.099083
1049.384163	0.100293
1049.550709	0.101832
1049.717237	0.101146
1049.883746	0.098837
1050.050237	0.100603
1050.216710	0.100989
1050.383165	0.100895
1050.549601	0.101273
1050.716019	0.100769
1050.882420	0.100702
1051.048801	0.101956
1051.215165	0.101240
1051.381510	0.102233
1051.547837	0.100006
1051.714146	0.098745
1051.880437	0.098269
1052.046709	0.097570
1052.212964	0.098314
1052.379200	0.096765
1052.545417	0.094830
1052.711617	0.095035
1052.877798	0.094135
1053.043961	0.094395
1053.210106	0.097041
1053.376233	0.097598
1053.542341	0.095930
1053.708432	0.096176
1053.874504	0.095069
1054.040557	0.096076
1054.206593	0.097155
1054.372610	0.098347
1054.538609	0.097957
1054.704590	0.095844
1054.870553	0.096196
1055.036497	0.098187
1055.202424	0.099289
1055.368331	0.099996
1055.534221	0.099758
1055.700093	0.097956
1055.865946	0.095186
1056.031781	0.095861
1056.197598	0.096825
1056.363397	0.097743
1056.529177	0.098187
1056.694939	0.097340
1056.860683	0.098087
1057.026409	0.097265
1057.192116	0.098171
1057.357806	0.100135
1057.523477	0.100309
1057.689130	0.098352
1057.854764	0.095240
1058.020381	0.094858
1058.185979	0.093457
1058.351559	0.092519
1058.517120	0.092973
1058.682664	0.093502
1058.848189	0.094013
1059.013696	0.092543
1059.179185	0.093584
1059.344656	0.096316
1059.510108	0.095651
1059.675542	0.097417
1059.840958	0.096310
1060.006356	0.097136
1060.171735	0.098225
1060.337096	0.096369
1060.502439	0.097514
1060.667764	0.099232
1060.833071	0.096918
1060.998359	0.095698
1061.163629	0.094562
1061.328881	0.096961
1061.494115	0.098953
1061.659330	0.097521
1061.824527	0.100265
1061.989706	0.100777
1062.154867	0.097847
1062.320010	0.098886
1062.485134	0.100558
1062.650240	0.101287
1062.815328	0.098685
1062.980398	0.095761
1063.145449	0.095536
1063.310482	0.092953
1063.475497	0.092354
1063.640494	0.095556
1063.805473	0.094682
1063.970433	0.094441
1064.135375	0.093789
1064.300299	0.095314
1064.465204	0.096219
1064.630092	0.097063
1064.794961	0.098771
1064.959812	0.098376
1065.124645	0.096022
1065.289459	0.096281
1065.454256	0.095463
1065.619034	0.096233
1065.783793	0.096697
1065.948535	0.095957
1066.113258	0.093977
1066.277964	0.091803
1066.442651	0.092903
1066.607319	0.093336
1066.771970	0.093276
1066.936602	0.094158
1067.101216	0.092656
1067.265812	0.091470
1067.430389	0.092088
1067.594949	0.092841
1067.759490	0.093961
1067.924013	0.093767
1068.088518	0.094615
1068.253004	0.095215
1068.417472	0.095289
1068.581922	0.095339
1068.746354	0.096251
1068.910768	0.097238
1069.075163	0.096354
1069.239540	0.094983
1069.403899	0.094660
1069.568240	0.094693
1069.732562	0.094947
1069.896866	0.094969
1070.061152	0.094068
1070.225420	0.094382
1070.389670	0.092678
1070.553901	0.093535
1070.718114	0.095276
1070.882309	0.094927
1071.046486	0.095804
1071.210644	0.096167
1071.374784	0.094502
1071.538906	0.095786
1071.703010	0.096205
1071.867096	0.097365
1072.031163	0.095688
1072.195212	0.096333
1072.359243	0.096223
1072.523256	0.094919
1072.687250	0.096428
1072.851226	0.098681
1073.015184	0.099083
1073.179124	0.099873
1073.343045	0.100650
1073.506949	0.101865
1073.670834	0.102229
1073.834701	0.102524
1073.998549	0.102017
1074.162380	0.100301
1074.326192	0.098881
1074.489986	0.099560
1074.653761	0.101022
1074.817519	0.100515
1074.981258	0.102692
1075.144979	0.101049
1075.308682	0.100667
1075.472367	0.100560
1075.636033	0.100299
1075.799681	0.102735
1075.963311	0.100567
1076.126923	0.097945
1076.290516	0.097132
1076.454092	0.096565
1076.617649	0.099139
1076.781187	0.101806
1076.944708	0.100938
1077.108210	0.102023
1077.271695	0.100989
1077.435160	0.100958
1077.598608	0.099639
1077.762038	0.099887
1077.925449	0.099538
1078.088842	0.098220
1078.252217	0.094833
1078.415573	0.097343
1078.578912	0.097045
1078.742232	0.096810
1078.905534	0.099660
1079.068817	0.098976
1079.232083	0.098919
1079.395330	0.099049
1079.558559	0.098934
1079.721770	0.099335
1079.884962	0.098620
1080.048136	0.097115
1080.211293	0.097142
1080.374430	0.095644
1080.537550	0.095754
1080.700651	0.095389
1080.863735	0.093365
1081.026800	0.092564
1081.189846	0.093105
1081.352875	0.092867
1081.515885	0.094082
1081.678877	0.094362
1081.841851	0.093661
1082.004807	0.094029
1082.167744	0.094550
1082.330663	0.097290
1082.493564	0.097657
1082.656447	0.097910
1082.819312	0.097119
1082.982158	0.095517
1083.144986	0.093730
1083.307796	0.094285
1083.470587	0.095539
1083.633361	0.094435
1083.796116	0.091200
1083.958853	0.091476
1084.121571	0.089993
1084.284272	0.089563
1084.446954	0.089561
1084.609618	0.089108
1084.772264	0.088948
1084.934892	0.090315
1085.097501	0.092221
1085.260092	0.096049
1085.422665	0.094165
1085.585220	0.096287
1085.747756	0.097351
1085.910274	0.099128
1086.072774	0.101687
1086.235256	0.102557
1086.397720	0.097700
1086.560165	0.095505
1086.722592	0.094605
1086.885001	0.096497
1087.047392	0.095000
1087.209764	0.094760
1087.372119	0.093793
1087.534455	0.092503
1087.696772	0.092995
1087.859072	0.095557
1088.021353	0.095399
1088.183616	0.094836
1088.345861	0.092996
1088.508088	0.095477
1088.670296	0.094779
1088.832486	0.093564
1088.994658	0.092950
1089.156812	0.092306
1089.318948	0.093397
1089.481065	0.096476
1089.643164	0.094843
1089.805245	0.093792
1089.967308	0.093580
1090.129352	0.092537
1090.291378	0.093100
1090.453386	0.091815
1090.615376	0.091070
1090.777347	0.089489
1090.939301	0.088223
1091.101236	0.091223
1091.263153	0.091111
1091.425051	0.091372
1091.586932	0.094413
1091.748794	0.094450
1091.910638	0.097597
1092.072463	0.096504
1092.234271	0.098323
1092.396060	0.095033
1092.557831	0.092645
1092.719584	0.094681
1092.881319	0.092788
1093.043035	0.091184
1093.204733	0.093429
1093.366413	0.094712
1093.528075	0.094949
1093.689718	0.095133
1093.851343	0.097975
1094.012950	0.096484
1094.174539	0.098136
1094.336110	0.093310
1094.497662	0.094755
1094.659196	0.094261
1094.820712	0.092748
1094.982210	0.091194
1095.143689	0.089118
1095.305151	0.090274
1095.466594	0.090355
1095.628018	0.089628
1095.789425	0.092877
1095.950813	0.094207
1096.112183	0.094651
1096.273535	0.094034
1096.434869	0.093696
1096.596184	0.096166
1096.757482	0.093449
1096.918761	0.096196
1097.080021	0.093408
1097.241264	0.094099
1097.402488	0.091199
1097.563694	0.086919
1097.724882	0.085672
1097.886052	0.089241
1098.047203	0.088021
1098.208336	0.091207
1098.369451	0.089955
1098.530548	0.094476
1098.691627	0.095475
1098.852687	0.094336
1099.013729	0.096945
1099.174753	0.094893
1099.335758	0.093456
1099.496746	0.094327
1099.657715	0.090081
1099.818666	0.089450
1099.979599	0.084137
1100.140513	0.084621
1100.301409	0.085135
1100.462287	0.082873
1100.623147	0.084993
1100.783989	0.085523
1100.944812	0.083358
1101.105617	0.084278
1101.266404	0.083849
1101.427173	0.086328
1101.587923	0.087599
1101.748656	0.086645
1101.909370	0.089570
1102.070066	0.088717
1102.230743	0.091766
1102.391403	0.092323
1102.552044	0.096689
1102.712667	0.096622
1102.873271	0.098212
1103.033858	0.095208
1103.194426	0.094487
1103.354976	0.094239
1103.515508	0.092677
1103.676021	0.091069
1103.836517	0.090507
1103.996994	0.087845
1104.157453	0.087495
1104.317893	0.083923
1104.478316	0.084182
1104.638720	0.087018
1104.799106	0.089524
1104.959474	0.091248
1105.119823	0.089553
1105.280155	0.089401
1105.440468	0.086616
1105.600763	0.086879
1105.761039	0.089621
1105.921298	0.090245
1106.081538	0.089371
1106.241760	0.084197
1106.401964	0.084083
1106.562149	0.085248
1106.722316	0.085800
1106.882465	0.087569
1107.042596	0.086023
1107.202709	0.087307
1107.362803	0.086754
1107.522879	0.088928
1107.682937	0.087861
1107.842977	0.090333
1108.002999	0.088493
1108.163002	0.086491
1108.322987	0.086767
1108.482954	0.090773
1108.642902	0.087672
1108.802833	0.088769
1108.962745	0.085660
1109.122639	0.092001
1109.282515	0.087802
1109.442372	0.089326
1109.602211	0.090190
1109.762032	0.090939
1109.921835	0.088580
1110.081620	0.087671
1110.241386	0.086331
1110.401134	0.084813
1110.560864	0.082190
1110.720576	0.084849
1110.880269	0.085614
1111.039945	0.086753
1111.199602	0.089148
1111.359240	0.093183
1111.518861	0.095780
1111.678463	0.093864
1111.838047	0.095205
1111.997613	0.089805
1112.157161	0.090628
1112.316690	0.088290
1112.476202	0.086416
1112.635695	0.082561
1112.795169	0.080484
1112.954626	0.082344
1113.114064	0.087702
1113.273484	0.087824
1113.432886	0.096796
1113.592270	0.097192
1113.751635	0.097417
1113.910983	0.099342
1114.070312	0.099598
1114.229622	0.099753
1114.388915	0.098033
1114.548189	0.098432
1114.707445	0.099768
1114.866683	0.096663
1115.025903	0.096616
1115.185104	0.093314
1115.344287	0.090911
1115.503452	0.092855
1115.662599	0.091178
1115.821727	0.089477
1115.980838	0.086629
1116.139930	0.085580
1116.299004	0.083558
1116.458059	0.085158
1116.617097	0.088308
1116.776116	0.091206
1116.935117	0.090711
1117.094099	0.089521
1117.253064	0.089556
1117.412010	0.086787
1117.570938	0.090624
1117.729848	0.092107
1117.888740	0.091439
1118.047613	0.090246
1118.206468	0.094404
1118.365305	0.093548
1118.524124	0.094800
1118.682924	0.093886
1118.841707	0.097125
1119.000471	0.090019
1119.159216	0.087203
1119.317944	0.085119
1119.476653	0.082578
1119.635344	0.076199
1119.794017	0.072553
1119.952672	0.072170
1120.111308	0.075127
1120.269927	0.072211
1120.428527	0.073701
1120.587108	0.074145
1120.745672	0.077145
1120.904217	0.077045
1121.062744	0.077958
1121.221253	0.083783
1121.379744	0.084794
1121.538216	0.079545
1121.696671	0.081855
1121.855107	0.084966
1122.013524	0.082370
1122.171924	0.080023
1122.330305	0.079222
1122.488668	0.081104
1122.647013	0.075070
1122.805340	0.074004
1122.963648	0.076483
1123.121938	0.074843
1123.280210	0.071336
1123.438464	0.074616
1123.596700	0.073266
1123.754917	0.072419
1123.913116	0.074163
1124.071297	0.076487
1124.229459	0.074088
1124.387604	0.070621
1124.545730	0.071024
1124.703838	0.071092
1124.861928	0.072752
1125.019999	0.072545
1125.178052	0.075603
1125.336088	0.071534
1125.494104	0.075367
1125.652103	0.075982
1125.810083	0.080332
1125.968045	0.080069
1126.125989	0.080340
1126.283915	0.080776
1126.441823	0.085763
1126.599712	0.084916
1126.757583	0.086087
1126.915436	0.085178
1127.073270	0.088382
1127.231087	0.086453
1127.388885	0.090168
1127.546665	0.089894
1127.704426	0.088787
1127.862170	0.086314
1128.019895	0.090677
1128.177602	0.090643
1128.335291	0.090330
1128.492961	0.088037
1128.650614	0.091222
1128.808248	0.089398
1128.965864	0.091174
1129.123461	0.088656
1129.281041	0.082616
1129.438602	0.082491
1129.596145	0.082454
1129.753670	0.078123
1129.911176	0.077712
1130.068665	0.079163
1130.226135	0.078781
1130.383587	0.078736
1130.541020	0.078331
1130.698436	0.081983
1130.855833	0.079647
1131.013212	0.078948
1131.170573	0.082186
1131.327915	0.081222
1131.485239	0.079431
1131.642545	0.081757
1131.799833	0.084346
1131.957103	0.087345
1132.114354	0.094281
1132.271588	0.095896
1132.428803	0.096916
1132.585999	0.094043
1132.743178	0.094357
1132.900338	0.095770
1133.057480	0.090022
1133.214604	0.082834
1133.371710	0.084362
1133.528797	0.079088
1133.685866	0.077850
1133.842917	0.069580
1133.999950	0.067842
1134.156964	0.067697
1134.313960	0.059522
1134.470938	0.058594
1134.627898	0.059772
1134.784840	0.058573
1134.941763	0.054627
1135.098668	0.056277
1135.255555	0.061611
1135.412424	0.068070
1135.569274	0.074220
1135.726107	0.080130
1135.882921	0.082794
1136.039716	0.082304
1136.196494	0.078930
1136.353253	0.080689
1136.509995	0.076813
1136.666717	0.079050
1136.823422	0.071470
1136.980109	0.065383
1137.136777	0.061085
1137.293427	0.059857
1137.450059	0.059843
1137.606672	0.055222
1137.763267	0.055984
1137.919844	0.053468
1138.076403	0.052781
1138.232944	0.055423
1138.389466	0.053018
1138.545971	0.059610
1138.702457	0.057782
1138.858924	0.057441
1139.015374	0.063936
1139.171805	0.062788
1139.328218	0.065812
1139.484613	0.066589
1139.640990	0.064121
1139.797348	0.064225
1139.953688	0.062097
1140.110010	0.069102
1140.266314	0.070098
1140.422600	0.069804
1140.578867	0.063637
1140.735116	0.062653
1140.891347	0.061877
1141.047559	0.068964
1141.203754	0.071481
1141.359930	0.074519
1141.516088	0.066865
1141.672228	0.070151
1141.828349	0.075869
1141.984452	0.082003
1142.140537	0.078970
1142.296604	0.081444
1142.452653	0.079754
1142.608683	0.082770
1142.764695	0.079686
1142.920689	0.081618
1143.076665	0.076731
1143.232622	0.071557
1143.388562	0.069697
1143.544483	0.075008
1143.700385	0.069137
1143.856270	0.066459
1144.012136	0.066640
1144.167985	0.063352
1144.323814	0.064618
1144.479626	0.067215
1144.635420	0.065941
1144.791195	0.062995
1144.946952	0.061976
1145.102691	0.067197
1145.258411	0.062265
1145.414113	0.064285
1145.569798	0.065431
1145.725463	0.058906
1145.881111	0.058844
1146.036741	0.055892
1146.192352	0.058936
1146.347945	0.056653
1146.503519	0.056546
1146.659076	0.063002
1146.814614	0.058748
1146.970134	0.063984
1147.125636	0.072470
1147.281120	0.075044
1147.436585	0.073844
1147.592032	0.077598
1147.747461	0.079195
1147.902872	0.081685
1148.058265	0.076662
1148.213639	0.074071
1148.368995	0.068679
1148.524333	0.064084
1148.679653	0.062838
1148.834954	0.062827
1148.990237	0.055670
1149.145502	0.054349
1149.300749	0.048064
1149.455977	0.048062
1149.611188	0.050194
1149.766380	0.048952
1149.921553	0.049528
1150.076709	0.043353
1150.231846	0.045525
1150.386966	0.052626
1150.542066	0.055746
1150.697149	0.053777
1150.852214	0.060552
1151.007260	0.062449
1151.162288	0.067082
1151.317298	0.070268
1151.472289	0.071954
1151.627263	0.074182
1151.782218	0.073071
1151.937155	0.073301
1152.092073	0.076165
1152.246974	0.071176
1152.401856	0.070239
1152.556720	0.069474
1152.711566	0.066253
1152.866393	0.067315
1153.021203	0.070913
1153.175994	0.073279
1153.330767	0.072078
1153.485521	0.074467
1153.640258	0.078948
1153.794976	0.079823
1153.949676	0.079546
1154.104358	0.076680
1154.259021	0.084041
1154.413667	0.072163
1154.568294	0.066331
1154.722903	0.057486
1154.877493	0.060701
1155.032066	0.059293
1155.186620	0.052274
1155.341156	0.042331
1155.495674	0.049700
1155.650173	0.047149
1155.804654	0.053180
1155.959118	0.049178
1156.113562	0.060893
1156.267989	0.055227
1156.422397	0.054784
1156.576788	0.054818
1156.731160	0.063094
1156.885513	0.067262
1157.039849	0.069341
1157.194166	0.067295
1157.348465	0.071078
1157.502746	0.066822
1157.657009	0.068037
1157.811253	0.068434
1157.965479	0.071697
1158.119687	0.072530
1158.273877	0.063360
1158.428048	0.062986
1158.582201	0.067755
1158.736337	0.065668
1158.890453	0.061279
1159.044552	0.060983
1159.198632	0.061927
1159.352694	0.060496
1159.506738	0.058895
1159.660764	0.057011
1159.814771	0.052784
1159.968761	0.051010
1160.122732	0.055849
1160.276685	0.064200
1160.430619	0.070166
1160.584535	0.067301
1160.738434	0.070835
1160.892313	0.069070
1161.046175	0.070474
1161.200019	0.069702
1161.353844	0.061603
1161.507651	0.058960
1161.661440	0.051683
1161.815210	0.040939
1161.968962	0.039465
1162.122697	0.031837
1162.276412	0.034284
1162.430110	0.036604
1162.583789	0.034809
1162.737451	0.031677
1162.891094	0.028242
1163.044718	0.025595
1163.198325	0.033372
1163.351913	0.035632
1163.505483	0.043790
1163.659035	0.041295
1163.812569	0.037673
1163.966084	0.034570
1164.119581	0.038970
1164.273060	0.042242
1164.426521	0.047057
1164.579964	0.043466
1164.733388	0.048220
1164.886794	0.048076
1165.040182	0.048709
1165.193551	0.050619
1165.346903	0.056697
1165.500236	0.060254
1165.653551	0.064370
1165.806848	0.065276
1165.960126	0.057658
1166.113386	0.054888
1166.266628	0.053547
1166.419852	0.057815
1166.573058	0.052646
1166.726245	0.056041
1166.879414	0.059281
1167.032565	0.056384
1167.185698	0.053017
1167.338812	0.062405
1167.491909	0.063451
1167.644987	0.055352
1167.798046	0.041767
1167.951088	0.045424
1168.104111	0.043998
1168.257117	0.040045
1168.410103	0.031764
1168.563072	0.036319
1168.716023	0.037830
1168.868955	0.028590
1169.021869	0.033459
1169.174765	0.047484
1169.327642	0.050611
1169.480501	0.045827
1169.633343	0.044248
1169.786165	0.053039
1169.938970	0.050514
1170.091757	0.041550
1170.244525	0.048897
1170.397275	0.050902
1170.550007	0.044538
1170.702720	0.044014
1170.855415	0.046856
1171.008092	0.047920
1171.160751	0.044178
1171.313392	0.042463
1171.466014	0.064173
1171.618619	0.025634
1171.771205	0.025634
1171.923772	0.025634
