sample name	sample
index	1460
start time	 05-10-2021  01:51:43 PM
880	0.261547
Peak Time (s)	92.535
Peak Height 	0.2615
calc peak height	90,93
Baseline Time (s)	10.035
Baseline Value 	-0.004679
subtract baseline	10,4
Abs	0.173846
Peak Time (s)	92.535
Peak Height 	0.1738
calc peak height	90,93
Baseline Time (s)	8.537
Baseline Value 	0.003242
subtract baseline	10,3
PK_550	0.100508
Peak Time (s)	90.037
Peak Height 	0.1005
calc peak height	90,93
Baseline Time (s)	10.035
Baseline Value 	5.9231E-4
subtract baseline	10,2
PK_880	0.163090
Peak Time (s)	92.035
Peak Height 	0.1631
calc peak height	90,93
Baseline Time (s)	10.536
Baseline Value 	0.001576
subtract baseline	10,1


Time (s)	A880-A510	A880-A775	A880-A975	A880	I510	I775	I975	I880	
0.034500	-0.000007	-0.000236	-0.005114	0.001718	6480.090869	43973.876435	3936.406170	22620.126767
0.537500	-0.001532	-0.000369	-0.000965	0.004141	6447.237707	43733.053166	3940.870475	22510.157559
1.035000	-0.003761	-0.000607	-0.004336	0.006637	6408.317978	43477.074093	3925.765581	22397.526210
1.536500	0.001340	0.000576	-0.001637	0.001909	6489.758226	44032.616945	3944.919962	22611.424051
2.036000	0.000989	0.000511	0.000998	0.001752	6488.133231	44041.306095	3952.205122	22618.546754
2.536500	0.000546	-0.000352	0.000052	0.001028	6490.484480	44028.169611	3951.626894	22651.531846
3.036500	-0.000988	-0.000369	0.001436	0.006525	6432.028945	43509.755029	3940.913061	22402.566764
3.536500	0.000527	-0.000530	-0.001568	0.003118	6472.857126	43814.100275	3941.959814	22556.502420
4.037000	0.000168	-0.000971	-0.001886	0.000424	6492.379097	44026.678243	3948.139471	22679.065487
4.537000	0.000642	-0.000701	0.000981	0.000339	6497.075024	44060.401312	3955.868436	22682.970494
5.034500	0.002282	0.000022	-0.000226	0.000628	6508.435362	44101.420290	3951.946210	22669.779088
5.535500	0.002596	-0.000258	-0.002109	0.000378	6513.188208	44098.639557	3947.679657	22681.176635
6.035500	-0.001463	-0.000776	-0.003482	0.000341	6479.418371	44053.018282	3944.198843	22682.845931
6.538000	-0.000356	-0.001108	-0.000351	-0.000197	6493.199920	44072.535176	3953.778168	22707.447370
7.038500	0.000621	-0.000249	-0.000870	-0.000597	6504.762584	44191.929625	3953.467047	22725.732213
7.536000	-0.001026	-0.000627	-0.000603	-0.000527	6490.348261	44149.453411	3953.983580	22722.533679
8.036500	0.002861	0.000418	0.001822	0.000240	6516.587707	44175.779497	3958.338939	22687.467455
8.536500	-0.000872	-0.000802	0.000000	-0.000565	6491.954876	44136.434079	3955.665727	22724.281666
9.037000	-0.001170	0.000168	0.000014	0.000012	6484.625527	44173.801431	3954.189147	22697.901346
9.537000	-0.000521	0.000403	-0.000622	0.000466	6486.251856	44152.877032	3951.332677	22677.142400
10.035000	0.002782	0.000000	0.000291	0.000000	6517.945599	44158.913751	3954.945279	22698.433681
10.535500	0.000000	-0.000324	0.000140	-0.000601	6499.579094	44185.227697	3956.128915	22725.924008
11.035000	0.001075	0.000053	-0.003979	0.000468	6499.623710	44119.549070	3942.578304	22677.056973
11.538500	0.001131	-0.000322	-0.001289	-0.000073	6504.652206	44135.323609	3950.998489	22701.779217
12.036000	0.002246	-0.000393	0.000512	-0.000695	6519.291288	44187.642894	3957.351850	22730.216511
12.536500	-0.000635	-0.000661	-0.002049	-0.000730	6495.322951	44165.470970	3950.728387	22731.792826
13.036500	0.001465	-0.000128	0.002337	-0.000070	6507.431481	44153.407840	3960.512229	22701.635705
13.538000	-0.001816	-0.000275	-0.005941	0.004926	6438.401697	43668.305197	3926.038092	22474.683952
14.036500	-0.002044	0.000030	-0.002772	0.002441	6457.090246	43930.708938	3940.593230	22587.237152
14.540500	-0.001041	-0.000023	-0.003354	0.002000	6469.101540	43967.391910	3940.227042	22607.280957
15.035000	-0.003116	-0.000855	-0.003990	0.002112	6450.928815	43878.356419	3938.293952	22602.204581
15.535500	-0.000584	-0.000381	-0.002274	0.003608	6459.522526	43782.046206	3938.860750	22534.270488
16.038000	0.001576	0.000011	0.001053	0.000162	6506.410109	44144.597748	3956.520064	22691.031472
16.535000	-0.002290	-0.000173	-0.002262	-0.000240	6477.367920	44165.204036	3948.891919	22709.390131
17.036000	0.002938	-0.000784	-0.005126	-0.000330	6522.058408	44115.824550	3941.674014	22713.520471
17.536000	0.000691	-0.000362	-0.001074	0.001794	6485.283994	43954.813975	3946.685958	22616.640905
18.036500	-0.000316	-0.000469	-0.001360	0.001368	6480.422647	43984.887269	3947.048393	22636.020381
18.537000	0.000271	-0.000481	-0.004142	0.001607	6483.337202	43961.222328	3939.205008	22625.146623
19.034500	-0.003750	-0.000065	-0.005474	0.001863	6447.733768	43976.362732	3935.101418	22613.505993
19.535000	-0.001413	0.000336	-0.004496	0.003936	6449.919499	43818.639804	3932.282973	22519.430545
20.035000	-0.001121	-0.000312	0.001157	0.001747	6470.542538	43963.932236	3952.634950	22618.779969
20.535500	0.001471	-0.000583	0.000869	0.001541	6493.944703	43957.888869	3952.421947	22628.173401
21.035500	0.000572	-0.000101	0.000570	0.002113	6481.621543	43949.287520	3950.142052	22602.128778
21.535500	-0.000229	-0.000820	-0.003601	0.001952	6476.278365	43896.657777	3939.713727	22609.475462
22.036000	0.000514	-0.000325	-0.002046	0.001876	6483.123856	43950.633428	3943.944596	22612.938311
22.536500	-0.000020	-0.000074	-0.002319	0.002318	6474.961382	43932.463046	3942.084235	22592.801855
23.037000	0.000772	-0.000268	0.000472	0.001543	6488.061688	43987.351172	3951.377760	22628.065436
23.537000	-0.001787	0.000080	-0.002758	0.002602	6457.883993	43920.277747	3940.210946	22579.916971
24.034500	-0.001445	0.000331	-0.004330	0.002091	6464.977812	43992.222032	3937.466968	22603.130011
24.535000	0.000556	0.000132	-0.003157	0.002380	6479.262388	43946.124478	3939.753094	22590.015280
25.035000	0.000798	-0.000147	0.003714	0.001808	6486.070478	43973.796088	3959.193121	22616.021425
25.535500	-0.000494	0.000492	0.001004	0.001766	6475.610659	44038.135875	3952.185430	22617.910998
26.036000	-0.000328	-0.000414	0.000134	0.001338	6480.579420	43992.984342	3951.028923	22637.407848
26.536000	0.001677	0.000335	-0.000357	0.002096	6491.014436	43992.114237	3947.766741	22602.903654
27.036500	0.000644	0.000229	0.000406	0.001891	6484.084604	44001.463798	3950.296150	22612.247839
27.537000	0.002422	0.000002	-0.000118	-0.000436	6518.596901	44200.552069	3955.016510	22718.381649
28.037000	0.003080	0.000442	-0.001915	0.000010	6520.379065	44199.919380	3949.143395	22697.963700
28.536500	0.002529	-0.000533	-0.000226	-0.000705	6521.767936	44175.268940	3955.437317	22730.663809
29.035000	0.000152	-0.000354	-0.000196	0.000086	6495.077441	44117.180309	3953.442017	22694.490082
29.535000	-0.000936	0.000189	-0.002576	0.004666	6447.824926	43736.154409	3935.347626	22486.410076
30.035000	0.002003	-0.000436	0.001388	-0.000443	6515.115285	44159.559477	3958.993269	22718.694730
30.536500	0.000593	0.000288	-0.000043	-0.000203	6501.212686	44205.541545	3954.602002	22707.710517
31.036000	0.002353	0.000825	-0.001569	0.003166	6487.713605	43937.308564	3941.831640	22554.324495
31.536500	-0.001000	-0.001083	-0.000047	0.004301	6450.321042	43651.075416	3942.836614	22502.925662
32.036500	0.000731	0.000555	0.002566	-0.000129	6501.757216	44223.881906	3961.270995	22704.328551
32.536500	0.003042	-0.000881	-0.002253	-0.000723	6526.256595	44143.899526	3950.174586	22731.476621
33.037500	-0.001210	-0.000248	0.003668	-0.000104	6485.263440	44145.261272	3964.117017	22703.198815
33.540000	0.000095	-0.000286	-0.002781	0.003671	6464.648208	43785.067047	3937.385512	22531.425676
34.035000	0.000552	-0.001016	-0.002701	-0.000134	6500.292157	44075.296207	3947.471163	22704.560505
34.535000	-0.001234	-0.000706	0.001450	0.001094	6475.049082	43988.494546	3955.116883	22648.532418
35.040500	0.000973	-0.000434	0.003079	0.001305	6491.738467	43994.206818	3958.842184	22638.891366
35.536000	-0.001233	-0.000234	0.001140	0.001621	6470.656473	43983.144129	3952.920303	22624.497997
36.036000	-0.002593	-0.000593	0.003229	0.000797	6466.198201	44027.187316	3960.578192	22662.056579
36.536500	0.001290	-0.000182	0.002658	0.001270	6494.697687	44021.369483	3957.827518	22640.514096
37.039500	0.000523	-0.000842	0.001781	0.000740	6492.710677	44009.076701	3956.916686	22664.672117
37.536500	0.000609	-0.000777	0.001882	0.001401	6487.893205	43952.747634	3955.445356	22634.552084
38.040000	-0.000230	0.000044	-0.005348	0.001493	6480.104358	44021.672653	3936.381898	22630.358696
38.537000	-0.000875	0.000333	0.000910	0.001594	6473.866392	44039.387666	3952.389052	22625.732475
39.035000	0.001234	-0.000982	0.001398	0.001458	6492.651436	43927.992787	3954.025582	22631.959284
39.535500	-0.000157	-0.000376	0.002263	0.001393	6481.548122	43991.388805	3956.467166	22634.912000
40.036000	0.000406	-0.000546	0.001972	0.001428	6485.964249	43971.963189	3955.609145	22633.284184
40.536000	0.000698	0.000609	0.001193	0.002254	6481.495008	44003.054428	3951.401118	22595.717842
41.036500	0.000571	-0.000562	0.000008	0.001495	6486.781564	43964.110160	3950.289540	22630.246644
41.536500	0.001085	0.000064	-0.003126	0.001487	6491.154558	44024.045442	3942.147719	22630.601145
42.036500	-0.000839	0.000075	-0.002115	0.001899	6471.630808	43986.144407	3943.704463	22611.882149
42.540000	-0.000121	0.000116	-0.003573	0.002041	6476.434495	43976.533553	3939.551969	22605.395142
43.040500	0.000431	-0.001247	-0.003637	0.001284	6487.378715	43919.396418	3941.347709	22639.840922
43.535000	0.000233	0.000516	0.002993	0.002079	6479.071128	44010.777598	3956.580019	22603.672963
44.041000	0.002949	0.000253	0.002350	-0.002309	6538.914694	44402.823212	3966.466111	22804.197830
44.535000	0.003756	0.000674	0.002740	-0.000171	6527.631188	44239.128347	3961.841924	22706.235033
45.036000	0.002231	-0.001155	-0.000122	-0.000793	6519.996643	44124.571176	3955.943264	22734.715641
45.536000	-0.001742	-0.000531	0.002841	0.002593	6458.329460	43863.427027	3954.831152	22580.307896
46.036000	0.003213	-0.000145	0.001033	-0.000214	6523.396439	44165.407633	3957.456889	22708.206940
46.537000	0.001384	-0.000138	0.002802	0.000278	6503.821403	44119.433676	3960.818996	22685.725914
47.040000	0.000615	-0.000333	0.001594	0.000226	6497.789471	44105.831296	3957.774173	22688.092022
47.536500	-0.002525	-0.000080	-0.005428	0.003962	6440.506645	43777.108256	3929.822299	22518.264257
48.037500	0.000064	-0.000659	-0.002092	0.001829	6479.748715	43923.521777	3943.945870	22615.067325
48.535000	0.001417	-0.000174	-0.001511	0.000392	6503.138479	44105.186210	3949.201835	22680.523946
49.036500	0.002257	-0.000267	0.001229	0.000507	6509.239781	44085.476962	3956.074898	22675.264168
49.536000	-0.001638	-0.000753	-0.000963	0.005713	6433.366729	43549.741540	3936.809850	22439.160447
50.036000	0.001733	0.000131	0.003317	-0.002324	6528.738826	44392.659632	3969.073136	22804.904724
50.536000	0.003194	0.001367	0.000480	0.002047	6504.169090	44094.483289	3950.082096	22605.160032
51.036500	-0.000552	-0.010437	0.010145	0.004243	6454.520513	42788.904745	3969.765784	22505.543399
51.536500	0.003252	-0.023540	0.018880	0.187415	5235.082663	28299.601997	3587.870575	15744.666612
52.036500	-0.011279	-0.039209	-0.035034	-0.165079	8043.115737	58016.449991	4351.781575	31873.342875
52.537000	-0.021444	-0.100537	-0.036853	-0.281810	9487.226220	65510.476600	4817.195809	40820.766092
53.034500	-0.013118	-0.077573	-0.028377	-0.251907	9165.555161	64518.698955	4720.823848	38294.851435
53.535000	-0.013793	-0.042124	-0.010337	-0.176369	8149.108972	59088.892070	4484.527248	32637.530911
54.035500	-0.003675	-0.021801	-0.003263	-0.117554	7587.060013	54326.527652	4297.039154	28865.755822
54.536000	-0.000849	-0.022309	-0.012692	-0.139182	7861.429248	56887.251822	4339.251638	30193.731674
55.036000	-0.009003	-0.026389	-0.011785	-0.156969	7973.820679	58617.036929	4406.284398	31336.532420
55.537000	0.002642	-0.032518	-0.003989	-0.178820	8384.614210	60669.555965	4518.685890	32806.024993
56.036000	0.013289	-0.019377	0.012759	-0.143287	8076.412142	57768.550359	4446.580628	30453.363801
56.536500	0.023517	-0.004582	0.027784	-0.054850	7215.164966	49216.911416	4192.872351	25369.269343
57.037000	0.027823	0.002423	0.037502	0.009674	6650.045766	43476.489525	4029.547949	22261.389864
57.537500	0.038949	0.010412	0.049373	0.052202	6385.003068	40377.467500	3946.785436	20451.404194
58.035000	0.054490	0.020966	0.067643	0.078722	6296.771579	39026.132987	3925.494137	19409.243548
58.535500	0.064585	0.028346	0.072278	0.109449	6136.863743	37137.401889	3860.756678	18278.691761
59.035500	0.076244	0.033627	0.083301	0.127505	6088.816790	36146.179900	3843.963337	17650.751404
59.536000	0.088462	0.040069	0.092740	0.144222	6055.440145	35369.715527	3826.866622	17092.155047
60.039000	0.093100	0.041972	0.109370	0.193404	5743.005898	32024.702208	3753.817477	15568.169070
60.536500	0.098828	0.049714	0.110610	0.189324	5809.080908	32827.342941	3765.385784	15688.149204
61.036500	0.108913	0.055712	0.121416	0.200965	5798.498852	32441.490566	3763.560367	15348.819418
61.536500	0.114520	0.058174	0.125327	0.182796	5964.392572	33876.708530	3813.017662	15882.436158
62.034500	0.120462	0.062647	0.132467	0.187577	5972.728766	33854.838805	3818.453513	15739.857172
62.537500	0.122714	0.068874	0.132627	0.240262	5630.400033	30718.450581	3704.173327	14268.228903
63.034500	0.124305	0.073564	0.139554	0.235117	5673.861882	31354.741658	3729.229586	14404.212710
63.535500	0.127846	0.074477	0.140346	0.228728	5739.158264	31836.505201	3744.466630	14575.309911
64.035500	0.127872	0.076759	0.137117	0.226957	5751.138381	32107.454408	3741.352676	14623.195832
64.538000	0.134245	0.080551	0.145399	0.226240	5798.882262	32411.863485	3760.741991	14642.627709
65.036500	0.135001	0.081624	0.144299	0.223993	5819.341462	32638.052568	3763.243307	14703.763577
65.536500	0.137874	0.082385	0.146149	0.221902	5853.470153	32833.673528	3771.884602	14760.929703
66.037000	0.138279	0.083369	0.143625	0.220126	5868.592548	33024.309133	3770.239275	14809.723761
66.537000	0.143032	0.083897	0.140867	0.218257	5914.966876	33190.824098	3768.284704	14861.260630
67.034500	0.143508	0.087043	0.153620	0.219093	5912.421007	33352.080951	3794.796508	14838.163309
67.534500	0.146437	0.087023	0.144326	0.222281	5910.596452	33128.268906	3767.046448	14750.552788
68.035500	0.148529	0.088319	0.149833	0.216673	5965.344130	33612.095661	3791.719306	14905.120771
68.535500	0.148452	0.090808	0.151528	0.220026	5940.836944	33551.080617	3787.998825	14812.466328
69.038500	0.152312	0.092277	0.151702	0.217273	5988.250827	33850.118386	3794.576895	14888.470092
69.535500	0.150971	0.093479	0.151813	0.221432	5948.766457	33640.393277	3785.491794	14773.829358
70.036500	0.153702	0.094598	0.153665	0.219178	5984.532198	33879.744880	3794.707479	14835.826346
70.536500	0.151676	0.094256	0.151604	0.223215	5941.088186	33569.327336	3781.052811	14725.011149
71.039500	0.154119	0.093124	0.150458	0.220554	5977.619610	33677.320843	3784.425281	14797.927102
71.537000	0.157105	0.095830	0.152944	0.223843	5975.444502	33636.177719	3782.636753	14707.862755
72.037500	0.156652	0.095874	0.154210	0.225496	5960.321167	33522.662774	3781.774756	14662.850311
72.535000	0.152857	0.096234	0.158337	0.230140	5900.476711	33222.460318	3780.624325	14537.291184
73.035500	0.157494	0.097299	0.158868	0.228788	5942.825437	33391.413790	3784.818685	14573.692145
73.536000	0.157634	0.098471	0.163307	0.231074	5927.583374	33313.459190	3789.639108	14512.204962
74.036000	0.158712	0.098813	0.159114	0.230672	5938.093886	33365.537725	3781.169193	14523.000449
74.536500	0.157119	0.099276	0.163307	0.234639	5898.810708	33120.954706	3781.671370	14416.918712
75.036500	0.159917	0.098552	0.162913	0.232668	5932.471155	33207.852480	3785.188625	14469.515319
75.537000	0.159224	0.099346	0.162410	0.237645	5892.497148	32917.673931	3773.026323	14337.212866
76.042500	0.161709	0.099564	0.161318	0.234172	5934.514836	33173.466729	3778.289433	14429.353892
76.537500	0.157175	0.097786	0.160746	0.237903	5876.378134	32792.476388	3768.798311	14330.389589
77.035000	0.162288	0.100013	0.164356	0.236383	5922.943179	33051.089891	3780.126796	14370.598032
77.535000	0.159161	0.099627	0.160516	0.237160	5895.450143	32970.615540	3769.923041	14350.028927
78.035500	0.162013	0.100275	0.167218	0.237604	5912.388299	32984.715220	3783.781176	14338.297364
78.535500	0.159420	0.099580	0.163415	0.242841	5857.668537	32577.086834	3763.826182	14200.673078
79.036000	0.162306	0.099862	0.172097	0.238287	5909.634716	32909.022904	3793.183561	14320.255933
79.536500	0.163966	0.101957	0.169099	0.239642	5911.780525	32960.067692	3783.428276	14284.526495
80.037000	0.163863	0.101124	0.165265	0.239823	5909.782497	32890.062654	3774.520409	14279.782449
80.537000	0.163606	0.102087	0.166382	0.241496	5896.214986	32841.163988	3773.293721	14235.865186
81.037500	0.165542	0.102748	0.172860	0.242238	5904.604195	32835.606697	3786.031463	14216.450066
81.534500	0.165122	0.101115	0.168289	0.241824	5904.559332	32751.760434	3776.782797	14227.282221
82.035000	0.163651	0.102962	0.167265	0.243805	5880.379774	32742.556791	3770.152880	14175.532231
82.535500	0.160411	0.101487	0.166713	0.249026	5821.917915	32286.570636	3757.543380	14040.286747
83.036000	0.165355	0.102731	0.167357	0.245525	5880.270285	32609.022818	3766.580316	14130.805975
83.535500	0.162343	0.101840	0.172010	0.249865	5829.409966	32253.797854	3767.265752	14018.721885
84.036500	0.166424	0.102407	0.164783	0.246026	5884.237932	32552.727864	3759.867601	14117.815326
84.536500	0.161078	0.101467	0.166723	0.252104	5805.462727	32077.998239	3750.908711	13961.314754
85.037000	0.165322	0.103246	0.168400	0.249009	5855.830888	32406.888419	3761.248162	14040.740002
85.537000	0.162003	0.102207	0.170255	0.252199	5811.117326	32121.274136	3758.343459	13958.891097
86.034500	0.165763	0.101847	0.164792	0.249000	5858.945449	32312.684355	3753.440840	14040.966481
86.537500	0.159452	0.101143	0.170467	0.254632	5777.341264	31887.298017	3753.534895	13896.893421
87.035500	0.163509	0.102260	0.167913	0.251047	5829.300872	32202.387512	3755.763700	13988.388342
87.535500	0.160110	0.099303	0.164132	0.253846	5787.091379	31817.156582	3741.622330	13916.887833
88.035500	0.165888	0.100476	0.169734	0.250959	5846.266203	32088.300614	3759.906745	13990.628085
88.536000	0.162079	0.101065	0.168206	0.257626	5774.866345	31683.252294	3742.249015	13821.057899
89.036500	0.161767	0.100708	0.167723	0.252324	5808.657823	32012.422316	3752.592579	13955.700293
89.536000	0.163331	0.099557	0.170570	0.252487	5818.215196	31924.564898	3758.401314	13951.528260
90.037000	0.161510	0.100508	0.168884	0.253298	5800.282250	31933.886315	3752.995072	13930.830383
90.537500	0.160400	0.099167	0.173139	0.259538	5750.780466	31432.145894	3748.719809	13772.882840
91.037500	0.162991	0.099141	0.168219	0.254208	5804.172277	31782.289791	3749.600809	13907.672029
91.535000	0.160770	0.097444	0.166433	0.253621	5793.078548	31708.659843	3747.025492	13922.606609
92.035000	0.163090	0.097366	0.170176	0.254510	5802.788642	31644.646023	3753.168552	13899.975992
92.535500	0.161731	0.096868	0.173846	0.261547	5746.262656	31150.965578	3745.925170	13722.527329
93.036000	0.161207	0.096561	0.170329	0.255411	5783.923161	31532.131408	3751.555760	13877.104065
93.536000	0.163309	0.095817	0.169385	0.255720	5796.054073	31462.911917	3748.855418	13869.253113
94.039000	0.161868	0.097202	0.174069	0.257321	5775.495611	31448.712389	3755.508334	13828.742479
94.536500	0.159887	0.096028	0.171661	0.263050	5724.029643	30999.144126	3738.055861	13684.977499
95.036500	0.159564	0.094759	0.173277	0.256952	5762.491949	31312.882110	3754.592768	13838.068555
95.540000	0.160498	0.095199	0.170119	0.258276	5759.879625	31255.223157	3744.947617	13804.641909
96.037500	0.163468	0.096368	0.173876	0.259632	5770.710946	31242.984098	3750.101420	13770.515647
96.535000	0.161656	0.095157	0.175267	0.259256	5761.070072	31188.655400	3753.913495	13779.971914
