sample name	sample
index	975
start time	 04-14-2021  02:44:23 PM


Wavelength (nm)	Absorbance
494.344910	-0.091143
494.563924	-0.091143
494.782919	-0.091143
495.001897	-0.110739
495.220856	-0.058283
495.439797	-0.052628
495.658719	-0.042520
495.877624	-0.039386
496.096510	-0.020691
496.315378	-0.011509
496.534227	-0.010617
496.753059	-0.003247
496.971872	0.026300
497.190667	0.137699
497.409444	0.175213
497.628203	0.184689
497.846943	0.189193
498.065665	0.191613
498.284369	0.194426
498.503055	0.195678
498.721723	0.198047
498.940372	0.200374
499.159003	0.200608
499.377616	0.201982
499.596210	0.201857
499.814787	0.202733
500.033345	0.203801
500.251885	0.202808
500.470406	0.204946
500.688910	0.204319
500.907395	0.204138
501.125862	0.204997
501.344311	0.203334
501.562742	0.204674
501.781154	0.205114
501.999548	0.205723
502.217924	0.207162
502.436282	0.204998
502.654621	0.206659
502.872942	0.206017
503.091245	0.205753
503.309530	0.206936
503.527797	0.206509
503.746045	0.207028
503.964275	0.206137
504.182487	0.205833
504.400681	0.207472
504.618856	0.206229
504.837013	0.206139
505.055152	0.205502
505.273273	0.206432
505.491376	0.207154
505.709460	0.206724
505.927526	0.206503
506.145574	0.206531
506.363604	0.205663
506.581615	0.206075
506.799608	0.206985
507.017583	0.208530
507.235540	0.207748
507.453478	0.209016
507.671399	0.209501
507.889301	0.210726
508.107185	0.211165
508.325050	0.212497
508.542898	0.213851
508.760727	0.213469
508.978538	0.212447
509.196330	0.211942
509.414105	0.210757
509.631861	0.211145
509.849599	0.211141
510.067319	0.211874
510.285021	0.212389
510.502704	0.212022
510.720369	0.212455
510.938016	0.213039
511.155645	0.213145
511.373255	0.213451
511.590848	0.214143
511.808422	0.214903
512.025977	0.215105
512.243515	0.214505
512.461034	0.214975
512.678536	0.214638
512.896018	0.215756
513.113483	0.216425
513.330930	0.216695
513.548358	0.216705
513.765768	0.216438
513.983160	0.215208
514.200533	0.215594
514.417889	0.215043
514.635226	0.215460
514.852545	0.214655
515.069845	0.214225
515.287128	0.214376
515.504392	0.214880
515.721638	0.214802
515.938866	0.215784
516.156075	0.215248
516.373267	0.216063
516.590440	0.216517
516.807594	0.217255
517.024731	0.218404
517.241850	0.218810
517.458950	0.218639
517.676032	0.219030
517.893095	0.219129
518.110141	0.220018
518.327168	0.220596
518.544177	0.220996
518.761168	0.220705
518.978141	0.220785
519.195095	0.221475
519.412031	0.220864
519.628949	0.220521
519.845849	0.221225
520.062731	0.222334
520.279594	0.222097
520.496439	0.222362
520.713266	0.222806
520.930074	0.222344
521.146865	0.221766
521.363637	0.222383
521.580391	0.223203
521.797127	0.222795
522.013844	0.222386
522.230543	0.222814
522.447224	0.223300
522.663887	0.224092
522.880532	0.225222
523.097158	0.226174
523.313766	0.226951
523.530356	0.228376
523.746928	0.229739
523.963481	0.230217
524.180017	0.230137
524.396534	0.230433
524.613032	0.230469
524.829513	0.231032
525.045975	0.231259
525.262420	0.231046
525.478845	0.230508
525.695253	0.231216
525.911643	0.231136
526.128014	0.231668
526.344367	0.231775
526.560702	0.231543
526.777018	0.231493
526.993316	0.231335
527.209597	0.232130
527.425858	0.232122
527.642102	0.231078
527.858328	0.232032
528.074535	0.231741
528.290724	0.231909
528.506894	0.233542
528.723047	0.234040
528.939181	0.234450
529.155297	0.234949
529.371395	0.235683
529.587475	0.236622
529.803536	0.237174
530.019579	0.238086
530.235604	0.238622
530.451611	0.238412
530.667600	0.238969
530.883570	0.240091
531.099522	0.240230
531.315456	0.240947
531.531372	0.241403
531.747269	0.241611
531.963148	0.241557
532.179009	0.241749
532.394852	0.242325
532.610676	0.243057
532.826482	0.243198
533.042271	0.243571
533.258040	0.243831
533.473792	0.243354
533.689525	0.243791
533.905240	0.244796
534.120937	0.245300
534.336616	0.244898
534.552277	0.244780
534.767919	0.244778
534.983543	0.244927
535.199149	0.245572
535.414736	0.246015
535.630306	0.246303
535.845857	0.246397
536.061390	0.246923
536.276904	0.247952
536.492401	0.248168
536.707879	0.249188
536.923339	0.250015
537.138781	0.249478
537.354204	0.250132
537.569610	0.249932
537.784997	0.250208
538.000366	0.250635
538.215716	0.251008
538.431049	0.251977
538.646363	0.251618
538.861659	0.251530
539.076937	0.252228
539.292196	0.252783
539.507438	0.252762
539.722661	0.253619
539.937866	0.254018
540.153052	0.253517
540.368221	0.252940
540.583371	0.253401
540.798503	0.253903
541.013617	0.254122
541.228712	0.254651
541.443789	0.255429
541.658848	0.255139
541.873889	0.255181
542.088912	0.256289
542.303916	0.256812
542.518902	0.257361
542.733870	0.257749
542.948820	0.257702
543.163752	0.257073
543.378665	0.257390
543.593560	0.257610
543.808437	0.258385
544.023295	0.258709
544.238136	0.259204
544.452958	0.259257
544.667762	0.259668
544.882548	0.261112
545.097315	0.262041
545.312064	0.262635
545.526795	0.263350
545.741508	0.263533
545.956203	0.263690
546.170879	0.263755
546.385537	0.264300
546.600177	0.264554
546.814799	0.264292
547.029402	0.264341
547.243988	0.264597
547.458555	0.264375
547.673103	0.264230
547.887634	0.264661
548.102146	0.265205
548.316640	0.265109
548.531116	0.265448
548.745574	0.265705
548.960013	0.266290
549.174435	0.266672
549.388838	0.267639
549.603222	0.268167
549.817589	0.268236
550.031937	0.268424
550.246267	0.268957
550.460579	0.269154
550.674873	0.269360
550.889148	0.269449
551.103405	0.269754
551.317644	0.270130
551.531865	0.270068
551.746068	0.270529
551.960252	0.270680
552.174418	0.270680
552.388566	0.271127
552.602696	0.271040
552.816807	0.271751
553.030900	0.271576
553.244975	0.271708
553.459032	0.272214
553.673070	0.272422
553.887091	0.272764
554.101093	0.273005
554.315077	0.272772
554.529042	0.273613
554.742990	0.273666
554.956919	0.274314
555.170830	0.274350
555.384722	0.274696
555.598597	0.274905
555.812453	0.275727
556.026291	0.276162
556.240111	0.276612
556.453913	0.276661
556.667696	0.277152
556.881461	0.277166
557.095208	0.277961
557.308937	0.278203
557.522647	0.278608
557.736339	0.278617
557.950013	0.278933
558.163669	0.279225
558.377307	0.278962
558.590926	0.278832
558.804527	0.278842
559.018110	0.278855
559.231675	0.278835
559.445221	0.278936
559.658749	0.279004
559.872259	0.279313
560.085751	0.279676
560.299225	0.280686
560.512680	0.281039
560.726117	0.282128
560.939536	0.282096
561.152937	0.282974
561.366319	0.282891
561.579683	0.282588
561.793029	0.282827
562.006357	0.282931
562.219667	0.282510
562.432958	0.282669
562.646231	0.282349
562.859486	0.282550
563.072723	0.282666
563.285941	0.282757
563.499141	0.283460
563.712323	0.283155
563.925487	0.283307
564.138632	0.283717
564.351760	0.283863
564.564869	0.283376
564.777960	0.283350
564.991032	0.283141
565.204087	0.283648
565.417123	0.283474
565.630141	0.284116
565.843140	0.284782
566.056122	0.285144
566.269085	0.285243
566.482030	0.285679
566.694957	0.286042
566.907866	0.285790
567.120756	0.285571
567.333628	0.286319
567.546482	0.286196
567.759318	0.286275
567.972135	0.286301
568.184935	0.286647
568.397716	0.287021
568.610478	0.287038
568.823223	0.287992
569.035949	0.288304
569.248657	0.288034
569.461347	0.288132
569.674019	0.288130
569.886672	0.288424
570.099308	0.288608
570.311925	0.288826
570.524523	0.288971
570.737104	0.288987
570.949666	0.289577
571.162210	0.289604
571.374736	0.290204
571.587244	0.290301
571.799733	0.289936
572.012205	0.290062
572.224658	0.289640
572.437092	0.289966
572.649509	0.289798
572.861907	0.289740
573.074287	0.289933
573.286649	0.290160
573.498993	0.289994
573.711318	0.290483
573.923625	0.290967
574.135914	0.292039
574.348185	0.292495
574.560438	0.293168
574.772672	0.293845
574.984888	0.294323
575.197086	0.294285
575.409266	0.294422
575.621427	0.295120
575.833570	0.294936
576.045695	0.295010
576.257802	0.294774
576.469890	0.294851
576.681961	0.294422
576.894013	0.294867
577.106046	0.294845
577.318062	0.295613
577.530059	0.295511
577.742039	0.295757
577.954000	0.295528
578.165942	0.295673
578.377867	0.295781
578.589773	0.295756
578.801661	0.295840
579.013531	0.296346
579.225382	0.296089
579.437216	0.296099
579.649031	0.296413
579.860828	0.297039
580.072606	0.297194
580.284367	0.297356
580.496109	0.297843
580.707833	0.297832
580.919539	0.297978
581.131227	0.298332
581.342896	0.298565
581.554547	0.298588
581.766180	0.298402
581.977795	0.298264
582.189391	0.298550
582.400969	0.298431
582.612529	0.298204
582.824071	0.298501
583.035595	0.298425
583.247100	0.298587
583.458587	0.299013
583.670056	0.299435
583.881506	0.300015
584.092939	0.299740
584.304353	0.300188
584.515749	0.300777
584.727127	0.301145
584.938486	0.301401
585.149828	0.301956
585.361151	0.301954
585.572456	0.302314
585.783742	0.302601
585.995011	0.303698
586.206261	0.304058
586.417493	0.304317
586.628706	0.304163
586.839902	0.304534
587.051079	0.304759
587.262238	0.304732
587.473379	0.304918
587.684502	0.305478
587.895606	0.305122
588.106692	0.305324
588.317760	0.305607
588.528810	0.305984
588.739841	0.306502
588.950855	0.306001
589.161850	0.306561
589.372827	0.306325
589.583785	0.306614
589.794726	0.307047
590.005648	0.307205
590.216552	0.307555
590.427437	0.307931
590.638305	0.307831
590.849154	0.308695
591.059985	0.308651
591.270798	0.309106
591.481592	0.308713
591.692369	0.308713
591.903127	0.308982
592.113867	0.308853
592.324588	0.308581
592.535292	0.309047
592.745977	0.308971
592.956644	0.309203
593.167293	0.309176
593.377923	0.309477
593.588536	0.309651
593.799130	0.310075
594.009706	0.310819
594.220263	0.311029
594.430803	0.310978
594.641324	0.311003
594.851827	0.311350
595.062312	0.311589
595.272778	0.312122
595.483227	0.312066
595.693657	0.311933
595.904069	0.311391
596.114462	0.311880
596.324838	0.311930
596.535195	0.312316
596.745534	0.312176
596.955855	0.312599
597.166157	0.312701
597.376441	0.313309
597.586707	0.313353
597.796955	0.313922
598.007185	0.313800
598.217396	0.313974
598.427589	0.314133
598.637764	0.314133
598.847921	0.314230
599.058060	0.314328
599.268180	0.314412
599.478282	0.314786
599.688366	0.314098
599.898431	0.314169
600.108479	0.314641
600.318508	0.314579
600.528519	0.314935
600.738511	0.315421
600.948486	0.315288
601.158442	0.315512
601.368380	0.315763
601.578300	0.316400
601.788202	0.316548
601.998085	0.316443
602.207950	0.316926
602.417797	0.317391
602.627626	0.317233
602.837436	0.317720
603.047228	0.317793
603.257002	0.317893
603.466758	0.318300
603.676496	0.318946
603.886215	0.319101
604.095916	0.319022
604.305599	0.318817
604.515264	0.319029
604.724910	0.319124
604.934538	0.319161
605.144148	0.318900
605.353740	0.318759
605.563314	0.318811
605.772869	0.318968
605.982406	0.319246
606.191925	0.319725
606.401425	0.320004
606.610908	0.320368
606.820372	0.320616
607.029818	0.321302
607.239246	0.321414
607.448655	0.321057
607.658047	0.321188
607.867420	0.321665
608.076775	0.321618
608.286111	0.321418
608.495430	0.321451
608.704730	0.321542
608.914012	0.321225
609.123275	0.321384
609.332521	0.321909
609.541748	0.321966
609.750957	0.321795
609.960148	0.322049
610.169321	0.322313
610.378475	0.322394
610.587611	0.322282
610.796729	0.322517
611.005829	0.322907
611.214910	0.322922
611.423974	0.323512
611.633019	0.323639
611.842045	0.323665
612.051054	0.324064
612.260044	0.323901
612.469017	0.324685
612.677970	0.325005
612.886906	0.325334
613.095824	0.325521
613.304723	0.325557
613.513604	0.325607
613.722467	0.325739
613.931311	0.325414
614.140138	0.325655
614.348946	0.325085
614.557736	0.325217
614.766507	0.325239
614.975261	0.325621
615.183996	0.325815
615.392713	0.326137
615.601412	0.326485
615.810092	0.327039
616.018754	0.327432
616.227399	0.327607
616.436024	0.327513
616.644632	0.327603
616.853222	0.327877
617.061793	0.328118
617.270346	0.328325
617.478880	0.328484
617.687397	0.328842
617.895895	0.329097
618.104375	0.329389
618.312837	0.329926
618.521281	0.330428
618.729706	0.330275
618.938113	0.330340
619.146502	0.330369
619.354873	0.330602
619.563226	0.330548
619.771560	0.330565
619.979876	0.330906
620.188174	0.330860
620.396453	0.330772
620.604715	0.331027
620.812958	0.331083
621.021183	0.330867
621.229390	0.330820
621.437578	0.331312
621.645748	0.331487
621.853900	0.331617
622.062034	0.331891
622.270150	0.331879
622.478247	0.331768
622.686326	0.331804
622.894387	0.332440
623.102430	0.332662
623.310454	0.332437
623.518461	0.332561
623.726449	0.332895
623.934418	0.333265
624.142370	0.333740
624.350303	0.334048
624.558218	0.333894
624.766115	0.333963
624.973994	0.334253
625.181855	0.334460
625.389697	0.334308
625.597521	0.334384
625.805327	0.334171
626.013114	0.333915
626.220883	0.334386
626.428634	0.335068
626.636367	0.335167
626.844082	0.335295
627.051778	0.335290
627.259457	0.335732
627.467117	0.336129
627.674758	0.336450
627.882382	0.337021
628.089987	0.337006
628.297574	0.336891
628.505143	0.337031
628.712694	0.337169
628.920226	0.337188
629.127740	0.337192
629.335236	0.337052
629.542714	0.337302
629.750174	0.337490
629.957615	0.337697
630.165038	0.337994
630.372443	0.338269
630.579829	0.338489
630.787198	0.338732
630.994548	0.339198
631.201880	0.339428
631.409194	0.339609
631.616489	0.339562
631.823766	0.339738
632.031025	0.339860
632.238266	0.340282
632.445489	0.340506
632.652693	0.340904
632.859879	0.340704
633.067047	0.341054
633.274197	0.341058
633.481329	0.341051
633.688442	0.341052
633.895537	0.341243
634.102614	0.340956
634.309672	0.341225
634.516713	0.341250
634.723735	0.341461
634.930739	0.341459
635.137724	0.341666
635.344692	0.341735
635.551641	0.341837
635.758572	0.341926
635.965485	0.342127
636.172379	0.342050
636.379256	0.342137
636.586114	0.342838
636.792954	0.342977
636.999775	0.343122
637.206579	0.343498
637.413364	0.344380
637.620131	0.344683
637.826880	0.345211
638.033610	0.345547
638.240323	0.345745
638.447017	0.345607
638.653692	0.345519
638.860350	0.345652
639.066990	0.346148
639.273611	0.345710
639.480214	0.345996
639.686798	0.346196
639.893365	0.346395
640.099913	0.346721
640.306443	0.346772
640.512955	0.347148
640.719449	0.347835
640.925924	0.347651
641.132381	0.347995
641.338820	0.348388
641.545241	0.348375
641.751644	0.348450
641.958028	0.348584
642.164394	0.349216
642.370742	0.349514
642.577071	0.349401
642.783383	0.350156
642.989676	0.350411
643.195951	0.350451
643.402207	0.350712
643.608446	0.350808
643.814666	0.351122
644.020868	0.351064
644.227052	0.351293
644.433218	0.351468
644.639365	0.351466
644.845494	0.351395
645.051605	0.351692
645.257698	0.352087
645.463772	0.352536
645.669828	0.352791
645.875866	0.352774
646.081886	0.352908
646.287888	0.353204
646.493871	0.353164
646.699836	0.353698
646.905783	0.353836
647.111712	0.353900
647.317622	0.354119
647.523514	0.354263
647.729388	0.354485
647.935244	0.354418
648.141082	0.354422
648.346901	0.354766
648.552702	0.354250
648.758485	0.354155
648.964250	0.354313
649.169996	0.354288
649.375724	0.354362
649.581434	0.354730
649.787126	0.355317
649.992800	0.355384
650.198455	0.355495
650.404092	0.356139
650.609711	0.356566
650.815311	0.356668
651.020894	0.356915
651.226458	0.357507
651.432004	0.357802
651.637532	0.358041
651.843041	0.358379
652.048532	0.358784
652.254006	0.359386
652.459460	0.360067
652.664897	0.360557
652.870315	0.360887
653.075716	0.361058
653.281097	0.361103
653.486461	0.361459
653.691807	0.361828
653.897134	0.362220
654.102443	0.362071
654.307734	0.362000
654.513006	0.361816
654.718261	0.362000
654.923497	0.362296
655.128715	0.362658
655.333915	0.362716
655.539096	0.362860
655.744259	0.362804
655.949404	0.363026
656.154531	0.363192
656.359640	0.363652
656.564730	0.363790
656.769802	0.363675
656.974856	0.363797
657.179892	0.364022
657.384909	0.364259
657.589908	0.364478
657.794889	0.364960
657.999852	0.365329
658.204797	0.365477
658.409723	0.365760
658.614631	0.365935
658.819521	0.366504
659.024393	0.366404
659.229246	0.366819
659.434081	0.367060
659.638898	0.367070
659.843697	0.366946
660.048478	0.367475
660.253240	0.367715
660.457984	0.368167
660.662710	0.368375
660.867417	0.369094
661.072107	0.369220
661.276778	0.369429
661.481431	0.369552
661.686066	0.369891
661.890682	0.369961
662.095281	0.370450
662.299861	0.370611
662.504422	0.370907
662.708966	0.371305
662.913491	0.371515
663.117999	0.371703
663.322488	0.372001
663.526958	0.372405
663.731411	0.372642
663.935845	0.372548
664.140261	0.372824
664.344659	0.373028
664.549038	0.373176
664.753400	0.373607
664.957743	0.373854
665.162068	0.373984
665.366375	0.374124
665.570663	0.374319
665.774933	0.374733
665.979185	0.374790
666.183419	0.374973
666.387635	0.375007
666.591832	0.374897
666.796011	0.375313
667.000172	0.375645
667.204315	0.375608
667.408439	0.375774
667.612545	0.375800
667.816634	0.376306
668.020703	0.376150
668.224755	0.376196
668.428788	0.376519
668.632803	0.376518
668.836800	0.376840
669.040779	0.377227
669.244739	0.377552
669.448681	0.377910
669.652605	0.377984
669.856511	0.378251
670.060399	0.378720
670.264268	0.379041
670.468119	0.379225
670.671952	0.379604
670.875767	0.379556
671.079563	0.379895
671.283341	0.380111
671.487101	0.380361
671.690843	0.380728
671.894567	0.380941
672.098272	0.381110
672.301959	0.381763
672.505628	0.381909
672.709278	0.382322
672.912911	0.382576
673.116525	0.382926
673.320121	0.383023
673.523699	0.383516
673.727258	0.383357
673.930799	0.383717
674.134322	0.383791
674.337827	0.384112
674.541314	0.384356
674.744782	0.384449
674.948232	0.384660
675.151664	0.385223
675.355078	0.385315
675.558474	0.386046
675.761851	0.386102
675.965210	0.386194
676.168551	0.386366
676.371873	0.386915
676.575178	0.387201
676.778464	0.387593
676.981732	0.387676
677.184981	0.387868
677.388213	0.387861
677.591426	0.388431
677.794621	0.388913
677.997798	0.389041
678.200956	0.389287
678.404097	0.389316
678.607219	0.389651
678.810323	0.390087
679.013408	0.390308
679.216476	0.390477
679.419525	0.390568
679.622556	0.390931
679.825569	0.391369
680.028563	0.391364
680.231540	0.392041
680.434498	0.392156
680.637438	0.391842
680.840359	0.392193
681.043263	0.392604
681.246148	0.392898
681.449015	0.392708
681.651864	0.392861
681.854694	0.393409
682.057506	0.393467
682.260301	0.393658
682.463076	0.394179
682.665834	0.394610
682.868573	0.394864
683.071295	0.394917
683.273998	0.395531
683.476682	0.396127
683.679349	0.396201
683.881997	0.396516
684.084627	0.396704
684.287239	0.397127
684.489833	0.397286
684.692408	0.397439
684.894965	0.397973
685.097504	0.398043
685.300025	0.397827
685.502527	0.397905
685.705012	0.398066
685.907478	0.398333
686.109925	0.398265
686.312355	0.398357
686.514766	0.398869
686.717159	0.398774
686.919534	0.398887
687.121891	0.399302
687.324230	0.399550
687.526550	0.399720
687.728852	0.399828
687.931136	0.399998
688.133401	0.400151
688.335649	0.400260
688.537878	0.400640
688.740089	0.400985
688.942281	0.401108
689.144456	0.401387
689.346612	0.401824
689.548750	0.401915
689.750870	0.402324
689.952971	0.402428
690.155055	0.402658
690.357120	0.402632
690.559167	0.402749
690.761195	0.402982
690.963206	0.403156
691.165198	0.402942
691.367172	0.403368
691.569128	0.403562
691.771065	0.403707
691.972984	0.403687
692.174885	0.404065
692.376768	0.404266
692.578633	0.404752
692.780479	0.405040
692.982308	0.405338
693.184118	0.405454
693.385909	0.405448
693.587683	0.405582
693.789438	0.405835
693.991175	0.405840
694.192894	0.405845
694.394595	0.405697
694.596277	0.405600
694.797941	0.405613
694.999587	0.405765
695.201215	0.405982
695.402824	0.405997
695.604416	0.406194
695.805989	0.406736
696.007543	0.407014
696.209080	0.406852
696.410598	0.406994
696.612099	0.407278
696.813580	0.407291
697.015044	0.407521
697.216490	0.407737
697.417917	0.407685
697.619326	0.407535
697.820717	0.407475
698.022089	0.407615
698.223444	0.407630
698.424780	0.407905
698.626098	0.408126
698.827397	0.408270
699.028679	0.408452
699.229942	0.408703
699.431187	0.408869
699.632414	0.409194
699.833622	0.409755
700.034813	0.410281
700.235985	0.410294
700.437139	0.410646
700.638274	0.411195
700.839392	0.411782
701.040491	0.411939
701.241572	0.412229
701.442635	0.412522
701.643679	0.412510
701.844706	0.412287
702.045714	0.412353
702.246704	0.412268
702.447675	0.412047
702.648629	0.411599
702.849564	0.411616
703.050481	0.411685
703.251380	0.411754
703.452260	0.411664
703.653122	0.411829
703.853966	0.411695
704.054792	0.411828
704.255600	0.411814
704.456389	0.412141
704.657160	0.412392
704.857913	0.412377
705.058648	0.412212
705.259365	0.412323
705.460063	0.412401
705.660743	0.412531
705.861405	0.412728
706.062048	0.412769
706.262674	0.412812
706.463281	0.412684
706.663870	0.412553
706.864441	0.412836
707.064993	0.412936
707.265527	0.413163
707.466043	0.413494
707.666541	0.413292
707.867021	0.413428
708.067482	0.413349
708.267925	0.413388
708.468350	0.413807
708.668757	0.413778
708.869145	0.413900
709.069516	0.414039
709.269868	0.414097
709.470201	0.414164
709.670517	0.414353
709.870814	0.414715
710.071093	0.414925
710.271354	0.414763
710.471597	0.414858
710.671821	0.414852
710.872028	0.414506
711.072216	0.414558
711.272385	0.414707
711.472537	0.414377
711.672670	0.414176
711.872785	0.414108
712.072882	0.414202
712.272961	0.413996
712.473021	0.413976
712.673063	0.414230
712.873087	0.413977
713.073093	0.413734
713.273081	0.413567
713.473050	0.413423
713.673001	0.413200
713.872934	0.412856
714.072849	0.412735
714.272745	0.412630
714.472623	0.412300
714.672483	0.412206
714.872325	0.412381
715.072148	0.412359
715.271954	0.412515
715.471741	0.412340
715.671509	0.412194
715.871260	0.411993
716.070992	0.412062
716.270707	0.411826
716.470403	0.411431
716.670080	0.411207
716.869740	0.411368
717.069381	0.410881
717.269004	0.410789
717.468609	0.410878
717.668195	0.410789
717.867764	0.410843
718.067314	0.410905
718.266846	0.411210
718.466360	0.411212
718.665855	0.411148
718.865332	0.411630
719.064791	0.411484
719.264232	0.411442
719.463655	0.411744
719.663059	0.411311
719.862445	0.411294
720.061813	0.411266
720.261163	0.411030
720.460494	0.410990
720.659807	0.410807
720.859102	0.410895
721.058379	0.410790
721.257638	0.410409
721.456878	0.410537
721.656100	0.410737
721.855304	0.410671
722.054490	0.410573
722.253657	0.410181
722.452806	0.410053
722.651937	0.409978
722.851050	0.409841
723.050145	0.409657
723.249221	0.409407
723.448279	0.409001
723.647319	0.408586
723.846340	0.408240
724.045344	0.408208
724.244329	0.407795
724.443296	0.407533
724.642245	0.407401
724.841175	0.407616
725.040088	0.407255
725.238982	0.407218
725.437857	0.407262
725.636715	0.407515
725.835554	0.407509
726.034376	0.407439
726.233179	0.407423
726.431963	0.407050
726.630730	0.406739
726.829478	0.406803
727.028208	0.406433
727.226920	0.406403
727.425614	0.406169
727.624289	0.405721
727.822946	0.405496
728.021585	0.405217
728.220206	0.404904
728.418808	0.404509
728.617392	0.404301
728.815958	0.404575
729.014506	0.404256
729.213036	0.404036
729.411547	0.404207
729.610040	0.404278
729.808515	0.404271
730.006972	0.404325
730.205410	0.404339
730.403831	0.404090
730.602233	0.403893
730.800616	0.403896
730.998982	0.403626
731.197329	0.403304
731.395658	0.402917
731.593969	0.402807
731.792262	0.402502
731.990536	0.402229
732.188793	0.402458
732.387031	0.402405
732.585250	0.402211
732.783452	0.402008
732.981635	0.401981
733.179800	0.401672
733.377947	0.401449
733.576076	0.401619
733.774186	0.401685
733.972278	0.401024
734.170352	0.400095
734.368408	0.399699
734.566446	0.399855
734.764465	0.399791
734.962466	0.399826
735.160449	0.399468
735.358413	0.399167
735.556360	0.398704
735.754288	0.398726
735.952198	0.398779
736.150090	0.398537
736.347963	0.398063
736.545818	0.397406
736.743655	0.396930
736.941474	0.396813
737.139275	0.396510
737.337057	0.395973
737.534821	0.395482
737.732567	0.395324
737.930295	0.395084
738.128005	0.394819
738.325696	0.394598
738.523369	0.394442
738.721024	0.393866
738.918660	0.393573
739.116279	0.393597
739.313879	0.393474
739.511461	0.393210
739.709024	0.393180
739.906570	0.392970
740.104097	0.392629
740.301606	0.392647
740.499097	0.392690
740.696569	0.392246
740.894024	0.391957
741.091460	0.391703
741.288878	0.391404
741.486277	0.390909
741.683659	0.390387
741.881022	0.390387
742.078367	0.389740
742.275694	0.389540
742.473002	0.389554
742.670293	0.389495
742.867565	0.389116
743.064819	0.388779
743.262054	0.388405
743.459272	0.388426
743.656471	0.387929
743.853652	0.387777
744.050815	0.387348
744.247959	0.386851
744.445085	0.386506
744.642194	0.386431
744.839283	0.386274
745.036355	0.386129
745.233408	0.385675
745.430444	0.385612
745.627461	0.385460
745.824459	0.385261
746.021440	0.385328
746.218402	0.384879
746.415346	0.384597
746.612272	0.384320
746.809180	0.384124
747.006069	0.383809
747.202940	0.383530
747.399793	0.383235
747.596628	0.383084
747.793444	0.383035
747.990243	0.383002
748.187023	0.382733
748.383784	0.382730
748.580528	0.382605
748.777253	0.382578
748.973960	0.382311
749.170649	0.382110
749.367320	0.381858
749.563973	0.381510
749.760607	0.381319
749.957223	0.381269
750.153821	0.381039
750.350400	0.381032
750.546962	0.380992
750.743505	0.380879
750.940030	0.380809
751.136536	0.380518
751.333025	0.380237
751.529495	0.380036
751.725947	0.379791
751.922381	0.379421
752.118796	0.379163
752.315194	0.378705
752.511573	0.378452
752.707934	0.378212
752.904276	0.378074
753.100601	0.377732
753.296907	0.377686
753.493195	0.377247
753.689465	0.377128
753.885716	0.376704
754.081949	0.376312
754.278164	0.376050
754.474361	0.375455
754.670540	0.375243
754.866700	0.375078
755.062843	0.374780
755.258967	0.374818
755.455072	0.374242
755.651160	0.374097
755.847229	0.374017
756.043280	0.373878
756.239313	0.373944
756.435328	0.373899
756.631324	0.373551
756.827302	0.373176
757.023262	0.372754
757.219204	0.372961
757.415127	0.372696
757.611033	0.372846
757.806920	0.372621
758.002788	0.372317
758.198639	0.371869
758.394471	0.371595
758.590286	0.371511
758.786081	0.371660
758.981859	0.371263
759.177619	0.371043
759.373360	0.370733
759.569083	0.370431
759.764788	0.370401
759.960474	0.370073
760.156143	0.370213
760.351793	0.369983
760.547425	0.369547
760.743038	0.369435
760.938634	0.369262
761.134211	0.368844
761.329770	0.368739
761.525311	0.368675
761.720833	0.368515
761.916338	0.368247
762.111824	0.368013
762.307292	0.367745
762.502741	0.367453
762.698173	0.367220
762.893586	0.367134
763.088981	0.366885
763.284358	0.366331
763.479716	0.366159
763.675057	0.366018
763.870379	0.365807
764.065683	0.365805
764.260968	0.365876
764.456236	0.365457
764.651485	0.365182
764.846716	0.365110
765.041929	0.364993
765.237123	0.364848
765.432299	0.364636
765.627457	0.364524
765.822597	0.364358
766.017719	0.364098
766.212822	0.364403
766.407907	0.364293
766.602974	0.364052
766.798023	0.364053
766.993054	0.363831
767.188066	0.363698
767.383060	0.363604
767.578036	0.363679
767.772993	0.363609
767.967933	0.363357
768.162854	0.363364
768.357757	0.363563
768.552642	0.363314
768.747508	0.363448
768.942356	0.363421
769.137186	0.363480
769.331998	0.363351
769.526792	0.363399
769.721567	0.363478
769.916324	0.363235
770.111063	0.362684
770.305784	0.362885
770.500486	0.362754
770.695171	0.362610
770.889837	0.362445
771.084484	0.362510
771.279114	0.362108
771.473725	0.361951
771.668318	0.361986
771.862893	0.362400
772.057450	0.362365
772.251988	0.362186
772.446509	0.361799
772.641011	0.361558
772.835494	0.361277
773.029960	0.361486
773.224407	0.361367
773.418836	0.361320
773.613247	0.360859
773.807640	0.360715
774.002014	0.360741
774.196370	0.360926
774.390708	0.361060
774.585028	0.360534
774.779330	0.360289
774.973613	0.360095
775.167878	0.359907
775.362125	0.360212
775.556354	0.359827
775.750564	0.359699
775.944756	0.359339
776.138930	0.358998
776.333086	0.359205
776.527223	0.359179
776.721343	0.359134
776.915444	0.359379
777.109526	0.359268
777.303591	0.359564
777.497637	0.359742
777.691666	0.360236
777.885676	0.360468
778.079667	0.360597
778.273641	0.360663
778.467596	0.360852
778.661533	0.360853
778.855452	0.360698
779.049352	0.360722
779.243235	0.360655
779.437099	0.360676
779.630945	0.360586
779.824773	0.360434
780.018582	0.360444
780.212373	0.360239
780.406146	0.359968
780.599901	0.359970
780.793638	0.360169
780.987356	0.360485
781.181056	0.360525
781.374738	0.360687
781.568402	0.360544
781.762047	0.360595
781.955674	0.361085
782.149283	0.361391
782.342874	0.361749
782.536447	0.361686
782.730001	0.361659
782.923537	0.361656
783.117055	0.361594
783.310555	0.362031
783.504036	0.362185
783.697499	0.362213
783.890944	0.362200
784.084371	0.362278
784.277780	0.362257
784.471170	0.362280
784.664542	0.362443
784.857896	0.362573
785.051231	0.362581
785.244549	0.362529
785.437848	0.362321
785.631129	0.362451
785.824392	0.362393
786.017636	0.362431
786.210863	0.362632
786.404071	0.362730
786.597260	0.363023
786.790432	0.362676
786.983585	0.362743
787.176721	0.362860
787.369838	0.362893
787.562936	0.362549
787.756017	0.362908
787.949079	0.362720
788.142123	0.362751
788.335149	0.362640
788.528156	0.363022
788.721146	0.363148
788.914117	0.363524
789.107070	0.363913
789.300005	0.364282
789.492921	0.364175
789.685819	0.364511
789.878699	0.364480
790.071561	0.364787
790.264405	0.365067
790.457230	0.365493
790.650037	0.365474
790.842826	0.365297
791.035597	0.365644
791.228349	0.365660
791.421084	0.365779
791.613800	0.366194
791.806497	0.366627
791.999177	0.366851
792.191838	0.366795
792.384481	0.366948
792.577106	0.367199
792.769713	0.367436
792.962301	0.367820
793.154871	0.367939
793.347423	0.368208
793.539957	0.368009
793.732473	0.368476
793.924970	0.368706
794.117449	0.369191
794.309910	0.369433
794.502353	0.369565
794.694777	0.369936
794.887183	0.370228
795.079571	0.370226
795.271941	0.370602
795.464293	0.370547
795.656626	0.370722
795.848941	0.370722
796.041238	0.370952
796.233516	0.370829
796.425777	0.371113
796.618019	0.371443
796.810243	0.371788
797.002449	0.372098
797.194636	0.372573
797.386805	0.372738
797.578956	0.372847
797.771089	0.372764
797.963204	0.373369
798.155300	0.373415
798.347378	0.373440
798.539438	0.373520
798.731480	0.373862
798.923503	0.374117
799.115509	0.374563
799.307496	0.374778
799.499465	0.375443
799.691415	0.375607
799.883348	0.375755
800.075262	0.375975
800.267158	0.376492
800.459035	0.376477
800.650895	0.376333
800.842736	0.376355
801.034559	0.376715
801.226364	0.376777
801.418150	0.376811
801.609919	0.377190
801.801669	0.377727
801.993401	0.377917
802.185114	0.377945
802.376810	0.377908
802.568487	0.378166
802.760146	0.378531
802.951787	0.378763
803.143409	0.379381
803.335014	0.379553
803.526600	0.379565
803.718168	0.379699
803.909717	0.380467
804.101249	0.381316
804.292762	0.381802
804.484257	0.382175
804.675734	0.382656
804.867192	0.383316
805.058632	0.383689
805.250054	0.384039
805.441458	0.384565
805.632844	0.384966
805.824211	0.385161
806.015561	0.385570
806.206891	0.385487
806.398204	0.385729
806.589499	0.386062
806.780775	0.386470
806.972033	0.386880
807.163273	0.387033
807.354495	0.387273
807.545698	0.387824
807.736883	0.388166
807.928050	0.388953
808.119199	0.389280
808.310329	0.389358
808.501441	0.389485
808.692535	0.389969
808.883611	0.390310
809.074669	0.390613
809.265708	0.391050
809.456729	0.391502
809.647732	0.391808
809.838717	0.392523
810.029683	0.392878
810.220632	0.393656
810.411562	0.393777
810.602474	0.394407
810.793367	0.394756
810.984242	0.394943
811.175100	0.395356
811.365938	0.395775
811.556759	0.395747
811.747562	0.395926
811.938346	0.396101
812.129112	0.396597
812.319860	0.396758
812.510589	0.397104
812.701300	0.397595
812.891994	0.398137
813.082668	0.398652
813.273325	0.399266
813.463964	0.399593
813.654584	0.400029
813.845186	0.400713
814.035769	0.401162
814.226335	0.401491
814.416882	0.401650
814.607411	0.401504
814.797922	0.401657
814.988415	0.401920
815.178889	0.402529
815.369345	0.402782
815.559783	0.403233
815.750203	0.403630
815.940605	0.403988
816.130988	0.404629
816.321353	0.405117
816.511700	0.405483
816.702028	0.406002
816.892339	0.406275
817.082631	0.406908
817.272905	0.407129
817.463161	0.407118
817.653398	0.407589
817.843617	0.407944
818.033819	0.408659
818.224001	0.408777
818.414166	0.408935
818.604312	0.409616
818.794440	0.410146
818.984550	0.410529
819.174642	0.411277
819.364716	0.411332
819.554771	0.411795
819.744808	0.412216
819.934827	0.412955
820.124827	0.413790
820.314810	0.414136
820.504774	0.414704
820.694720	0.415362
820.884647	0.416166
821.074557	0.417165
821.264448	0.417368
821.454321	0.418108
821.644176	0.418997
821.834012	0.419551
822.023831	0.420403
822.213631	0.420671
822.403413	0.421362
822.593176	0.421644
822.782922	0.422419
822.972649	0.423071
823.162358	0.423246
823.352049	0.423353
823.541721	0.423831
823.731376	0.424079
823.921012	0.424561
824.110629	0.424882
824.300229	0.425474
824.489811	0.426016
824.679374	0.426669
824.868919	0.427014
825.058445	0.427813
825.247954	0.428522
825.437444	0.429268
825.626916	0.430001
825.816370	0.430524
826.005806	0.431156
826.195223	0.431532
826.384622	0.432401
826.574003	0.432929
826.763366	0.433414
826.952711	0.433653
827.142037	0.434254
827.331345	0.434856
827.520635	0.435155
827.709906	0.435716
827.899160	0.436112
828.088395	0.436313
828.277612	0.437418
828.466810	0.437751
828.655991	0.438160
828.845153	0.438455
829.034297	0.439060
829.223423	0.439808
829.412531	0.440178
829.601620	0.440818
829.790691	0.441238
829.979744	0.441489
830.168779	0.442424
830.357795	0.443031
830.546793	0.443427
830.735773	0.443844
830.924735	0.444443
831.113679	0.444962
831.302604	0.445191
831.491511	0.446102
831.680400	0.446485
831.869271	0.446844
832.058123	0.447105
832.246957	0.447806
832.435773	0.448529
832.624571	0.449007
832.813351	0.449971
833.002112	0.450561
833.190855	0.451026
833.379580	0.451786
833.568287	0.452470
833.756975	0.453432
833.945645	0.453894
834.134297	0.454304
834.322931	0.454935
834.511547	0.455353
834.700144	0.455997
834.888723	0.456509
835.077284	0.456881
835.265826	0.457189
835.454351	0.457794
835.642857	0.458425
835.831345	0.458820
836.019815	0.459185
836.208266	0.459340
836.396699	0.460001
836.585114	0.460600
836.773511	0.461190
836.961890	0.462076
837.150250	0.462636
837.338592	0.463381
837.526916	0.463652
837.715222	0.464023
837.903510	0.464653
838.091779	0.465022
838.280030	0.465224
838.468263	0.465687
838.656477	0.466086
838.844674	0.466711
839.032852	0.466961
839.221012	0.467667
839.409153	0.468639
839.597277	0.469601
839.785382	0.470538
839.973469	0.471584
840.161538	0.472456
840.349589	0.472976
840.537621	0.473789
840.725635	0.474480
840.913631	0.475294
841.101609	0.475571
841.289568	0.476037
841.477509	0.476645
841.665432	0.477220
841.853337	0.477933
842.041224	0.478150
842.229092	0.478677
842.416942	0.479661
842.604774	0.480345
842.792588	0.480938
842.980383	0.481517
843.168160	0.482604
843.355919	0.483221
843.543660	0.483405
843.731382	0.484449
843.919087	0.484717
844.106773	0.484494
844.294441	0.484626
844.482090	0.485389
844.669722	0.485731
844.857335	0.485589
845.044930	0.486001
845.232507	0.486682
845.420065	0.487203
845.607605	0.487707
845.795127	0.488670
845.982631	0.490004
846.170117	0.490475
846.357584	0.491080
846.545033	0.491707
846.732464	0.492242
846.919877	0.492458
847.107272	0.492885
847.294648	0.494071
847.482006	0.494616
847.669346	0.494824
847.856667	0.495336
848.043971	0.496013
848.231256	0.496667
848.418523	0.497261
848.605771	0.498167
848.793002	0.498995
848.980214	0.498925
849.167408	0.499753
849.354584	0.500093
849.541742	0.501092
849.728881	0.501990
849.916002	0.502697
850.103105	0.503370
850.290190	0.503839
850.477256	0.504120
850.664304	0.504880
850.851334	0.505121
851.038346	0.505879
851.225340	0.506858
851.412315	0.507288
851.599272	0.507665
851.786211	0.508104
851.973132	0.508949
852.160034	0.510217
852.346918	0.511465
852.533784	0.512507
852.720632	0.513580
852.907462	0.513554
853.094273	0.514012
853.281066	0.514394
853.467841	0.515532
853.654598	0.516693
853.841336	0.516958
854.028056	0.517461
854.214758	0.517655
854.401442	0.517882
854.588107	0.518722
854.774755	0.519571
854.961384	0.520291
855.147995	0.520118
855.334587	0.520088
855.521162	0.520589
855.707718	0.520492
855.894256	0.521330
856.080775	0.521302
856.267277	0.521541
856.453760	0.521483
856.640225	0.522229
856.826672	0.522997
857.013101	0.523650
857.199511	0.523866
857.385903	0.524584
857.572277	0.525065
857.758633	0.526099
857.944970	0.527099
858.131290	0.528177
858.317591	0.528743
858.503873	0.529615
858.690138	0.529826
858.876384	0.530651
859.062612	0.531214
859.248822	0.531496
859.435014	0.532160
859.621188	0.532458
859.807343	0.532723
859.993480	0.533134
860.179599	0.533233
860.365699	0.533927
860.551781	0.534465
860.737846	0.534947
860.923891	0.535506
861.109919	0.535917
861.295929	0.536473
861.481920	0.537196
861.667893	0.537360
861.853848	0.538462
862.039784	0.538681
862.225702	0.538651
862.411603	0.539139
862.597484	0.540107
862.783348	0.540842
862.969193	0.540769
863.155021	0.541282
863.340830	0.541580
863.526620	0.541757
863.712393	0.542917
863.898147	0.543816
864.083883	0.544472
864.269601	0.544724
864.455301	0.544975
864.640982	0.545292
864.826645	0.545764
865.012290	0.546723
865.197917	0.547091
865.383526	0.547512
865.569116	0.547921
865.754688	0.548282
865.940242	0.548594
866.125777	0.549168
866.311295	0.549912
866.496794	0.550383
866.682275	0.550517
866.867737	0.551244
867.053182	0.551481
867.238608	0.552028
867.424016	0.552565
867.609406	0.553461
867.794778	0.553520
867.980131	0.554641
868.165466	0.555089
868.350783	0.555486
868.536082	0.555627
868.721362	0.555850
868.906625	0.556481
869.091869	0.556695
869.277094	0.556956
869.462302	0.557322
869.647491	0.557087
869.832662	0.557588
870.017815	0.558836
870.202950	0.558880
870.388066	0.559431
870.573165	0.559993
870.758245	0.560083
870.943306	0.560265
871.128350	0.561131
871.313375	0.561757
871.498382	0.561715
871.683371	0.561699
871.868342	0.562373
872.053294	0.562330
872.238229	0.562475
872.423144	0.563540
872.608042	0.563821
872.792922	0.564548
872.977783	0.565277
873.162626	0.565991
873.347451	0.566638
873.532258	0.567051
873.717046	0.567416
873.901816	0.567267
874.086568	0.567462
874.271302	0.567948
874.456017	0.567230
874.640715	0.566756
874.825394	0.566623
875.010055	0.566979
875.194697	0.567375
875.379322	0.567983
875.563928	0.567995
875.748516	0.567859
875.933085	0.568439
876.117637	0.569230
876.302170	0.569751
876.486685	0.570620
876.671182	0.570419
876.855661	0.570186
877.040121	0.569880
877.224563	0.570946
877.408987	0.571637
877.593393	0.571240
877.777780	0.571299
877.962150	0.571782
878.146501	0.571916
878.330833	0.573039
878.515148	0.573913
878.699444	0.574964
878.883722	0.575430
879.067982	0.575387
879.252224	0.575589
879.436447	0.576478
879.620653	0.576748
879.804840	0.577089
879.989008	0.576857
880.173159	0.576663
880.357291	0.576960
880.541405	0.576840
880.725501	0.577345
880.909579	0.577876
881.093638	0.577579
881.277680	0.577169
881.461703	0.577003
881.645707	0.576871
881.829694	0.577232
882.013662	0.577534
882.197612	0.577234
882.381544	0.577215
882.565458	0.577805
882.749353	0.577577
882.933230	0.578796
883.117089	0.578688
883.300930	0.578530
883.484753	0.578427
883.668557	0.577688
883.852343	0.578579
884.036111	0.578558
884.219861	0.577939
884.403592	0.578292
884.587305	0.577681
884.771000	0.578248
884.954677	0.578671
885.138335	0.578615
885.321976	0.578645
885.505598	0.578176
885.689201	0.578757
885.872787	0.579098
886.056354	0.579082
886.239904	0.578821
886.423434	0.578278
886.606947	0.578631
886.790442	0.578717
886.973918	0.578751
887.157376	0.578396
887.340816	0.578121
887.524237	0.577773
887.707641	0.578453
887.891026	0.578580
888.074393	0.578893
888.257741	0.578818
888.441072	0.579270
888.624384	0.579705
888.807678	0.580558
888.990954	0.580323
889.174211	0.580524
889.357451	0.580540
889.540672	0.581061
889.723875	0.581189
889.907059	0.581092
890.090226	0.581111
890.273374	0.580923
890.456504	0.580320
890.639616	0.580097
890.822709	0.579939
891.005785	0.580001
891.188842	0.579410
891.371881	0.579379
891.554901	0.578701
891.737904	0.578504
891.920888	0.578500
892.103854	0.578850
892.286802	0.578757
892.469731	0.579214
892.652643	0.578056
892.835536	0.578312
893.018410	0.578169
893.201267	0.578250
893.384106	0.577838
893.566926	0.577559
893.749728	0.577220
893.932511	0.576517
894.115277	0.575620
894.298024	0.575777
894.480753	0.575185
894.663464	0.574714
894.846157	0.575499
895.028831	0.576172
895.211487	0.576317
895.394125	0.576650
895.576745	0.577427
895.759346	0.578263
895.941930	0.578278
896.124495	0.578358
896.307041	0.578555
896.489570	0.577720
896.672080	0.577590
896.854573	0.577569
897.037046	0.576854
897.219502	0.576247
897.401940	0.576062
897.584359	0.575973
897.766760	0.575969
897.949143	0.575733
898.131507	0.575562
898.313854	0.574747
898.496182	0.574061
898.678492	0.574086
898.860783	0.574059
899.043057	0.573440
899.225312	0.573293
899.407549	0.572833
899.589768	0.571934
899.771968	0.571024
899.954151	0.570661
900.136315	0.571311
900.318461	0.570493
900.500588	0.570376
900.682698	0.569882
900.864789	0.568832
901.046862	0.568504
901.228917	0.568587
901.410953	0.568396
901.592971	0.567627
901.774972	0.566968
901.956953	0.566232
902.138917	0.565784
902.320862	0.564838
902.502790	0.564788
902.684699	0.564606
902.866589	0.563921
903.048462	0.563715
903.230316	0.563847
903.412152	0.562986
903.593970	0.562950
903.775770	0.562497
903.957551	0.561989
904.139314	0.561729
904.321059	0.561298
904.502786	0.560798
904.684494	0.560228
904.866185	0.559294
905.047857	0.558621
905.229510	0.557966
905.411146	0.556953
905.592763	0.556984
905.774363	0.556230
905.955943	0.555683
906.137506	0.555187
906.319051	0.555214
906.500577	0.555093
906.682085	0.554062
906.863575	0.554449
907.045046	0.554004
907.226500	0.553452
907.407935	0.553291
907.589352	0.553126
907.770750	0.552710
907.952131	0.551298
908.133493	0.550290
908.314837	0.550381
908.496163	0.549168
908.677470	0.548569
908.858760	0.548098
909.040031	0.547325
909.221284	0.546972
909.402518	0.546659
909.583735	0.545560
909.764933	0.545301
909.946113	0.544156
910.127275	0.543492
910.308418	0.543894
910.489544	0.543044
910.670651	0.542684
910.851740	0.541232
911.032810	0.540184
911.213863	0.539489
911.394897	0.538749
911.575913	0.538427
911.756911	0.538199
911.937890	0.537121
912.118851	0.536189
912.299794	0.535921
912.480719	0.535342
912.661626	0.535105
912.842514	0.535349
913.023384	0.534120
913.204236	0.533667
913.385070	0.533263
913.565886	0.532147
913.746683	0.531677
913.927462	0.529730
914.108223	0.528758
914.288965	0.527457
914.469690	0.526501
914.650396	0.525928
914.831084	0.525234
915.011754	0.524006
915.192405	0.524098
915.373038	0.522415
915.553653	0.522361
915.734250	0.521608
915.914829	0.521284
916.095389	0.520565
916.275931	0.520182
916.456455	0.519750
916.636961	0.518302
916.817448	0.516902
916.997917	0.517377
917.178368	0.515730
917.358801	0.514781
917.539216	0.513261
917.719612	0.512201
917.899990	0.511421
918.080350	0.509805
918.260692	0.508975
918.441015	0.507848
918.621320	0.507056
918.801607	0.506928
918.981876	0.505496
919.162127	0.504593
919.342359	0.503642
919.522573	0.501856
919.702769	0.501220
919.882947	0.499958
920.063106	0.498841
920.243247	0.496967
920.423370	0.496344
920.603475	0.495855
920.783562	0.495656
920.963630	0.495012
921.143680	0.495473
921.323712	0.495548
921.503725	0.495721
921.683721	0.494611
921.863698	0.494144
922.043657	0.492681
922.223598	0.491257
922.403520	0.490723
922.583424	0.489299
922.763311	0.487896
922.943178	0.485951
923.123028	0.484533
923.302859	0.484495
923.482673	0.483349
923.662467	0.481956
923.842244	0.481300
924.022003	0.479909
924.201743	0.479781
924.381465	0.478731
924.561169	0.477653
924.740854	0.476447
924.920522	0.474837
925.100171	0.473564
925.279802	0.472844
925.459414	0.472276
925.639009	0.470654
925.818585	0.468279
925.998143	0.466564
926.177683	0.465458
926.357205	0.463934
926.536708	0.462598
926.716193	0.462038
926.895660	0.460310
927.075109	0.459198
927.254539	0.457929
927.433951	0.457396
927.613345	0.456559
927.792721	0.455621
927.972079	0.454855
928.151418	0.453105
928.330739	0.450821
928.510042	0.449565
928.689327	0.447841
928.868593	0.447404
929.047841	0.446536
929.227071	0.444491
929.406283	0.443210
929.585476	0.441698
929.764652	0.439718
929.943809	0.439415
930.122948	0.437938
930.302068	0.437102
930.481171	0.435540
930.660255	0.434973
930.839321	0.435021
931.018369	0.433114
931.197398	0.431901
931.376409	0.432386
931.555402	0.431145
931.734377	0.429867
931.913334	0.428731
932.092272	0.427854
932.271192	0.425541
932.450094	0.423194
932.628978	0.421961
932.807844	0.421523
932.986691	0.420060
933.165520	0.418832
933.344331	0.418760
933.523123	0.417743
933.701898	0.416651
933.880654	0.415898
934.059392	0.415044
934.238111	0.414881
934.416813	0.413123
934.595496	0.411694
934.774161	0.409869
934.952808	0.407968
935.131437	0.407424
935.310047	0.404737
935.488639	0.403991
935.667213	0.402286
935.845769	0.400986
936.024306	0.399315
936.202825	0.397514
936.381326	0.396796
936.559809	0.395076
936.738274	0.392136
936.916720	0.390953
937.095148	0.388037
937.273558	0.386498
937.451950	0.384463
937.630323	0.383341
937.808678	0.382157
937.987015	0.379933
938.165334	0.379428
938.343635	0.377907
938.521917	0.378170
938.700181	0.376512
938.878427	0.377437
939.056655	0.376504
939.234864	0.375213
939.413055	0.373778
939.591228	0.373517
939.769383	0.371702
939.947519	0.371093
940.125638	0.366749
940.303738	0.364943
940.481820	0.362051
940.659883	0.360440
940.837929	0.359118
941.015956	0.355971
941.193965	0.354115
941.371955	0.351684
941.549928	0.347725
941.727882	0.347486
941.905818	0.346772
942.083736	0.344349
942.261636	0.341585
942.439517	0.341095
942.617380	0.340849
942.795225	0.339659
942.973052	0.340236
943.150860	0.341454
943.328651	0.340640
943.506423	0.339226
943.684176	0.337975
943.861912	0.336762
944.039629	0.333337
944.217328	0.333117
944.395009	0.331098
944.572672	0.328859
944.750317	0.326550
944.927943	0.326095
945.105551	0.326243
945.283141	0.324910
945.460712	0.323706
945.638265	0.323268
945.815801	0.321858
945.993317	0.319383
946.170816	0.316084
946.348297	0.314171
946.525759	0.312033
946.703203	0.309341
946.880629	0.307933
947.058036	0.307835
947.235425	0.305873
947.412797	0.305190
947.590149	0.305626
947.767484	0.304292
947.944800	0.302640
948.122099	0.301136
948.299379	0.299241
948.476640	0.297634
948.653884	0.294385
948.831109	0.292867
949.008316	0.289527
949.185505	0.286925
949.362676	0.286767
949.539828	0.285823
949.716962	0.282511
949.894078	0.281063
950.071176	0.281487
950.248256	0.279702
950.425317	0.278414
950.602360	0.276567
950.779385	0.275502
950.956391	0.274519
951.133380	0.273936
951.310350	0.273156
951.487302	0.272106
951.664235	0.268871
951.841151	0.268057
952.018048	0.267178
952.194927	0.266368
952.371788	0.264372
952.548631	0.263425
952.725455	0.260159
952.902261	0.257936
953.079049	0.256490
953.255819	0.253790
953.432570	0.255162
953.609303	0.254905
953.786018	0.252204
953.962715	0.253444
954.139394	0.252287
954.316054	0.252637
954.492696	0.253705
954.669320	0.253595
954.845926	0.254423
955.022513	0.252038
955.199083	0.248575
955.375634	0.248178
955.552166	0.243498
955.728681	0.242153
955.905177	0.240218
956.081655	0.237686
956.258115	0.234134
956.434557	0.231506
956.610980	0.226276
956.787385	0.224011
956.963772	0.223558
957.140141	0.223128
957.316492	0.220044
957.492824	0.219345
957.669138	0.219162
957.845434	0.219459
958.021712	0.219089
958.197971	0.219231
958.374212	0.218591
958.550435	0.217357
958.726640	0.218606
958.902826	0.218372
959.078995	0.218027
959.255145	0.217833
959.431277	0.216806
959.607390	0.217257
959.783486	0.216627
959.959563	0.217740
960.135622	0.216842
960.311662	0.214349
960.487685	0.211816
960.663689	0.207750
960.839675	0.205182
961.015643	0.204037
961.191593	0.203476
961.367524	0.202247
961.543437	0.201179
961.719332	0.201199
961.895209	0.201571
962.071067	0.200994
962.246907	0.204816
962.422730	0.205797
962.598533	0.205342
962.774319	0.203034
962.950086	0.204273
963.125835	0.201824
963.301566	0.199995
963.477279	0.199979
963.652973	0.200217
963.828650	0.197316
964.004308	0.193851
964.179947	0.193614
964.355569	0.193294
964.531172	0.192766
964.706757	0.195038
964.882324	0.196949
965.057873	0.193112
965.233403	0.192509
965.408916	0.191430
965.584410	0.192191
965.759885	0.191562
965.935343	0.189614
966.110782	0.189953
966.286203	0.190160
966.461606	0.190760
966.636991	0.192256
966.812357	0.191538
966.987705	0.192336
967.163035	0.193276
967.338347	0.193458
967.513641	0.195127
967.688916	0.195656
967.864173	0.196722
968.039412	0.193251
968.214632	0.191924
968.389835	0.192741
968.565019	0.194591
968.740185	0.195009
968.915333	0.195608
969.090462	0.194277
969.265573	0.193004
969.440667	0.192304
969.615741	0.194140
969.790798	0.195702
969.965836	0.194974
970.140856	0.192936
970.315858	0.191336
970.490842	0.190288
970.665808	0.192237
970.840755	0.190682
971.015684	0.186094
971.190595	0.188442
971.365487	0.189071
971.540362	0.191376
971.715218	0.191200
971.890056	0.192584
972.064875	0.195564
972.239677	0.194745
972.414460	0.196559
972.589225	0.199854
972.763972	0.196061
972.938700	0.194587
973.113411	0.197243
973.288103	0.196229
973.462777	0.194027
973.637432	0.191756
973.812070	0.191390
973.986689	0.188025
974.161290	0.187661
974.335873	0.186828
974.510437	0.185761
974.684984	0.181334
974.859512	0.180795
975.034022	0.182684
975.208513	0.182234
975.382987	0.183354
975.557442	0.186773
975.731879	0.186876
975.906298	0.189580
976.080698	0.193952
976.255080	0.192535
976.429445	0.194436
976.603790	0.192705
976.778118	0.192458
976.952427	0.193159
977.126719	0.193227
977.300992	0.192555
977.475246	0.190276
977.649483	0.189454
977.823701	0.192986
977.997901	0.193296
978.172083	0.192913
978.346247	0.191615
978.520392	0.189143
978.694519	0.189081
978.868628	0.188772
979.042719	0.188889
979.216791	0.184944
979.390845	0.183320
979.564882	0.183641
979.738899	0.183263
979.912899	0.184951
980.086880	0.186167
980.260843	0.187778
980.434788	0.187583
980.608715	0.189396
980.782623	0.191556
980.956514	0.192126
981.130386	0.190508
981.304240	0.189944
981.478075	0.190299
981.651892	0.188562
981.825692	0.184566
981.999472	0.185924
982.173235	0.183825
982.346980	0.184075
982.520706	0.182445
982.694414	0.183484
982.868104	0.186149
983.041775	0.186631
983.215428	0.187581
983.389064	0.187878
983.562680	0.186199
983.736279	0.189320
983.909860	0.189054
984.083422	0.190089
984.256966	0.191873
984.430491	0.190592
984.603999	0.191188
984.777488	0.192838
984.950959	0.196202
985.124412	0.195220
985.297847	0.192298
985.471263	0.192126
985.644661	0.190789
985.818041	0.191100
985.991403	0.192735
986.164747	0.190850
986.338072	0.190958
986.511379	0.189035
986.684668	0.189871
986.857938	0.190401
987.031191	0.190432
987.204425	0.194386
987.377641	0.193668
987.550839	0.192459
987.724018	0.191638
987.897179	0.191436
988.070322	0.191029
988.243447	0.192293
988.416554	0.191167
988.589642	0.191469
988.762712	0.189860
988.935764	0.188147
989.108798	0.189667
989.281813	0.191441
989.454811	0.190250
989.627790	0.192431
989.800751	0.192716
989.973693	0.195490
990.146617	0.194794
990.319524	0.193554
990.492412	0.194481
990.665281	0.193925
990.838133	0.194736
991.010966	0.194947
991.183781	0.191697
991.356578	0.190423
991.529356	0.187645
991.702117	0.188045
991.874859	0.190019
992.047583	0.188985
992.220288	0.189692
992.392976	0.189584
992.565645	0.188672
992.738296	0.190463
992.910929	0.190915
993.083543	0.191678
993.256139	0.192325
993.428718	0.193017
993.601277	0.194998
993.773819	0.193947
993.946342	0.192866
994.118848	0.193675
994.291335	0.194813
994.463803	0.194516
994.636254	0.195264
994.808686	0.195083
994.981100	0.192663
995.153496	0.192187
995.325874	0.192785
995.498233	0.192853
995.670574	0.194921
995.842897	0.193403
996.015202	0.193671
996.187488	0.194424
996.359757	0.191991
996.532007	0.191897
996.704239	0.189286
996.876452	0.189374
997.048648	0.192198
997.220825	0.190914
997.392984	0.189039
997.565124	0.189087
997.737247	0.187160
997.909351	0.189471
998.081437	0.191934
998.253505	0.193801
998.425554	0.192240
998.597586	0.191576
998.769599	0.190988
998.941594	0.192951
999.113571	0.193542
999.285529	0.194689
999.457469	0.194466
999.629391	0.191981
999.801295	0.191462
999.973181	0.190889
1000.145048	0.189422
1000.316897	0.189763
1000.488728	0.188781
1000.660541	0.186778
1000.832335	0.186600
1001.004111	0.186784
1001.175869	0.185890
1001.347609	0.187009
1001.519331	0.188550
1001.691034	0.188020
1001.862719	0.188188
1002.034386	0.189028
1002.206035	0.191088
1002.377665	0.190807
1002.549277	0.190840
1002.720871	0.192231
1002.892447	0.192086
1003.064004	0.191754
1003.235544	0.192385
1003.407065	0.191620
1003.578568	0.190425
1003.750052	0.189308
1003.921519	0.189666
1004.092967	0.188441
1004.264397	0.188675
1004.435809	0.187446
1004.607202	0.187595
1004.778577	0.185342
1004.949934	0.185196
1005.121273	0.187835
1005.292594	0.188790
1005.463896	0.188400
1005.635180	0.189894
1005.806446	0.188822
1005.977694	0.192376
1006.148923	0.191044
1006.320135	0.192269
1006.491328	0.191334
1006.662503	0.190779
1006.833659	0.189796
1007.004798	0.191470
1007.175918	0.191285
1007.347020	0.191139
1007.518103	0.189113
1007.689169	0.191195
1007.860216	0.193311
1008.031245	0.195405
1008.202256	0.195320
1008.373248	0.195388
1008.544223	0.193026
1008.715179	0.191839
1008.886117	0.193073
1009.057036	0.190076
1009.227938	0.190175
1009.398821	0.188712
1009.569686	0.188357
1009.740533	0.188644
1009.911361	0.188516
1010.082172	0.190916
1010.252964	0.191106
1010.423738	0.191996
1010.594493	0.192625
1010.765231	0.191887
1010.935950	0.191606
1011.106651	0.187956
1011.277334	0.187822
1011.447998	0.186784
1011.618645	0.184992
1011.789273	0.184140
1011.959882	0.183815
1012.130474	0.185934
1012.301048	0.184313
1012.471603	0.184607
1012.642140	0.188329
1012.812658	0.188865
1012.983159	0.190485
1013.153641	0.189360
1013.324105	0.190407
1013.494551	0.190464
1013.664979	0.188538
1013.835388	0.189715
1014.005779	0.190703
1014.176152	0.189041
1014.346507	0.186922
1014.516843	0.186950
1014.687162	0.188887
1014.857462	0.189948
1015.027744	0.188005
1015.198007	0.190465
1015.368252	0.188896
1015.538480	0.187309
1015.708689	0.188080
1015.878879	0.189212
1016.049052	0.189829
1016.219206	0.187771
1016.389342	0.186832
1016.559460	0.186895
1016.729559	0.186148
1016.899641	0.187076
1017.069704	0.187638
1017.239749	0.187436
1017.409775	0.188112
1017.579784	0.188226
1017.749774	0.189094
1017.919746	0.189080
1018.089700	0.187692
1018.259635	0.188582
1018.429553	0.188012
1018.599452	0.187833
1018.769333	0.188794
1018.939195	0.188457
1019.109040	0.188269
1019.278866	0.188438
1019.448674	0.187803
1019.618464	0.189872
1019.788235	0.189019
1019.957989	0.191738
1020.127724	0.191563
1020.297441	0.191139
1020.467139	0.191096
1020.636820	0.190427
1020.806482	0.191333
1020.976126	0.192881
1021.145752	0.193500
1021.315359	0.193384
1021.484948	0.191135
1021.654519	0.189411
1021.824072	0.188510
1021.993607	0.187025
1022.163123	0.185740
1022.332621	0.186780
1022.502101	0.186175
1022.671563	0.185829
1022.841007	0.183588
1023.010432	0.183691
1023.179839	0.184030
1023.349228	0.183821
1023.518598	0.184967
1023.687951	0.187053
1023.857285	0.186883
1024.026601	0.184825
1024.195899	0.184464
1024.365178	0.185255
1024.534439	0.185998
1024.703682	0.186794
1024.872907	0.187646
1025.042114	0.188136
1025.211302	0.186394
1025.380472	0.184602
1025.549624	0.185886
1025.718758	0.186424
1025.887873	0.185921
1026.056970	0.184825
1026.226049	0.184868
1026.395110	0.185133
1026.564153	0.181343
1026.733177	0.180234
1026.902183	0.181079
1027.071171	0.181087
1027.240141	0.181564
1027.409092	0.182730
1027.578026	0.184527
1027.746940	0.183610
1027.915837	0.184119
1028.084716	0.185470
1028.253576	0.187707
1028.422418	0.187456
1028.591242	0.187014
1028.760048	0.186238
1028.928835	0.186480
1029.097604	0.183279
1029.266355	0.186050
1029.435088	0.187282
1029.603803	0.189374
1029.772499	0.187610
1029.941177	0.187939
1030.109837	0.187366
1030.278478	0.185696
1030.447102	0.184949
1030.615707	0.186766
1030.784294	0.184323
1030.952863	0.182596
1031.121413	0.181184
1031.289945	0.181305
1031.458460	0.179469
1031.626955	0.179131
1031.795433	0.178620
1031.963892	0.180681
1032.132334	0.179328
1032.300756	0.180486
1032.469161	0.178668
1032.637548	0.177235
1032.805916	0.178661
1032.974266	0.179049
1033.142598	0.181563
1033.310911	0.180992
1033.479207	0.178597
1033.647484	0.181035
1033.815743	0.179901
1033.983983	0.181498
1034.152206	0.181457
1034.320410	0.181489
1034.488596	0.182593
1034.656764	0.182431
1034.824914	0.185102
1034.993045	0.184975
1035.161158	0.182579
1035.329253	0.185389
1035.497330	0.187051
1035.665388	0.189882
1035.833428	0.189970
1036.001450	0.188518
1036.169454	0.186052
1036.337440	0.186591
1036.505407	0.187713
1036.673356	0.187970
1036.841287	0.185517
1037.009200	0.185043
1037.177094	0.183466
1037.344970	0.184097
1037.512828	0.186363
1037.680668	0.187911
1037.848489	0.187151
1038.016293	0.189479
1038.184078	0.189754
1038.351845	0.189061
1038.519593	0.187247
1038.687324	0.188155
1038.855036	0.186619
1039.022730	0.185439
1039.190406	0.185272
1039.358063	0.184560
1039.525702	0.180206
1039.693323	0.183785
1039.860926	0.185657
1040.028511	0.187704
1040.196077	0.187248
1040.363625	0.186911
1040.531155	0.185688
1040.698667	0.186560
1040.866161	0.186540
1041.033636	0.187312
1041.201093	0.184668
1041.368532	0.183520
1041.535952	0.180711
1041.703355	0.182481
1041.870739	0.184701
1042.038105	0.184281
1042.205452	0.182992
1042.372782	0.184247
1042.540093	0.184192
1042.707386	0.183047
1042.874661	0.183580
1043.041918	0.186948
1043.209156	0.185715
1043.376376	0.185708
1043.543578	0.188288
1043.710762	0.189925
1043.877927	0.188172
1044.045074	0.189092
1044.212203	0.191450
1044.379314	0.191800
1044.546407	0.187259
1044.713481	0.185492
1044.880537	0.184045
1045.047575	0.184648
1045.214595	0.183253
1045.381596	0.184588
1045.548579	0.183048
1045.715544	0.182676
1045.882491	0.183028
1046.049420	0.186068
1046.216330	0.186475
1046.383222	0.186423
1046.550096	0.182660
1046.716951	0.183831
1046.883789	0.183207
1047.050608	0.183416
1047.217409	0.183467
1047.384192	0.182585
1047.550956	0.182254
1047.717703	0.185246
1047.884431	0.185871
1048.051140	0.187599
1048.217832	0.185893
1048.384505	0.185811
1048.551161	0.187683
1048.717798	0.187313
1048.884416	0.189219
1049.051017	0.188244
1049.217599	0.188006
1049.384163	0.186885
1049.550709	0.185612
1049.717237	0.187753
1049.883746	0.188869
1050.050237	0.185825
1050.216710	0.185548
1050.383165	0.184510
1050.549601	0.183741
1050.716019	0.182539
1050.882420	0.182699
1051.048801	0.183615
1051.215165	0.182374
1051.381510	0.183294
1051.547837	0.187011
1051.714146	0.184313
1051.880437	0.183881
1052.046709	0.186769
1052.212964	0.185842
1052.379200	0.184864
1052.545417	0.185747
1052.711617	0.184934
1052.877798	0.185030
1053.043961	0.186190
1053.210106	0.188932
1053.376233	0.188880
1053.542341	0.186462
1053.708432	0.187375
1053.874504	0.187268
1054.040557	0.186640
1054.206593	0.187842
1054.372610	0.187071
1054.538609	0.184874
1054.704590	0.184286
1054.870553	0.183644
1055.036497	0.186566
1055.202424	0.187972
1055.368331	0.186871
1055.534221	0.188322
1055.700093	0.186696
1055.865946	0.186059
1056.031781	0.185414
1056.197598	0.185936
1056.363397	0.185669
1056.529177	0.183015
1056.694939	0.180931
1056.860683	0.182625
1057.026409	0.181584
1057.192116	0.183682
1057.357806	0.184462
1057.523477	0.183371
1057.689130	0.183270
1057.854764	0.184611
1058.020381	0.183922
1058.185979	0.185290
1058.351559	0.183507
1058.517120	0.180417
1058.682664	0.179682
1058.848189	0.179737
1059.013696	0.181811
1059.179185	0.183144
1059.344656	0.181326
1059.510108	0.180926
1059.675542	0.179214
1059.840958	0.181615
1060.006356	0.185286
1060.171735	0.185182
1060.337096	0.181463
1060.502439	0.179317
1060.667764	0.176637
1060.833071	0.177339
1060.998359	0.180016
1061.163629	0.181175
1061.328881	0.180067
1061.494115	0.179371
1061.659330	0.180100
1061.824527	0.182021
1061.989706	0.184734
1062.154867	0.186111
1062.320010	0.185849
1062.485134	0.183676
1062.650240	0.183561
1062.815328	0.184820
1062.980398	0.185743
1063.145449	0.186167
1063.310482	0.189134
1063.475497	0.186914
1063.640494	0.188007
1063.805473	0.190737
1063.970433	0.191339
1064.135375	0.191419
1064.300299	0.194725
1064.465204	0.195246
1064.630092	0.191681
1064.794961	0.192210
1064.959812	0.193005
1065.124645	0.189954
1065.289459	0.186306
1065.454256	0.187805
1065.619034	0.186154
1065.783793	0.182554
1065.948535	0.181314
1066.113258	0.184684
1066.277964	0.180389
1066.442651	0.179960
1066.607319	0.182484
1066.771970	0.184330
1066.936602	0.184329
1067.101216	0.185537
1067.265812	0.185907
1067.430389	0.186704
1067.594949	0.186168
1067.759490	0.187581
1067.924013	0.186512
1068.088518	0.185740
1068.253004	0.187052
1068.417472	0.185177
1068.581922	0.183330
1068.746354	0.183482
1068.910768	0.184245
1069.075163	0.182392
1069.239540	0.183305
1069.403899	0.186721
1069.568240	0.185828
1069.732562	0.183972
1069.896866	0.187046
1070.061152	0.188076
1070.225420	0.188034
1070.389670	0.186332
1070.553901	0.187728
1070.718114	0.188916
1070.882309	0.186562
1071.046486	0.188358
1071.210644	0.190206
1071.374784	0.190524
1071.538906	0.191681
1071.703010	0.191094
1071.867096	0.190112
1072.031163	0.193474
1072.195212	0.190696
1072.359243	0.192892
1072.523256	0.191362
1072.687250	0.188593
1072.851226	0.184641
1073.015184	0.183266
1073.179124	0.183759
1073.343045	0.186426
1073.506949	0.183712
1073.670834	0.185279
1073.834701	0.184845
1073.998549	0.186828
1074.162380	0.186518
1074.326192	0.188845
1074.489986	0.187295
1074.653761	0.187147
1074.817519	0.187663
1074.981258	0.186929
1075.144979	0.185874
1075.308682	0.184740
1075.472367	0.183410
1075.636033	0.183643
1075.799681	0.185490
1075.963311	0.187561
1076.126923	0.188848
1076.290516	0.188464
1076.454092	0.188897
1076.617649	0.191901
1076.781187	0.191700
1076.944708	0.190791
1077.108210	0.193675
1077.271695	0.189662
1077.435160	0.190402
1077.598608	0.190764
1077.762038	0.188299
1077.925449	0.188763
1078.088842	0.186416
1078.252217	0.188796
1078.415573	0.189907
1078.578912	0.186020
1078.742232	0.185087
1078.905534	0.183744
1079.068817	0.183453
1079.232083	0.184127
1079.395330	0.180164
1079.558559	0.178661
1079.721770	0.177001
1079.884962	0.180152
1080.048136	0.181782
1080.211293	0.184840
1080.374430	0.188922
1080.537550	0.191112
1080.700651	0.193729
1080.863735	0.195383
1081.026800	0.198377
1081.189846	0.198687
1081.352875	0.195216
1081.515885	0.196914
1081.678877	0.195894
1081.841851	0.190287
1082.004807	0.188412
1082.167744	0.191807
1082.330663	0.194511
1082.493564	0.189060
1082.656447	0.190153
1082.819312	0.189349
1082.982158	0.185635
1083.144986	0.185504
1083.307796	0.189278
1083.470587	0.186575
1083.633361	0.181334
1083.796116	0.179483
1083.958853	0.184678
1084.121571	0.182824
1084.284272	0.181784
1084.446954	0.184623
1084.609618	0.183978
1084.772264	0.180759
1084.934892	0.182423
1085.097501	0.181832
1085.260092	0.185016
1085.422665	0.184829
1085.585220	0.185143
1085.747756	0.188173
1085.910274	0.190175
1086.072774	0.192165
1086.235256	0.196658
1086.397720	0.196815
1086.560165	0.198892
1086.722592	0.198035
1086.885001	0.196626
1087.047392	0.196801
1087.209764	0.195143
1087.372119	0.194596
1087.534455	0.191735
1087.696772	0.190926
1087.859072	0.189718
1088.021353	0.189339
1088.183616	0.188929
1088.345861	0.187523
1088.508088	0.187609
1088.670296	0.188745
1088.832486	0.187827
1088.994658	0.190686
1089.156812	0.189676
1089.318948	0.192952
1089.481065	0.192155
1089.643164	0.192606
1089.805245	0.195754
1089.967308	0.197474
1090.129352	0.199076
1090.291378	0.198404
1090.453386	0.194466
1090.615376	0.192679
1090.777347	0.189753
1090.939301	0.188232
1091.101236	0.188804
1091.263153	0.190167
1091.425051	0.191080
1091.586932	0.190320
1091.748794	0.193175
1091.910638	0.194235
1092.072463	0.199100
1092.234271	0.201122
1092.396060	0.204231
1092.557831	0.203985
1092.719584	0.200051
1092.881319	0.195971
1093.043035	0.194320
1093.204733	0.195556
1093.366413	0.198519
1093.528075	0.196406
1093.689718	0.194681
1093.851343	0.192844
1094.012950	0.190817
1094.174539	0.193865
1094.336110	0.195111
1094.497662	0.196348
1094.659196	0.190500
1094.820712	0.187554
1094.982210	0.187274
1095.143689	0.191263
1095.305151	0.192505
1095.466594	0.192479
1095.628018	0.193008
1095.789425	0.195191
1095.950813	0.195928
1096.112183	0.199028
1096.273535	0.200584
1096.434869	0.202551
1096.596184	0.197973
1096.757482	0.196019
1096.918761	0.197113
1097.080021	0.195215
1097.241264	0.189504
1097.402488	0.186498
1097.563694	0.187359
1097.724882	0.189064
1097.886052	0.187696
1098.047203	0.189777
1098.208336	0.191546
1098.369451	0.192965
1098.530548	0.191414
1098.691627	0.192213
1098.852687	0.198039
1099.013729	0.193449
1099.174753	0.191797
1099.335758	0.190837
1099.496746	0.189519
1099.657715	0.187869
1099.818666	0.182757
1099.979599	0.186780
1100.140513	0.191680
1100.301409	0.187797
1100.462287	0.191960
1100.623147	0.191489
1100.783989	0.194645
1100.944812	0.194681
1101.105617	0.193990
1101.266404	0.197106
1101.427173	0.193976
1101.587923	0.194346
1101.748656	0.196028
1101.909370	0.199703
1102.070066	0.199484
1102.230743	0.194816
1102.391403	0.197630
1102.552044	0.199175
1102.712667	0.196178
1102.873271	0.194370
1103.033858	0.194544
1103.194426	0.195705
1103.354976	0.193876
1103.515508	0.195441
1103.676021	0.197393
1103.836517	0.198130
1103.996994	0.200740
1104.157453	0.208277
1104.317893	0.209026
1104.478316	0.206992
1104.638720	0.203699
1104.799106	0.198753
1104.959474	0.200567
1105.119823	0.199771
1105.280155	0.199749
1105.440468	0.198274
1105.600763	0.198390
1105.761039	0.199924
1105.921298	0.201184
1106.081538	0.202262
1106.241760	0.207425
1106.401964	0.205240
1106.562149	0.208579
1106.722316	0.202960
1106.882465	0.201595
1107.042596	0.194786
1107.202709	0.194373
1107.362803	0.193917
1107.522879	0.190798
1107.682937	0.188047
1107.842977	0.191295
1108.002999	0.189486
1108.163002	0.194595
1108.322987	0.191964
1108.482954	0.194453
1108.642902	0.199166
1108.802833	0.200852
1108.962745	0.202157
1109.122639	0.201942
1109.282515	0.196514
1109.442372	0.188953
1109.602211	0.185515
1109.762032	0.188801
1109.921835	0.187735
1110.081620	0.181563
1110.241386	0.178863
1110.401134	0.179078
1110.560864	0.176548
1110.720576	0.179654
1110.880269	0.186640
1111.039945	0.190101
1111.199602	0.189488
1111.359240	0.194770
1111.518861	0.193885
1111.678463	0.196369
1111.838047	0.201304
1111.997613	0.201139
1112.157161	0.200006
1112.316690	0.197753
1112.476202	0.198027
1112.635695	0.200391
1112.795169	0.200497
1112.954626	0.206521
1113.114064	0.206010
1113.273484	0.202810
1113.432886	0.205138
1113.592270	0.204043
1113.751635	0.208041
1113.910983	0.210463
1114.070312	0.204055
1114.229622	0.197849
1114.388915	0.189392
1114.548189	0.183736
1114.707445	0.183075
1114.866683	0.181080
1115.025903	0.178977
1115.185104	0.178243
1115.344287	0.172510
1115.503452	0.175023
1115.662599	0.176378
1115.821727	0.182259
1115.980838	0.185040
1116.139930	0.187053
1116.299004	0.190580
1116.458059	0.193880
1116.617097	0.194122
1116.776116	0.194905
1116.935117	0.197949
1117.094099	0.201445
1117.253064	0.200954
1117.412010	0.203117
1117.570938	0.199824
1117.729848	0.196664
1117.888740	0.195487
1118.047613	0.195152
1118.206468	0.194308
1118.365305	0.198436
1118.524124	0.192870
1118.682924	0.196599
1118.841707	0.196662
1119.000471	0.195937
1119.159216	0.195647
1119.317944	0.200522
1119.476653	0.199017
1119.635344	0.195829
1119.794017	0.191478
1119.952672	0.193252
1120.111308	0.188365
1120.269927	0.196245
1120.428527	0.197121
1120.587108	0.199131
1120.745672	0.196515
1120.904217	0.195085
1121.062744	0.201672
1121.221253	0.199237
1121.379744	0.199713
1121.538216	0.202636
1121.696671	0.193542
1121.855107	0.194382
1122.013524	0.197421
1122.171924	0.203292
1122.330305	0.202733
1122.488668	0.205023
1122.647013	0.205488
1122.805340	0.206221
1122.963648	0.204367
1123.121938	0.204721
1123.280210	0.207561
1123.438464	0.209858
1123.596700	0.201903
1123.754917	0.205686
1123.913116	0.200009
1124.071297	0.200155
1124.229459	0.199778
1124.387604	0.200014
1124.545730	0.203604
1124.703838	0.196525
1124.861928	0.186489
1125.019999	0.187815
1125.178052	0.184504
1125.336088	0.184973
1125.494104	0.185497
1125.652103	0.184642
1125.810083	0.191547
1125.968045	0.183701
1126.125989	0.193727
1126.283915	0.199954
1126.441823	0.206528
1126.599712	0.205705
1126.757583	0.199886
1126.915436	0.198359
1127.073270	0.197792
1127.231087	0.185988
1127.388885	0.190888
1127.546665	0.187057
1127.704426	0.178253
1127.862170	0.171757
1128.019895	0.173934
1128.177602	0.183177
1128.335291	0.186096
1128.492961	0.187688
1128.650614	0.191607
1128.808248	0.188571
1128.965864	0.191976
1129.123461	0.196302
1129.281041	0.198767
1129.438602	0.198048
1129.596145	0.190592
1129.753670	0.180340
1129.911176	0.180989
1130.068665	0.186843
1130.226135	0.183498
1130.383587	0.178194
1130.541020	0.182417
1130.698436	0.179136
1130.855833	0.176858
1131.013212	0.183772
1131.170573	0.193521
1131.327915	0.193365
1131.485239	0.190392
1131.642545	0.193104
1131.799833	0.191863
1131.957103	0.191318
1132.114354	0.193315
1132.271588	0.196940
1132.428803	0.197279
1132.585999	0.198937
1132.743178	0.194672
1132.900338	0.193064
1133.057480	0.198668
1133.214604	0.198220
1133.371710	0.194286
1133.528797	0.194835
1133.685866	0.192346
1133.842917	0.186673
1133.999950	0.181982
1134.156964	0.180653
1134.313960	0.178839
1134.470938	0.174118
1134.627898	0.172273
1134.784840	0.179232
1134.941763	0.181503
1135.098668	0.175219
1135.255555	0.175590
1135.412424	0.175902
1135.569274	0.182870
1135.726107	0.181947
1135.882921	0.184271
1136.039716	0.184615
1136.196494	0.179746
1136.353253	0.181202
1136.509995	0.190378
1136.666717	0.190328
1136.823422	0.191269
1136.980109	0.189970
1137.136777	0.188007
1137.293427	0.187835
1137.450059	0.190385
1137.606672	0.187864
1137.763267	0.180074
1137.919844	0.177122
1138.076403	0.180682
1138.232944	0.178054
1138.389466	0.172260
1138.545971	0.172711
1138.702457	0.172047
1138.858924	0.172834
1139.015374	0.174375
1139.171805	0.177045
1139.328218	0.185205
1139.484613	0.186155
1139.640990	0.188180
1139.797348	0.188024
1139.953688	0.192927
1140.110010	0.198067
1140.266314	0.191317
1140.422600	0.186722
1140.578867	0.182850
1140.735116	0.180360
1140.891347	0.172522
1141.047559	0.175939
1141.203754	0.175205
1141.359930	0.176099
1141.516088	0.174428
1141.672228	0.174383
1141.828349	0.184860
1141.984452	0.188478
1142.140537	0.178951
1142.296604	0.180785
1142.452653	0.176403
1142.608683	0.185367
1142.764695	0.187607
1142.920689	0.183636
1143.076665	0.186347
1143.232622	0.177742
1143.388562	0.176682
1143.544483	0.182484
1143.700385	0.188314
1143.856270	0.193501
1144.012136	0.185983
1144.167985	0.180733
1144.323814	0.178764
1144.479626	0.181995
1144.635420	0.189122
1144.791195	0.184688
1144.946952	0.182520
1145.102691	0.178584
1145.258411	0.172379
1145.414113	0.176271
1145.569798	0.169319
1145.725463	0.171628
1145.881111	0.166018
1146.036741	0.163215
1146.192352	0.167463
1146.347945	0.169257
1146.503519	0.168819
1146.659076	0.175733
1146.814614	0.180481
1146.970134	0.186392
1147.125636	0.184349
1147.281120	0.186657
1147.436585	0.189867
1147.592032	0.192184
1147.747461	0.196814
1147.902872	0.196501
1148.058265	0.196202
1148.213639	0.196125
1148.368995	0.196453
1148.524333	0.208701
1148.679653	0.216421
1148.834954	0.206931
1148.990237	0.211467
1149.145502	0.210800
1149.300749	0.213874
1149.455977	0.203963
1149.611188	0.197295
1149.766380	0.199250
1149.921553	0.191655
1150.076709	0.186331
1150.231846	0.194231
1150.386966	0.191696
1150.542066	0.178119
1150.697149	0.181036
1150.852214	0.186453
1151.007260	0.179615
1151.162288	0.176927
1151.317298	0.171689
1151.472289	0.173798
1151.627263	0.180018
1151.782218	0.176090
1151.937155	0.179143
1152.092073	0.175253
1152.246974	0.174073
1152.401856	0.189284
1152.556720	0.192259
1152.711566	0.188040
1152.866393	0.184294
1153.021203	0.173239
1153.175994	0.177680
1153.330767	0.183367
1153.485521	0.189191
1153.640258	0.196821
1153.794976	0.185362
1153.949676	0.184102
1154.104358	0.192658
1154.259021	0.187655
1154.413667	0.185002
1154.568294	0.175226
1154.722903	0.171920
1154.877493	0.154247
1155.032066	0.139904
1155.186620	0.136287
1155.341156	0.125319
1155.495674	0.128590
1155.650173	0.138997
1155.804654	0.145665
1155.959118	0.145229
1156.113562	0.151418
1156.267989	0.169071
1156.422397	0.170156
1156.576788	0.171523
1156.731160	0.174704
1156.885513	0.171350
1157.039849	0.160598
1157.194166	0.152280
1157.348465	0.161127
1157.502746	0.155531
1157.657009	0.150161
1157.811253	0.155439
1157.965479	0.157707
1158.119687	0.158493
1158.273877	0.154757
1158.428048	0.166357
1158.582201	0.172606
1158.736337	0.166978
1158.890453	0.169844
1159.044552	0.172066
1159.198632	0.178442
1159.352694	0.184748
1159.506738	0.198275
1159.660764	0.209733
1159.814771	0.210972
1159.968761	0.214857
1160.122732	0.222309
1160.276685	0.227240
1160.430619	0.221511
1160.584535	0.207329
1160.738434	0.209580
1160.892313	0.196800
1161.046175	0.187940
1161.200019	0.184254
1161.353844	0.177905
1161.507651	0.171647
1161.661440	0.164667
1161.815210	0.149941
1161.968962	0.145113
1162.122697	0.149074
1162.276412	0.150883
1162.430110	0.156780
1162.583789	0.139195
1162.737451	0.143678
1162.891094	0.135533
1163.044718	0.132289
1163.198325	0.151845
1163.351913	0.169044
1163.505483	0.159526
1163.659035	0.154519
1163.812569	0.147167
1163.966084	0.170428
1164.119581	0.171275
1164.273060	0.170535
1164.426521	0.177178
1164.579964	0.161330
1164.733388	0.151407
1164.886794	0.154144
1165.040182	0.149413
1165.193551	0.146872
1165.346903	0.132035
1165.500236	0.134223
1165.653551	0.139816
1165.806848	0.128055
1165.960126	0.138608
1166.113386	0.140592
1166.266628	0.144804
1166.419852	0.148767
1166.573058	0.155767
1166.726245	0.163562
1166.879414	0.160184
1167.032565	0.163667
1167.185698	0.178045
1167.338812	0.167481
1167.491909	0.180359
1167.644987	0.173620
1167.798046	0.182908
1167.951088	0.176910
1168.104111	0.164993
1168.257117	0.154394
1168.410103	0.155145
1168.563072	0.145768
1168.716023	0.167656
1168.868955	0.155804
1169.021869	0.156819
1169.174765	0.156533
1169.327642	0.143597
1169.480501	0.151292
1169.633343	0.150901
1169.786165	0.151656
1169.938970	0.138281
1170.091757	0.127060
1170.244525	0.120552
1170.397275	0.115984
1170.550007	0.114715
1170.702720	0.128399
1170.855415	0.119026
1171.008092	0.133951
1171.160751	0.141850
1171.313392	0.169468
1171.466014	0.057786
1171.618619	0.258421
1171.771205	0.258421
1171.923772	0.258421
