sample name	sample
index	851
start time	 04-08-2021  10:45:40 AM
880	0.452347
Peak Time (s)	102.535
Peak Height 	0.4523
calc peak height	100,103
Baseline Time (s)	11.038
Baseline Value 	-0.005867
subtract baseline	10,4
Abs	0.335013
Peak Time (s)	101.538
Peak Height 	0.335
calc peak height	100,103
Baseline Time (s)	11.038
Baseline Value 	0.004596
subtract baseline	10,3
PK_550	0.178103
Peak Time (s)	101.538
Peak Height 	0.1781
calc peak height	100,103
Baseline Time (s)	8.537
Baseline Value 	9.7863E-4
subtract baseline	10,2
PK_880	0.313558
Peak Time (s)	101.538
Peak Height 	0.3136
calc peak height	100,103
Baseline Time (s)	8.537
Baseline Value 	0.002432
subtract baseline	10,1


Time (s)	A880-A510	A880-A775	A880-A975	A880	I510	I775	I975	I880	
0.034000	0.000343	-0.000523	0.000405	0.001715	6854.230591	42512.833475	3834.376508	22621.385670
0.537500	-0.002112	-0.000208	-0.000473	0.005028	6799.398771	42239.037507	3823.191585	22469.893796
1.035500	-0.002680	-0.000760	-0.002243	0.005681	6787.881117	42129.531392	3816.772484	22440.158616
1.538000	-0.000618	-0.001418	-0.004529	0.003391	6829.071264	42277.899743	3816.782710	22544.598735
2.035500	-0.000043	-0.000716	-0.004488	-0.000203	6868.918341	42671.150512	3826.426345	22709.628487
2.536000	0.001066	0.000095	0.003505	0.000730	6870.611222	42659.922184	3845.386280	22666.667876
3.036000	-0.002874	-0.000438	-0.006156	0.004406	6798.076749	42274.680451	3809.823096	22498.223760
3.536000	0.001096	-0.000372	-0.000477	0.000394	6874.130488	42647.894705	3835.555926	22682.134554
4.037000	-0.000076	-0.000437	-0.002288	0.000358	6863.213542	42645.245772	3830.799968	22683.777829
4.536500	-0.002346	-0.000113	-0.002858	0.000565	6839.525351	42655.954370	3828.723901	22674.238358
5.037000	-0.000151	-0.000732	-0.002603	0.000052	6865.432476	42646.220212	3830.775628	22697.863837
5.537500	0.000775	-0.000042	-0.001361	0.000831	6866.846298	42638.124347	3832.014933	22662.024150
6.035000	0.000741	-0.001158	0.002070	-0.000209	6876.505305	42631.081877	3844.042676	22709.908299
6.538000	-0.000301	-0.000374	0.000350	0.000407	6860.595932	42646.532427	3837.745070	22681.536551
7.035500	-0.000846	-0.000133	0.002541	0.000202	6857.329786	42687.481403	3844.205036	22690.951666
7.536000	-0.001017	0.000103	-0.002713	0.000194	6855.768232	42709.967282	3830.100555	22691.319250
8.036500	-0.000271	0.000017	-0.001914	0.000161	6863.233503	42705.146849	3832.328689	22692.864824
8.536500	0.000000	0.000000	0.003283	0.000357	6863.951012	42685.488835	3845.795072	22683.811817
9.036500	-0.000012	0.000174	-0.003384	0.000620	6861.315763	42677.263037	3827.173164	22671.698891
9.537000	0.001020	0.000051	0.000953	0.000278	6874.505448	42697.470079	3839.714893	22687.460840
10.037500	-0.000976	-0.000565	0.002078	-0.000228	6860.202838	42687.366229	3844.118193	22710.783885
10.534000	0.000048	0.000015	-0.000118	-0.000222	6869.968072	42740.172120	3838.175500	22710.495022
11.038000	0.000782	-0.000744	0.000000	0.000000	6874.888413	42649.912286	3837.896534	22700.271456
11.535500	-0.002076	-0.000751	-0.000848	-0.000323	6850.581975	42678.988508	3836.486003	22715.166992
12.035500	-0.000646	0.000191	0.000281	0.001319	6848.559440	42614.610854	3835.107610	22639.557231
12.536000	0.000023	-0.000531	0.001617	-0.000577	6873.141973	42722.607491	3843.812184	22726.865080
13.036000	0.002680	0.000143	0.002676	-0.000851	6901.415366	42810.054934	3847.423805	22739.536362
13.537000	0.002104	-0.000106	-0.003182	-0.000813	6895.481905	42783.610761	3831.540625	22737.784587
14.036500	-0.000961	-0.000770	-0.005924	0.002350	6835.719418	42432.052053	3815.847606	22592.261638
14.537000	0.000036	-0.001038	0.000082	0.001172	6856.484012	42515.309225	3834.966440	22646.322874
15.034500	0.002193	-0.000502	0.002790	-0.001700	6904.917635	42828.852877	3850.039093	22778.770556
15.535000	0.001453	-0.000480	0.000839	-0.001508	6895.894861	42813.168317	3844.226760	22769.874991
16.035500	0.001949	-0.000061	0.002737	0.001167	6874.893848	42605.433981	3842.126732	22646.553141
16.535500	0.002514	-0.000160	0.001177	-0.001407	6905.189974	42833.436040	3844.870349	22765.231838
17.036000	0.002851	-0.000684	0.000452	-0.003304	6926.884584	42960.423305	3848.045669	22853.136094
17.535500	0.001243	-0.000614	0.000195	0.000961	6870.092878	42573.555713	3835.836923	22656.034162
18.036500	-0.000108	-0.000639	-0.003589	0.001210	6854.743006	42548.405007	3825.056388	22644.562584
18.536500	0.001440	-0.000025	0.002985	0.001269	6869.021555	42599.411910	3842.523199	22641.891727
19.037000	0.000337	-0.000346	-0.003048	0.001325	6857.904801	42564.819615	3826.191257	22639.296191
19.537000	0.000330	-0.000421	-0.002040	0.001300	6858.078966	42560.251540	3828.945925	22640.459739
20.037500	0.001383	-0.000306	0.002313	0.000754	6873.418018	42620.913591	3842.099155	22665.548757
20.535500	-0.002484	-0.000402	0.001681	0.001150	6832.645027	42575.730692	3839.326912	22647.354970
21.035500	-0.000546	-0.000349	-0.002275	0.001081	6851.791889	42586.881638	3828.903768	22650.521769
21.535500	0.001142	-0.000229	0.004000	0.001153	6867.277041	42591.284459	3845.581845	22647.216210
22.036000	0.001053	-0.000785	-0.000105	0.000991	6867.967327	42555.079799	3834.951792	22654.638782
22.536500	-0.001347	0.000101	0.002482	0.001601	6839.167881	42580.406781	3840.268247	22626.605953
23.036500	0.000660	-0.000112	-0.000674	0.001691	6857.495156	42552.640102	3831.550006	22622.485390
23.537000	0.000306	0.000475	0.000232	0.001336	6857.501480	42639.143977	3834.928501	22638.776458
24.037000	0.001926	0.000453	0.001885	0.001723	6869.333371	42601.672620	3838.333592	22621.040288
24.537500	0.000885	0.000103	-0.001561	0.001500	6861.480787	42589.921724	3829.691987	22631.262770
25.037500	-0.000555	-0.000618	-0.002733	0.000710	6855.247763	42596.247843	3828.669058	22667.559226
25.535000	-0.000589	0.000211	-0.000862	0.001812	6844.393022	42571.182136	3830.723332	22616.920955
26.035500	-0.001192	-0.000970	0.000835	0.000889	6847.446860	42547.481233	3837.751301	22659.320986
26.536000	0.000566	0.000231	0.002226	0.002026	6853.387980	42553.400471	3838.433052	22607.104444
27.036000	0.002722	0.000418	0.002689	-0.000725	6900.603536	42823.790762	3847.118759	22733.730654
27.536500	0.001686	-0.000341	0.004113	-0.001142	6894.617702	42792.213210	3852.119738	22752.976509
28.036500	-0.000176	0.000503	0.000187	0.001766	6848.781975	42602.294268	3833.658228	22619.061340
28.536500	0.002200	0.000811	-0.003510	-0.000396	6892.375942	42829.726279	3829.547425	22718.522127
29.037000	0.001663	-0.000223	0.004223	-0.000989	6892.916619	42788.917269	3852.002753	22745.889482
29.539500	0.002069	-0.000344	-0.001151	-0.001053	6897.462196	42783.788778	3837.633577	22748.877721
30.035500	0.000496	0.000212	0.005753	-0.000402	6876.014234	42774.978174	3854.574319	22718.810150
30.535000	0.002973	0.000509	0.002779	0.003348	6863.782283	42457.767094	3836.366540	22546.572055
31.035500	-0.001941	-0.000412	-0.001458	0.001670	6832.862819	42527.140688	3829.511294	22623.471224
31.535500	0.001243	0.000675	0.000685	-0.000471	6883.861235	42824.058629	3841.009351	22721.971985
32.036000	0.000921	0.000285	0.001047	0.001532	6861.516806	42603.665737	3836.592384	22629.778350
32.535500	0.000332	-0.000449	0.002054	-0.001140	6881.540718	42782.120767	3846.521459	22752.893457
33.037000	-0.001524	-0.000372	-0.003166	0.003423	6820.159017	42370.422906	3820.303648	22543.138351
33.537500	-0.001383	-0.000925	0.000859	0.000099	6853.178438	42624.141287	3839.941495	22695.706000
34.040000	-0.000024	-0.000199	0.002949	0.001870	6849.231296	42528.298710	3840.803113	22614.267603
34.535000	0.000250	0.000087	-0.001228	0.001720	6853.293906	42568.340227	3829.992969	22621.181217
35.035000	-0.001425	-0.000710	-0.000895	0.001477	6839.607567	42517.470617	3831.531536	22632.300311
35.535500	-0.000659	-0.000119	0.000447	0.001397	6847.690049	42578.974428	3835.342183	22635.978541
36.035500	0.000131	0.000521	0.004983	0.002436	6845.312415	42542.474618	3844.771094	22588.340508
36.536000	-0.000284	0.000208	0.002059	0.002182	6843.776356	42536.947228	3837.565272	22599.955781
37.036500	-0.000131	-0.000233	0.003202	0.002013	6846.847684	42512.104801	3841.101772	22607.731112
37.536500	0.000287	0.001010	0.000382	0.002474	6846.434777	42583.787225	3832.281884	22586.561780
38.036500	-0.001156	0.000150	0.002031	0.002454	6832.874677	42506.736751	3836.759099	22587.505409
38.537000	-0.000470	0.000062	0.000251	0.002093	6842.848070	42531.753935	3832.949279	22604.024729
39.037500	-0.001903	-0.000641	-0.002393	0.001627	6833.633887	42510.023683	3827.131473	22625.434408
39.535000	-0.000360	-0.000068	0.005334	0.001962	6845.150652	42531.816466	3847.004253	22610.047712
40.035000	-0.001598	-0.000130	-0.003908	0.002138	6831.663281	42510.045253	3821.743408	22601.959032
40.536000	0.000660	0.000198	-0.002235	0.001948	6855.035949	42557.615480	3826.697875	22610.716707
41.036000	0.000506	-0.000142	-0.000027	0.001769	6855.275580	42542.809355	3833.074527	22618.921349
41.536000	-0.000931	0.000545	-0.001339	0.002712	6832.553967	42519.285920	3827.049346	22575.659297
42.036500	0.000825	0.000207	-0.000774	0.001918	6856.902304	42561.144350	3830.675839	22612.071448
42.536500	0.000544	0.000158	0.003665	0.002273	6850.811279	42524.067277	3841.645951	22595.780738
43.037000	0.001054	-0.000216	-0.000650	0.001652	6861.641464	42546.705666	3831.718237	22624.269472
43.537500	0.004845	0.000929	0.006851	-0.001442	6928.172464	42937.369959	3860.422938	22766.849993
44.037500	-0.000807	-0.000302	0.002568	0.000769	6852.278266	42619.906101	3842.746944	22664.870772
44.534500	0.003550	0.001030	0.007190	-0.000034	6901.927683	42816.504943	3857.492844	22701.838117
45.035500	0.000480	-0.000056	0.001092	0.000806	6864.247068	42639.102100	3838.667022	22663.153557
45.536000	-0.000044	-0.000337	0.005873	-0.000732	6873.982608	42754.748573	3855.801161	22734.020570
46.036000	0.001618	0.000640	0.003183	0.003545	6848.917058	42451.719754	3836.923044	22537.539233
46.535500	0.002072	0.000124	0.005261	-0.000828	6895.310853	42806.135295	3854.391439	22738.445188
47.036500	0.000313	0.000687	0.003778	0.003560	6836.328476	42454.612988	3838.483248	22536.868856
47.537000	0.002164	-0.000016	0.002772	0.000691	6881.539137	42653.298040	3843.509015	22668.451118
48.040000	-0.002051	0.000781	-0.001213	0.005531	6795.225190	42283.351748	3819.893719	22446.994075
48.537500	0.001436	0.000309	0.001944	-0.000180	6882.922277	42763.500528	3843.626000	22708.590044
49.034500	-0.000159	-0.000873	0.002291	-0.000604	6871.657496	42693.647670	3845.710708	22728.128496
49.535500	0.001308	-0.000003	0.003513	-0.000819	6887.844989	42793.569811	3849.608955	22738.036483
50.035500	0.001427	-0.000736	0.005969	-0.001378	6894.396303	42777.572761	3857.831164	22763.893732
50.535000	-0.018200	-0.005953	0.011287	0.062814	6157.909025	36861.086043	3707.182690	20004.994922
51.036500	-0.060525	-0.020984	0.038630	0.256013	4709.732869	23857.624554	3377.793351	13785.643796
51.536000	-0.059224	-0.020922	0.003932	0.015942	6204.804959	39463.405647	3806.028906	21978.855342
52.037000	-0.057597	-0.039330	-0.019527	-0.194960	8418.380885	59955.940139	4419.427266	34041.067017
52.540000	-0.031304	-0.112824	-0.012605	-0.308849	10597.522380	65535.000000	4980.659952	43442.820151
53.037500	-0.010410	-0.031889	0.000692	-0.199213	9137.644030	61517.957244	4520.863312	34349.633498
53.537500	-0.015377	-0.022179	0.000279	-0.163022	8555.422292	58039.993459	4371.222291	31817.921069
54.035000	-0.009742	-0.017616	0.004968	-0.153615	8504.773292	57426.459681	4352.837640	31193.671965
54.535500	0.000339	-0.012566	0.007466	-0.147123	8552.954982	57245.044529	4337.425016	30770.639582
55.036000	0.017120	-0.004062	0.016530	-0.129767	8545.208527	56144.966948	4305.881885	29670.392010
55.536000	0.035141	0.003172	0.026979	-0.120174	8659.781391	55855.538276	4309.110482	29080.824460
56.036000	0.050442	0.012299	0.036598	-0.089322	8450.088067	53263.012412	4230.875758	27270.741570
56.535500	0.063430	0.021314	0.054351	-0.054621	8169.593518	50360.436794	4171.119809	25382.731539
57.037000	0.073791	0.030673	0.070845	-0.008515	7737.323072	46495.325500	4072.147743	23096.582047
57.536500	0.083581	0.038452	0.081502	0.019988	7524.805116	44455.570270	4015.679744	21799.965397
58.037500	0.095117	0.045336	0.097440	0.041319	7417.172213	43090.126575	3999.069593	20883.800375
58.534500	0.108399	0.053634	0.112754	0.056164	7400.217258	42486.071594	4000.502295	20272.222498
59.035000	0.117192	0.061186	0.133166	0.092515	7111.136606	39934.695758	3952.542839	18860.089650
59.535500	0.128927	0.070865	0.136936	0.145332	6712.837140	36415.934590	3815.526638	17007.840493
60.035000	0.135565	0.074373	0.141417	0.184157	6426.064654	33784.356280	3728.391706	15782.980457
60.536000	0.144348	0.079541	0.154723	0.194066	6416.414886	33447.013598	3736.705578	15487.501730
61.044500	0.150292	0.082378	0.158814	0.201813	6401.010764	33101.654500	3727.758635	15261.156556
61.536500	0.154837	0.086092	0.168038	0.210088	6369.344936	32784.249107	3730.073698	15023.802836
62.037000	0.158230	0.088248	0.170903	0.219265	6320.774798	32302.073591	3714.770175	14765.795065
62.540500	0.165001	0.089476	0.171600	0.225175	6327.966544	31984.959851	3702.301622	14602.526651
63.038000	0.167736	0.091742	0.176933	0.234276	6275.148859	31527.954889	3693.376919	14355.367158
63.535000	0.171454	0.092810	0.179505	0.241144	6249.303545	31145.852376	3683.302319	14172.277324
64.035500	0.174268	0.096093	0.186706	0.252721	6178.365409	30608.130190	3673.136659	13870.100814
64.535500	0.173444	0.095943	0.192749	0.257026	6137.515539	30323.530868	3677.162632	13759.783209
65.035500	0.179113	0.098420	0.198629	0.265970	6111.677488	29915.600283	3670.077256	13534.035948
65.536000	0.182061	0.101003	0.199471	0.273588	6075.170422	29602.119619	3654.587927	13345.392119
66.036500	0.182540	0.100976	0.203324	0.280607	6024.692574	29169.448578	3647.432146	13174.468880
66.539500	0.186925	0.104598	0.206533	0.287118	6008.455820	28994.166478	3640.025956	13018.393015
67.036500	0.192103	0.105618	0.208882	0.293380	6000.194035	28678.881590	3631.320264	12870.451854
67.537500	0.189940	0.106631	0.212302	0.296970	5956.751407	28525.353564	3630.943626	12786.611070
68.034500	0.192727	0.108693	0.219865	0.304718	5919.740672	28189.665197	3630.534455	12607.986555
68.535000	0.195484	0.109321	0.223891	0.306481	5927.119527	28123.229459	3635.555196	12567.783916
69.035500	0.201808	0.112295	0.220568	0.312632	5928.404246	27938.088725	3614.708081	12428.797007
69.535500	0.202692	0.113191	0.221697	0.314867	5918.379765	27860.448592	3612.305641	12378.795814
70.036000	0.206616	0.115509	0.227340	0.321121	5901.147184	27633.635335	3610.980078	12240.192643
70.536000	0.209435	0.116717	0.230837	0.322564	5911.313714	27620.184293	3615.443625	12208.506192
71.039500	0.211914	0.118545	0.231112	0.326915	5897.490316	27475.899644	3606.607212	12113.557321
71.537000	0.216274	0.119785	0.241728	0.329769	5908.603266	27384.102775	3623.505505	12051.806966
72.036000	0.220721	0.122403	0.248618	0.335143	5901.758564	27228.103449	3626.840415	11936.606585
72.534000	0.224519	0.125371	0.247915	0.337401	5913.138220	27268.167616	3620.336708	11888.632464
73.035000	0.227043	0.126480	0.249382	0.340666	5907.656451	27146.672767	3616.410058	11819.706915
73.535500	0.232012	0.128040	0.257949	0.343105	5926.406712	27097.216138	3629.862619	11768.538476
74.035500	0.232971	0.130512	0.250755	0.348465	5893.865663	26935.696856	3602.502640	11657.136946
74.538500	0.233983	0.131436	0.262584	0.348695	5899.614188	26974.376406	3627.755223	11652.371453
75.036000	0.238797	0.132110	0.257731	0.351560	5914.017295	26852.377501	3610.877294	11593.412791
75.539000	0.243025	0.133595	0.261395	0.353377	5931.919410	26833.935645	3614.888395	11556.229224
76.036500	0.243992	0.135540	0.260095	0.356225	5917.943044	26783.815638	3605.901637	11498.236691
76.537000	0.246504	0.137425	0.267740	0.358419	5920.306794	26766.710699	3617.728409	11453.825564
77.037500	0.247142	0.138355	0.271588	0.361346	5903.365031	26656.402046	3619.741284	11394.918518
77.537500	0.250545	0.139784	0.270089	0.363482	5912.729217	26617.462227	3611.822984	11352.192328
78.035500	0.252092	0.141206	0.273219	0.366573	5901.321052	26525.804830	3611.905267	11290.719976
78.535500	0.257348	0.142118	0.275623	0.367885	5930.537209	26503.899180	3614.277943	11264.754861
79.035500	0.255770	0.143157	0.275919	0.370326	5900.771729	26427.238504	3609.623856	11216.675609
79.536000	0.259361	0.144620	0.272659	0.372522	5911.072156	26387.257815	3597.886269	11173.636338
80.036000	0.260160	0.145362	0.284313	0.376490	5887.712779	26212.154628	3614.464799	11096.440813
80.536500	0.262247	0.146810	0.286600	0.377324	5896.933236	26245.363350	3617.630291	11080.306437
81.037000	0.266558	0.147860	0.291280	0.379002	5916.385788	26211.408028	3624.207465	11047.933876
81.534500	0.265787	0.149865	0.287842	0.381797	5890.066795	26168.732978	3610.604938	10994.286309
82.037000	0.269262	0.149544	0.287003	0.385017	5891.937053	25978.264184	3601.849292	10932.897161
82.535000	0.267399	0.149293	0.288639	0.384438	5882.514417	25995.867796	3606.616525	10943.908809
83.035000	0.271876	0.151874	0.291905	0.387551	5892.534451	25967.361915	3606.947408	10884.921537
83.535500	0.274863	0.153009	0.288517	0.389901	5897.216001	25902.440855	3594.642799	10840.666919
84.035500	0.277018	0.153369	0.293943	0.391359	5902.359816	25843.880412	3603.133456	10813.334638
84.536000	0.277717	0.155710	0.296356	0.394754	5882.524546	25787.860448	3601.023960	10750.035822
85.036000	0.279279	0.155621	0.299392	0.395919	5885.433518	25721.328177	3605.044976	10728.421629
85.536500	0.281402	0.157328	0.298963	0.397768	5887.448543	25713.829405	3600.152496	10694.256951
86.037000	0.280711	0.158284	0.303422	0.400369	5863.371162	25626.873220	3604.142562	10646.438440
86.537500	0.280279	0.159247	0.302931	0.402774	5842.758104	25550.967493	3597.930526	10602.464773
87.034500	0.285853	0.160340	0.306423	0.404259	5872.511626	25530.358934	3602.230887	10575.445841
87.535000	0.285146	0.161116	0.307950	0.405346	5859.416954	25514.011307	3603.175750	10555.712078
88.035500	0.286090	0.160722	0.303999	0.406884	5855.098655	25412.835800	3591.450419	10527.891317
88.535500	0.288015	0.161711	0.304089	0.409684	5848.748829	25318.430373	3585.714499	10477.486053
89.036500	0.291139	0.164029	0.310335	0.411329	5859.495563	25353.495469	3595.473914	10448.030441
89.539000	0.292156	0.164790	0.311190	0.413440	5851.542778	25283.259442	3592.799497	10410.387723
90.036500	0.293715	0.164860	0.308822	0.416016	5844.166640	25153.442591	3582.348105	10364.702890
90.537000	0.294832	0.166639	0.312506	0.419358	5828.089525	25072.820546	3583.068777	10305.830167
91.037000	0.296880	0.166655	0.307550	0.417595	5855.673275	25164.589747	3576.376270	10336.832888
91.537500	0.298960	0.168465	0.316761	0.420254	5851.464169	25120.735160	3590.161297	10290.117672
92.035000	0.298764	0.167940	0.309148	0.421812	5838.754389	25013.543808	3570.921794	10262.877889
92.535000	0.298468	0.167696	0.314012	0.423583	5823.851910	24910.385621	3577.367490	10232.055384
93.035500	0.301828	0.169789	0.318813	0.424223	5843.487175	24984.755832	3586.106232	10220.939927
93.538500	0.302319	0.170386	0.314458	0.424569	5844.537994	24997.594365	3576.237871	10214.934449
94.038500	0.303420	0.171692	0.314717	0.428736	5822.398215	24851.326157	3568.114693	10143.028274
94.536000	0.301269	0.171137	0.319468	0.430090	5797.290223	24754.290181	3575.171288	10119.814754
95.036500	0.304824	0.172192	0.324510	0.429421	5827.581952	24841.913571	3587.158992	10131.277128
95.537000	0.305457	0.171621	0.328264	0.429542	5831.268712	24806.680969	3594.867972	10129.198585
96.037000	0.305112	0.172330	0.320483	0.432022	5810.953537	24716.794252	3573.261197	10086.808184
96.537500	0.304117	0.172918	0.322728	0.436857	5769.448461	24502.715303	3567.886507	10004.855798
97.035000	0.307490	0.174532	0.327089	0.435309	5804.448519	24661.945933	3580.194197	10030.999473
97.535500	0.308303	0.175592	0.327044	0.436798	5799.612717	24640.275849	3576.983038	10005.857061
98.035000	0.307955	0.174769	0.323239	0.438095	5787.893921	24533.535196	3566.387084	9984.034802
98.536500	0.309821	0.174648	0.328643	0.438343	5799.417948	24514.978330	3577.095736	9979.853413
99.036000	0.309789	0.176573	0.328872	0.440574	5783.301158	24499.635392	3572.920691	9942.476156
99.536500	0.311543	0.176737	0.336154	0.441612	5788.395219	24455.848041	3586.003672	9925.155221
100.036500	0.311820	0.175582	0.333692	0.443298	5778.389267	24314.169680	3577.293935	9897.108133
100.534500	0.308653	0.174771	0.328170	0.447597	5725.891452	24061.616516	3556.996870	9826.071648
101.037500	0.312289	0.175982	0.331041	0.444345	5774.292960	24282.018106	3569.597436	9879.743640
101.538000	0.313558	0.178103	0.335013	0.446871	5765.401464	24261.927373	3572.598605	9838.018860
102.035000	0.313399	0.176633	0.333978	0.448965	5749.534335	24085.864048	3566.116312	9803.613000
102.535500	0.307278	0.175858	0.333222	0.452347	5683.490700	23882.332379	3557.613105	9748.388758
103.035500	0.314927	0.179736	0.333539	0.451314	5743.772865	24123.012422	3560.376707	9765.208550
103.539000	0.314536	0.179056	0.337272	0.451645	5738.710673	24073.226237	3567.383572	9759.818886
