sample name	sample
index	335
start time	 03-01-2021  10:32:51 AM
880	0.433681
Peak Time (s)	91.035
Peak Height 	0.4337
calc peak height	90,93
Baseline Time (s)	9.535
Baseline Value 	-0.001417
subtract baseline	10,4
Abs	0.255505
Peak Time (s)	92.536
Peak Height 	0.2555
calc peak height	90,93
Baseline Time (s)	10.036
Baseline Value 	0.003221
subtract baseline	10,3
PK_550	0.140876
Peak Time (s)	92.036
Peak Height 	0.1409
calc peak height	90,93
Baseline Time (s)	10.536
Baseline Value 	2.426E-4
subtract baseline	10,2
PK_880	0.260594
Peak Time (s)	91.535
Peak Height 	0.2606
calc peak height	90,93
Baseline Time (s)	11.537
Baseline Value 	-8.9716E-7
subtract baseline	10,1


Time (s)	A880-A510	A880-A775	A880-A975	A880	I510	I775	I975	I880	
0.035000	0.000458	0.000362	-0.001848	0.001117	6930.933359	48528.126353	3925.915634	25441.713481
0.535500	-0.002442	-0.000560	-0.004199	0.005886	6856.677743	47931.483077	3905.648847	25193.202647
1.035500	-0.000669	-0.000247	-0.003513	0.003329	6898.441274	48231.444436	3914.840191	25326.140009
1.538000	0.001220	0.000573	0.002237	0.000156	6947.799774	48652.042917	3940.484662	25492.136043
2.036500	0.002219	-0.000483	0.000626	0.000245	6956.730994	48531.058954	3935.555741	25487.444971
2.536500	-0.001494	-0.000112	-0.002069	0.002732	6896.226787	48308.293951	3920.659805	25357.252674
3.037000	0.002066	-0.000299	0.001478	-0.002075	6978.076681	48796.013299	3944.765554	25609.573915
3.537000	-0.000504	0.000153	-0.005399	0.000798	6924.649493	48539.783297	3916.676504	25458.417915
4.037500	0.002505	0.000238	-0.000439	0.001614	6946.100519	48462.673661	3928.537979	25415.706642
4.535000	0.000393	-0.000079	-0.000254	0.000593	6935.418807	48536.879205	3932.008275	25469.168523
5.035500	-0.000428	-0.000197	-0.002213	0.000095	6932.260371	48576.992170	3927.803485	25495.318332
5.535500	-0.000756	0.000235	-0.000370	0.000449	6925.602286	48585.258123	3932.090557	25476.727151
6.036000	0.002124	-0.000533	-0.000618	-0.000117	6959.351717	48563.984593	3933.008223	25506.453701
6.536000	0.000383	-0.000085	-0.000191	0.000164	6939.521339	48581.590000	3933.431664	25491.708420
7.036500	-0.001055	-0.000174	-0.000467	0.000124	6925.859902	48576.397714	3932.749690	25493.797969
7.536500	0.000084	-0.000203	-0.000030	0.000170	6936.535833	48568.555452	3933.878327	25491.392360
8.037000	0.001153	-0.000295	-0.001713	-0.000240	6951.027629	48602.051652	3930.207732	25512.924165
8.539500	-0.001532	-0.000407	-0.002036	-0.000277	6925.110919	48594.157570	3929.381867	25514.866293
9.038000	-0.000209	-0.000789	-0.000736	-0.000646	6941.654499	48592.750413	3934.195319	25534.270881
9.535000	0.001055	0.000072	0.001486	0.000000	6947.703724	48615.515603	3938.756159	25500.311296
10.035500	-0.000483	-0.000311	0.000000	-0.000112	6933.750777	48586.866698	3934.779847	25506.210923
10.535500	0.000769	0.000000	0.001984	0.000185	6943.082848	48588.314835	3939.663239	25490.577508
11.036000	0.003531	0.000948	0.000676	0.000792	6964.262621	48624.417523	3934.121007	25458.768054
11.536500	0.000000	0.000230	-0.003747	0.000103	6936.365571	48621.316408	3923.380958	25494.897536
12.036500	-0.000199	-0.000033	-0.002544	-0.000090	6936.307418	48613.874033	3927.384777	25505.024509
12.536500	-0.000445	-0.000543	0.001514	-0.000736	6940.231289	48628.359244	3940.973619	25539.029851
13.037500	-0.002426	0.000126	-0.006232	0.004723	6868.013820	48124.534958	3903.195833	25253.576723
13.537500	0.002210	0.000324	0.002391	-0.000701	6965.942953	48716.290326	3943.421366	25537.141897
14.035000	-0.001273	0.000406	-0.001391	0.003019	6895.595545	48332.546938	3921.777633	25342.282327
14.535500	-0.000438	-0.000410	-0.003553	0.001565	6917.827668	48399.662441	3919.754980	25418.275139
15.043500	0.001829	-0.000568	0.000408	-0.001424	6969.314586	48698.451148	3939.760083	25575.210948
15.536000	-0.000176	0.000179	0.002784	-0.000736	6942.858781	48704.735574	3944.666162	25539.000729
16.036000	-0.000010	-0.000402	0.001051	-0.001238	6949.398484	48696.309952	3941.087076	25565.424905
16.536500	0.000697	-0.000388	-0.002351	-0.001316	6957.112131	48706.111842	3931.467401	25569.552632
17.037000	-0.002250	0.000014	-0.003996	0.004533	6871.528144	48132.618757	3910.049582	25263.420668
17.536500	0.000302	-0.000095	-0.003384	0.000929	6931.243496	48499.832582	3922.055015	25451.583058
18.040000	-0.000400	-0.000200	0.002620	0.001071	6923.003747	48473.760447	3938.937231	25444.114218
18.534000	-0.001129	0.000206	-0.001152	0.001579	6910.972048	48462.997705	3926.591067	25417.542316
19.035500	-0.000398	0.000295	0.001241	0.003534	6899.075629	48266.767072	3927.846984	25315.421020
19.535500	-0.000749	0.000607	-0.001377	0.002008	6910.487154	48460.006784	3924.713131	25395.076626
20.035500	-0.000767	0.000301	0.000460	0.001915	6911.214792	48437.541229	3930.257239	25399.926591
20.536000	-0.000688	-0.000341	0.003679	0.001374	6917.246082	48426.953299	3941.131332	25428.240912
21.036500	-0.000791	-0.000257	0.001250	0.002824	6902.158272	48283.429771	3929.916596	25352.458846
21.536500	0.002049	0.000764	-0.001635	0.002415	6933.794109	48433.655227	3922.807842	25373.807578
22.036000	-0.000402	-0.000546	-0.001419	0.001309	6920.675473	48412.318416	3926.598969	25431.676662
22.540000	0.000549	-0.000674	-0.001416	0.001172	6931.279564	48413.180977	3926.998965	25438.835850
23.034500	-0.000447	-0.000096	-0.002711	0.002855	6905.195261	48296.991886	3918.473966	25350.828898
23.537500	-0.001526	-0.000277	0.005684	0.001373	6909.110931	48433.847636	3946.974013	25428.322429
24.035500	0.000155	0.000499	0.001220	0.001767	6921.626487	48473.992718	3932.873129	25407.662451
24.535500	-0.000475	0.000126	-0.001173	0.001738	6915.780380	48437.842403	3926.074534	25409.226737
25.035500	-0.000776	0.000181	-0.000239	0.002477	6905.670472	48365.843753	3926.631124	25370.579235
25.536000	-0.001261	-0.000879	-0.001276	0.000790	6917.356658	48431.844649	3928.498164	25458.843498
26.036500	-0.000466	0.000137	-0.002116	0.001321	6919.928565	48482.840639	3924.561891	25431.015458
26.537000	0.000790	0.000909	-0.000534	0.002084	6924.731610	48483.873032	3926.913912	25391.107609
27.037000	-0.001620	-0.000865	0.004212	0.002247	6899.714184	48280.162193	3940.145362	25382.600539
27.540000	0.002823	0.000656	-0.002638	-0.000613	6971.125554	48742.228538	3928.616870	25532.541247
28.034000	0.002269	0.000504	-0.000527	-0.000328	6962.859964	48695.928486	3933.881564	25517.563622
28.535000	0.002001	0.000677	-0.000733	-0.000324	6960.177975	48713.866487	3933.272386	25517.330315
29.035500	-0.001750	0.000417	0.002952	0.005939	6862.811357	48027.829857	3925.853715	25190.457637
29.536000	0.002002	0.000242	0.002398	-0.000639	6963.287447	48701.153823	3943.262758	25533.914967
30.035500	-0.001507	0.000569	-0.000728	0.005327	6871.037716	48107.678404	3917.079513	25222.201094
30.536500	0.001226	0.000742	0.002680	0.000012	6949.262709	48685.069557	3942.186795	25499.655269
31.036500	-0.001936	-0.000156	-0.001760	0.003287	6886.584333	48245.396825	3919.957019	25328.300313
31.537000	-0.000047	-0.000123	0.000634	-0.000474	6941.555386	48645.016871	3937.660726	25525.242848
32.040000	-0.002919	-0.000195	0.001337	0.005396	6856.802696	48020.661116	3922.780644	25218.637291
32.537000	0.001986	0.000179	0.005729	0.000130	6955.570933	48613.082993	3950.738079	25493.491058
33.035000	0.001871	0.000108	0.003014	-0.000298	6958.642459	48650.817585	3944.061202	25515.945040
33.535000	0.002027	0.000395	0.002249	-0.000582	6962.964908	48711.231489	3942.661550	25530.877007
34.035500	-0.001191	0.000245	-0.000653	0.005091	6876.357771	48098.458831	3917.966229	25234.459188
34.535500	-0.000274	-0.000098	0.002558	0.002390	6911.391427	48345.612999	3934.940847	25375.108144
35.039000	0.000915	0.000600	0.000842	0.003106	6915.996344	48343.842375	3927.930453	25337.757420
35.536500	-0.000837	0.000369	-0.001375	0.002887	6901.094113	48342.467152	3922.199577	25349.152957
36.036000	-0.002620	-0.000364	-0.002665	0.003170	6881.109679	48235.825559	3917.709571	25334.418201
36.537000	0.001323	0.000149	0.000244	0.002679	6924.125121	48341.241618	3927.438570	25360.015129
37.037000	-0.000482	0.000421	0.000629	0.003485	6898.738565	48285.113236	3926.229234	25317.964397
37.537500	-0.000983	-0.000284	0.000380	0.002167	6906.673513	48349.548678	3929.303889	25386.782470
38.035000	0.000503	-0.000175	0.000049	0.002200	6920.804874	48357.453984	3928.254813	25385.022332
38.535000	-0.000388	-0.000747	-0.002227	0.001791	6916.113541	48340.377738	3922.899729	25406.442323
39.035500	-0.000821	0.000715	0.000224	0.003452	6895.776528	48319.511475	3925.160552	25319.693038
39.536000	0.002786	0.001293	0.001221	0.003203	6933.300617	48406.392458	3928.741291	25332.683329
40.036000	0.002216	0.000581	-0.002140	0.003137	6928.371432	48338.566775	3919.298626	25336.131712
40.536500	0.000670	0.000417	0.000204	0.002731	6917.256210	48363.966415	3927.174321	25357.319932
41.037000	0.001523	0.000452	0.004069	0.003569	6917.401027	48279.555158	3935.900446	25313.593350
41.536500	-0.000618	-0.000340	0.001319	0.002319	6908.732067	48327.701072	3931.567327	25378.808753
42.037000	-0.000190	0.000504	0.000719	0.003922	6897.344950	48248.046618	3925.235156	25295.251203
42.534500	0.000144	-0.000198	0.000550	0.002550	6913.900882	48318.244633	3928.689530	25366.736375
43.035000	-0.002226	-0.000327	0.001329	0.003740	6879.408200	48179.948180	3927.505428	25304.678598
43.535500	-0.000321	0.000056	0.003917	0.002458	6910.278057	48354.666293	3938.678249	25371.565307
44.036000	0.000232	0.000692	-0.000512	0.004302	6897.740662	48227.873231	3920.622021	25275.433457
44.536000	0.002030	0.000733	0.001927	0.000075	6956.542649	48677.515615	3939.818834	25496.389807
45.036000	-0.001474	0.000172	-0.004177	0.005864	6866.183286	48010.064397	3905.773561	25194.338371
45.536500	0.002185	0.000821	0.003243	0.000815	6950.792839	48608.456324	3941.490910	25457.526870
46.037000	-0.002397	-0.000040	0.005343	0.005362	6862.141576	48040.417276	3934.399302	25220.387951
46.537500	0.002567	0.000315	0.003204	0.000413	6958.505301	48597.566780	3942.548404	25478.651682
47.034500	-0.000748	-0.000290	-0.000488	0.005509	6876.602047	47998.994841	3917.246607	25212.774759
47.535000	0.000695	-0.000028	-0.004566	0.003592	6909.131238	48226.873853	3911.103925	25312.410159
48.035000	-0.002374	0.000262	-0.001155	0.006059	6855.662251	47999.101647	3913.780442	25184.234349
48.535500	0.003750	0.000638	0.001239	0.000660	6967.716371	48605.649645	3936.129527	25465.682302
49.036000	-0.002358	-0.000278	-0.006344	0.005924	6857.113080	47956.943727	3899.501345	25191.228938
49.536500	0.003983	0.000738	0.003520	-0.000551	6981.960531	48744.344886	3946.275650	25529.281438
50.036000	0.001558	0.000369	0.004562	0.000542	6947.324020	48589.634942	3946.125391	25471.878186
50.537000	0.003551	0.000091	0.005250	0.015390	6823.115421	47018.799653	3905.495042	24706.067665
51.040000	-0.001809	-0.012928	0.033604	0.425271	4277.890992	19437.475801	3188.817644	11256.406402
51.537000	-0.030750	-0.020202	-0.031155	0.199826	5187.198758	30360.493939	3416.827364	17087.385644
52.035000	-0.044156	-0.022975	-0.062676	-0.028501	6786.948236	49195.732772	3839.489943	27047.576432
52.535000	-0.059560	-0.220708	-0.089501	-0.357023	11116.515776	65535.000000	5002.992667	54590.869121
53.035000	-0.027917	-0.127154	-0.037408	-0.263469	9996.794509	65535.000000	4791.440963	44532.417893
53.535500	-0.034067	-0.186937	-0.046013	-0.323251	10957.385876	65535.000000	5055.558200	50707.735886
54.036000	-0.017910	-0.198996	-0.029814	-0.335310	11512.437165	65535.000000	5215.302671	52059.786351
54.536000	0.010084	-0.154020	-0.007130	-0.290334	11174.067285	65535.000000	5088.427274	47202.644873
55.036000	0.019898	-0.087190	0.001056	-0.223505	10130.107060	65535.000000	4784.158660	40853.714973
55.537000	0.032190	-0.037265	0.012490	-0.157469	9263.943990	63246.882665	4535.513934	35470.201227
56.037000	0.052124	-0.001621	0.034584	-0.082899	8486.668652	58056.049617	4324.276743	30298.109379
56.537500	0.088721	0.026108	0.068914	-0.029085	8261.311070	54829.083209	4252.118961	27080.358661
57.038000	0.123440	0.056771	0.106835	0.044091	7789.064443	49967.974538	4129.504247	23297.997478
57.535000	0.162025	0.083910	0.138365	0.093115	7667.948269	47645.175130	4072.261647	21098.038848
58.035500	0.189193	0.102349	0.168058	0.149201	7347.185387	43913.074949	3990.142412	18867.617719
58.536000	0.205614	0.118360	0.185567	0.186137	7132.246071	41974.475158	3932.808285	17548.473781
59.036000	0.217903	0.127556	0.200973	0.245561	6675.230934	37685.042786	3812.010364	15648.120252
59.536500	0.227979	0.133579	0.210800	0.292782	6348.437849	34518.820315	3718.581871	14312.865096
60.036500	0.229996	0.139681	0.218528	0.303068	6279.418589	34213.831741	3712.480055	14040.779801
60.539500	0.234073	0.141847	0.224330	0.331801	6081.243018	32343.771822	3659.356278	13313.983794
61.037000	0.241374	0.145677	0.227428	0.341017	6066.319392	31978.413729	3645.650452	13090.873432
61.534000	0.242878	0.149289	0.231881	0.347131	6030.652617	31810.234176	3641.963331	12945.446893
62.037500	0.238715	0.151723	0.226654	0.341530	6041.740911	32353.788331	3642.791744	13078.584773
62.535500	0.241001	0.152893	0.227517	0.345442	6029.210581	32167.185617	3636.053018	12985.416523
63.035000	0.238778	0.152358	0.227904	0.346117	6006.994071	32085.212317	3635.420549	12969.438688
63.542500	0.242356	0.154119	0.232786	0.347761	6021.799116	32093.083931	3642.571752	12930.572291
64.039000	0.243222	0.154916	0.237081	0.351399	6000.599036	31901.503239	3644.029465	12845.139970
64.536500	0.245129	0.155080	0.232950	0.354277	5993.199379	31719.566874	3628.587922	12778.043686
65.036000	0.243735	0.154722	0.234918	0.363156	5915.957368	31108.875975	3613.606554	12573.867603
65.537000	0.242420	0.154136	0.232222	0.359007	5937.081704	31342.917116	3616.737034	12668.756764
66.040000	0.244669	0.154283	0.237357	0.362084	5930.892604	31150.284494	3621.187740	12598.288771
66.537500	0.243505	0.153904	0.234391	0.364705	5902.758394	30954.410406	3609.151356	12538.657508
67.035000	0.242145	0.152544	0.229589	0.372112	5838.524442	30389.797524	3583.382153	12372.078149
67.535500	0.241679	0.153891	0.230558	0.370740	5845.110243	30563.745674	3588.268402	12402.729105
68.035500	0.243577	0.153437	0.229924	0.377865	5807.350179	30081.705162	3572.177555	12244.655196
68.536000	0.246709	0.152425	0.232093	0.377553	5832.177531	30037.593438	3577.291836	12251.524047
69.036500	0.243666	0.152492	0.236126	0.388168	5734.851132	29381.578648	3563.787805	12020.596661
69.536500	0.246120	0.152292	0.234713	0.384845	5775.647690	29574.205429	3567.685381	12092.286829
70.037000	0.244708	0.152099	0.233841	0.391327	5720.045444	29164.287658	3552.772989	11952.961543
70.537000	0.244763	0.151787	0.235541	0.388753	5738.444559	29302.451560	3561.409482	12008.030840
71.034500	0.243807	0.151007	0.232052	0.397066	5674.051166	28751.307098	3537.767884	11831.347551
71.537500	0.246608	0.150892	0.239547	0.393076	5721.099969	28984.763230	3560.766341	11915.728583
72.035000	0.245308	0.151209	0.238194	0.399182	5669.827978	28636.711310	3545.761167	11786.898007
72.535500	0.249742	0.151181	0.241979	0.398232	5707.014064	28691.864501	3555.255972	11806.827957
73.036000	0.247334	0.150806	0.239790	0.406978	5630.479729	28151.667701	3533.482929	11625.026148
73.536000	0.248201	0.149576	0.237322	0.402032	5670.114745	28370.363541	3538.367973	11727.374221
74.036500	0.247979	0.149725	0.237753	0.410144	5613.449377	27903.972580	3523.312604	11560.107277
74.539000	0.251869	0.149585	0.246190	0.407029	5661.009656	28077.167996	3546.056297	11623.963128
75.037000	0.252036	0.149504	0.240187	0.415162	5606.984923	27601.743023	3518.307046	11458.178472
75.540000	0.250347	0.148386	0.247715	0.409981	5630.546579	27835.809487	3543.215526	11563.429624
76.034500	0.253295	0.149128	0.242990	0.413790	5624.720038	27658.951808	3526.408896	11485.931580
76.535000	0.251963	0.148176	0.240098	0.412476	5624.600963	27679.725382	3523.338975	11512.591888
77.035000	0.248849	0.146025	0.238446	0.417688	5568.853555	27259.839919	3510.107078	11407.325003
77.536000	0.254868	0.150243	0.244349	0.416230	5618.864049	27582.860355	3524.304134	11436.639930
78.036000	0.251641	0.147866	0.248083	0.417834	5586.451364	27355.842001	3528.458213	11404.389166
78.538500	0.256094	0.148561	0.247356	0.417396	5619.264752	27420.237306	3527.891415	11413.179775
79.036500	0.252829	0.148022	0.241726	0.423771	5554.932526	27029.789225	3504.763045	11286.039460
79.537000	0.252016	0.146535	0.246426	0.417122	5593.714752	27320.785548	3526.613103	11418.703692
80.036500	0.255018	0.147243	0.251157	0.419122	5600.424667	27247.619025	3531.956911	11378.583776
80.534500	0.254541	0.146528	0.248250	0.419553	5594.339966	27182.865306	3525.429088	11369.952290
81.038000	0.251309	0.144879	0.244087	0.425348	5534.570265	26766.856764	3506.255256	11254.881916
81.535000	0.254497	0.144427	0.244064	0.420147	5590.073497	27031.448356	3516.170955	11358.088580
82.035500	0.253810	0.144424	0.243005	0.421202	5578.465920	26972.273278	3512.108161	11337.066884
82.538500	0.254957	0.143759	0.247413	0.421564	5583.689826	26914.928646	3519.901885	11329.856769
83.036500	0.255209	0.143381	0.245841	0.422961	5576.073365	26816.205360	3514.176481	11302.108801
83.536500	0.256158	0.143549	0.247311	0.423550	5578.460634	26792.783531	3515.869146	11290.419382
84.039500	0.255100	0.143221	0.242830	0.424079	5567.926603	26745.313775	3506.278322	11279.961219
84.536500	0.253377	0.143322	0.245386	0.424920	5550.971352	26704.387834	3509.549816	11263.333009
85.034500	0.255175	0.143225	0.248745	0.426045	5555.412678	26636.921443	3513.829452	11241.144245
85.535500	0.256164	0.141697	0.240814	0.425301	5566.876772	26593.769363	3500.138188	11255.814746
86.035000	0.253022	0.141168	0.245712	0.426436	5538.669339	26502.359966	3507.277736	11233.452325
86.536500	0.256909	0.141237	0.252651	0.426452	5564.187421	26505.291304	3520.579505	11233.142137
87.035500	0.254081	0.142752	0.251411	0.434295	5494.390670	26160.942114	3503.171288	11080.200733
87.535500	0.257158	0.141958	0.251238	0.427659	5557.847724	26478.610577	3515.519551	11209.411106
88.036000	0.255015	0.141475	0.253842	0.428778	5536.382815	26391.092382	3518.382855	11187.491323
88.536500	0.258269	0.141176	0.250113	0.427907	5563.558748	26422.333879	3512.882247	11204.560545
89.036500	0.257269	0.141619	0.250188	0.428569	5552.572037	26410.323117	3511.753988	11191.573203
89.537000	0.256562	0.141563	0.251966	0.429316	5543.006561	26366.544043	3513.733571	11176.969752
90.035000	0.257846	0.139929	0.247871	0.428538	5556.585733	26319.955689	3507.386751	11192.189979
90.537000	0.257197	0.140446	0.248885	0.429103	5548.585714	26317.350812	3508.243790	11181.142084
91.035500	0.255513	0.139059	0.248291	0.433681	5507.644290	25995.187627	3498.433577	11092.084293
91.535500	0.260594	0.140713	0.250505	0.429292	5569.785596	26321.613154	3510.977939	11177.438558
92.036000	0.258807	0.140876	0.251556	0.431707	5542.047691	26199.411293	3508.370535	11130.364150
92.536000	0.259209	0.140572	0.255505	0.431157	5548.302554	26212.725152	3517.000641	11141.058897
93.036500	0.258510	0.139471	0.255842	0.430313	5549.261128	26198.827860	3519.281518	11157.500397
93.547000	0.261214	0.139623	0.252467	0.430989	5562.650275	26170.513838	3511.485918	11144.338137
94.037000	0.259426	0.139485	0.255032	0.432394	5541.600545	26087.235207	3513.711417	11117.018579
94.537000	0.260348	0.137623	0.255901	0.430258	5561.758897	26102.062132	3519.503610	11158.585376
95.037500	0.256816	0.136895	0.250117	0.436261	5499.365558	25742.109424	3497.011995	11042.299954
95.535500	0.263031	0.139271	0.255767	0.432568	5564.229270	26066.406938	3514.788586	11113.645939
96.035000	0.264142	0.139363	0.259276	0.434300	5560.113842	25978.316901	3518.213128	11080.106431
