sample name	sample
index	542
start time	 03-15-2021  10:40:14 AM
880	0.133996
Peak Time (s)	91.535
Peak Height 	0.134
calc peak height	90,93
Baseline Time (s)	9.537
Baseline Value 	-3.7792E-4
subtract baseline	10,4
Abs	0.088798
Peak Time (s)	92.536
Peak Height 	0.0888
calc peak height	90,93
Baseline Time (s)	11.536
Baseline Value 	0.004819
subtract baseline	10,3
PK_550	0.044621
Peak Time (s)	91.035
Peak Height 	0.04462
calc peak height	90,93
Baseline Time (s)	9.537
Baseline Value 	0.001274
subtract baseline	10,2
PK_880	0.080242
Peak Time (s)	92.536
Peak Height 	0.08024
calc peak height	90,93
Baseline Time (s)	11.036
Baseline Value 	0.002718
subtract baseline	10,1


Time (s)	A880-A510	A880-A775	A880-A975	A880	I510	I775	I975	I880	
0.035000	-0.003410	-0.001522	-0.003941	0.003367	6051.671071	40193.803686	3674.927734	21150.866477
0.537500	-0.002819	-0.000612	-0.006469	0.003568	6054.680836	40254.996600	3668.697452	21142.308266
1.036000	-0.004030	-0.001524	-0.002820	0.001452	6061.687597	40359.292613	3681.904320	21232.415841
1.536000	-0.001960	-0.000793	-0.002484	-0.001661	6102.114729	40693.985136	3689.889788	21365.806008
2.039500	-0.005021	-0.002553	-0.009218	0.002664	6044.660407	40165.453006	3664.508584	21180.756334
2.537000	0.000551	-0.000499	0.000805	-0.002055	6124.974389	40754.226664	3698.486086	21382.733039
3.037000	-0.000023	-0.000493	-0.002534	-0.003264	6129.998784	40860.787781	3693.507055	21434.857564
3.537000	-0.002723	-0.001415	-0.006006	-0.001198	6092.502512	40599.167170	3680.668096	21345.882855
4.034500	-0.004955	-0.001012	-0.001989	-0.000927	6072.982962	40610.724449	3689.334110	21334.262893
4.535000	-0.004505	-0.001246	-0.001858	-0.001394	6080.121347	40631.054795	3690.724518	21354.301282
5.035500	-0.001557	-0.000823	-0.002057	-0.000898	6099.284711	40624.682038	3689.107663	21333.005762
5.535500	-0.001593	-0.000458	0.004779	-0.000716	6097.577847	40640.688153	3704.680771	21325.209167
6.035500	-0.000946	-0.000754	-0.004260	-0.000834	6103.574007	40625.139823	3683.857636	21330.253296
6.536000	-0.001370	0.000041	0.001349	-0.000410	6096.933264	40657.541796	3695.909116	21312.104748
7.036500	-0.001079	-0.000645	-0.002767	-0.000251	6097.967976	40583.812201	3685.962983	21305.287397
7.536500	0.000346	-0.000127	-0.003523	-0.000167	6108.483281	40621.608041	3684.019307	21301.651159
8.037000	-0.003251	-0.000411	0.000395	-0.000232	6080.838807	40602.526282	3693.265581	21304.457591
8.537000	0.000327	0.000289	-0.004876	0.000496	6103.139559	40600.138167	3679.373191	21273.306547
9.035000	-0.001131	0.000277	-0.006144	0.000262	6093.545129	40619.524488	3676.997122	21283.308171
9.537500	0.000129	0.000000	0.001037	0.000000	6105.469958	40618.159188	3694.221633	21294.517328
10.038000	-0.002794	-0.000693	0.002375	-0.000349	6085.315756	40588.134290	3698.166995	21309.452511
10.535500	0.001118	-0.000497	-0.003442	-0.000451	6116.795265	40614.137101	3684.863953	21313.842026
11.036000	0.000000	-0.000023	0.001634	-0.000150	6105.635427	40629.225247	3695.966817	21300.936475
11.536000	-0.002266	0.000267	0.000000	0.000321	6084.203572	40613.450872	3691.056228	21280.756553
12.036000	0.000976	0.000333	0.001855	0.000417	6108.853646	40610.852349	3695.159439	21276.672475
12.537000	-0.000006	0.000097	0.000514	0.000252	6102.434204	40604.626993	3692.415599	21283.727286
13.037000	0.000980	-0.000080	0.004990	-0.002127	6128.936947	40797.242439	3708.514261	21385.837935
13.537000	0.000432	0.000937	0.002961	-0.000209	6109.493881	40718.304097	3699.213368	21303.454129
14.035000	-0.000278	0.000431	0.000689	-0.000267	6104.365432	40679.085792	3694.032230	21305.936206
14.535000	-0.001578	0.000166	-0.000618	0.003086	6068.042561	40364.142361	3683.216285	21162.828338
15.035500	-0.000424	0.000533	-0.001464	0.000660	6095.953544	40607.023971	3686.869305	21266.254171
15.545000	0.001527	0.000636	-0.003301	-0.000240	6118.359882	40694.678342	3684.700766	21304.787697
16.038500	-0.000314	0.001619	0.001969	0.000445	6098.504947	40720.826906	3695.360204	21275.482936
16.536500	-0.000765	0.000174	0.002078	-0.000884	6105.391448	40710.638240	3698.725461	21332.418917
17.036500	-0.003603	-0.000230	0.002467	0.000577	6071.797456	40547.816666	3696.215125	21269.820411
17.537000	0.001005	0.001003	-0.000355	0.000346	6109.631879	40675.501971	3690.171767	21279.683458
18.037000	-0.000526	0.000866	0.003197	0.000030	6100.097481	40691.132296	3699.205174	21293.215379
18.538000	-0.001287	0.000008	-0.002870	0.001749	6080.711086	40466.559333	3681.105447	21219.772444
19.035000	0.001735	0.001037	-0.003143	0.003257	6092.533343	40424.903161	3677.010342	21155.539714
19.537000	0.000270	0.000655	0.001261	0.002867	6084.132078	40425.532719	3688.071962	21172.119372
20.035500	-0.000855	0.001146	-0.001930	0.002957	6074.664678	40460.376494	3680.488385	21168.288183
20.536000	-0.000598	0.000865	0.000604	0.002737	6078.378958	40455.092984	3686.849251	21177.647230
21.036000	-0.000344	-0.000323	-0.003141	0.002164	6084.827354	40401.677274	3679.525412	21202.069421
21.536500	0.000015	0.001655	-0.004311	0.003858	6074.425145	40426.431444	3672.961079	21130.023730
22.036500	0.001002	0.001261	-0.002570	0.003064	6088.314355	40461.120896	3678.771156	21163.765383
22.537000	0.000273	0.001955	0.000457	0.003784	6077.002241	40458.849237	3684.086475	21133.143366
23.037500	0.001430	0.002277	0.000355	0.004286	6082.116016	40443.245627	3682.693141	21111.858700
23.535000	0.001926	0.001547	0.002496	0.003486	6092.234224	40449.239390	3689.499707	21145.788628
24.035500	0.000539	0.001157	-0.000238	0.004000	6077.395433	40370.812374	3681.981937	21123.970395
24.535000	-0.000357	0.000807	-0.002353	0.003327	6075.657639	40398.806563	3678.662589	21152.565010
25.038500	-0.001369	0.000711	0.001867	0.003629	6065.445653	40364.369890	3687.710043	21139.742181
25.536000	0.002428	0.001099	-0.002815	0.003657	6094.824215	40395.552188	3676.844230	21138.551498
26.035500	-0.000637	0.000325	0.000296	0.003081	6075.399233	40378.410957	3685.339690	21163.037731
26.536500	0.001091	0.001566	0.000806	0.004009	6081.630182	40405.511713	3684.373257	21123.611564
27.036500	0.001464	0.001395	0.002990	0.004322	6082.093979	40363.520512	3688.707960	21110.311293
27.610500	0.002340	0.001707	0.004248	0.004272	6089.319274	40394.869163	3691.748720	21112.423678
28.037500	0.001500	0.001639	0.003486	0.002836	6093.983086	40513.831644	3693.318169	21173.439941
28.537500	0.000471	0.000889	0.005348	0.001263	6098.247875	40585.535620	3701.362008	21240.487016
29.040500	0.002810	0.002255	-0.000968	0.004052	6094.721495	40461.598914	3680.181842	21121.756612
29.541500	0.003268	0.001905	0.008501	0.002041	6114.108334	40606.287698	3706.961940	21207.319453
30.039000	0.001891	0.002142	-0.001567	0.005353	6077.391135	40338.877727	3675.817463	21066.647004
30.535500	0.004017	0.002181	0.003603	0.002545	6116.031064	40586.412153	3694.270176	21185.828257
31.052500	0.002039	0.002322	0.001238	0.002975	6097.120473	40561.176943	3687.767675	21167.521158
31.537000	0.000807	0.002124	0.003515	0.005782	6065.626686	40300.272847	3686.538801	21048.527127
32.038000	-0.001107	0.001413	0.002348	0.005846	6050.308583	40233.225844	3683.691729	21045.815569
32.536500	0.000579	0.000823	0.001766	0.001783	6095.021503	40534.461480	3691.763679	21218.305950
33.038000	0.003844	0.002485	0.000628	0.003051	6110.686008	40568.807351	3686.178241	21164.297505
33.665000	0.002699	0.001968	0.003046	0.003050	6101.707751	40523.825210	3691.794785	21164.339321
34.039000	0.001480	0.002684	0.001356	0.005331	6074.359877	40387.801424	3682.589687	21067.591145
34.536000	0.003251	0.001964	0.000309	0.002759	6108.321567	40548.822508	3686.114154	21176.703631
35.036000	0.000889	0.001390	0.001583	0.003805	6081.642040	40407.881390	3686.642342	21132.243410
35.539000	0.001521	0.001954	0.005741	0.005286	6075.028423	40328.371902	3692.863691	21069.466252
36.036500	-0.000119	0.002056	0.000740	0.005759	6058.627534	40296.334568	3680.182960	21049.476683
36.537500	0.002469	0.001368	0.001374	0.005442	6081.196376	40264.161259	3682.374807	21062.872279
37.036500	0.002329	0.001180	0.002892	0.004809	6085.045838	40302.682349	3687.349552	21089.679803
37.534500	0.004252	0.002299	0.004255	0.006514	6086.746477	40252.043546	3686.557667	21017.597986
38.035000	0.002665	0.002270	0.003554	0.006062	6077.896237	40288.601035	3685.979371	21036.671269
38.538000	0.002094	0.001752	0.006106	0.005473	6078.033346	40294.773363	3693.280677	21061.577457
39.035500	0.000523	0.001904	0.000188	0.006089	6061.041878	40254.594131	3678.155816	21035.532207
39.536000	0.000714	0.002017	0.001419	0.006208	6061.595796	40254.118182	3680.713919	21030.509311
40.036000	-0.000598	0.002158	0.003159	0.006002	6053.040130	40284.136012	3685.206093	21039.233626
40.536000	0.003786	0.001890	-0.001454	0.006223	6085.378801	40241.810989	3674.083175	21029.883667
41.036500	0.002064	0.002458	0.002584	0.006473	6070.020777	40269.290959	3682.786612	21019.309419
41.536000	0.000337	0.001614	0.003582	0.005814	6061.732855	40253.394379	3686.621823	21047.177290
42.037500	0.003347	0.002180	-0.000724	0.006351	6080.955856	40255.818694	3675.462463	21024.472940
42.535000	0.001821	0.002006	0.000909	0.006242	6069.927593	40250.156319	3679.459139	21029.057833
43.040500	0.001513	0.002642	0.004702	0.006970	6061.891456	40242.321179	3686.537527	20998.379863
43.535500	0.002624	0.002328	0.002781	0.006772	6072.053688	40232.250636	3682.553245	21006.726787
44.035500	0.000403	0.002124	0.008519	0.006309	6058.407469	40254.597794	3696.962702	21026.232061
44.536000	0.001666	0.001715	0.001366	0.006358	6067.820866	40215.046783	3680.245550	21024.167144
45.036000	0.003539	0.003156	0.003911	0.004920	6093.633521	40464.480210	3689.458531	21084.987707
45.536500	0.005274	0.003473	0.005134	0.002861	6123.454585	40671.677438	3697.113271	21172.395724
46.036000	0.003812	0.003035	0.001121	0.005821	6088.721481	40375.766401	3680.917765	21046.851338
46.537000	0.003477	0.002558	0.002402	0.003878	6101.307049	40503.133356	3688.373169	21129.149015
47.037500	0.004265	0.001960	0.001800	0.006753	6084.985411	40202.096025	3680.336232	21007.532557
47.534500	0.003731	0.002687	0.004078	0.004441	6098.888703	40465.392887	3690.959762	21105.281392
48.035500	0.005754	0.002981	0.008573	0.006066	6102.013936	40349.845328	3697.659326	21036.530461
48.535500	0.002165	0.003529	0.008473	0.007243	6064.819154	40295.304629	3694.671601	20986.845717
49.035000	0.003145	0.002785	0.007385	0.008318	6064.086921	40138.282670	3689.633285	20941.644913
49.536500	0.004721	0.002344	0.006709	0.004604	6105.374204	40421.370684	3696.717389	21098.361797
50.036500	0.002892	0.002623	0.000744	0.005713	6082.385736	40349.414332	3680.299653	21051.444618
50.536500	0.006145	0.002832	0.004332	0.004382	6118.329446	40483.106363	3691.689299	21107.780609
51.037000	0.000102	0.001964	0.013243	0.009035	6035.042755	40005.918675	3701.650218	20911.530922
51.537500	0.004156	0.003048	0.003865	0.004727	6099.974404	40471.883546	3689.799261	21093.144133
52.037500	-0.000837	-0.000386	0.003546	0.008234	6033.982203	39873.145859	3680.945789	20945.167656
52.537000	0.001811	-0.012184	0.022808	0.351242	4219.966747	19127.688237	3155.211890	10978.395734
53.035500	-0.013406	-0.026482	0.001054	-0.041036	6328.417396	41910.031677	3794.726035	23137.830408
53.536000	-0.015655	-0.057835	-0.006778	-0.262477	8713.747477	63435.884078	4502.665672	36735.627813
54.035500	-0.004005	-0.025735	0.008961	-0.174769	7746.811372	56137.486029	4224.392571	30510.315186
54.536000	-0.021184	-0.023023	-0.005723	-0.168428	7480.514293	55693.053106	4151.429133	30107.160139
55.036500	-0.016852	-0.025948	-0.015576	-0.208976	8001.492426	60487.504718	4259.153179	32789.904724
55.536500	-0.004751	-0.033828	-0.009544	-0.235784	8498.855197	63061.428928	4383.159265	34706.276544
56.037000	-0.001765	-0.028414	-0.009768	-0.226467	8414.865720	62521.369970	4346.161435	34026.795055
56.537500	0.002692	-0.020109	-0.007395	-0.208804	8243.557872	61246.497005	4288.541663	32778.053586
57.035000	0.002328	-0.014267	-0.005965	-0.184752	7940.213643	58842.724061	4206.917926	31157.140941
57.535000	0.002759	-0.010237	-0.004481	-0.151746	7561.193156	55219.855938	4100.052882	29074.105949
58.035000	0.004188	-0.009046	-0.004572	-0.122507	7259.354452	51935.782187	4007.348142	27356.471965
58.535500	0.009262	-0.004492	0.000302	-0.100488	7084.700219	49995.524455	3955.985937	26137.201721
59.035500	0.009368	-0.005153	0.004362	-0.068816	6776.961207	46603.011241	3877.412739	24488.351389
59.536500	0.009623	-0.004397	0.007827	-0.061422	6710.409356	45937.160522	3866.630911	24120.403434
60.036500	0.007989	-0.003225	0.008200	-0.005982	6215.916475	40859.501950	3725.373254	21552.491348
60.536500	0.009950	-0.001503	0.006827	0.002741	6161.520190	40249.521579	3701.364487	21177.479317
61.037500	0.010869	-0.001707	0.010337	0.016448	6060.941678	39066.170951	3677.675413	20603.222599
61.537500	0.013722	0.000297	0.015152	0.032883	5957.305028	37877.908466	3651.345576	19938.083606
62.037500	0.016194	0.001399	0.019082	0.045128	5884.713983	36987.055582	3632.933969	19458.667703
62.535500	0.018950	0.003227	0.019037	0.052518	5850.860250	36550.924721	3616.768518	19175.816732
63.035500	0.021792	0.006738	0.026142	0.054774	5855.119259	36648.809030	3627.279641	19090.400472
63.536000	0.023346	0.007392	0.026490	0.049424	5905.760847	37121.350181	3639.784636	19293.665142
64.036500	0.022814	0.008646	0.026317	0.052084	5882.246524	37010.043009	3633.546521	19192.271589
64.536000	0.028631	0.010721	0.026885	0.050324	5938.338902	37314.319664	3638.669063	19259.278444
65.040000	0.029000	0.011312	0.034557	0.050357	5940.856510	37358.808423	3655.672997	19258.031090
65.549000	0.029359	0.011850	0.037502	0.050784	5940.347949	37367.680185	3661.344297	19241.756960
66.040000	0.033446	0.013775	0.034674	0.053083	5953.733193	37337.860769	3649.831057	19154.381068
66.537500	0.034086	0.014659	0.036647	0.054820	5945.508760	37269.799154	3650.356231	19088.652913
67.034000	0.035683	0.016016	0.038160	0.056008	5948.572974	37283.338033	3651.083221	19043.877685
67.535500	0.036177	0.017851	0.040903	0.059211	5928.346735	37174.622499	3650.056609	18923.737191
68.036000	0.038856	0.018193	0.036642	0.061352	5932.351537	37032.105857	3635.867970	18843.907898
68.536000	0.039886	0.019140	0.039950	0.063179	5926.418323	36962.635454	3639.132785	18776.128603
69.039000	0.043247	0.020670	0.046704	0.066204	5928.915673	36844.865583	3647.398269	18664.467508
69.539500	0.043973	0.021646	0.047501	0.068681	5915.901438	36727.154106	3643.664998	18573.650213
70.040000	0.046558	0.021747	0.042706	0.069525	5928.837509	36668.987617	3631.239049	18542.815916
70.540000	0.043252	0.023515	0.049610	0.071603	5888.996806	36644.804759	3641.864369	18467.164217
71.034500	0.047878	0.023513	0.047608	0.074022	5905.273630	36456.153959	3632.128244	18379.556407
71.535000	0.047645	0.024198	0.053397	0.075648	5891.561698	36383.079264	3641.294042	18320.932930
72.038000	0.050641	0.024429	0.045349	0.076534	5907.124619	36332.404022	3621.730800	18289.081698
72.536000	0.049384	0.025150	0.052508	0.077685	5889.373101	36299.110210	3634.842787	18247.816641
73.036000	0.050511	0.027256	0.055747	0.080752	5875.129336	36224.822341	3635.217995	18138.326405
73.536000	0.050595	0.027144	0.053352	0.083402	5856.394490	36012.326442	3624.191990	18044.370525
74.036000	0.053289	0.027898	0.057639	0.083700	5873.885577	36047.382437	3632.902106	18033.853918
74.536000	0.055180	0.029198	0.059166	0.085537	5874.278176	36006.143439	3632.222162	17969.105213
75.037000	0.053571	0.028916	0.054426	0.086962	5852.146155	35875.517348	3618.806783	17919.061729
75.539500	0.054110	0.028779	0.058809	0.089204	5839.792757	35694.360175	3623.443673	17840.671251
76.040500	0.055415	0.030396	0.053576	0.088916	5851.346330	35839.368901	3612.767487	17850.713790
76.535000	0.056835	0.031389	0.058376	0.091041	5846.227466	35753.096949	3618.527748	17776.719625
77.035500	0.058596	0.031557	0.063702	0.093328	5842.417778	35592.348474	3625.114992	17697.514898
77.536000	0.058229	0.031827	0.059313	0.095616	5823.226943	35439.872305	3610.700956	17618.654530
78.036000	0.060476	0.031801	0.059756	0.094652	5846.440417	35510.624785	3613.720682	17651.817762
78.536500	0.059933	0.033200	0.060276	0.096310	5830.513800	35491.088170	3611.277377	17594.824928
79.036500	0.059241	0.033050	0.058651	0.097867	5814.319587	35362.467556	3604.484118	17541.492397
79.537000	0.059265	0.032427	0.062385	0.101158	5790.945684	35069.591368	3605.427329	17429.428103
80.037000	0.063492	0.035053	0.069565	0.101383	5819.607576	35248.933659	3620.358277	17421.784522
80.537500	0.065741	0.035540	0.066932	0.102195	5829.954990	35224.579047	3612.933444	17394.265141
81.037500	0.065834	0.035805	0.066609	0.103765	5819.311965	35127.004536	3608.877484	17341.205831
81.535000	0.062219	0.035394	0.066572	0.107946	5763.731656	34786.044524	3599.904033	17200.874914
82.036000	0.065860	0.036574	0.069728	0.106234	5801.789949	35000.365998	3610.266240	17258.170543
82.536000	0.064925	0.036398	0.067982	0.106909	5790.295419	34937.247296	3605.100869	17235.575869
83.037500	0.067378	0.037944	0.070085	0.109127	5791.963843	34887.350349	3604.853990	17161.470950
83.536000	0.067117	0.037664	0.073991	0.114173	5754.357292	34495.182438	3602.430807	16994.358385
84.040000	0.067642	0.036594	0.069473	0.110352	5785.126356	34697.184377	3600.953332	17120.741360
84.534000	0.068032	0.037887	0.070132	0.111775	5777.785742	34687.572992	3599.336030	17073.547561
85.037000	0.071468	0.038341	0.077388	0.114098	5785.694504	34550.296792	3609.831971	16996.825477
85.537000	0.071807	0.039483	0.071369	0.114185	5787.480817	34627.639963	3596.855525	16993.938277
86.035000	0.072990	0.038859	0.078586	0.115079	5789.546535	34516.387576	3610.296071	16964.560874
86.535500	0.070641	0.040424	0.072700	0.116733	5761.148928	34509.794103	3594.290725	16910.282003
87.035500	0.074611	0.041703	0.074345	0.119456	5769.975897	34404.296030	3592.026840	16821.450393
87.535500	0.071925	0.040189	0.074863	0.123489	5722.764194	34002.036317	3584.676922	16690.839011
88.036000	0.074722	0.041877	0.075699	0.120766	5761.491378	34321.412506	3592.118795	16778.871022
88.536500	0.073896	0.041977	0.080554	0.121198	5752.619597	34297.302634	3601.450259	16764.877605
89.036500	0.074425	0.042188	0.078118	0.123212	5742.183642	34166.384287	3592.061766	16699.768510
89.537000	0.074732	0.040754	0.075988	0.127574	5713.870870	33749.395592	3578.535806	16559.802022
90.035000	0.076813	0.043627	0.073730	0.125502	5742.877436	34104.853486	3578.152025	16626.117053
90.534500	0.078406	0.043675	0.086604	0.125995	5750.606499	34072.727218	3604.112885	16610.311394
91.035000	0.077701	0.044621	0.077648	0.128566	5727.642685	33955.563613	3579.920120	16528.172633
91.535500	0.078831	0.044511	0.081283	0.133996	5697.762183	33559.478041	3576.207970	16356.250835
92.035500	0.078203	0.044390	0.083627	0.129029	5727.911813	33905.689354	3591.415475	16513.424671
92.536000	0.080242	0.044568	0.088798	0.130380	5732.723801	33821.517600	3599.463980	16470.493091
93.036500	0.081406	0.044344	0.087843	0.130643	5739.025405	33786.616349	3596.888662	16462.139400
93.536500	0.079130	0.046282	0.085252	0.138062	5671.829811	33396.933434	3576.009771	16228.950130
94.037000	0.084714	0.046189	0.086035	0.134397	5735.908868	33650.370326	3585.227865	16343.658663
94.534000	0.084228	0.046971	0.087029	0.135623	5723.939967	33618.755768	3584.745208	16305.168786
95.037000	0.086982	0.046949	0.089345	0.136307	5738.410714	33568.563122	3588.148715	16283.736850
95.535000	0.083785	0.047000	0.082249	0.141884	5677.543059	33178.404148	3562.044498	16110.336590
96.035500	0.088560	0.047930	0.093963	0.138546	5733.782624	33479.245354	3593.133530	16213.847790
96.535500	0.086126	0.047190	0.090132	0.138932	5714.119098	33399.629151	3584.315002	16201.846763
97.036000	0.085647	0.047737	0.090243	0.139505	5706.811983	33397.817492	3583.354353	16184.043603
97.536500	0.083424	0.048208	0.093602	0.146647	5642.565234	32929.984914	3575.525014	15963.995566
