sample name	sample
index	1452
start time	 05-10-2021  01:32:02 PM


Wavelength (nm)	Absorbance
494.344910	-0.021327
494.563924	-0.021327
494.782919	-0.021327
495.001897	0.021453
495.220856	0.010619
495.439797	0.012550
495.658719	0.010085
495.877624	0.007152
496.096510	-0.003746
496.315378	-0.005674
496.534227	-0.003196
496.753059	0.000569
496.971872	0.006643
497.190667	0.086670
497.409444	0.124732
497.628203	0.144862
497.846943	0.155288
498.065665	0.162710
498.284369	0.163896
498.503055	0.165989
498.721723	0.167556
498.940372	0.168472
499.159003	0.168294
499.377616	0.169256
499.596210	0.169739
499.814787	0.169710
500.033345	0.168522
500.251885	0.169726
500.470406	0.170758
500.688910	0.170380
500.907395	0.171499
501.125862	0.171480
501.344311	0.171804
501.562742	0.170745
501.781154	0.171765
501.999548	0.172044
502.217924	0.172655
502.436282	0.172614
502.654621	0.174392
502.872942	0.174116
503.091245	0.174774
503.309530	0.175668
503.527797	0.176113
503.746045	0.176778
503.964275	0.177428
504.182487	0.178473
504.400681	0.179665
504.618856	0.178635
504.837013	0.178574
505.055152	0.179020
505.273273	0.178645
505.491376	0.178441
505.709460	0.177852
505.927526	0.178938
506.145574	0.178033
506.363604	0.177211
506.581615	0.177284
506.799608	0.176673
507.017583	0.176087
507.235540	0.176702
507.453478	0.176712
507.671399	0.177155
507.889301	0.176365
508.107185	0.176368
508.325050	0.177817
508.542898	0.177881
508.760727	0.179507
508.978538	0.181134
509.196330	0.180511
509.414105	0.182235
509.631861	0.182339
509.849599	0.183673
510.067319	0.183607
510.285021	0.182020
510.502704	0.182278
510.720369	0.182375
510.938016	0.181527
511.155645	0.182321
511.373255	0.181921
511.590848	0.181968
511.808422	0.181416
512.025977	0.181565
512.243515	0.181963
512.461034	0.182294
512.678536	0.182180
512.896018	0.182941
513.113483	0.183615
513.330930	0.183810
513.548358	0.184246
513.765768	0.183937
513.983160	0.185127
514.200533	0.186440
514.417889	0.187367
514.635226	0.187720
514.852545	0.187880
515.069845	0.186945
515.287128	0.186896
515.504392	0.186029
515.721638	0.186235
515.938866	0.185505
516.156075	0.184162
516.373267	0.183460
516.590440	0.183303
516.807594	0.182735
517.024731	0.183938
517.241850	0.184893
517.458950	0.185440
517.676032	0.186494
517.893095	0.187063
518.110141	0.188192
518.327168	0.189146
518.544177	0.189795
518.761168	0.190537
518.978141	0.189700
519.195095	0.189345
519.412031	0.189626
519.628949	0.189825
519.845849	0.190067
520.062731	0.189904
520.279594	0.190283
520.496439	0.190221
520.713266	0.190420
520.930074	0.191690
521.146865	0.191431
521.363637	0.191858
521.580391	0.191979
521.797127	0.192229
522.013844	0.192624
522.230543	0.192152
522.447224	0.192816
522.663887	0.193720
522.880532	0.193780
523.097158	0.194663
523.313766	0.194989
523.530356	0.195520
523.746928	0.196571
523.963481	0.196701
524.180017	0.197323
524.396534	0.197416
524.613032	0.196249
524.829513	0.195750
525.045975	0.195940
525.262420	0.195337
525.478845	0.195333
525.695253	0.195237
525.911643	0.195350
526.128014	0.195409
526.344367	0.195436
526.560702	0.196619
526.777018	0.197742
526.993316	0.197583
527.209597	0.198699
527.425858	0.198855
527.642102	0.198475
527.858328	0.200175
528.074535	0.200244
528.290724	0.200142
528.506894	0.199818
528.723047	0.199080
528.939181	0.199556
529.155297	0.199472
529.371395	0.199326
529.587475	0.200150
529.803536	0.199287
530.019579	0.199427
530.235604	0.199822
530.451611	0.200466
530.667600	0.201072
530.883570	0.200830
531.099522	0.201409
531.315456	0.202283
531.531372	0.201719
531.747269	0.202001
531.963148	0.202464
532.179009	0.202640
532.394852	0.202698
532.610676	0.202577
532.826482	0.202780
533.042271	0.202671
533.258040	0.202403
533.473792	0.203163
533.689525	0.202925
533.905240	0.203302
534.120937	0.203717
534.336616	0.204160
534.552277	0.204854
534.767919	0.205264
534.983543	0.205526
535.199149	0.205739
535.414736	0.205565
535.630306	0.206872
535.845857	0.207519
536.061390	0.207642
536.276904	0.207609
536.492401	0.207708
536.707879	0.208539
536.923339	0.209519
537.138781	0.209898
537.354204	0.209734
537.569610	0.208966
537.784997	0.208698
538.000366	0.209561
538.215716	0.209880
538.431049	0.210224
538.646363	0.210464
538.861659	0.210127
539.076937	0.210334
539.292196	0.210873
539.507438	0.211836
539.722661	0.212498
539.937866	0.212457
540.153052	0.212942
540.368221	0.212824
540.583371	0.212334
540.798503	0.212713
541.013617	0.213609
541.228712	0.213904
541.443789	0.213584
541.658848	0.213702
541.873889	0.213732
542.088912	0.213967
542.303916	0.214255
542.518902	0.214574
542.733870	0.215043
542.948820	0.214731
543.163752	0.215643
543.378665	0.216353
543.593560	0.216671
543.808437	0.216418
544.023295	0.216411
544.238136	0.216704
544.452958	0.217578
544.667762	0.217878
544.882548	0.218584
545.097315	0.218953
545.312064	0.218548
545.526795	0.218739
545.741508	0.219268
545.956203	0.219614
546.170879	0.219706
546.385537	0.219092
546.600177	0.219300
546.814799	0.218860
547.029402	0.218607
547.243988	0.219000
547.458555	0.219205
547.673103	0.219916
547.887634	0.220331
548.102146	0.220898
548.316640	0.221424
548.531116	0.221405
548.745574	0.222202
548.960013	0.222472
549.174435	0.223115
549.388838	0.223060
549.603222	0.223124
549.817589	0.222834
550.031937	0.223042
550.246267	0.223416
550.460579	0.223097
550.674873	0.223083
550.889148	0.222871
551.103405	0.222340
551.317644	0.222312
551.531865	0.222050
551.746068	0.222648
551.960252	0.222719
552.174418	0.222834
552.388566	0.223432
552.602696	0.223301
552.816807	0.223706
553.030900	0.224437
553.244975	0.224738
553.459032	0.225029
553.673070	0.225217
553.887091	0.225468
554.101093	0.225684
554.315077	0.225815
554.529042	0.226441
554.742990	0.226438
554.956919	0.226227
555.170830	0.226691
555.384722	0.226503
555.598597	0.226011
555.812453	0.225961
556.026291	0.226144
556.240111	0.225797
556.453913	0.225386
556.667696	0.225702
556.881461	0.225882
557.095208	0.225474
557.308937	0.225863
557.522647	0.226402
557.736339	0.226226
557.950013	0.226103
558.163669	0.226614
558.377307	0.226827
558.590926	0.226997
558.804527	0.226705
559.018110	0.226973
559.231675	0.227395
559.445221	0.227205
559.658749	0.227435
559.872259	0.227703
560.085751	0.227496
560.299225	0.227413
560.512680	0.227263
560.726117	0.227577
560.939536	0.227804
561.152937	0.227757
561.366319	0.228035
561.579683	0.228233
561.793029	0.228421
562.006357	0.228853
562.219667	0.229040
562.432958	0.229390
562.646231	0.229852
562.859486	0.230036
563.072723	0.230202
563.285941	0.230504
563.499141	0.230788
563.712323	0.231007
563.925487	0.231190
564.138632	0.231220
564.351760	0.231166
564.564869	0.231296
564.777960	0.231248
564.991032	0.231063
565.204087	0.231148
565.417123	0.230904
565.630141	0.230715
565.843140	0.230603
566.056122	0.231113
566.269085	0.230849
566.482030	0.230862
566.694957	0.231040
566.907866	0.231067
567.120756	0.231157
567.333628	0.231516
567.546482	0.231392
567.759318	0.231603
567.972135	0.231552
568.184935	0.231918
568.397716	0.232051
568.610478	0.232006
568.823223	0.232370
569.035949	0.232957
569.248657	0.232806
569.461347	0.233137
569.674019	0.233389
569.886672	0.233838
570.099308	0.234180
570.311925	0.234225
570.524523	0.234607
570.737104	0.234777
570.949666	0.234112
571.162210	0.234926
571.374736	0.235288
571.587244	0.234988
571.799733	0.234928
572.012205	0.234805
572.224658	0.235055
572.437092	0.234901
572.649509	0.234942
572.861907	0.235298
573.074287	0.234923
573.286649	0.234766
573.498993	0.235297
573.711318	0.235517
573.923625	0.235947
574.135914	0.236183
574.348185	0.236235
574.560438	0.236270
574.772672	0.236230
574.984888	0.236175
575.197086	0.236435
575.409266	0.236302
575.621427	0.236193
575.833570	0.236611
576.045695	0.236713
576.257802	0.237363
576.469890	0.237391
576.681961	0.237566
576.894013	0.237943
577.106046	0.237949
577.318062	0.238475
577.530059	0.238484
577.742039	0.238097
577.954000	0.237815
578.165942	0.237899
578.377867	0.238420
578.589773	0.238779
578.801661	0.239364
579.013531	0.240020
579.225382	0.239992
579.437216	0.240628
579.649031	0.241029
579.860828	0.240963
580.072606	0.240690
580.284367	0.240969
580.496109	0.240756
580.707833	0.240660
580.919539	0.239953
581.131227	0.239705
581.342896	0.239333
581.554547	0.238930
581.766180	0.239214
581.977795	0.239528
582.189391	0.239494
582.400969	0.239782
582.612529	0.239636
582.824071	0.240094
583.035595	0.240290
583.247100	0.240776
583.458587	0.241516
583.670056	0.241756
583.881506	0.241840
584.092939	0.242401
584.304353	0.242637
584.515749	0.243025
584.727127	0.243702
584.938486	0.244109
585.149828	0.244190
585.361151	0.244441
585.572456	0.244881
585.783742	0.245235
585.995011	0.244845
586.206261	0.245039
586.417493	0.245347
586.628706	0.245207
586.839902	0.245346
587.051079	0.245777
587.262238	0.245599
587.473379	0.245964
587.684502	0.245711
587.895606	0.246095
588.106692	0.246169
588.317760	0.246053
588.528810	0.246301
588.739841	0.246439
588.950855	0.245931
589.161850	0.245906
589.372827	0.245831
589.583785	0.246155
589.794726	0.246365
590.005648	0.246713
590.216552	0.246923
590.427437	0.246988
590.638305	0.247422
590.849154	0.247931
591.059985	0.248331
591.270798	0.248276
591.481592	0.248470
591.692369	0.248449
591.903127	0.248207
592.113867	0.248225
592.324588	0.248507
592.535292	0.248374
592.745977	0.248172
592.956644	0.248262
593.167293	0.248576
593.377923	0.248617
593.588536	0.248356
593.799130	0.248753
594.009706	0.249202
594.220263	0.249386
594.430803	0.249191
594.641324	0.249416
594.851827	0.249423
595.062312	0.249758
595.272778	0.249608
595.483227	0.249947
595.693657	0.250162
595.904069	0.249680
596.114462	0.249046
596.324838	0.249619
596.535195	0.249949
596.745534	0.250251
596.955855	0.250540
597.166157	0.250863
597.376441	0.251343
597.586707	0.251285
597.796955	0.252015
598.007185	0.252618
598.217396	0.252494
598.427589	0.252157
598.637764	0.252219
598.847921	0.251964
599.058060	0.252010
599.268180	0.252041
599.478282	0.252285
599.688366	0.252039
599.898431	0.252166
600.108479	0.252449
600.318508	0.252887
600.528519	0.252817
600.738511	0.252646
600.948486	0.253087
601.158442	0.253189
601.368380	0.253463
601.578300	0.253558
601.788202	0.253639
601.998085	0.253377
602.207950	0.253403
602.417797	0.253569
602.627626	0.253550
602.837436	0.253431
603.047228	0.253155
603.257002	0.252610
603.466758	0.252821
603.676496	0.252723
603.886215	0.252794
604.095916	0.252731
604.305599	0.253227
604.515264	0.253564
604.724910	0.253640
604.934538	0.253738
605.144148	0.254057
605.353740	0.254046
605.563314	0.254105
605.772869	0.254540
605.982406	0.255004
606.191925	0.254739
606.401425	0.254847
606.610908	0.255118
606.820372	0.255502
607.029818	0.255798
607.239246	0.255679
607.448655	0.255996
607.658047	0.255776
607.867420	0.256011
608.076775	0.256367
608.286111	0.256918
608.495430	0.257041
608.704730	0.257180
608.914012	0.257457
609.123275	0.257802
609.332521	0.257974
609.541748	0.258409
609.750957	0.258338
609.960148	0.258261
610.169321	0.257910
610.378475	0.257923
610.587611	0.257796
610.796729	0.257910
611.005829	0.258295
611.214910	0.258354
611.423974	0.258680
611.633019	0.258597
611.842045	0.258778
612.051054	0.259131
612.260044	0.259501
612.469017	0.260027
612.677970	0.260041
612.886906	0.260056
613.095824	0.260152
613.304723	0.260102
613.513604	0.260441
613.722467	0.260369
613.931311	0.260270
614.140138	0.260206
614.348946	0.259805
614.557736	0.260115
614.766507	0.260378
614.975261	0.260662
615.183996	0.260613
615.392713	0.260751
615.601412	0.261213
615.810092	0.261769
616.018754	0.261944
616.227399	0.262265
616.436024	0.262104
616.644632	0.262234
616.853222	0.262221
617.061793	0.262645
617.270346	0.262367
617.478880	0.262385
617.687397	0.262363
617.895895	0.262575
618.104375	0.262829
618.312837	0.262973
618.521281	0.263242
618.729706	0.263426
618.938113	0.263440
619.146502	0.264096
619.354873	0.264147
619.563226	0.264129
619.771560	0.264354
619.979876	0.264479
620.188174	0.264680
620.396453	0.264430
620.604715	0.264495
620.812958	0.264362
621.021183	0.264159
621.229390	0.264471
621.437578	0.264664
621.645748	0.264418
621.853900	0.264415
622.062034	0.264380
622.270150	0.264516
622.478247	0.264600
622.686326	0.264884
622.894387	0.265393
623.102430	0.265188
623.310454	0.265256
623.518461	0.265380
623.726449	0.265963
623.934418	0.266284
624.142370	0.266501
624.350303	0.266671
624.558218	0.266868
624.766115	0.266518
624.973994	0.266629
625.181855	0.266555
625.389697	0.266695
625.597521	0.266327
625.805327	0.266313
626.013114	0.266152
626.220883	0.266116
626.428634	0.266063
626.636367	0.266432
626.844082	0.266770
627.051778	0.266916
627.259457	0.267248
627.467117	0.267445
627.674758	0.267525
627.882382	0.267594
628.089987	0.267865
628.297574	0.268104
628.505143	0.268255
628.712694	0.268376
628.920226	0.268447
629.127740	0.268420
629.335236	0.268437
629.542714	0.268509
629.750174	0.268846
629.957615	0.268886
630.165038	0.268909
630.372443	0.268790
630.579829	0.268432
630.787198	0.268578
630.994548	0.268665
631.201880	0.268724
631.409194	0.269071
631.616489	0.269293
631.823766	0.269396
632.031025	0.269437
632.238266	0.269493
632.445489	0.270024
632.652693	0.270447
632.859879	0.270252
633.067047	0.270424
633.274197	0.270436
633.481329	0.270498
633.688442	0.270664
633.895537	0.270775
634.102614	0.271037
634.309672	0.271066
634.516713	0.270901
634.723735	0.271287
634.930739	0.271396
635.137724	0.271579
635.344692	0.271608
635.551641	0.271545
635.758572	0.271823
635.965485	0.271803
636.172379	0.272293
636.379256	0.272575
636.586114	0.272899
636.792954	0.272935
636.999775	0.272821
637.206579	0.272961
637.413364	0.273078
637.620131	0.273182
637.826880	0.273318
638.033610	0.273105
638.240323	0.273359
638.447017	0.273339
638.653692	0.273604
638.860350	0.273627
639.066990	0.273744
639.273611	0.274090
639.480214	0.274263
639.686798	0.274428
639.893365	0.274504
640.099913	0.274626
640.306443	0.274932
640.512955	0.275079
640.719449	0.275753
640.925924	0.276099
641.132381	0.276065
641.338820	0.276161
641.545241	0.276351
641.751644	0.276676
641.958028	0.276606
642.164394	0.276497
642.370742	0.276584
642.577071	0.276390
642.783383	0.276236
642.989676	0.276358
643.195951	0.276582
643.402207	0.276613
643.608446	0.276709
643.814666	0.276604
644.020868	0.276755
644.227052	0.277125
644.433218	0.277119
644.639365	0.277551
644.845494	0.277929
645.051605	0.277812
645.257698	0.278397
645.463772	0.278758
645.669828	0.279034
645.875866	0.279291
646.081886	0.279271
646.287888	0.279606
646.493871	0.279412
646.699836	0.279485
646.905783	0.279927
647.111712	0.279605
647.317622	0.279480
647.523514	0.279485
647.729388	0.279408
647.935244	0.279449
648.141082	0.279280
648.346901	0.279430
648.552702	0.279513
648.758485	0.279525
648.964250	0.279920
649.169996	0.279870
649.375724	0.280419
649.581434	0.280491
649.787126	0.280310
649.992800	0.280796
650.198455	0.280973
650.404092	0.281106
650.609711	0.281113
650.815311	0.280933
651.020894	0.281115
651.226458	0.280955
651.432004	0.281261
651.637532	0.281499
651.843041	0.281239
652.048532	0.281596
652.254006	0.281652
652.459460	0.281781
652.664897	0.282100
652.870315	0.282268
653.075716	0.282297
653.281097	0.282604
653.486461	0.282755
653.691807	0.283114
653.897134	0.282938
654.102443	0.282881
654.307734	0.283172
654.513006	0.283396
654.718261	0.283540
654.923497	0.283941
655.128715	0.283934
655.333915	0.284313
655.539096	0.284680
655.744259	0.285098
655.949404	0.285521
656.154531	0.285580
656.359640	0.285306
656.564730	0.285411
656.769802	0.285566
656.974856	0.285577
657.179892	0.285505
657.384909	0.285511
657.589908	0.285467
657.794889	0.285623
657.999852	0.285751
658.204797	0.286473
658.409723	0.286626
658.614631	0.286741
658.819521	0.286819
659.024393	0.287156
659.229246	0.287023
659.434081	0.287238
659.638898	0.287316
659.843697	0.287505
660.048478	0.287264
660.253240	0.287362
660.457984	0.287560
660.662710	0.288000
660.867417	0.288272
661.072107	0.288623
661.276778	0.288613
661.481431	0.288874
661.686066	0.289011
661.890682	0.289197
662.095281	0.289455
662.299861	0.289423
662.504422	0.289588
662.708966	0.289635
662.913491	0.290163
663.117999	0.290181
663.322488	0.290021
663.526958	0.290109
663.731411	0.290504
663.935845	0.290484
664.140261	0.290958
664.344659	0.290936
664.549038	0.291035
664.753400	0.290563
664.957743	0.290867
665.162068	0.291181
665.366375	0.291257
665.570663	0.291044
665.774933	0.291217
665.979185	0.290974
666.183419	0.290897
666.387635	0.290740
666.591832	0.291175
666.796011	0.291339
667.000172	0.291701
667.204315	0.291864
667.408439	0.292014
667.612545	0.292056
667.816634	0.292406
668.020703	0.292517
668.224755	0.292743
668.428788	0.292939
668.632803	0.293268
668.836800	0.293195
669.040779	0.293389
669.244739	0.293490
669.448681	0.293585
669.652605	0.293570
669.856511	0.293945
670.060399	0.294314
670.264268	0.294413
670.468119	0.294609
670.671952	0.294853
670.875767	0.294981
671.079563	0.295586
671.283341	0.295916
671.487101	0.296051
671.690843	0.296441
671.894567	0.296617
672.098272	0.296891
672.301959	0.296913
672.505628	0.297039
672.709278	0.297473
672.912911	0.297517
673.116525	0.297583
673.320121	0.297836
673.523699	0.298010
673.727258	0.298221
673.930799	0.298262
674.134322	0.298460
674.337827	0.298455
674.541314	0.298409
674.744782	0.298493
674.948232	0.298633
675.151664	0.298992
675.355078	0.299009
675.558474	0.299155
675.761851	0.299349
675.965210	0.299497
676.168551	0.299811
676.371873	0.299983
676.575178	0.300083
676.778464	0.300377
676.981732	0.300297
677.184981	0.300465
677.388213	0.300336
677.591426	0.300523
677.794621	0.300604
677.997798	0.300796
678.200956	0.301016
678.404097	0.301090
678.607219	0.301295
678.810323	0.301493
679.013408	0.301576
679.216476	0.301982
679.419525	0.302067
679.622556	0.302126
679.825569	0.302184
680.028563	0.302260
680.231540	0.302623
680.434498	0.302575
680.637438	0.302704
680.840359	0.302778
681.043263	0.302808
681.246148	0.302829
681.449015	0.302972
681.651864	0.302935
681.854694	0.303068
682.057506	0.302996
682.260301	0.303493
682.463076	0.303255
682.665834	0.303359
682.868573	0.303654
683.071295	0.303691
683.273998	0.303716
683.476682	0.303993
683.679349	0.303936
683.881997	0.304140
684.084627	0.304047
684.287239	0.304376
684.489833	0.304344
684.692408	0.304319
684.894965	0.304330
685.097504	0.304676
685.300025	0.304767
685.502527	0.304980
685.705012	0.305085
685.907478	0.305188
686.109925	0.305664
686.312355	0.305862
686.514766	0.305914
686.717159	0.306163
686.919534	0.306042
687.121891	0.306265
687.324230	0.306280
687.526550	0.306231
687.728852	0.306277
687.931136	0.306074
688.133401	0.306147
688.335649	0.306157
688.537878	0.306006
688.740089	0.306236
688.942281	0.306392
689.144456	0.306691
689.346612	0.306973
689.548750	0.306925
689.750870	0.307281
689.952971	0.307570
690.155055	0.308009
690.357120	0.308341
690.559167	0.308633
690.761195	0.308791
690.963206	0.308825
691.165198	0.308684
691.367172	0.309089
691.569128	0.308850
691.771065	0.308930
691.972984	0.308987
692.174885	0.309289
692.376768	0.309209
692.578633	0.309203
692.780479	0.309280
692.982308	0.309654
693.184118	0.309496
693.385909	0.309794
693.587683	0.309923
693.789438	0.310093
693.991175	0.310357
694.192894	0.310693
694.394595	0.311177
694.596277	0.311349
694.797941	0.311459
694.999587	0.311971
695.201215	0.312084
695.402824	0.311998
695.604416	0.312093
695.805989	0.312104
696.007543	0.312336
696.209080	0.311981
696.410598	0.311953
696.612099	0.311902
696.813580	0.311676
697.015044	0.311824
697.216490	0.312150
697.417917	0.312313
697.619326	0.312234
697.820717	0.311965
698.022089	0.312412
698.223444	0.312688
698.424780	0.312893
698.626098	0.312990
698.827397	0.313189
699.028679	0.313090
699.229942	0.312945
699.431187	0.313297
699.632414	0.313684
699.833622	0.313544
700.034813	0.313646
700.235985	0.313788
700.437139	0.314105
700.638274	0.314262
700.839392	0.314690
701.040491	0.315066
701.241572	0.315117
701.442635	0.315278
701.643679	0.315401
701.844706	0.315594
702.045714	0.315700
702.246704	0.315857
702.447675	0.315784
702.648629	0.315750
702.849564	0.315714
703.050481	0.315787
703.251380	0.315565
703.452260	0.315694
703.653122	0.315585
703.853966	0.315482
704.054792	0.315153
704.255600	0.314938
704.456389	0.314819
704.657160	0.314760
704.857913	0.314831
705.058648	0.314965
705.259365	0.314939
705.460063	0.314987
705.660743	0.315219
705.861405	0.315553
706.062048	0.315537
706.262674	0.315405
706.463281	0.315287
706.663870	0.315013
706.864441	0.315033
707.064993	0.314936
707.265527	0.314936
707.466043	0.315059
707.666541	0.314803
707.867021	0.315156
708.067482	0.315387
708.267925	0.315735
708.468350	0.315920
708.668757	0.315841
708.869145	0.316040
709.069516	0.315982
709.269868	0.315555
709.470201	0.315569
709.670517	0.315612
709.870814	0.315465
710.071093	0.315361
710.271354	0.315384
710.471597	0.315143
710.671821	0.315092
710.872028	0.315164
711.072216	0.315438
711.272385	0.315675
711.472537	0.315625
711.672670	0.315940
711.872785	0.315923
712.072882	0.316097
712.272961	0.316345
712.473021	0.316425
712.673063	0.316560
712.873087	0.316526
713.073093	0.316467
713.273081	0.316454
713.473050	0.316443
713.673001	0.316439
713.872934	0.316428
714.072849	0.316624
714.272745	0.316520
714.472623	0.316681
714.672483	0.317056
714.872325	0.317274
715.072148	0.317449
715.271954	0.317653
715.471741	0.317753
715.671509	0.317477
715.871260	0.317671
716.070992	0.317645
716.270707	0.317596
716.470403	0.317527
716.670080	0.317648
716.869740	0.317458
717.069381	0.317690
717.269004	0.317615
717.468609	0.317920
717.668195	0.317831
717.867764	0.318028
718.067314	0.317944
718.266846	0.318180
718.466360	0.317833
718.665855	0.317669
718.865332	0.317165
719.064791	0.317202
719.264232	0.316903
719.463655	0.316545
719.663059	0.316098
719.862445	0.316045
720.061813	0.315587
720.261163	0.315541
720.460494	0.315776
720.659807	0.315790
720.859102	0.315868
721.058379	0.315791
721.257638	0.316020
721.456878	0.316323
721.656100	0.316214
721.855304	0.316238
722.054490	0.316089
722.253657	0.315977
722.452806	0.315809
722.651937	0.315598
722.851050	0.315615
723.050145	0.315343
723.249221	0.315210
723.448279	0.315022
723.647319	0.314632
723.846340	0.314906
724.045344	0.314714
724.244329	0.314413
724.443296	0.314205
724.642245	0.314033
724.841175	0.313834
725.040088	0.313459
725.238982	0.313262
725.437857	0.313335
725.636715	0.313048
725.835554	0.312861
726.034376	0.312957
726.233179	0.312881
726.431963	0.312809
726.630730	0.312845
726.829478	0.312814
727.028208	0.312777
727.226920	0.312598
727.425614	0.312674
727.624289	0.312640
727.822946	0.312426
728.021585	0.312229
728.220206	0.312084
728.418808	0.311787
728.617392	0.311893
728.815958	0.311812
729.014506	0.311631
729.213036	0.311272
729.411547	0.311203
729.610040	0.311435
729.808515	0.311509
730.006972	0.311280
730.205410	0.311381
730.403831	0.310939
730.602233	0.310741
730.800616	0.310816
730.998982	0.310787
731.197329	0.310498
731.395658	0.310110
731.593969	0.309945
731.792262	0.310236
731.990536	0.309780
732.188793	0.309879
732.387031	0.309974
732.585250	0.309828
732.783452	0.309746
732.981635	0.310017
733.179800	0.309934
733.377947	0.310042
733.576076	0.309544
733.774186	0.309810
733.972278	0.309799
734.170352	0.309692
734.368408	0.309694
734.566446	0.309703
734.764465	0.309337
734.962466	0.309230
735.160449	0.308987
735.358413	0.308897
735.556360	0.308928
735.754288	0.308570
735.952198	0.308631
736.150090	0.308420
736.347963	0.308235
736.545818	0.308124
736.743655	0.308058
736.941474	0.307878
737.139275	0.308088
737.337057	0.307766
737.534821	0.307815
737.732567	0.307730
737.930295	0.307311
738.128005	0.306896
738.325696	0.306733
738.523369	0.306642
738.721024	0.306670
738.918660	0.306292
739.116279	0.306266
739.313879	0.306296
739.511461	0.305990
739.709024	0.306085
739.906570	0.306212
740.104097	0.306382
740.301606	0.306376
740.499097	0.306087
740.696569	0.306116
740.894024	0.306013
741.091460	0.305738
741.288878	0.305661
741.486277	0.305439
741.683659	0.305078
741.881022	0.304673
742.078367	0.304370
742.275694	0.304031
742.473002	0.303625
742.670293	0.303174
742.867565	0.303214
743.064819	0.302937
743.262054	0.302894
743.459272	0.302642
743.656471	0.302563
743.853652	0.302286
744.050815	0.302229
744.247959	0.302155
744.445085	0.302180
744.642194	0.301653
744.839283	0.301440
745.036355	0.301438
745.233408	0.301503
745.430444	0.301169
745.627461	0.300915
745.824459	0.300880
746.021440	0.300827
746.218402	0.300723
746.415346	0.300726
746.612272	0.300598
746.809180	0.300190
747.006069	0.299883
747.202940	0.299986
747.399793	0.300139
747.596628	0.299837
747.793444	0.299706
747.990243	0.299368
748.187023	0.299288
748.383784	0.299315
748.580528	0.299619
748.777253	0.299786
748.973960	0.299974
749.170649	0.299753
749.367320	0.299642
749.563973	0.299528
749.760607	0.299750
749.957223	0.299754
750.153821	0.299441
750.350400	0.299186
750.546962	0.299041
750.743505	0.298558
750.940030	0.298470
751.136536	0.298333
751.333025	0.298236
751.529495	0.297999
751.725947	0.297826
751.922381	0.297835
752.118796	0.297547
752.315194	0.297154
752.511573	0.296904
752.707934	0.296699
752.904276	0.296580
753.100601	0.296155
753.296907	0.295725
753.493195	0.295367
753.689465	0.295178
753.885716	0.295121
754.081949	0.295104
754.278164	0.295020
754.474361	0.294935
754.670540	0.295137
754.866700	0.295258
755.062843	0.295484
755.258967	0.295402
755.455072	0.295113
755.651160	0.295073
755.847229	0.295074
756.043280	0.295170
756.239313	0.295338
756.435328	0.295210
756.631324	0.295328
756.827302	0.295027
757.023262	0.295034
757.219204	0.295115
757.415127	0.294989
757.611033	0.294792
757.806920	0.294476
758.002788	0.294304
758.198639	0.294029
758.394471	0.293767
758.590286	0.293647
758.786081	0.293529
758.981859	0.293166
759.177619	0.292687
759.373360	0.292566
759.569083	0.292531
759.764788	0.292573
759.960474	0.292279
760.156143	0.292340
760.351793	0.292263
760.547425	0.292170
760.743038	0.292392
760.938634	0.292340
761.134211	0.292284
761.329770	0.292005
761.525311	0.291381
761.720833	0.291383
761.916338	0.291019
762.111824	0.291043
762.307292	0.291081
762.502741	0.290999
762.698173	0.291253
762.893586	0.291195
763.088981	0.291300
763.284358	0.291290
763.479716	0.291243
763.675057	0.291325
763.870379	0.291242
764.065683	0.291031
764.260968	0.290893
764.456236	0.290775
764.651485	0.290756
764.846716	0.290511
765.041929	0.290510
765.237123	0.290405
765.432299	0.290054
765.627457	0.289884
765.822597	0.289715
766.017719	0.289558
766.212822	0.289176
766.407907	0.288978
766.602974	0.289102
766.798023	0.289311
766.993054	0.289308
767.188066	0.289421
767.383060	0.289284
767.578036	0.289235
767.772993	0.289226
767.967933	0.289127
768.162854	0.289089
768.357757	0.288670
768.552642	0.288250
768.747508	0.288157
768.942356	0.287913
769.137186	0.287980
769.331998	0.287782
769.526792	0.287677
769.721567	0.287895
769.916324	0.287584
770.111063	0.287566
770.305784	0.287581
770.500486	0.287301
770.695171	0.287291
770.889837	0.287054
771.084484	0.287255
771.279114	0.287434
771.473725	0.287007
771.668318	0.287311
771.862893	0.287488
772.057450	0.287301
772.251988	0.287380
772.446509	0.287608
772.641011	0.287709
772.835494	0.287566
773.029960	0.287322
773.224407	0.287539
773.418836	0.287523
773.613247	0.287424
773.807640	0.287224
774.002014	0.287163
774.196370	0.286951
774.390708	0.286835
774.585028	0.286614
774.779330	0.286339
774.973613	0.286080
775.167878	0.285932
775.362125	0.285856
775.556354	0.285950
775.750564	0.286012
775.944756	0.285899
776.138930	0.285841
776.333086	0.285908
776.527223	0.286096
776.721343	0.286222
776.915444	0.285875
777.109526	0.285948
777.303591	0.285963
777.497637	0.285705
777.691666	0.285753
777.885676	0.285674
778.079667	0.285648
778.273641	0.285524
778.467596	0.285384
778.661533	0.285712
778.855452	0.285646
779.049352	0.285660
779.243235	0.285769
779.437099	0.285775
779.630945	0.285987
779.824773	0.286019
780.018582	0.285794
780.212373	0.285776
780.406146	0.285678
780.599901	0.285837
780.793638	0.285929
780.987356	0.285791
781.181056	0.285808
781.374738	0.285763
781.568402	0.285858
781.762047	0.286133
781.955674	0.286418
782.149283	0.286441
782.342874	0.286365
782.536447	0.286527
782.730001	0.286657
782.923537	0.286525
783.117055	0.286417
783.310555	0.286451
783.504036	0.286582
783.697499	0.286661
783.890944	0.286928
784.084371	0.287018
784.277780	0.287088
784.471170	0.287160
784.664542	0.287477
784.857896	0.287613
785.051231	0.287837
785.244549	0.287950
785.437848	0.287988
785.631129	0.288099
785.824392	0.288148
786.017636	0.288159
786.210863	0.288510
786.404071	0.288856
786.597260	0.289112
786.790432	0.288942
786.983585	0.289047
787.176721	0.288941
787.369838	0.288961
787.562936	0.288988
787.756017	0.289051
787.949079	0.289365
788.142123	0.289047
788.335149	0.288888
788.528156	0.289154
788.721146	0.289149
788.914117	0.289520
789.107070	0.289434
789.300005	0.289617
789.492921	0.289678
789.685819	0.289107
789.878699	0.289248
790.071561	0.289264
790.264405	0.289103
790.457230	0.288981
790.650037	0.288526
790.842826	0.288588
791.035597	0.288328
791.228349	0.288199
791.421084	0.288478
791.613800	0.288564
791.806497	0.288908
791.999177	0.289020
792.191838	0.289147
792.384481	0.289350
792.577106	0.289265
792.769713	0.289141
792.962301	0.289281
793.154871	0.289286
793.347423	0.289209
793.539957	0.289092
793.732473	0.289168
793.924970	0.289160
794.117449	0.289575
794.309910	0.289781
794.502353	0.290329
794.694777	0.290676
794.887183	0.290789
795.079571	0.291031
795.271941	0.291347
795.464293	0.291534
795.656626	0.291890
795.848941	0.291959
796.041238	0.292123
796.233516	0.292418
796.425777	0.292559
796.618019	0.293202
796.810243	0.293364
797.002449	0.293571
797.194636	0.293927
797.386805	0.294009
797.578956	0.294245
797.771089	0.294364
797.963204	0.294400
798.155300	0.294648
798.347378	0.294412
798.539438	0.294444
798.731480	0.294308
798.923503	0.294242
799.115509	0.294472
799.307496	0.294747
799.499465	0.295200
799.691415	0.295157
799.883348	0.295015
800.075262	0.295206
800.267158	0.295642
800.459035	0.295805
800.650895	0.295675
800.842736	0.295857
801.034559	0.296014
801.226364	0.295969
801.418150	0.296171
801.609919	0.296401
801.801669	0.296682
801.993401	0.296671
802.185114	0.297069
802.376810	0.297589
802.568487	0.297923
802.760146	0.297789
802.951787	0.298044
803.143409	0.298494
803.335014	0.298856
803.526600	0.298685
803.718168	0.298854
803.909717	0.298769
804.101249	0.298919
804.292762	0.299000
804.484257	0.299175
804.675734	0.299442
804.867192	0.299851
805.058632	0.299782
805.250054	0.300045
805.441458	0.300168
805.632844	0.300662
805.824211	0.301035
806.015561	0.301021
806.206891	0.301503
806.398204	0.301682
806.589499	0.301686
806.780775	0.302113
806.972033	0.302477
807.163273	0.302867
807.354495	0.302828
807.545698	0.302910
807.736883	0.303346
807.928050	0.303418
808.119199	0.303549
808.310329	0.303576
808.501441	0.303845
808.692535	0.303971
808.883611	0.304310
809.074669	0.304589
809.265708	0.304892
809.456729	0.304934
809.647732	0.305246
809.838717	0.305456
810.029683	0.305839
810.220632	0.306172
810.411562	0.306793
810.602474	0.307023
810.793367	0.307273
810.984242	0.307357
811.175100	0.307602
811.365938	0.308064
811.556759	0.308479
811.747562	0.308528
811.938346	0.308553
812.129112	0.308810
812.319860	0.308881
812.510589	0.309119
812.701300	0.309691
812.891994	0.310273
813.082668	0.310210
813.273325	0.310732
813.463964	0.311344
813.654584	0.311675
813.845186	0.312083
814.035769	0.313001
814.226335	0.313504
814.416882	0.313820
814.607411	0.314197
814.797922	0.314716
814.988415	0.314950
815.178889	0.315178
815.369345	0.315688
815.559783	0.315742
815.750203	0.315471
815.940605	0.315756
816.130988	0.315881
816.321353	0.316207
816.511700	0.316358
816.702028	0.316380
816.892339	0.316606
817.082631	0.316688
817.272905	0.317147
817.463161	0.317520
817.653398	0.317707
817.843617	0.318054
818.033819	0.318236
818.224001	0.318372
818.414166	0.318771
818.604312	0.319143
818.794440	0.319442
818.984550	0.319251
819.174642	0.319257
819.364716	0.319491
819.554771	0.319695
819.744808	0.319508
819.934827	0.320167
820.124827	0.320325
820.314810	0.320428
820.504774	0.320847
820.694720	0.321019
820.884647	0.321477
821.074557	0.321616
821.264448	0.321892
821.454321	0.322382
821.644176	0.322331
821.834012	0.322508
822.023831	0.323110
822.213631	0.323441
822.403413	0.324017
822.593176	0.324181
822.782922	0.324552
822.972649	0.324934
823.162358	0.325163
823.352049	0.325728
823.541721	0.326084
823.731376	0.326178
823.921012	0.326051
824.110629	0.326440
824.300229	0.326670
824.489811	0.326911
824.679374	0.327097
824.868919	0.327421
825.058445	0.327642
825.247954	0.328043
825.437444	0.328277
825.626916	0.328782
825.816370	0.329016
826.005806	0.329442
826.195223	0.330071
826.384622	0.330322
826.574003	0.330522
826.763366	0.330679
826.952711	0.330773
827.142037	0.331026
827.331345	0.331222
827.520635	0.331331
827.709906	0.331760
827.899160	0.331987
828.088395	0.332347
828.277612	0.332952
828.466810	0.333392
828.655991	0.334021
828.845153	0.334448
829.034297	0.334765
829.223423	0.335757
829.412531	0.336232
829.601620	0.336530
829.790691	0.337192
829.979744	0.337505
830.168779	0.337902
830.357795	0.338283
830.546793	0.338647
830.735773	0.339827
830.924735	0.339790
831.113679	0.340280
831.302604	0.340608
831.491511	0.340643
831.680400	0.340853
831.869271	0.341323
832.058123	0.341319
832.246957	0.341489
832.435773	0.341128
832.624571	0.341288
832.813351	0.341175
833.002112	0.341550
833.190855	0.341750
833.379580	0.342056
833.568287	0.342320
833.756975	0.342531
833.945645	0.342985
834.134297	0.343584
834.322931	0.343951
834.511547	0.344368
834.700144	0.344613
834.888723	0.345043
835.077284	0.345360
835.265826	0.345815
835.454351	0.346544
835.642857	0.346906
835.831345	0.347048
836.019815	0.347713
836.208266	0.348232
836.396699	0.348917
836.585114	0.349570
836.773511	0.350252
836.961890	0.350566
837.150250	0.350798
837.338592	0.351382
837.526916	0.351566
837.715222	0.351468
837.903510	0.351843
838.091779	0.351815
838.280030	0.352026
838.468263	0.352194
838.656477	0.352528
838.844674	0.353111
839.032852	0.353352
839.221012	0.354082
839.409153	0.354891
839.597277	0.355157
839.785382	0.355759
839.973469	0.356374
840.161538	0.357058
840.349589	0.357283
840.537621	0.357219
840.725635	0.357873
840.913631	0.358128
841.101609	0.358242
841.289568	0.359005
841.477509	0.359321
841.665432	0.359622
841.853337	0.360000
842.041224	0.360503
842.229092	0.361229
842.416942	0.361092
842.604774	0.361241
842.792588	0.361947
842.980383	0.362433
843.168160	0.363233
843.355919	0.363787
843.543660	0.363905
843.731382	0.364352
843.919087	0.364819
844.106773	0.365358
844.294441	0.366061
844.482090	0.366651
844.669722	0.366841
844.857335	0.366853
845.044930	0.367346
845.232507	0.368283
845.420065	0.368385
845.607605	0.369083
845.795127	0.369879
845.982631	0.370509
846.170117	0.370643
846.357584	0.370883
846.545033	0.371363
846.732464	0.371589
846.919877	0.372015
847.107272	0.372866
847.294648	0.373060
847.482006	0.373337
847.669346	0.373519
847.856667	0.373550
848.043971	0.374089
848.231256	0.374424
848.418523	0.374683
848.605771	0.374445
848.793002	0.374412
848.980214	0.374795
849.167408	0.374900
849.354584	0.375231
849.541742	0.375899
849.728881	0.376220
849.916002	0.377139
850.103105	0.377496
850.290190	0.378002
850.477256	0.378836
850.664304	0.379318
850.851334	0.379782
851.038346	0.379875
851.225340	0.379901
851.412315	0.380230
851.599272	0.380080
851.786211	0.380588
851.973132	0.380769
852.160034	0.380879
852.346918	0.380845
852.533784	0.381054
852.720632	0.381870
852.907462	0.382574
853.094273	0.382915
853.281066	0.383539
853.467841	0.383785
853.654598	0.384526
853.841336	0.384889
854.028056	0.385220
854.214758	0.385771
854.401442	0.385855
854.588107	0.386233
854.774755	0.386593
854.961384	0.386723
855.147995	0.386672
855.334587	0.387021
855.521162	0.387282
855.707718	0.387851
855.894256	0.388031
856.080775	0.388349
856.267277	0.388508
856.453760	0.388642
856.640225	0.388830
856.826672	0.389314
857.013101	0.389735
857.199511	0.389908
857.385903	0.390325
857.572277	0.390283
857.758633	0.390661
857.944970	0.391048
858.131290	0.391763
858.317591	0.392136
858.503873	0.392558
858.690138	0.392599
858.876384	0.393295
859.062612	0.393657
859.248822	0.394333
859.435014	0.394672
859.621188	0.394901
859.807343	0.394912
859.993480	0.395336
860.179599	0.396051
860.365699	0.396485
860.551781	0.397009
860.737846	0.396894
860.923891	0.397159
861.109919	0.397616
861.295929	0.398139
861.481920	0.399078
861.667893	0.399506
861.853848	0.399686
862.039784	0.400432
862.225702	0.400661
862.411603	0.401293
862.597484	0.401892
862.783348	0.402470
862.969193	0.403068
863.155021	0.402995
863.340830	0.403344
863.526620	0.403286
863.712393	0.403174
863.898147	0.403365
864.083883	0.404069
864.269601	0.404314
864.455301	0.404404
864.640982	0.404518
864.826645	0.404784
865.012290	0.404948
865.197917	0.405583
865.383526	0.405865
865.569116	0.406497
865.754688	0.406252
865.940242	0.406723
866.125777	0.407393
866.311295	0.407672
866.496794	0.407870
866.682275	0.408290
866.867737	0.408078
867.053182	0.408159
867.238608	0.407877
867.424016	0.408159
867.609406	0.407561
867.794778	0.407557
867.980131	0.407728
868.165466	0.407524
868.350783	0.407630
868.536082	0.408098
868.721362	0.408359
868.906625	0.408229
869.091869	0.408425
869.277094	0.409144
869.462302	0.408810
869.647491	0.409014
869.832662	0.409396
870.017815	0.409332
870.202950	0.410083
870.388066	0.410622
870.573165	0.411224
870.758245	0.411901
870.943306	0.412310
871.128350	0.412525
871.313375	0.412827
871.498382	0.413849
871.683371	0.414295
871.868342	0.414279
872.053294	0.414456
872.238229	0.414785
872.423144	0.414372
872.608042	0.414731
872.792922	0.415495
872.977783	0.416212
873.162626	0.416390
873.347451	0.416806
873.532258	0.417174
873.717046	0.417433
873.901816	0.417721
874.086568	0.418373
874.271302	0.418513
874.456017	0.418671
874.640715	0.418569
874.825394	0.418370
875.010055	0.418821
875.194697	0.419070
875.379322	0.419288
875.563928	0.419310
875.748516	0.419601
875.933085	0.419884
876.117637	0.420275
876.302170	0.420069
876.486685	0.420435
876.671182	0.420661
876.855661	0.420752
877.040121	0.420904
877.224563	0.421326
877.408987	0.421462
877.593393	0.421636
877.777780	0.421771
877.962150	0.421930
878.146501	0.422152
878.330833	0.422536
878.515148	0.422518
878.699444	0.422435
878.883722	0.422463
879.067982	0.422022
879.252224	0.422309
879.436447	0.421850
879.620653	0.422326
879.804840	0.422303
879.989008	0.421949
880.173159	0.422267
880.357291	0.422299
880.541405	0.422293
880.725501	0.422965
880.909579	0.422979
881.093638	0.423508
881.277680	0.423756
881.461703	0.423477
881.645707	0.423573
881.829694	0.423412
882.013662	0.423831
882.197612	0.423924
882.381544	0.423890
882.565458	0.423756
882.749353	0.423513
882.933230	0.423174
883.117089	0.423465
883.300930	0.423392
883.484753	0.423105
883.668557	0.423068
883.852343	0.423321
884.036111	0.423541
884.219861	0.423836
884.403592	0.424021
884.587305	0.423899
884.771000	0.424091
884.954677	0.424200
885.138335	0.424538
885.321976	0.424662
885.505598	0.425038
885.689201	0.425214
885.872787	0.425247
886.056354	0.424813
886.239904	0.425427
886.423434	0.425443
886.606947	0.425233
886.790442	0.425449
886.973918	0.425225
887.157376	0.425045
887.340816	0.424791
887.524237	0.424490
887.707641	0.425312
887.891026	0.425333
888.074393	0.425184
888.257741	0.425287
888.441072	0.425301
888.624384	0.425590
888.807678	0.425083
888.990954	0.425042
889.174211	0.424971
889.357451	0.424625
889.540672	0.424308
889.723875	0.424478
889.907059	0.424680
890.090226	0.424770
890.273374	0.425048
890.456504	0.425426
890.639616	0.425838
890.822709	0.425977
891.005785	0.425971
891.188842	0.426521
891.371881	0.426408
891.554901	0.426673
891.737904	0.426656
891.920888	0.426034
892.103854	0.425819
892.286802	0.425476
892.469731	0.425255
892.652643	0.424779
892.835536	0.423954
893.018410	0.424038
893.201267	0.423737
893.384106	0.423300
893.566926	0.423484
893.749728	0.423480
893.932511	0.423286
894.115277	0.423591
894.298024	0.424048
894.480753	0.423904
894.663464	0.423274
894.846157	0.422935
895.028831	0.422980
895.211487	0.422683
895.394125	0.422156
895.576745	0.421971
895.759346	0.421612
895.941930	0.421826
896.124495	0.422456
896.307041	0.422941
896.489570	0.422809
896.672080	0.422830
896.854573	0.422964
897.037046	0.423252
897.219502	0.423555
897.401940	0.423643
897.584359	0.422887
897.766760	0.423124
897.949143	0.423355
898.131507	0.423412
898.313854	0.423194
898.496182	0.423033
898.678492	0.422398
898.860783	0.421816
899.043057	0.421628
899.225312	0.421625
899.407549	0.420677
899.589768	0.419952
899.771968	0.419614
899.954151	0.419453
900.136315	0.419314
900.318461	0.419782
900.500588	0.419601
900.682698	0.419591
900.864789	0.419327
901.046862	0.419254
901.228917	0.418830
901.410953	0.418892
901.592971	0.418271
901.774972	0.417695
901.956953	0.417334
902.138917	0.416759
902.320862	0.415339
902.502790	0.414675
902.684699	0.414013
902.866589	0.413266
903.048462	0.413072
903.230316	0.413225
903.412152	0.412545
903.593970	0.412412
903.775770	0.412092
903.957551	0.412728
904.139314	0.412290
904.321059	0.412316
904.502786	0.412241
904.684494	0.411494
904.866185	0.410620
905.047857	0.410836
905.229510	0.409538
905.411146	0.409183
905.592763	0.408686
905.774363	0.409215
905.955943	0.408746
906.137506	0.408762
906.319051	0.408499
906.500577	0.408418
906.682085	0.407780
906.863575	0.408122
907.045046	0.407972
907.226500	0.406918
907.407935	0.406597
907.589352	0.405673
907.770750	0.405336
907.952131	0.404501
908.133493	0.404170
908.314837	0.403753
908.496163	0.403365
908.677470	0.403188
908.858760	0.403108
909.040031	0.402637
909.221284	0.402729
909.402518	0.402120
909.583735	0.402065
909.764933	0.401503
909.946113	0.400596
910.127275	0.400134
910.308418	0.398944
910.489544	0.399203
910.670651	0.398178
910.851740	0.397602
911.032810	0.396505
911.213863	0.395330
911.394897	0.394405
911.575913	0.393809
911.756911	0.393199
911.937890	0.393111
912.118851	0.392145
912.299794	0.391808
912.480719	0.391042
912.661626	0.390886
912.842514	0.390575
913.023384	0.390144
913.204236	0.390088
913.385070	0.389025
913.565886	0.388815
913.746683	0.388422
913.927462	0.388001
914.108223	0.387210
914.288965	0.387078
914.469690	0.387115
914.650396	0.386639
914.831084	0.386131
915.011754	0.386216
915.192405	0.385321
915.373038	0.384736
915.553653	0.383884
915.734250	0.383447
915.914829	0.382841
916.095389	0.381928
916.275931	0.381787
916.456455	0.381843
916.636961	0.380675
916.817448	0.379980
916.997917	0.379029
917.178368	0.378494
917.358801	0.377963
917.539216	0.377289
917.719612	0.376449
917.899990	0.375130
918.080350	0.373475
918.260692	0.373394
918.441015	0.372761
918.621320	0.371761
918.801607	0.371024
918.981876	0.370674
919.162127	0.369911
919.342359	0.369692
919.522573	0.369278
919.702769	0.369051
919.882947	0.367938
920.063106	0.367331
920.243247	0.367379
920.423370	0.365887
920.603475	0.364754
920.783562	0.363546
920.963630	0.362308
921.143680	0.360867
921.323712	0.359988
921.503725	0.360215
921.683721	0.359726
921.863698	0.358667
922.043657	0.359092
922.223598	0.358902
922.403520	0.359109
922.583424	0.358616
922.763311	0.358211
922.943178	0.357528
923.123028	0.355809
923.302859	0.354988
923.482673	0.354023
923.662467	0.352687
923.842244	0.351635
924.022003	0.350452
924.201743	0.350263
924.381465	0.350342
924.561169	0.349646
924.740854	0.349033
924.920522	0.348127
925.100171	0.347772
925.279802	0.347464
925.459414	0.345943
925.639009	0.344520
925.818585	0.343384
925.998143	0.342184
926.177683	0.341657
926.357205	0.340529
926.536708	0.340180
926.716193	0.339507
926.895660	0.338232
927.075109	0.337806
927.254539	0.337887
927.433951	0.336716
927.613345	0.336212
927.792721	0.335517
927.972079	0.334689
928.151418	0.333660
928.330739	0.332603
928.510042	0.331761
928.689327	0.331596
928.868593	0.330994
929.047841	0.330815
929.227071	0.329258
929.406283	0.327218
929.585476	0.326425
929.764652	0.325462
929.943809	0.324444
930.122948	0.323259
930.302068	0.321782
930.481171	0.319767
930.660255	0.318537
930.839321	0.317674
931.018369	0.317893
931.197398	0.317096
931.376409	0.316081
931.555402	0.314917
931.734377	0.314268
931.913334	0.313787
932.092272	0.312710
932.271192	0.311759
932.450094	0.310642
932.628978	0.309598
932.807844	0.308173
932.986691	0.307224
933.165520	0.306554
933.344331	0.305516
933.523123	0.304700
933.701898	0.304301
933.880654	0.303023
934.059392	0.302049
934.238111	0.300378
934.416813	0.300989
934.595496	0.298500
934.774161	0.297403
934.952808	0.297474
935.131437	0.295620
935.310047	0.294769
935.488639	0.293325
935.667213	0.293506
935.845769	0.293117
936.024306	0.290793
936.202825	0.291422
936.381326	0.290715
936.559809	0.289008
936.738274	0.288473
936.916720	0.286799
937.095148	0.285804
937.273558	0.283840
937.451950	0.283132
937.630323	0.282562
937.808678	0.280844
937.987015	0.279849
938.165334	0.278992
938.343635	0.277827
938.521917	0.277384
938.700181	0.276951
938.878427	0.276650
939.056655	0.274735
939.234864	0.273342
939.413055	0.272187
939.591228	0.271282
939.769383	0.270430
939.947519	0.270172
940.125638	0.269005
940.303738	0.267595
940.481820	0.265125
940.659883	0.263896
940.837929	0.261689
941.015956	0.260403
941.193965	0.258744
941.371955	0.257331
941.549928	0.256381
941.727882	0.255558
941.905818	0.255963
942.083736	0.256925
942.261636	0.255752
942.439517	0.256878
942.617380	0.257008
942.795225	0.255597
942.973052	0.254994
943.150860	0.252042
943.328651	0.250493
943.506423	0.247920
943.684176	0.245755
943.861912	0.245237
944.039629	0.242371
944.217328	0.240151
944.395009	0.238859
944.572672	0.237686
944.750317	0.238849
944.927943	0.238516
945.105551	0.237559
945.283141	0.236579
945.460712	0.235645
945.638265	0.235641
945.815801	0.234206
945.993317	0.233590
946.170816	0.231473
946.348297	0.227345
946.525759	0.225533
946.703203	0.223550
946.880629	0.222715
947.058036	0.221211
947.235425	0.219266
947.412797	0.219350
947.590149	0.218750
947.767484	0.218645
947.944800	0.219874
948.122099	0.218613
948.299379	0.218482
948.476640	0.216683
948.653884	0.215937
948.831109	0.216461
949.008316	0.215088
949.185505	0.213911
949.362676	0.211844
949.539828	0.210820
949.716962	0.209906
949.894078	0.209008
950.071176	0.208965
950.248256	0.207043
950.425317	0.205037
950.602360	0.204200
950.779385	0.203014
950.956391	0.202680
951.133380	0.199569
951.310350	0.197292
951.487302	0.195619
951.664235	0.192877
951.841151	0.192415
952.018048	0.192038
952.194927	0.190316
952.371788	0.188705
952.548631	0.188434
952.725455	0.190014
952.902261	0.191322
953.079049	0.190136
953.255819	0.190145
953.432570	0.190903
953.609303	0.189506
953.786018	0.190177
953.962715	0.189834
954.139394	0.187946
954.316054	0.187048
954.492696	0.185904
954.669320	0.187231
954.845926	0.186758
955.022513	0.186151
955.199083	0.186568
955.375634	0.184806
955.552166	0.183408
955.728681	0.183553
955.905177	0.181613
956.081655	0.181194
956.258115	0.178832
956.434557	0.175615
956.610980	0.172731
956.787385	0.171089
956.963772	0.171910
957.140141	0.174016
957.316492	0.171524
957.492824	0.172662
957.669138	0.171475
957.845434	0.171166
958.021712	0.172076
958.197971	0.172112
958.374212	0.170670
958.550435	0.167516
958.726640	0.164761
958.902826	0.165493
959.078995	0.163844
959.255145	0.162423
959.431277	0.163539
959.607390	0.164462
959.783486	0.161739
959.959563	0.160682
960.135622	0.160848
960.311662	0.161735
960.487685	0.161252
960.663689	0.161000
960.839675	0.161602
961.015643	0.159996
961.191593	0.159927
961.367524	0.162254
961.543437	0.164856
961.719332	0.164572
961.895209	0.163222
962.071067	0.162083
962.246907	0.162814
962.422730	0.162323
962.598533	0.161374
962.774319	0.158831
962.950086	0.160608
963.125835	0.157286
963.301566	0.157819
963.477279	0.158616
963.652973	0.157903
963.828650	0.155465
964.004308	0.156440
964.179947	0.157787
964.355569	0.157970
964.531172	0.156166
964.706757	0.159431
964.882324	0.158683
965.057873	0.158773
965.233403	0.160900
965.408916	0.159702
965.584410	0.158583
965.759885	0.157226
965.935343	0.158337
966.110782	0.157523
966.286203	0.155536
966.461606	0.157314
966.636991	0.156101
966.812357	0.153382
966.987705	0.154239
967.163035	0.153691
967.338347	0.155194
967.513641	0.153250
967.688916	0.154313
967.864173	0.153998
968.039412	0.151973
968.214632	0.152620
968.389835	0.153455
968.565019	0.154606
968.740185	0.154634
968.915333	0.154390
969.090462	0.154620
969.265573	0.153134
969.440667	0.153891
969.615741	0.154409
969.790798	0.154476
969.965836	0.154835
970.140856	0.154493
970.315858	0.156356
970.490842	0.155126
970.665808	0.155845
970.840755	0.155160
971.015684	0.154634
971.190595	0.153454
971.365487	0.152852
971.540362	0.154180
971.715218	0.155214
971.890056	0.153021
972.064875	0.154020
972.239677	0.156643
972.414460	0.156920
972.589225	0.158958
972.763972	0.160573
972.938700	0.159717
973.113411	0.159561
973.288103	0.157722
973.462777	0.154454
973.637432	0.153363
973.812070	0.150425
973.986689	0.151253
974.161290	0.146934
974.335873	0.146444
974.510437	0.145808
974.684984	0.145627
974.859512	0.145680
975.034022	0.147307
975.208513	0.148450
975.382987	0.148350
975.557442	0.150486
975.731879	0.153563
975.906298	0.153921
976.080698	0.154517
976.255080	0.154543
976.429445	0.154547
976.603790	0.156712
976.778118	0.154746
976.952427	0.154528
977.126719	0.152659
977.300992	0.153341
977.475246	0.154572
977.649483	0.157592
977.823701	0.155446
977.997901	0.154903
978.172083	0.153171
978.346247	0.154389
978.520392	0.154470
978.694519	0.154788
978.868628	0.153135
979.042719	0.152413
979.216791	0.149713
979.390845	0.151885
979.564882	0.156078
979.738899	0.157619
979.912899	0.157194
980.086880	0.157012
980.260843	0.156563
980.434788	0.155510
980.608715	0.155707
980.782623	0.155148
980.956514	0.156460
981.130386	0.153945
981.304240	0.154179
981.478075	0.154366
981.651892	0.156659
981.825692	0.155270
981.999472	0.155269
982.173235	0.154651
982.346980	0.155748
982.520706	0.155321
982.694414	0.153850
982.868104	0.155756
983.041775	0.157749
983.215428	0.157165
983.389064	0.159377
983.562680	0.159947
983.736279	0.159477
983.909860	0.160319
984.083422	0.158123
984.256966	0.157661
984.430491	0.158652
984.603999	0.157350
984.777488	0.155362
984.950959	0.154183
985.124412	0.154935
985.297847	0.155417
985.471263	0.154062
985.644661	0.154764
985.818041	0.155941
985.991403	0.152204
986.164747	0.150120
986.338072	0.152878
986.511379	0.153871
986.684668	0.156068
986.857938	0.155853
987.031191	0.156424
987.204425	0.155744
987.377641	0.154895
987.550839	0.156478
987.724018	0.157476
987.897179	0.156610
988.070322	0.155359
988.243447	0.152687
988.416554	0.153148
988.589642	0.153671
988.762712	0.153055
988.935764	0.154818
989.108798	0.152704
989.281813	0.153074
989.454811	0.152976
989.627790	0.154140
989.800751	0.155620
989.973693	0.155067
990.146617	0.155434
990.319524	0.157738
990.492412	0.158475
990.665281	0.158549
990.838133	0.158676
991.010966	0.158702
991.183781	0.157496
991.356578	0.156851
991.529356	0.158026
991.702117	0.158154
991.874859	0.155382
992.047583	0.156667
992.220288	0.159415
992.392976	0.160185
992.565645	0.159891
992.738296	0.161124
992.910929	0.159172
993.083543	0.158166
993.256139	0.156592
993.428718	0.157280
993.601277	0.155997
993.773819	0.154960
993.946342	0.154140
994.118848	0.156362
994.291335	0.155977
994.463803	0.156933
994.636254	0.157670
994.808686	0.157850
994.981100	0.160059
995.153496	0.157240
995.325874	0.158176
995.498233	0.158979
995.670574	0.157569
995.842897	0.157565
996.015202	0.158757
996.187488	0.159365
996.359757	0.160062
996.532007	0.158156
996.704239	0.160096
996.876452	0.160904
997.048648	0.159851
997.220825	0.159971
997.392984	0.159024
997.565124	0.159768
997.737247	0.158617
997.909351	0.159505
998.081437	0.159799
998.253505	0.159037
998.425554	0.157381
998.597586	0.157557
998.769599	0.157711
998.941594	0.158241
999.113571	0.157589
999.285529	0.157273
999.457469	0.157483
999.629391	0.156985
999.801295	0.158180
999.973181	0.158562
1000.145048	0.161328
1000.316897	0.160681
1000.488728	0.161916
1000.660541	0.161115
1000.832335	0.163026
1001.004111	0.162761
1001.175869	0.163436
1001.347609	0.161362
1001.519331	0.160195
1001.691034	0.159174
1001.862719	0.159167
1002.034386	0.159218
1002.206035	0.160117
1002.377665	0.159590
1002.549277	0.159269
1002.720871	0.158258
1002.892447	0.160571
1003.064004	0.159770
1003.235544	0.156814
1003.407065	0.155922
1003.578568	0.153669
1003.750052	0.153839
1003.921519	0.150949
1004.092967	0.150066
1004.264397	0.152017
1004.435809	0.151395
1004.607202	0.152973
1004.778577	0.152517
1004.949934	0.153099
1005.121273	0.154317
1005.292594	0.154533
1005.463896	0.155626
1005.635180	0.155012
1005.806446	0.154793
1005.977694	0.155267
1006.148923	0.155005
1006.320135	0.157177
1006.491328	0.157589
1006.662503	0.156738
1006.833659	0.156551
1007.004798	0.157878
1007.175918	0.158033
1007.347020	0.156536
1007.518103	0.155290
1007.689169	0.153892
1007.860216	0.153681
1008.031245	0.152639
1008.202256	0.153748
1008.373248	0.151934
1008.544223	0.151690
1008.715179	0.153788
1008.886117	0.155058
1009.057036	0.154951
1009.227938	0.156167
1009.398821	0.156910
1009.569686	0.157212
1009.740533	0.157198
1009.911361	0.157572
1010.082172	0.157016
1010.252964	0.154146
1010.423738	0.154371
1010.594493	0.155878
1010.765231	0.155140
1010.935950	0.155906
1011.106651	0.156262
1011.277334	0.156318
1011.447998	0.157268
1011.618645	0.158866
1011.789273	0.161127
1011.959882	0.160144
1012.130474	0.158584
1012.301048	0.158478
1012.471603	0.158009
1012.642140	0.157853
1012.812658	0.156934
1012.983159	0.159169
1013.153641	0.157082
1013.324105	0.155104
1013.494551	0.155120
1013.664979	0.155622
1013.835388	0.156121
1014.005779	0.155107
1014.176152	0.156781
1014.346507	0.157845
1014.516843	0.154577
1014.687162	0.156023
1014.857462	0.157023
1015.027744	0.157400
1015.198007	0.156375
1015.368252	0.157097
1015.538480	0.158825
1015.708689	0.157934
1015.878879	0.156145
1016.049052	0.156047
1016.219206	0.155283
1016.389342	0.154742
1016.559460	0.155126
1016.729559	0.155961
1016.899641	0.154104
1017.069704	0.151149
1017.239749	0.150804
1017.409775	0.150683
1017.579784	0.152749
1017.749774	0.153490
1017.919746	0.153841
1018.089700	0.153684
1018.259635	0.153515
1018.429553	0.154249
1018.599452	0.154647
1018.769333	0.154837
1018.939195	0.155837
1019.109040	0.153946
1019.278866	0.153914
1019.448674	0.154886
1019.618464	0.154539
1019.788235	0.153705
1019.957989	0.154834
1020.127724	0.156107
1020.297441	0.156243
1020.467139	0.156565
1020.636820	0.158277
1020.806482	0.158371
1020.976126	0.157552
1021.145752	0.157117
1021.315359	0.157369
1021.484948	0.156787
1021.654519	0.155424
1021.824072	0.154115
1021.993607	0.154255
1022.163123	0.152324
1022.332621	0.151791
1022.502101	0.150989
1022.671563	0.151422
1022.841007	0.152257
1023.010432	0.152767
1023.179839	0.155400
1023.349228	0.154096
1023.518598	0.155667
1023.687951	0.156018
1023.857285	0.155548
1024.026601	0.155176
1024.195899	0.155638
1024.365178	0.155625
1024.534439	0.155283
1024.703682	0.153563
1024.872907	0.155418
1025.042114	0.152530
1025.211302	0.153552
1025.380472	0.151108
1025.549624	0.153251
1025.718758	0.152555
1025.887873	0.151176
1026.056970	0.148677
1026.226049	0.148253
1026.395110	0.149070
1026.564153	0.148723
1026.733177	0.147252
1026.902183	0.148673
1027.071171	0.147503
1027.240141	0.148024
1027.409092	0.149170
1027.578026	0.149943
1027.746940	0.151466
1027.915837	0.149516
1028.084716	0.148869
1028.253576	0.149976
1028.422418	0.151567
1028.591242	0.151339
1028.760048	0.148311
1028.928835	0.147681
1029.097604	0.149469
1029.266355	0.147827
1029.435088	0.148889
1029.603803	0.149447
1029.772499	0.150866
1029.941177	0.150879
1030.109837	0.153386
1030.278478	0.156474
1030.447102	0.158608
1030.615707	0.159129
1030.784294	0.160692
1030.952863	0.160598
1031.121413	0.160491
1031.289945	0.158651
1031.458460	0.156200
1031.626955	0.153674
1031.795433	0.151344
1031.963892	0.148538
1032.132334	0.147464
1032.300756	0.145678
1032.469161	0.144605
1032.637548	0.147150
1032.805916	0.147243
1032.974266	0.148305
1033.142598	0.148812
1033.310911	0.151104
1033.479207	0.152937
1033.647484	0.154075
1033.815743	0.153231
1033.983983	0.155018
1034.152206	0.155543
1034.320410	0.155874
1034.488596	0.155459
1034.656764	0.155295
1034.824914	0.154602
1034.993045	0.152796
1035.161158	0.152861
1035.329253	0.154938
1035.497330	0.154023
1035.665388	0.152794
1035.833428	0.152542
1036.001450	0.152862
1036.169454	0.152474
1036.337440	0.152030
1036.505407	0.151281
1036.673356	0.149236
1036.841287	0.149642
1037.009200	0.151313
1037.177094	0.150520
1037.344970	0.149126
1037.512828	0.150170
1037.680668	0.151759
1037.848489	0.151868
1038.016293	0.154341
1038.184078	0.156660
1038.351845	0.155642
1038.519593	0.154771
1038.687324	0.155022
1038.855036	0.154192
1039.022730	0.153720
1039.190406	0.152328
1039.358063	0.152602
1039.525702	0.150430
1039.693323	0.145960
1039.860926	0.145908
1040.028511	0.145996
1040.196077	0.146110
1040.363625	0.147069
1040.531155	0.147458
1040.698667	0.146245
1040.866161	0.146716
1041.033636	0.147930
1041.201093	0.151193
1041.368532	0.149787
1041.535952	0.148353
1041.703355	0.148246
1041.870739	0.149206
1042.038105	0.149436
1042.205452	0.150331
1042.372782	0.150352
1042.540093	0.150550
1042.707386	0.150153
1042.874661	0.151139
1043.041918	0.150248
1043.209156	0.150921
1043.376376	0.150902
1043.543578	0.149934
1043.710762	0.149692
1043.877927	0.149032
1044.045074	0.149476
1044.212203	0.148153
1044.379314	0.149387
1044.546407	0.148961
1044.713481	0.148445
1044.880537	0.149003
1045.047575	0.151024
1045.214595	0.153044
1045.381596	0.153259
1045.548579	0.154742
1045.715544	0.156955
1045.882491	0.156693
1046.049420	0.158508
1046.216330	0.158029
1046.383222	0.156950
1046.550096	0.155298
1046.716951	0.153642
1046.883789	0.154179
1047.050608	0.153330
1047.217409	0.152522
1047.384192	0.152847
1047.550956	0.151190
1047.717703	0.151509
1047.884431	0.150953
1048.051140	0.150526
1048.217832	0.153387
1048.384505	0.152873
1048.551161	0.151131
1048.717798	0.150885
1048.884416	0.148880
1049.051017	0.150120
1049.217599	0.150947
1049.384163	0.152848
1049.550709	0.152679
1049.717237	0.149763
1049.883746	0.150131
1050.050237	0.150583
1050.216710	0.149641
1050.383165	0.150924
1050.549601	0.151172
1050.716019	0.151694
1050.882420	0.149891
1051.048801	0.148568
1051.215165	0.150907
1051.381510	0.150688
1051.547837	0.150159
1051.714146	0.150447
1051.880437	0.149633
1052.046709	0.150849
1052.212964	0.149403
1052.379200	0.151143
1052.545417	0.152555
1052.711617	0.151154
1052.877798	0.152392
1053.043961	0.153753
1053.210106	0.156696
1053.376233	0.156204
1053.542341	0.157333
1053.708432	0.159458
1053.874504	0.156676
1054.040557	0.157417
1054.206593	0.156178
1054.372610	0.154617
1054.538609	0.152212
1054.704590	0.148484
1054.870553	0.148212
1055.036497	0.145758
1055.202424	0.143481
1055.368331	0.143874
1055.534221	0.143853
1055.700093	0.143345
1055.865946	0.143691
1056.031781	0.146996
1056.197598	0.147140
1056.363397	0.147937
1056.529177	0.148678
1056.694939	0.148284
1056.860683	0.150077
1057.026409	0.150440
1057.192116	0.150969
1057.357806	0.148542
1057.523477	0.146806
1057.689130	0.148781
1057.854764	0.148404
1058.020381	0.148229
1058.185979	0.147247
1058.351559	0.144953
1058.517120	0.142728
1058.682664	0.143731
1058.848189	0.145582
1059.013696	0.144819
1059.179185	0.145417
1059.344656	0.147074
1059.510108	0.144254
1059.675542	0.147083
1059.840958	0.148847
1060.006356	0.149676
1060.171735	0.147291
1060.337096	0.148459
1060.502439	0.149646
1060.667764	0.147074
1060.833071	0.146172
1060.998359	0.147212
1061.163629	0.144856
1061.328881	0.144864
1061.494115	0.145335
1061.659330	0.147995
1061.824527	0.148182
1061.989706	0.149175
1062.154867	0.150785
1062.320010	0.151629
1062.485134	0.152381
1062.650240	0.151930
1062.815328	0.151006
1062.980398	0.150899
1063.145449	0.148718
1063.310482	0.146752
1063.475497	0.143449
1063.640494	0.144956
1063.805473	0.144228
1063.970433	0.142177
1064.135375	0.143005
1064.300299	0.143808
1064.465204	0.143127
1064.630092	0.143984
1064.794961	0.143686
1064.959812	0.145074
1065.124645	0.141950
1065.289459	0.140658
1065.454256	0.146913
1065.619034	0.149563
1065.783793	0.149482
1065.948535	0.149523
1066.113258	0.150628
1066.277964	0.152801
1066.442651	0.153028
1066.607319	0.155479
1066.771970	0.156548
1066.936602	0.154080
1067.101216	0.151763
1067.265812	0.149942
1067.430389	0.152354
1067.594949	0.149558
1067.759490	0.149717
1067.924013	0.149649
1068.088518	0.148567
1068.253004	0.149526
1068.417472	0.146478
1068.581922	0.146348
1068.746354	0.147502
1068.910768	0.146055
1069.075163	0.146871
1069.239540	0.145871
1069.403899	0.147573
1069.568240	0.147648
1069.732562	0.144842
1069.896866	0.148108
1070.061152	0.147845
1070.225420	0.146815
1070.389670	0.145350
1070.553901	0.146582
1070.718114	0.145072
1070.882309	0.143264
1071.046486	0.142825
1071.210644	0.145666
1071.374784	0.145703
1071.538906	0.146762
1071.703010	0.147938
1071.867096	0.148907
1072.031163	0.149319
1072.195212	0.150660
1072.359243	0.151894
1072.523256	0.153747
1072.687250	0.153766
1072.851226	0.152137
1073.015184	0.153193
1073.179124	0.154826
1073.343045	0.154678
1073.506949	0.156016
1073.670834	0.157146
1073.834701	0.155317
1073.998549	0.155617
1074.162380	0.153105
1074.326192	0.154686
1074.489986	0.153370
1074.653761	0.154135
1074.817519	0.154921
1074.981258	0.153494
1075.144979	0.151972
1075.308682	0.152013
1075.472367	0.150741
1075.636033	0.153151
1075.799681	0.151621
1075.963311	0.150948
1076.126923	0.150067
1076.290516	0.150251
1076.454092	0.149717
1076.617649	0.148137
1076.781187	0.149453
1076.944708	0.149534
1077.108210	0.147726
1077.271695	0.148443
1077.435160	0.149785
1077.598608	0.150319
1077.762038	0.152949
1077.925449	0.151900
1078.088842	0.152731
1078.252217	0.152978
1078.415573	0.152657
1078.578912	0.152956
1078.742232	0.152808
1078.905534	0.149569
1079.068817	0.150457
1079.232083	0.147644
1079.395330	0.149794
1079.558559	0.151508
1079.721770	0.151433
1079.884962	0.149471
1080.048136	0.150898
1080.211293	0.149530
1080.374430	0.151246
1080.537550	0.146317
1080.700651	0.147430
1080.863735	0.147153
1081.026800	0.146392
1081.189846	0.146808
1081.352875	0.148505
1081.515885	0.148254
1081.678877	0.150307
1081.841851	0.151963
1082.004807	0.155974
1082.167744	0.152628
1082.330663	0.151640
1082.493564	0.151191
1082.656447	0.150070
1082.819312	0.150956
1082.982158	0.149715
1083.144986	0.149027
1083.307796	0.149400
1083.470587	0.149159
1083.633361	0.151393
1083.796116	0.151240
1083.958853	0.152361
1084.121571	0.152343
1084.284272	0.150073
1084.446954	0.150643
1084.609618	0.149251
1084.772264	0.145780
1084.934892	0.142681
1085.097501	0.143225
1085.260092	0.144834
1085.422665	0.141964
1085.585220	0.140804
1085.747756	0.143122
1085.910274	0.142251
1086.072774	0.142229
1086.235256	0.143112
1086.397720	0.144471
1086.560165	0.144484
1086.722592	0.143255
1086.885001	0.143784
1087.047392	0.146493
1087.209764	0.145745
1087.372119	0.146604
1087.534455	0.146811
1087.696772	0.149438
1087.859072	0.148227
1088.021353	0.147204
1088.183616	0.147772
1088.345861	0.148545
1088.508088	0.148716
1088.670296	0.147528
1088.832486	0.147855
1088.994658	0.147264
1089.156812	0.147885
1089.318948	0.149208
1089.481065	0.151564
1089.643164	0.148012
1089.805245	0.149425
1089.967308	0.149339
1090.129352	0.147613
1090.291378	0.148314
1090.453386	0.148699
1090.615376	0.145074
1090.777347	0.146663
1090.939301	0.142240
1091.101236	0.145343
1091.263153	0.145481
1091.425051	0.143214
1091.586932	0.146063
1091.748794	0.145375
1091.910638	0.145483
1092.072463	0.145402
1092.234271	0.142977
1092.396060	0.142596
1092.557831	0.142256
1092.719584	0.141500
1092.881319	0.142743
1093.043035	0.143096
1093.204733	0.140915
1093.366413	0.141453
1093.528075	0.142261
1093.689718	0.143105
1093.851343	0.144013
1094.012950	0.144125
1094.174539	0.140884
1094.336110	0.141299
1094.497662	0.140868
1094.659196	0.140166
1094.820712	0.139823
1094.982210	0.139132
1095.143689	0.136004
1095.305151	0.137437
1095.466594	0.138068
1095.628018	0.140687
1095.789425	0.142647
1095.950813	0.138868
1096.112183	0.139890
1096.273535	0.138831
1096.434869	0.140194
1096.596184	0.146739
1096.757482	0.146825
1096.918761	0.142017
1097.080021	0.138924
1097.241264	0.135520
1097.402488	0.138114
1097.563694	0.138609
1097.724882	0.138790
1097.886052	0.139572
1098.047203	0.138624
1098.208336	0.137700
1098.369451	0.142749
1098.530548	0.148368
1098.691627	0.145928
1098.852687	0.147468
1099.013729	0.145870
1099.174753	0.148700
1099.335758	0.145629
1099.496746	0.145020
1099.657715	0.145029
1099.818666	0.143624
1099.979599	0.142593
1100.140513	0.144301
1100.301409	0.141866
1100.462287	0.144145
1100.623147	0.139177
1100.783989	0.139928
1100.944812	0.136783
1101.105617	0.133463
1101.266404	0.132548
1101.427173	0.133180
1101.587923	0.131653
1101.748656	0.134434
1101.909370	0.131595
1102.070066	0.133806
1102.230743	0.132078
1102.391403	0.134734
1102.552044	0.141591
1102.712667	0.143147
1102.873271	0.143814
1103.033858	0.142381
1103.194426	0.136946
1103.354976	0.139345
1103.515508	0.142167
1103.676021	0.146279
1103.836517	0.142852
1103.996994	0.139743
1104.157453	0.137128
1104.317893	0.133759
1104.478316	0.136487
1104.638720	0.138332
1104.799106	0.136254
1104.959474	0.135544
1105.119823	0.133667
1105.280155	0.136951
1105.440468	0.133971
1105.600763	0.136159
1105.761039	0.133546
1105.921298	0.131303
1106.081538	0.132217
1106.241760	0.132628
1106.401964	0.128627
1106.562149	0.129322
1106.722316	0.127053
1106.882465	0.131570
1107.042596	0.130712
1107.202709	0.134444
1107.362803	0.137827
1107.522879	0.138343
1107.682937	0.141144
1107.842977	0.143771
1108.002999	0.140457
1108.163002	0.146461
1108.322987	0.142587
1108.482954	0.137786
1108.642902	0.133911
1108.802833	0.130586
1108.962745	0.129040
1109.122639	0.127826
1109.282515	0.126863
1109.442372	0.128647
1109.602211	0.125658
1109.762032	0.127479
1109.921835	0.128005
1110.081620	0.129980
1110.241386	0.129374
1110.401134	0.132462
1110.560864	0.133666
1110.720576	0.135007
1110.880269	0.135254
1111.039945	0.133805
1111.199602	0.136106
1111.359240	0.140276
1111.518861	0.141538
1111.678463	0.144623
1111.838047	0.142103
1111.997613	0.144866
1112.157161	0.145041
1112.316690	0.147836
1112.476202	0.147344
1112.635695	0.143688
1112.795169	0.143430
1112.954626	0.143183
1113.114064	0.142047
1113.273484	0.141640
1113.432886	0.133552
1113.592270	0.128853
1113.751635	0.128261
1113.910983	0.128726
1114.070312	0.127364
1114.229622	0.124713
1114.388915	0.125318
1114.548189	0.123865
1114.707445	0.125058
1114.866683	0.130009
1115.025903	0.133646
1115.185104	0.133483
1115.344287	0.131560
1115.503452	0.134409
1115.662599	0.135463
1115.821727	0.133262
1115.980838	0.133904
1116.139930	0.131105
1116.299004	0.129315
1116.458059	0.125491
1116.617097	0.124674
1116.776116	0.125589
1116.935117	0.127941
1117.094099	0.129100
1117.253064	0.130144
1117.412010	0.131242
1117.570938	0.131540
1117.729848	0.132032
1117.888740	0.130628
1118.047613	0.126923
1118.206468	0.126200
1118.365305	0.124026
1118.524124	0.123939
1118.682924	0.121994
1118.841707	0.123779
1119.000471	0.128702
1119.159216	0.124338
1119.317944	0.126071
1119.476653	0.126074
1119.635344	0.126119
1119.794017	0.122713
1119.952672	0.124611
1120.111308	0.124970
1120.269927	0.120582
1120.428527	0.113429
1120.587108	0.115885
1120.745672	0.116727
1120.904217	0.115770
1121.062744	0.113214
1121.221253	0.113834
1121.379744	0.111572
1121.538216	0.110544
1121.696671	0.116467
1121.855107	0.125197
1122.013524	0.123629
1122.171924	0.124945
1122.330305	0.127211
1122.488668	0.129519
1122.647013	0.133025
1122.805340	0.131219
1122.963648	0.135454
1123.121938	0.132542
1123.280210	0.127888
1123.438464	0.123454
1123.596700	0.122661
1123.754917	0.125128
1123.913116	0.126522
1124.071297	0.124766
1124.229459	0.130696
1124.387604	0.127205
1124.545730	0.126110
1124.703838	0.122669
1124.861928	0.127320
1125.019999	0.125838
1125.178052	0.122278
1125.336088	0.117836
1125.494104	0.116733
1125.652103	0.112229
1125.810083	0.112022
1125.968045	0.112444
1126.125989	0.112229
1126.283915	0.117068
1126.441823	0.119662
1126.599712	0.123652
1126.757583	0.121667
1126.915436	0.122022
1127.073270	0.121557
1127.231087	0.122310
1127.388885	0.123115
1127.546665	0.127137
1127.704426	0.122305
1127.862170	0.123772
1128.019895	0.121906
1128.177602	0.124027
1128.335291	0.124320
1128.492961	0.125871
1128.650614	0.123178
1128.808248	0.125128
1128.965864	0.128255
1129.123461	0.133975
1129.281041	0.132784
1129.438602	0.135281
1129.596145	0.136909
1129.753670	0.140963
1129.911176	0.138436
1130.068665	0.139955
1130.226135	0.137708
1130.383587	0.130368
1130.541020	0.122767
1130.698436	0.120584
1130.855833	0.116981
1131.013212	0.117149
1131.170573	0.106080
1131.327915	0.105777
1131.485239	0.108755
1131.642545	0.112228
1131.799833	0.113215
1131.957103	0.117457
1132.114354	0.114380
1132.271588	0.114649
1132.428803	0.109646
1132.585999	0.120562
1132.743178	0.120918
1132.900338	0.117313
1133.057480	0.110499
1133.214604	0.110274
1133.371710	0.107002
1133.528797	0.107042
1133.685866	0.102792
1133.842917	0.109280
1133.999950	0.105423
1134.156964	0.100945
1134.313960	0.101816
1134.470938	0.104755
1134.627898	0.103654
1134.784840	0.113093
1134.941763	0.113793
1135.098668	0.111398
1135.255555	0.114368
1135.412424	0.112005
1135.569274	0.114341
1135.726107	0.113820
1135.882921	0.112028
1136.039716	0.114360
1136.196494	0.108731
1136.353253	0.114117
1136.509995	0.115473
1136.666717	0.108059
1136.823422	0.107979
1136.980109	0.113735
1137.136777	0.113434
1137.293427	0.109018
1137.450059	0.110025
1137.606672	0.112338
1137.763267	0.111727
1137.919844	0.122796
1138.076403	0.124979
1138.232944	0.129629
1138.389466	0.118376
1138.545971	0.117776
1138.702457	0.121640
1138.858924	0.117805
1139.015374	0.108989
1139.171805	0.108260
1139.328218	0.098265
1139.484613	0.100645
1139.640990	0.095507
1139.797348	0.107275
1139.953688	0.108987
1140.110010	0.114848
1140.266314	0.115855
1140.422600	0.124534
1140.578867	0.125319
1140.735116	0.132819
1140.891347	0.126277
1141.047559	0.125115
1141.203754	0.125431
1141.359930	0.123428
1141.516088	0.118894
1141.672228	0.119917
1141.828349	0.112860
1141.984452	0.110500
1142.140537	0.105102
1142.296604	0.107721
1142.452653	0.109485
1142.608683	0.101072
1142.764695	0.105890
1142.920689	0.106221
1143.076665	0.108836
1143.232622	0.108770
1143.388562	0.110037
1143.544483	0.107079
1143.700385	0.105125
1143.856270	0.104318
1144.012136	0.103877
1144.167985	0.096633
1144.323814	0.091991
1144.479626	0.093150
1144.635420	0.096737
1144.791195	0.095613
1144.946952	0.105119
1145.102691	0.107540
1145.258411	0.106434
1145.414113	0.107547
1145.569798	0.114559
1145.725463	0.117525
1145.881111	0.116638
1146.036741	0.110386
1146.192352	0.113080
1146.347945	0.100736
1146.503519	0.103866
1146.659076	0.109874
1146.814614	0.114406
1146.970134	0.112995
1147.125636	0.109057
1147.281120	0.102565
1147.436585	0.106605
1147.592032	0.102589
1147.747461	0.107113
1147.902872	0.099383
1148.058265	0.093303
1148.213639	0.087184
1148.368995	0.084297
1148.524333	0.086433
1148.679653	0.091186
1148.834954	0.094207
1148.990237	0.092447
1149.145502	0.096514
1149.300749	0.094504
1149.455977	0.092977
1149.611188	0.095220
1149.766380	0.097048
1149.921553	0.096863
1150.076709	0.093229
1150.231846	0.088668
1150.386966	0.093433
1150.542066	0.086994
1150.697149	0.095371
1150.852214	0.096151
1151.007260	0.098991
1151.162288	0.100525
1151.317298	0.103244
1151.472289	0.103049
1151.627263	0.101017
1151.782218	0.093769
1151.937155	0.095312
1152.092073	0.088870
1152.246974	0.086217
1152.401856	0.083122
1152.556720	0.071390
1152.711566	0.070350
1152.866393	0.071018
1153.021203	0.076420
1153.175994	0.080820
1153.330767	0.084059
1153.485521	0.085148
1153.640258	0.083043
1153.794976	0.081011
1153.949676	0.085800
1154.104358	0.081187
1154.259021	0.082100
1154.413667	0.078532
1154.568294	0.072784
1154.722903	0.073798
1154.877493	0.073596
1155.032066	0.086313
1155.186620	0.090993
1155.341156	0.094194
1155.495674	0.100828
1155.650173	0.106443
1155.804654	0.108005
1155.959118	0.109499
1156.113562	0.110323
1156.267989	0.107303
1156.422397	0.095743
1156.576788	0.095936
1156.731160	0.095370
1156.885513	0.088543
1157.039849	0.076019
1157.194166	0.075655
1157.348465	0.083990
1157.502746	0.078015
1157.657009	0.079620
1157.811253	0.087371
1157.965479	0.080724
1158.119687	0.078895
1158.273877	0.075497
1158.428048	0.074085
1158.582201	0.070793
1158.736337	0.064463
1158.890453	0.067278
1159.044552	0.070668
1159.198632	0.072547
1159.352694	0.081595
1159.506738	0.089278
1159.660764	0.094130
1159.814771	0.100453
1159.968761	0.102135
1160.122732	0.102979
1160.276685	0.098429
1160.430619	0.094011
1160.584535	0.084117
1160.738434	0.077953
1160.892313	0.071827
1161.046175	0.078176
1161.200019	0.071230
1161.353844	0.072277
1161.507651	0.073623
1161.661440	0.076157
1161.815210	0.085111
1161.968962	0.090786
1162.122697	0.091031
1162.276412	0.087933
1162.430110	0.084090
1162.583789	0.089312
1162.737451	0.094538
1162.891094	0.086966
1163.044718	0.082872
1163.198325	0.073786
1163.351913	0.072807
1163.505483	0.074088
1163.659035	0.075673
1163.812569	0.073435
1163.966084	0.069240
1164.119581	0.062746
1164.273060	0.065335
1164.426521	0.074124
1164.579964	0.074383
1164.733388	0.074918
1164.886794	0.072319
1165.040182	0.072924
1165.193551	0.076745
1165.346903	0.086158
1165.500236	0.080667
1165.653551	0.083399
1165.806848	0.069792
1165.960126	0.067042
1166.113386	0.063741
1166.266628	0.065989
1166.419852	0.062792
1166.573058	0.057828
1166.726245	0.051777
1166.879414	0.050747
1167.032565	0.048230
1167.185698	0.058146
1167.338812	0.062909
1167.491909	0.057831
1167.644987	0.055745
1167.798046	0.057835
1167.951088	0.055772
1168.104111	0.050643
1168.257117	0.055511
1168.410103	0.056548
1168.563072	0.056654
1168.716023	0.052975
1168.868955	0.055171
1169.021869	0.051175
1169.174765	0.049213
1169.327642	0.044632
1169.480501	0.057006
1169.633343	0.050381
1169.786165	0.047077
1169.938970	0.052660
1170.091757	0.061021
1170.244525	0.063832
1170.397275	0.071050
1170.550007	0.072102
1170.702720	0.074262
1170.855415	0.067147
1171.008092	0.074587
1171.160751	0.078584
1171.313392	0.069861
1171.466014	0.052220
1171.618619	0.073132
1171.771205	0.073132
1171.923772	0.073132
