sample name	sample
index	699
start time	 03-22-2021  12:46:27 PM
880	0.291254
Peak Time (s)	91.038
Peak Height 	0.2913
calc peak height	90,93
Baseline Time (s)	11.536
Baseline Value 	-0.003976
subtract baseline	10,4
Abs	0.182593
Peak Time (s)	90.037
Peak Height 	0.1826
calc peak height	90,93
Baseline Time (s)	8.54
Baseline Value 	0.003584
subtract baseline	10,3
PK_550	0.092222
Peak Time (s)	90.037
Peak Height 	0.09222
calc peak height	90,93
Baseline Time (s)	10.035
Baseline Value 	9.6192E-4
subtract baseline	10,2
PK_880	0.180726
Peak Time (s)	90.037
Peak Height 	0.1807
calc peak height	90,93
Baseline Time (s)	11.536
Baseline Value 	0.002203
subtract baseline	10,1


Time (s)	A880-A510	A880-A775	A880-A975	A880	I510	I775	I975	I880	
0.034500	0.000397	0.000113	-0.002087	0.000941	7377.607357	45701.718066	3975.716808	24176.525495
0.535000	-0.003317	-0.000074	-0.003605	0.004885	7298.857202	45296.604377	3961.591653	23983.917217
1.035000	-0.003885	-0.000768	-0.003064	0.004929	7292.618396	45224.617391	3962.868313	23981.760952
1.535500	0.000169	-0.000734	-0.004954	0.000067	7384.321471	45704.452399	3970.545275	24219.492483
2.036000	0.001088	0.000024	-0.001214	0.000073	7393.810513	45778.578566	3980.259625	24219.177507
2.536000	-0.001683	-0.000683	0.001085	0.002869	7336.228322	45434.203979	3978.961707	24082.173756
3.035500	0.001537	-0.000562	0.002216	-0.001784	7417.890710	45904.182386	3994.159451	24310.650653
3.536500	-0.000428	-0.000309	-0.003177	-0.000392	7382.883784	45791.533536	3976.350171	24242.026392
4.040000	-0.000421	-0.000349	-0.002655	-0.000623	7385.358555	45810.439220	3978.313918	24253.404119
4.537000	-0.001945	-0.000932	-0.002125	0.003474	7327.316668	45350.674400	3969.046162	24052.630937
5.037500	0.000742	0.000274	0.002549	0.000689	7383.806536	45742.486865	3988.513163	24188.916515
5.535000	0.000249	-0.000315	-0.002307	-0.000639	7392.497286	45815.443364	3979.266218	24254.232810
6.034500	0.000812	-0.000385	-0.001637	-0.000343	7395.265592	45779.254505	3980.239708	24239.614198
6.535500	0.001424	-0.000419	0.004117	-0.000509	7403.383302	45792.262338	3995.817103	24247.786229
7.036000	0.000706	-0.000646	0.005464	-0.000823	7399.171824	45800.949070	4000.227597	24263.297006
7.536500	-0.001010	0.000365	-0.000563	-0.000278	7375.659231	45846.904606	3982.880628	24236.423967
8.036500	0.001634	0.000159	0.001351	-0.000051	7400.793212	45804.183780	3987.308560	24225.256474
8.539500	0.001990	-0.000624	0.000000	-0.000648	7410.743037	45785.828606	3985.328220	24254.658936
9.037500	-0.000333	0.000375	0.000344	0.000057	7379.207400	45814.865534	3984.380722	24219.961411
9.537500	0.000274	-0.000768	-0.001590	-0.000913	7395.605028	45797.827228	3981.856340	24267.725175
10.035000	-0.000938	0.000000	0.002420	0.000263	7370.798773	45757.495340	3989.295666	24209.848331
10.535000	0.001580	-0.000151	-0.001314	-0.000158	7401.356616	45784.178832	3980.604486	24230.559297
11.035500	-0.000556	0.000255	0.001002	0.000036	7377.117620	45805.071262	3986.161969	24220.996272
11.536000	0.000000	0.000230	-0.003154	0.000000	7383.258646	45806.112901	3975.390056	24222.765132
12.036000	0.001948	0.000501	0.002550	0.000405	7399.314911	45792.950691	3989.265542	24202.872454
12.536000	0.001507	-0.000190	0.000004	-0.000173	7400.746076	45781.769166	3984.090791	24231.271124
13.039500	0.002537	0.000118	0.002645	-0.000596	7415.923513	45853.918787	3992.153789	24252.073743
13.537000	0.000370	-0.000029	0.002605	-0.000422	7391.489403	45822.242668	3991.588712	24243.516769
14.037500	-0.000521	0.000049	-0.002358	0.002818	7348.710774	45510.976571	3970.141595	24084.657392
14.537500	0.000979	0.000348	0.001102	0.002427	7368.245542	45578.630682	3980.161954	24103.758620
15.034500	0.001888	0.000689	-0.000581	-0.000085	7403.793194	45859.881110	3982.326809	24226.922547
15.535500	0.000725	0.000596	0.003053	0.000207	7388.646144	45821.808998	3991.112442	24212.589309
16.035500	0.001137	0.000862	-0.001664	0.000421	7390.704945	45826.998500	3978.175967	24202.064247
16.535500	0.002032	-0.000374	0.001482	-0.000552	7410.174049	45800.926841	3988.971325	24249.906435
17.037000	0.003508	0.000094	-0.000811	-0.002601	7447.173914	46050.386012	3988.330215	24351.060394
17.539500	0.002074	0.000283	0.001377	0.001476	7389.477194	45665.806394	3983.368535	24150.318198
18.039500	0.001306	-0.000176	0.005293	0.001490	7381.346786	45619.251879	3993.639681	24149.617261
18.536500	0.001671	0.000400	0.002146	0.001678	7383.189623	45657.418089	3984.856751	24140.416887
19.037500	0.003655	0.000254	-0.001051	0.001706	7403.547881	45640.356510	3976.424931	24139.046657
19.535000	-0.001084	0.000315	-0.000549	0.002136	7349.931114	45604.012304	3976.612612	24117.995724
20.035000	0.001364	0.000526	0.005761	0.001988	7376.782088	45639.323458	3993.559070	24125.213118
20.535500	0.000509	-0.000324	0.000553	0.001364	7374.393881	45617.172866	3981.504266	24155.816399
21.035000	0.001924	0.000516	0.001213	0.001992	7382.550771	45638.006463	3981.589028	24125.039072
21.536000	0.000636	0.000877	0.000036	0.002481	7364.136785	45625.313885	3977.237042	24101.112998
22.039000	0.001753	-0.000290	0.000003	0.001383	7387.113197	45618.613605	3980.017393	24154.886243
22.536500	0.000028	-0.000401	0.000852	0.001229	7370.803665	45622.805359	3982.640496	24162.439852
23.037000	0.001508	0.000138	0.001182	0.001287	7385.548827	45670.155601	3983.352613	24159.566308
23.537500	0.001891	0.001289	0.005796	0.002494	7376.999040	45664.636012	3992.316149	24100.479319
24.034500	0.001670	0.000145	0.002887	0.001529	7384.726176	45646.991366	3987.193607	24147.718119
24.535000	0.002386	0.000436	-0.001085	0.001745	7389.922908	45654.362439	3976.235441	24137.125830
25.035000	0.002156	0.000039	-0.001939	0.001891	7386.015193	45600.997103	3973.633907	24129.983904
25.535500	0.000643	0.000541	0.001630	0.001963	7369.563216	45643.301014	3982.755983	24126.448650
26.035500	0.000149	0.000802	0.000090	0.002092	7363.125246	45656.254317	3978.392051	24120.146848
26.541000	0.001795	0.000464	0.000752	0.002216	7378.887382	45610.880548	3979.798692	24114.089572
27.036500	0.001799	0.000362	0.005362	-0.000285	7404.958888	45847.392403	3998.526757	24236.795462
27.536500	0.003199	0.000581	0.001864	-0.000612	7423.021037	45901.335076	3990.134820	24252.868744
28.037000	0.002250	0.000437	0.003048	0.000346	7403.081070	45792.359073	3990.731071	24205.734717
28.537500	-0.001568	0.000511	0.001044	0.006165	7303.634060	45228.767415	3970.282696	23921.731509
29.034500	0.002722	0.000874	-0.001265	0.000571	7405.665330	45813.381929	3978.826165	24194.710949
29.535000	0.001790	0.000350	0.005000	0.000355	7398.187904	45782.990268	3995.868796	24205.326822
30.036000	0.002165	0.000284	0.002219	0.000634	7399.192230	45748.910397	3987.791062	24191.609964
30.535500	0.000161	0.001191	0.005323	0.005640	7326.708202	45346.502806	3982.797830	23947.238496
31.039000	0.001418	0.000515	0.000772	0.003006	7366.797726	45538.231191	3977.788365	24075.476965
31.536000	0.001332	0.000542	0.004670	0.000778	7389.012804	45760.107139	3993.876354	24184.533919
32.036500	0.002742	0.002149	0.004337	0.001773	7393.337970	45820.608586	3990.368635	24135.768769
32.537000	-0.002173	0.000821	0.000671	0.005643	7302.785766	45309.978734	3970.668130	23947.060692
33.034500	0.002521	0.001008	0.006841	0.001312	7395.827860	45753.384739	3998.213380	24158.334626
33.537000	0.003401	0.000918	0.005378	-0.000235	7421.188082	45897.475496	3998.438554	24234.342628
34.035000	0.002934	0.001616	0.001954	0.003347	7378.973945	45612.888424	3979.983137	24058.823155
34.535000	-0.000597	0.000296	-0.001472	0.003783	7337.984941	45440.530356	3969.935580	24037.526282
35.035500	0.000141	0.000675	0.002197	0.003678	7346.659533	45487.947707	3979.750975	24042.645283
35.538500	0.000835	0.001086	0.000844	0.004200	7348.437249	45477.123734	3974.867205	24017.242465
36.037500	-0.001200	0.000508	0.003450	0.003612	7333.552656	45478.030771	3983.202646	24045.891315
36.536500	0.000596	0.000813	0.002627	0.003861	7349.466971	45483.619776	3980.399521	24033.760311
37.037000	0.001170	0.000727	-0.001118	0.003645	7357.622824	45496.272418	3971.210277	24044.267952
37.534000	0.000245	0.001234	0.001383	0.004058	7343.814891	45505.457165	3976.638381	24024.134359
38.038500	0.001877	0.001905	0.000734	0.004723	7353.792483	45506.095841	3973.219779	23991.788445
38.535000	0.001499	0.000800	0.002523	0.003710	7360.351801	45497.098578	3980.521687	24041.102267
39.035000	0.002130	0.001529	0.002977	0.004047	7363.390668	45535.513118	3980.826802	24024.689615
39.538000	0.002437	0.001906	-0.001188	0.004269	7364.265444	45550.800557	3969.414158	24013.866005
40.035500	0.002239	0.001541	-0.001638	0.004477	7360.076151	45494.564636	3967.712181	24003.766253
40.535500	0.001919	0.000535	0.004801	0.003676	7365.039477	45474.426259	3986.579024	24042.756945
41.036000	0.001294	0.001253	0.002455	0.003756	7357.755189	45537.032336	3980.224302	24038.878288
41.536500	0.003057	0.001586	0.001432	0.004919	7363.958618	45455.559834	3974.523033	23982.232614
42.036500	0.002143	0.001153	0.000237	0.004397	7359.907471	45464.374832	3972.775887	24007.644246
42.536500	0.002498	0.000661	0.001655	0.003962	7368.072069	45458.702789	3977.596775	24028.818450
43.037500	0.003633	0.001203	0.002633	0.004378	7375.528842	45471.159762	3979.065472	24008.580475
43.538000	-0.000521	0.001354	0.005382	0.003683	7339.798231	45554.136359	3988.090237	24042.437394
44.035000	0.003440	0.001745	0.008972	-0.000044	7419.600391	45960.459011	4007.506974	24224.930729
44.538000	-0.000538	0.001032	0.004752	0.007075	7304.860872	45190.869895	3977.554171	23877.657912
45.036000	0.002290	0.000671	0.002950	0.001962	7386.669905	45656.180855	3986.219893	24126.500357
45.535500	0.003952	0.001384	0.001241	0.002946	7393.730274	45629.483117	3979.167945	24078.408984
46.041500	0.003972	0.000658	0.003626	0.001807	7405.800314	45670.096897	3988.405422	24134.072191
46.536500	0.000339	0.000723	0.000702	0.006646	7318.209949	45202.618869	3968.153284	23898.426780
47.039500	0.003165	0.000776	0.004727	0.002536	7389.789604	45610.013885	3989.383267	24098.400600
47.537000	0.000167	0.000342	0.000894	0.005025	7333.076458	45323.570970	3972.851094	23977.086752
48.037500	0.003867	0.001303	0.004022	0.003330	7388.837947	45583.730902	3985.442415	24059.620653
48.535000	0.000471	0.001181	0.003914	0.006810	7317.886521	45231.258417	3976.061892	23890.499453
49.038500	0.003048	0.001221	0.007468	0.002836	7385.463894	45624.337724	3995.836330	24083.777201
49.536000	0.003597	0.001892	0.003790	0.002150	7398.305150	45757.904932	3987.933816	24117.279383
50.036000	0.004834	0.001584	0.004943	0.001962	7413.193844	45746.106226	3991.468422	24126.514135
50.536500	-0.006486	-0.002462	0.001002	0.007944	7235.819823	44768.265187	3965.577519	23835.677179
51.036500	-0.074399	-0.019877	-0.012376	0.303282	4762.529407	23279.386037	3395.596624	13489.606834
51.537000	-0.047849	-0.015496	-0.022764	-0.033227	7233.892400	47570.148169	4011.384496	25920.765527
52.037000	-0.055524	-0.119249	-0.019525	-0.283794	10502.939780	65535.000000	4937.207405	43916.743152
52.534000	-0.048170	-0.156623	-0.007222	-0.321168	11330.762732	65535.000000	5190.712233	47605.762192
53.037500	-0.055747	-0.119060	-0.002571	-0.283605	10495.701047	65535.000000	5019.539110	43898.855613
53.538000	-0.006777	-0.110095	0.005331	-0.274640	11231.350703	65535.000000	5014.225064	43060.565314
54.035000	-0.022586	-0.061275	0.006128	-0.218832	9960.466351	64535.360556	4756.175388	38213.635880
54.535500	-0.011454	-0.062837	0.001233	-0.223205	10218.124413	64935.600620	4753.879708	38571.346010
55.036000	0.013027	-0.053029	0.016783	-0.211757	10441.930323	64701.779408	4771.992071	37642.465997
55.536000	0.029359	-0.028819	0.033832	-0.178111	10146.075625	63373.613635	4699.753075	35050.063049
56.039000	0.041429	0.003172	0.050598	-0.109492	9257.953017	58482.969200	4491.040490	30346.448105
56.536500	0.056560	0.018691	0.060710	-0.046540	8592.081980	52732.426228	4302.500016	26638.410620
57.037000	0.070090	0.030807	0.081180	0.021967	7911.916583	46665.121392	4149.913943	23169.438168
57.537500	0.081888	0.041460	0.095518	0.081576	7386.502262	42000.222828	4020.766000	20565.591283
58.037500	0.098005	0.051563	0.110425	0.119377	7166.615134	39584.654547	3960.402991	19090.219628
58.535500	0.105772	0.058475	0.119569	0.159569	6857.637848	36878.997201	3883.465273	17656.220391
59.035000	0.116604	0.064982	0.134112	0.192838	6656.945409	34848.683817	3839.651477	16565.599642
59.535500	0.135945	0.075209	0.141111	0.223467	6559.821140	33382.732972	3786.992646	15632.755277
60.036000	0.148141	0.082089	0.148165	0.236735	6550.739866	32937.724563	3773.613932	15248.659740
60.536500	0.134807	0.079019	0.151495	0.255593	6287.895400	31459.037927	3741.007592	14722.522006
61.036500	0.139975	0.080341	0.147714	0.267589	6234.604975	30765.754791	3709.051606	14399.519652
61.537000	0.150082	0.084735	0.155356	0.267591	6313.769915	31048.949117	3724.382481	14399.469480
62.036500	0.156927	0.086938	0.154669	0.276201	6299.799773	30636.755823	3705.760574	14173.069920
62.543000	0.163760	0.091911	0.161891	0.267129	6427.678630	31548.333466	3738.659324	14411.744629
63.035000	0.166878	0.091689	0.162575	0.264372	6476.105040	31715.976992	3745.766941	14485.267461
63.544000	0.167942	0.093915	0.164408	0.265259	6477.575534	31804.913678	3747.727986	14461.544403
64.041000	0.167616	0.093233	0.165890	0.265051	6476.598581	31773.430206	3751.248614	14467.119546
64.536000	0.166948	0.094038	0.161840	0.269023	6438.287909	31563.687354	3734.667606	14361.497168
65.036000	0.166036	0.094306	0.165732	0.268685	6433.575282	31603.656049	3743.371490	14370.441851
65.536500	0.170456	0.095665	0.163035	0.268871	6468.471879	31681.270932	3737.429176	14365.524453
66.036500	0.169955	0.095533	0.163044	0.269198	6461.616456	31650.914025	3736.776430	14356.869473
66.537000	0.168443	0.094260	0.164356	0.268382	6455.870204	31620.699355	3741.156732	14378.483307
67.040500	0.171790	0.095519	0.164491	0.270079	6469.515435	31591.771485	3737.941286	14333.593324
67.537500	0.169241	0.095787	0.167833	0.272102	6431.839563	31476.058160	3740.655605	14280.297851
68.035500	0.170937	0.095969	0.171117	0.273691	6432.717996	31383.674251	3744.157075	14238.621745
68.535500	0.172646	0.096377	0.168320	0.276828	6421.025683	31205.262068	3731.958107	14156.778492
69.035500	0.171898	0.096808	0.176255	0.277611	6408.530829	31182.280976	3746.680631	14136.428495
69.536000	0.173140	0.095272	0.170541	0.276423	6428.384282	31159.688218	3737.335792	14167.311283
70.036500	0.178117	0.097638	0.174584	0.279205	6446.404532	31132.630510	3739.929666	14095.152036
70.536500	0.176295	0.098038	0.170280	0.281452	6413.064005	31012.818944	3726.535631	14037.194338
71.036500	0.174146	0.096521	0.174088	0.280704	6401.660782	30963.072877	3735.830206	14056.459417
71.540000	0.176245	0.096039	0.173457	0.280346	6421.688053	30955.034416	3735.268590	14065.673868
72.037000	0.176125	0.097886	0.168015	0.281364	6412.400400	31008.713286	3722.129561	14039.474752
72.535000	0.173044	0.096859	0.172257	0.282868	6375.208435	30845.363120	3727.674339	14000.831946
73.036000	0.173597	0.096430	0.168016	0.281673	6389.339796	30894.652354	3721.507610	14031.511810
73.535500	0.178700	0.097114	0.170531	0.281910	6428.979110	30923.558067	3726.115943	14025.436303
74.041500	0.177624	0.097524	0.169554	0.282454	6415.734384	30914.850350	3723.035504	14011.461957
74.536000	0.175162	0.097272	0.171759	0.283659	6385.936196	30821.045166	3725.059654	13980.571921
75.040000	0.177505	0.097229	0.176274	0.284279	6399.904410	30778.461102	3732.984788	13964.720482
75.536500	0.176584	0.096780	0.173594	0.283083	6402.140093	30826.458132	3729.955973	13995.321173
76.041500	0.175708	0.096579	0.172214	0.282914	6396.401647	30824.425665	3727.494473	13999.668246
76.537500	0.178571	0.095743	0.173442	0.283154	6417.751780	30755.331565	3729.504422	13993.517929
77.034500	0.175727	0.096319	0.170083	0.284906	6380.421422	30680.019141	3719.158137	13948.714670
77.535500	0.178833	0.098130	0.180212	0.285759	6398.667914	30741.362623	3738.024600	13926.971370
78.035000	0.178741	0.096414	0.177297	0.285070	6403.525160	30675.576897	3733.459474	13944.531417
78.535500	0.175649	0.096239	0.175174	0.286892	6363.785498	30548.179509	3725.428252	13898.160084
79.039000	0.178359	0.096217	0.180354	0.287420	6381.378266	30513.221092	3734.908254	13884.755284
79.536500	0.179839	0.096718	0.174024	0.286592	6400.074425	30597.794527	3723.707048	13905.765791
80.036500	0.180701	0.096453	0.177508	0.286735	6405.927103	30571.794883	3730.491666	13902.145286
80.539500	0.178623	0.096295	0.176887	0.286906	6387.669296	30550.853839	3728.879544	13897.799657
81.036500	0.178742	0.095286	0.175471	0.287464	6384.118360	30451.291960	3724.870320	13883.629696
81.537000	0.180146	0.096353	0.178362	0.287511	6395.109517	30516.069263	3730.649447	13882.438744
82.035000	0.180603	0.095353	0.177028	0.286941	6403.452332	30488.736217	3729.092771	13896.904549
82.534500	0.177495	0.094739	0.179332	0.287662	6372.453371	30404.106935	3732.322866	13878.618927
83.035500	0.180400	0.094771	0.179434	0.287682	6395.777273	30404.829640	3732.488239	13878.101448
83.536000	0.179236	0.095458	0.179123	0.287934	6384.308879	30432.412589	3731.338411	13871.715692
84.036000	0.178919	0.094380	0.180052	0.287676	6383.835596	30380.469735	3733.764657	13878.265359
84.536500	0.178608	0.095018	0.177732	0.289062	6370.138930	30333.194017	3726.214819	13843.174984
85.039500	0.179694	0.094422	0.180715	0.288192	6385.929328	30350.542543	3734.066019	13865.187473
85.537000	0.179213	0.093978	0.177487	0.288659	6378.268745	30292.997885	3726.535253	13853.367320
86.034500	0.177679	0.092900	0.173877	0.288299	6368.798874	30247.761208	3719.965446	13862.467551
86.535000	0.176756	0.094046	0.178127	0.289279	6353.509231	30258.181814	3726.575378	13837.678501
87.035500	0.176882	0.092098	0.179442	0.287768	6366.658006	30230.689009	3732.330165	13875.927281
87.535500	0.177641	0.092152	0.178537	0.288261	6368.796947	30203.067130	3729.478876	13863.438256
88.036000	0.178277	0.093071	0.181569	0.289365	6365.033011	30191.461987	3733.411689	13835.507489
88.536000	0.177185	0.092447	0.177659	0.289669	6353.827718	30133.253036	3724.838612	13827.852542
89.036000	0.176938	0.091474	0.174809	0.288412	6361.930012	30151.037539	3721.616780	13859.617775
89.539500	0.178931	0.092065	0.183511	0.289636	6368.116395	30111.369230	3736.836988	13828.670281
90.037000	0.180726	0.092222	0.182593	0.290559	6375.141388	30063.382326	3733.065331	13805.397592
90.536500	0.176485	0.090707	0.179965	0.290074	6344.970808	29999.049002	3728.695547	13817.618391
91.037500	0.177076	0.090840	0.173455	0.291254	6340.265493	29933.873644	3713.189985	13787.916839
91.534500	0.176261	0.090544	0.178239	0.290181	6342.334373	29982.244194	3724.976253	13814.937245
92.035500	0.175701	0.089978	0.179529	0.289591	6342.560318	29983.702237	3728.789086	13829.797855
92.535500	0.175670	0.089435	0.171247	0.289887	6339.957580	29931.510852	3711.512125	13822.351668
93.036000	0.178113	0.089530	0.177059	0.292049	6342.205763	29803.196539	3718.822296	13767.949167
93.536000	0.176012	0.089072	0.175460	0.289813	6343.276889	29913.491844	3720.103758	13824.201174
94.039500	0.178030	0.088639	0.181472	0.290260	6355.856577	29858.850363	3731.386420	13812.937034
94.536500	0.175121	0.088368	0.179294	0.290405	6331.446183	29833.023170	3726.660432	13809.288613
95.036500	0.174407	0.087338	0.180084	0.291932	6313.638389	29674.939063	3725.166637	13770.885820
95.537500	0.176125	0.088825	0.181468	0.291670	6329.364457	29782.920612	3728.505833	13777.443576
96.035000	0.175152	0.087480	0.179439	0.290906	6327.700133	29747.008318	3725.937057	13796.655772
