sample name	sample
index	225
start time	 02-22-2021  10:40:58 AM


Wavelength (nm)	Absorbance
494.344910	-0.043241
494.563924	-0.043241
494.782919	-0.043241
495.001897	0.217043
495.220856	0.040011
495.439797	0.057657
495.658719	0.051478
495.877624	0.045385
496.096510	-0.014433
496.315378	-0.015594
496.534227	-0.039711
496.753059	-0.031410
496.971872	-0.035028
497.190667	0.082716
497.409444	0.121784
497.628203	0.136278
497.846943	0.143315
498.065665	0.149118
498.284369	0.151326
498.503055	0.152537
498.721723	0.152008
498.940372	0.152739
499.159003	0.154996
499.377616	0.154837
499.596210	0.154111
499.814787	0.154810
500.033345	0.155971
500.251885	0.155956
500.470406	0.156783
500.688910	0.158018
500.907395	0.158652
501.125862	0.157666
501.344311	0.158365
501.562742	0.158909
501.781154	0.158204
501.999548	0.156938
502.217924	0.156868
502.436282	0.157261
502.654621	0.156629
502.872942	0.156222
503.091245	0.155703
503.309530	0.154261
503.527797	0.155025
503.746045	0.154985
503.964275	0.155031
504.182487	0.155533
504.400681	0.155562
504.618856	0.156217
504.837013	0.156744
505.055152	0.156038
505.273273	0.158031
505.491376	0.157695
505.709460	0.157908
505.927526	0.159438
506.145574	0.158999
506.363604	0.158402
506.581615	0.158730
506.799608	0.159550
507.017583	0.161269
507.235540	0.161068
507.453478	0.161038
507.671399	0.161668
507.889301	0.161730
508.107185	0.162218
508.325050	0.162789
508.542898	0.162687
508.760727	0.161594
508.978538	0.160621
509.196330	0.160745
509.414105	0.160553
509.631861	0.160892
509.849599	0.160706
510.067319	0.161185
510.285021	0.162087
510.502704	0.162591
510.720369	0.162996
510.938016	0.163697
511.155645	0.164361
511.373255	0.165518
511.590848	0.165645
511.808422	0.165811
512.025977	0.166256
512.243515	0.165590
512.461034	0.165713
512.678536	0.165999
512.896018	0.166051
513.113483	0.165842
513.330930	0.165212
513.548358	0.164564
513.765768	0.164193
513.983160	0.164187
514.200533	0.164482
514.417889	0.164739
514.635226	0.164796
514.852545	0.165499
515.069845	0.164825
515.287128	0.165518
515.504392	0.165818
515.721638	0.167151
515.938866	0.166953
516.156075	0.168151
516.373267	0.168208
516.590440	0.168498
516.807594	0.168155
517.024731	0.168644
517.241850	0.168629
517.458950	0.170544
517.676032	0.170330
517.893095	0.171632
518.110141	0.171808
518.327168	0.172811
518.544177	0.173699
518.761168	0.174395
518.978141	0.175579
519.195095	0.176141
519.412031	0.175330
519.628949	0.175368
519.845849	0.174517
520.062731	0.174936
520.279594	0.174027
520.496439	0.174553
520.713266	0.175469
520.930074	0.174526
521.146865	0.174639
521.363637	0.175339
521.580391	0.175758
521.797127	0.176268
522.013844	0.176028
522.230543	0.176197
522.447224	0.175786
522.663887	0.175520
522.880532	0.176593
523.097158	0.177040
523.313766	0.176920
523.530356	0.176897
523.746928	0.178082
523.963481	0.178745
524.180017	0.180143
524.396534	0.180787
524.613032	0.181001
524.829513	0.181823
525.045975	0.181948
525.262420	0.182110
525.478845	0.182560
525.695253	0.182059
525.911643	0.181887
526.128014	0.182076
526.344367	0.182424
526.560702	0.182260
526.777018	0.181511
526.993316	0.182089
527.209597	0.182431
527.425858	0.183139
527.642102	0.183240
527.858328	0.183949
528.074535	0.184188
528.290724	0.184568
528.506894	0.185899
528.723047	0.186378
528.939181	0.186386
529.155297	0.187005
529.371395	0.186679
529.587475	0.187444
529.803536	0.188054
530.019579	0.187925
530.235604	0.188219
530.451611	0.187994
530.667600	0.188724
530.883570	0.189039
531.099522	0.189402
531.315456	0.190019
531.531372	0.190732
531.747269	0.190331
531.963148	0.191312
532.179009	0.191770
532.394852	0.192733
532.610676	0.193564
532.826482	0.194804
533.042271	0.195199
533.258040	0.195563
533.473792	0.195088
533.689525	0.195913
533.905240	0.196512
534.120937	0.196535
534.336616	0.196702
534.552277	0.197492
534.767919	0.197653
534.983543	0.197663
535.199149	0.197848
535.414736	0.198545
535.630306	0.198515
535.845857	0.197867
536.061390	0.198613
536.276904	0.198772
536.492401	0.198515
536.707879	0.198128
536.923339	0.198640
537.138781	0.199591
537.354204	0.200111
537.569610	0.200868
537.784997	0.201703
538.000366	0.201973
538.215716	0.202072
538.431049	0.202383
538.646363	0.202860
538.861659	0.203345
539.076937	0.203514
539.292196	0.203704
539.507438	0.203370
539.722661	0.204075
539.937866	0.204398
540.153052	0.204757
540.368221	0.205007
540.583371	0.205713
540.798503	0.205392
541.013617	0.205190
541.228712	0.205419
541.443789	0.205784
541.658848	0.205776
541.873889	0.205054
542.088912	0.205661
542.303916	0.205709
542.518902	0.205715
542.733870	0.205755
542.948820	0.206347
543.163752	0.206636
543.378665	0.207495
543.593560	0.207289
543.808437	0.208611
544.023295	0.208625
544.238136	0.209353
544.452958	0.210130
544.667762	0.210858
544.882548	0.210872
545.097315	0.211254
545.312064	0.211744
545.526795	0.212368
545.741508	0.212977
545.956203	0.213918
546.170879	0.214045
546.385537	0.214504
546.600177	0.214909
546.814799	0.215365
547.029402	0.215487
547.243988	0.215415
547.458555	0.215866
547.673103	0.215216
547.887634	0.215212
548.102146	0.215453
548.316640	0.215585
548.531116	0.216098
548.745574	0.216516
548.960013	0.216916
549.174435	0.217310
549.388838	0.217888
549.603222	0.218520
549.817589	0.218513
550.031937	0.218734
550.246267	0.218940
550.460579	0.219220
550.674873	0.219524
550.889148	0.219912
551.103405	0.219928
551.317644	0.219887
551.531865	0.220578
551.746068	0.220948
551.960252	0.221050
552.174418	0.221193
552.388566	0.221246
552.602696	0.221598
552.816807	0.221895
553.030900	0.222167
553.244975	0.222261
553.459032	0.222272
553.673070	0.222398
553.887091	0.223015
554.101093	0.223123
554.315077	0.223830
554.529042	0.224006
554.742990	0.223883
554.956919	0.223915
555.170830	0.224069
555.384722	0.224503
555.598597	0.224627
555.812453	0.224439
556.026291	0.224633
556.240111	0.224682
556.453913	0.224440
556.667696	0.224967
556.881461	0.225626
557.095208	0.226089
557.308937	0.225906
557.522647	0.226259
557.736339	0.226610
557.950013	0.227033
558.163669	0.227088
558.377307	0.227858
558.590926	0.228220
558.804527	0.228346
559.018110	0.228403
559.231675	0.228461
559.445221	0.228930
559.658749	0.229067
559.872259	0.229255
560.085751	0.229863
560.299225	0.230061
560.512680	0.230733
560.726117	0.230662
560.939536	0.231139
561.152937	0.231701
561.366319	0.231704
561.579683	0.232069
561.793029	0.232268
562.006357	0.232352
562.219667	0.232375
562.432958	0.232052
562.646231	0.232491
562.859486	0.232495
563.072723	0.232684
563.285941	0.233112
563.499141	0.233021
563.712323	0.232848
563.925487	0.232760
564.138632	0.233025
564.351760	0.233271
564.564869	0.233646
564.777960	0.233996
564.991032	0.234350
565.204087	0.234622
565.417123	0.234923
565.630141	0.235299
565.843140	0.235455
566.056122	0.236105
566.269085	0.236079
566.482030	0.236245
566.694957	0.236411
566.907866	0.236117
567.120756	0.235887
567.333628	0.236112
567.546482	0.236503
567.759318	0.236811
567.972135	0.236639
568.184935	0.236842
568.397716	0.236913
568.610478	0.236803
568.823223	0.237304
569.035949	0.237493
569.248657	0.237987
569.461347	0.238453
569.674019	0.238732
569.886672	0.238294
570.099308	0.238517
570.311925	0.238485
570.524523	0.238964
570.737104	0.239023
570.949666	0.239405
571.162210	0.239384
571.374736	0.239420
571.587244	0.239490
571.799733	0.239995
572.012205	0.240455
572.224658	0.240734
572.437092	0.241226
572.649509	0.241533
572.861907	0.242099
573.074287	0.241972
573.286649	0.241901
573.498993	0.242119
573.711318	0.242818
573.923625	0.242643
574.135914	0.242759
574.348185	0.242883
574.560438	0.242805
574.772672	0.242468
574.984888	0.242525
575.197086	0.242539
575.409266	0.242770
575.621427	0.242499
575.833570	0.242682
576.045695	0.242880
576.257802	0.242796
576.469890	0.243352
576.681961	0.243971
576.894013	0.244335
577.106046	0.244663
577.318062	0.244833
577.530059	0.245206
577.742039	0.245462
577.954000	0.245713
578.165942	0.246080
578.377867	0.245752
578.589773	0.245493
578.801661	0.245785
579.013531	0.245922
579.225382	0.245794
579.437216	0.246148
579.649031	0.246146
579.860828	0.245798
580.072606	0.245785
580.284367	0.246402
580.496109	0.246395
580.707833	0.246484
580.919539	0.247236
581.131227	0.248046
581.342896	0.248163
581.554547	0.248306
581.766180	0.249104
581.977795	0.249541
582.189391	0.249591
582.400969	0.250093
582.612529	0.250718
582.824071	0.250446
583.035595	0.250154
583.247100	0.250525
583.458587	0.250798
583.670056	0.250840
583.881506	0.250887
584.092939	0.251210
584.304353	0.251331
584.515749	0.251267
584.727127	0.251734
584.938486	0.252287
585.149828	0.252158
585.361151	0.252723
585.572456	0.253069
585.783742	0.253024
585.995011	0.253044
586.206261	0.253595
586.417493	0.254187
586.628706	0.254041
586.839902	0.254060
587.051079	0.254321
587.262238	0.254516
587.473379	0.254690
587.684502	0.254963
587.895606	0.255147
588.106692	0.255480
588.317760	0.255513
588.528810	0.255699
588.739841	0.255980
588.950855	0.256106
589.161850	0.256222
589.372827	0.256560
589.583785	0.256784
589.794726	0.257353
590.005648	0.257215
590.216552	0.257260
590.427437	0.257335
590.638305	0.257342
590.849154	0.257870
591.059985	0.257881
591.270798	0.257743
591.481592	0.258046
591.692369	0.257968
591.903127	0.258235
592.113867	0.258253
592.324588	0.258538
592.535292	0.258530
592.745977	0.258331
592.956644	0.258791
593.167293	0.259115
593.377923	0.259254
593.588536	0.259507
593.799130	0.259397
594.009706	0.259400
594.220263	0.259728
594.430803	0.260044
594.641324	0.260202
594.851827	0.260532
595.062312	0.260601
595.272778	0.260802
595.483227	0.261105
595.693657	0.261810
595.904069	0.262079
596.114462	0.261930
596.324838	0.262377
596.535195	0.262398
596.745534	0.262329
596.955855	0.262785
597.166157	0.263072
597.376441	0.263278
597.586707	0.263110
597.796955	0.263784
598.007185	0.264372
598.217396	0.264566
598.427589	0.265140
598.637764	0.265217
598.847921	0.265252
599.058060	0.265209
599.268180	0.265340
599.478282	0.265329
599.688366	0.265024
599.898431	0.265198
600.108479	0.265347
600.318508	0.265356
600.528519	0.265785
600.738511	0.265814
600.948486	0.266131
601.158442	0.266196
601.368380	0.266617
601.578300	0.266871
601.788202	0.267367
601.998085	0.267285
602.207950	0.267651
602.417797	0.267574
602.627626	0.267642
602.837436	0.267766
603.047228	0.267743
603.257002	0.268126
603.466758	0.268303
603.676496	0.268143
603.886215	0.268468
604.095916	0.268691
604.305599	0.268843
604.515264	0.269417
604.724910	0.269366
604.934538	0.269527
605.144148	0.269591
605.353740	0.269982
605.563314	0.270017
605.772869	0.270369
605.982406	0.270194
606.191925	0.270557
606.401425	0.270473
606.610908	0.270634
606.820372	0.270666
607.029818	0.270740
607.239246	0.270738
607.448655	0.270852
607.658047	0.270760
607.867420	0.271210
608.076775	0.271358
608.286111	0.271687
608.495430	0.272299
608.704730	0.272628
608.914012	0.272657
609.123275	0.272868
609.332521	0.273117
609.541748	0.273369
609.750957	0.273360
609.960148	0.273207
610.169321	0.273346
610.378475	0.273007
610.587611	0.273143
610.796729	0.273379
611.005829	0.273457
611.214910	0.273352
611.423974	0.273531
611.633019	0.273614
611.842045	0.274038
612.051054	0.273947
612.260044	0.274001
612.469017	0.274394
612.677970	0.274655
612.886906	0.274863
613.095824	0.274879
613.304723	0.274772
613.513604	0.274814
613.722467	0.275025
613.931311	0.275424
614.140138	0.275847
614.348946	0.275900
614.557736	0.275966
614.766507	0.276207
614.975261	0.276566
615.183996	0.276861
615.392713	0.277473
615.601412	0.277249
615.810092	0.277659
616.018754	0.277672
616.227399	0.277905
616.436024	0.277982
616.644632	0.278364
616.853222	0.278715
617.061793	0.278841
617.270346	0.278902
617.478880	0.279486
617.687397	0.279280
617.895895	0.279516
618.104375	0.279506
618.312837	0.279692
618.521281	0.279476
618.729706	0.279430
618.938113	0.279876
619.146502	0.279927
619.354873	0.279990
619.563226	0.280260
619.771560	0.280584
619.979876	0.281049
620.188174	0.281043
620.396453	0.281297
620.604715	0.281521
620.812958	0.281435
621.021183	0.281582
621.229390	0.281483
621.437578	0.281738
621.645748	0.281721
621.853900	0.281605
622.062034	0.281865
622.270150	0.282121
622.478247	0.282110
622.686326	0.282010
622.894387	0.281983
623.102430	0.282128
623.310454	0.282064
623.518461	0.282409
623.726449	0.282780
623.934418	0.282848
624.142370	0.282709
624.350303	0.282981
624.558218	0.283339
624.766115	0.283427
624.973994	0.283743
625.181855	0.283917
625.389697	0.283990
625.597521	0.283752
625.805327	0.284248
626.013114	0.284447
626.220883	0.284638
626.428634	0.284894
626.636367	0.285189
626.844082	0.285180
627.051778	0.285318
627.259457	0.285442
627.467117	0.285699
627.674758	0.285630
627.882382	0.286142
628.089987	0.286382
628.297574	0.286444
628.505143	0.286584
628.712694	0.286772
628.920226	0.286850
629.127740	0.287109
629.335236	0.287398
629.542714	0.287575
629.750174	0.287424
629.957615	0.287440
630.165038	0.287685
630.372443	0.287828
630.579829	0.288199
630.787198	0.288255
630.994548	0.288241
631.201880	0.288325
631.409194	0.288800
631.616489	0.289175
631.823766	0.289326
632.031025	0.289432
632.238266	0.289499
632.445489	0.289579
632.652693	0.289965
632.859879	0.290357
633.067047	0.290568
633.274197	0.290364
633.481329	0.290413
633.688442	0.290565
633.895537	0.290742
634.102614	0.291064
634.309672	0.291104
634.516713	0.291357
634.723735	0.291500
634.930739	0.291701
635.137724	0.291994
635.344692	0.292011
635.551641	0.292323
635.758572	0.292450
635.965485	0.292661
636.172379	0.292980
636.379256	0.293117
636.586114	0.293341
636.792954	0.293440
636.999775	0.293485
637.206579	0.293992
637.413364	0.294223
637.620131	0.294411
637.826880	0.294541
638.033610	0.294782
638.240323	0.294960
638.447017	0.295022
638.653692	0.295216
638.860350	0.295354
639.066990	0.295467
639.273611	0.295808
639.480214	0.296288
639.686798	0.296477
639.893365	0.296702
640.099913	0.296752
640.306443	0.296961
640.512955	0.297156
640.719449	0.297573
640.925924	0.297506
641.132381	0.297482
641.338820	0.297248
641.545241	0.297411
641.751644	0.297297
641.958028	0.297526
642.164394	0.297643
642.370742	0.298006
642.577071	0.297883
642.783383	0.298157
642.989676	0.298382
643.195951	0.298482
643.402207	0.298809
643.608446	0.299023
643.814666	0.299073
644.020868	0.299244
644.227052	0.299492
644.433218	0.299811
644.639365	0.300001
644.845494	0.300032
645.051605	0.300581
645.257698	0.300806
645.463772	0.301085
645.669828	0.301554
645.875866	0.301855
646.081886	0.301713
646.287888	0.301811
646.493871	0.302183
646.699836	0.302555
646.905783	0.302892
647.111712	0.303149
647.317622	0.303548
647.523514	0.303668
647.729388	0.303767
647.935244	0.304073
648.141082	0.304498
648.346901	0.304687
648.552702	0.304709
648.758485	0.304842
648.964250	0.304987
649.169996	0.305265
649.375724	0.305263
649.581434	0.305517
649.787126	0.305516
649.992800	0.305585
650.198455	0.305805
650.404092	0.306396
650.609711	0.306286
650.815311	0.306245
651.020894	0.306075
651.226458	0.306446
651.432004	0.306407
651.637532	0.306845
651.843041	0.307305
652.048532	0.307227
652.254006	0.307200
652.459460	0.307394
652.664897	0.307792
652.870315	0.308050
653.075716	0.308340
653.281097	0.308570
653.486461	0.308691
653.691807	0.308633
653.897134	0.309151
654.102443	0.309205
654.307734	0.309681
654.513006	0.309481
654.718261	0.309599
654.923497	0.309722
655.128715	0.310148
655.333915	0.310230
655.539096	0.310490
655.744259	0.310447
655.949404	0.310644
656.154531	0.310687
656.359640	0.311153
656.564730	0.311485
656.769802	0.311593
656.974856	0.311746
657.179892	0.312078
657.384909	0.312407
657.589908	0.312728
657.794889	0.313175
657.999852	0.313259
658.204797	0.313554
658.409723	0.313896
658.614631	0.314498
658.819521	0.314374
659.024393	0.314435
659.229246	0.314596
659.434081	0.314609
659.638898	0.314703
659.843697	0.315119
660.048478	0.315219
660.253240	0.315114
660.457984	0.315137
660.662710	0.315704
660.867417	0.316179
661.072107	0.316340
661.276778	0.316639
661.481431	0.316793
661.686066	0.317202
661.890682	0.317428
662.095281	0.317869
662.299861	0.318001
662.504422	0.318122
662.708966	0.318075
662.913491	0.318194
663.117999	0.318337
663.322488	0.318376
663.526958	0.318284
663.731411	0.318359
663.935845	0.318571
664.140261	0.318755
664.344659	0.318940
664.549038	0.319305
664.753400	0.319518
664.957743	0.319836
665.162068	0.320416
665.366375	0.320559
665.570663	0.320832
665.774933	0.321046
665.979185	0.321132
666.183419	0.321567
666.387635	0.321769
666.591832	0.322050
666.796011	0.322371
667.000172	0.322495
667.204315	0.322771
667.408439	0.323210
667.612545	0.323240
667.816634	0.323924
668.020703	0.323837
668.224755	0.324194
668.428788	0.324535
668.632803	0.324957
668.836800	0.325115
669.040779	0.325368
669.244739	0.325405
669.448681	0.325829
669.652605	0.325534
669.856511	0.325772
670.060399	0.325599
670.264268	0.325682
670.468119	0.325573
670.671952	0.325884
670.875767	0.326145
671.079563	0.326586
671.283341	0.326803
671.487101	0.327234
671.690843	0.327664
671.894567	0.328374
672.098272	0.328729
672.301959	0.328963
672.505628	0.329140
672.709278	0.329379
672.912911	0.329443
673.116525	0.329575
673.320121	0.329863
673.523699	0.329942
673.727258	0.329757
673.930799	0.329918
674.134322	0.330365
674.337827	0.330368
674.541314	0.330595
674.744782	0.330863
674.948232	0.331174
675.151664	0.331220
675.355078	0.331459
675.558474	0.331804
675.761851	0.331927
675.965210	0.331842
676.168551	0.332404
676.371873	0.332644
676.575178	0.332798
676.778464	0.333013
676.981732	0.333201
677.184981	0.333362
677.388213	0.333705
677.591426	0.334056
677.794621	0.334537
677.997798	0.334630
678.200956	0.334617
678.404097	0.334833
678.607219	0.334918
678.810323	0.335250
679.013408	0.335544
679.216476	0.335606
679.419525	0.335643
679.622556	0.335757
679.825569	0.335989
680.028563	0.336355
680.231540	0.336683
680.434498	0.336936
680.637438	0.337016
680.840359	0.337266
681.043263	0.337592
681.246148	0.337756
681.449015	0.337904
681.651864	0.338000
681.854694	0.338208
682.057506	0.338180
682.260301	0.338490
682.463076	0.338936
682.665834	0.339153
682.868573	0.339215
683.071295	0.339576
683.273998	0.339887
683.476682	0.339863
683.679349	0.340202
683.881997	0.340376
684.084627	0.340804
684.287239	0.340823
684.489833	0.340953
684.692408	0.341154
684.894965	0.341381
685.097504	0.341607
685.300025	0.342082
685.502527	0.342331
685.705012	0.342558
685.907478	0.342501
686.109925	0.342698
686.312355	0.343070
686.514766	0.343597
686.717159	0.343655
686.919534	0.343587
687.121891	0.343724
687.324230	0.343724
687.526550	0.344149
687.728852	0.344456
687.931136	0.344469
688.133401	0.344515
688.335649	0.344476
688.537878	0.344569
688.740089	0.344966
688.942281	0.345304
689.144456	0.345541
689.346612	0.345641
689.548750	0.345654
689.750870	0.346060
689.952971	0.346267
690.155055	0.346483
690.357120	0.346698
690.559167	0.346927
690.761195	0.346987
690.963206	0.347107
691.165198	0.347137
691.367172	0.347409
691.569128	0.347587
691.771065	0.347838
691.972984	0.347924
692.174885	0.348344
692.376768	0.348372
692.578633	0.348602
692.780479	0.348696
692.982308	0.348981
693.184118	0.349003
693.385909	0.349248
693.587683	0.349235
693.789438	0.349530
693.991175	0.349649
694.192894	0.349853
694.394595	0.350066
694.596277	0.350303
694.797941	0.350448
694.999587	0.350881
695.201215	0.350764
695.402824	0.351004
695.604416	0.351377
695.805989	0.351404
696.007543	0.351560
696.209080	0.351666
696.410598	0.351797
696.612099	0.352028
696.813580	0.351893
697.015044	0.352267
697.216490	0.352561
697.417917	0.352542
697.619326	0.352695
697.820717	0.352719
698.022089	0.352819
698.223444	0.353190
698.424780	0.353338
698.626098	0.353512
698.827397	0.353611
699.028679	0.353794
699.229942	0.353684
699.431187	0.353511
699.632414	0.353623
699.833622	0.353553
700.034813	0.353592
700.235985	0.353476
700.437139	0.353950
700.638274	0.354068
700.839392	0.354004
701.040491	0.354173
701.241572	0.354577
701.442635	0.354978
701.643679	0.355224
701.844706	0.355147
702.045714	0.355540
702.246704	0.355424
702.447675	0.355615
702.648629	0.355757
702.849564	0.355924
703.050481	0.356008
703.251380	0.356009
703.452260	0.356018
703.653122	0.356355
703.853966	0.356354
704.054792	0.356334
704.255600	0.356011
704.456389	0.355917
704.657160	0.355925
704.857913	0.356001
705.058648	0.355998
705.259365	0.355995
705.460063	0.355671
705.660743	0.355611
705.861405	0.355807
706.062048	0.356098
706.262674	0.356338
706.463281	0.356385
706.663870	0.356448
706.864441	0.356454
707.064993	0.356531
707.265527	0.356642
707.466043	0.356503
707.666541	0.356564
707.867021	0.356804
708.067482	0.356937
708.267925	0.357253
708.468350	0.357588
708.668757	0.357696
708.869145	0.358073
709.069516	0.358550
709.269868	0.358845
709.470201	0.358855
709.670517	0.359002
709.870814	0.358930
710.071093	0.358607
710.271354	0.358373
710.471597	0.358363
710.671821	0.358332
710.872028	0.357956
711.072216	0.358322
711.272385	0.358184
711.472537	0.358040
711.672670	0.358150
711.872785	0.358411
712.072882	0.358352
712.272961	0.358367
712.473021	0.358256
712.673063	0.358343
712.873087	0.357957
713.073093	0.357908
713.273081	0.357778
713.473050	0.357328
713.673001	0.357329
713.872934	0.357642
714.072849	0.357666
714.272745	0.357720
714.472623	0.357836
714.672483	0.357980
714.872325	0.358212
715.072148	0.358540
715.271954	0.358825
715.471741	0.359039
715.671509	0.358675
715.871260	0.358781
716.070992	0.358620
716.270707	0.358810
716.470403	0.358845
716.670080	0.358760
716.869740	0.358592
717.069381	0.358678
717.269004	0.358339
717.468609	0.358652
717.668195	0.358406
717.867764	0.358539
718.067314	0.358053
718.266846	0.357995
718.466360	0.358104
718.665855	0.358171
718.865332	0.357877
719.064791	0.357881
719.264232	0.357670
719.463655	0.357934
719.663059	0.357691
719.862445	0.357610
720.061813	0.357258
720.261163	0.357098
720.460494	0.356733
720.659807	0.356783
720.859102	0.356497
721.058379	0.356466
721.257638	0.356038
721.456878	0.356144
721.656100	0.355996
721.855304	0.356122
722.054490	0.355911
722.253657	0.356001
722.452806	0.355983
722.651937	0.356063
722.851050	0.355981
723.050145	0.355919
723.249221	0.355849
723.448279	0.355903
723.647319	0.355681
723.846340	0.355414
724.045344	0.355306
724.244329	0.355031
724.443296	0.354832
724.642245	0.354661
724.841175	0.354694
725.040088	0.354573
725.238982	0.354560
725.437857	0.354534
725.636715	0.354655
725.835554	0.354517
726.034376	0.354354
726.233179	0.354383
726.431963	0.354350
726.630730	0.354169
726.829478	0.354081
727.028208	0.354117
727.226920	0.354062
727.425614	0.353821
727.624289	0.353363
727.822946	0.353519
728.021585	0.353245
728.220206	0.353172
728.418808	0.353093
728.617392	0.352911
728.815958	0.352805
729.014506	0.352708
729.213036	0.352454
729.411547	0.352692
729.610040	0.352274
729.808515	0.352313
730.006972	0.351958
730.205410	0.351905
730.403831	0.351754
730.602233	0.351295
730.800616	0.350916
730.998982	0.351118
731.197329	0.351101
731.395658	0.351234
731.593969	0.351078
731.792262	0.351200
731.990536	0.350738
732.188793	0.350685
732.387031	0.350882
732.585250	0.350828
732.783452	0.350659
732.981635	0.350211
733.179800	0.350140
733.377947	0.349886
733.576076	0.349644
733.774186	0.349784
733.972278	0.349672
734.170352	0.349461
734.368408	0.349524
734.566446	0.349290
734.764465	0.349286
734.962466	0.349134
735.160449	0.349143
735.358413	0.349189
735.556360	0.348918
735.754288	0.348769
735.952198	0.348411
736.150090	0.348216
736.347963	0.348013
736.545818	0.347741
736.743655	0.347448
736.941474	0.347138
737.139275	0.346664
737.337057	0.346699
737.534821	0.346474
737.732567	0.346443
737.930295	0.346385
738.128005	0.346340
738.325696	0.346116
738.523369	0.345811
738.721024	0.345634
738.918660	0.345274
739.116279	0.344989
739.313879	0.344654
739.511461	0.344328
739.709024	0.343716
739.906570	0.343409
740.104097	0.343255
740.301606	0.343459
740.499097	0.343354
740.696569	0.343430
740.894024	0.342994
741.091460	0.343006
741.288878	0.342935
741.486277	0.343052
741.683659	0.343095
741.881022	0.343006
742.078367	0.342658
742.275694	0.342430
742.473002	0.342190
742.670293	0.342121
742.867565	0.341818
743.064819	0.341489
743.262054	0.341240
743.459272	0.341050
743.656471	0.340806
743.853652	0.340519
744.050815	0.340493
744.247959	0.340413
744.445085	0.340264
744.642194	0.340062
744.839283	0.340054
745.036355	0.339936
745.233408	0.339773
745.430444	0.339669
745.627461	0.339625
745.824459	0.339298
746.021440	0.339094
746.218402	0.338911
746.415346	0.338744
746.612272	0.338483
746.809180	0.337985
747.006069	0.337611
747.202940	0.337460
747.399793	0.337089
747.596628	0.336942
747.793444	0.336814
747.990243	0.336781
748.187023	0.336424
748.383784	0.336198
748.580528	0.336042
748.777253	0.335616
748.973960	0.335449
749.170649	0.335486
749.367320	0.335103
749.563973	0.334774
749.760607	0.334348
749.957223	0.334248
750.153821	0.334088
750.350400	0.334079
750.546962	0.333977
750.743505	0.333353
750.940030	0.332999
751.136536	0.332694
751.333025	0.332357
751.529495	0.332189
751.725947	0.331942
751.922381	0.331684
752.118796	0.331413
752.315194	0.331455
752.511573	0.331525
752.707934	0.331008
752.904276	0.330866
753.100601	0.330772
753.296907	0.330627
753.493195	0.330371
753.689465	0.330091
753.885716	0.329956
754.081949	0.329524
754.278164	0.329315
754.474361	0.329363
754.670540	0.329380
754.866700	0.329215
755.062843	0.329114
755.258967	0.328927
755.455072	0.328813
755.651160	0.328784
755.847229	0.328790
756.043280	0.328617
756.239313	0.328618
756.435328	0.328316
756.631324	0.328195
756.827302	0.327762
757.023262	0.327844
757.219204	0.327951
757.415127	0.327524
757.611033	0.327055
757.806920	0.326935
758.002788	0.326530
758.198639	0.326438
758.394471	0.326023
758.590286	0.325995
758.786081	0.325721
758.981859	0.325272
759.177619	0.325085
759.373360	0.325424
759.569083	0.325331
759.764788	0.325229
759.960474	0.325267
760.156143	0.325234
760.351793	0.324997
760.547425	0.324779
760.743038	0.324515
760.938634	0.324592
761.134211	0.324146
761.329770	0.323913
761.525311	0.323901
761.720833	0.323609
761.916338	0.323448
762.111824	0.323428
762.307292	0.323345
762.502741	0.323383
762.698173	0.322957
762.893586	0.322711
763.088981	0.322594
763.284358	0.322243
763.479716	0.322135
763.675057	0.322083
763.870379	0.321731
764.065683	0.321352
764.260968	0.320899
764.456236	0.320748
764.651485	0.320638
764.846716	0.320647
765.041929	0.320558
765.237123	0.320237
765.432299	0.319849
765.627457	0.319798
765.822597	0.320025
766.017719	0.320226
766.212822	0.320383
766.407907	0.320269
766.602974	0.320008
766.798023	0.319959
766.993054	0.319747
767.188066	0.319711
767.383060	0.319787
767.578036	0.319677
767.772993	0.319528
767.967933	0.319332
768.162854	0.319316
768.357757	0.319370
768.552642	0.319202
768.747508	0.319467
768.942356	0.319330
769.137186	0.319229
769.331998	0.318864
769.526792	0.318565
769.721567	0.318325
769.916324	0.318138
770.111063	0.317721
770.305784	0.317470
770.500486	0.317145
770.695171	0.317054
770.889837	0.316670
771.084484	0.316673
771.279114	0.316870
771.473725	0.316893
771.668318	0.316619
771.862893	0.316673
772.057450	0.316597
772.251988	0.316637
772.446509	0.316688
772.641011	0.316835
772.835494	0.316728
773.029960	0.316539
773.224407	0.316355
773.418836	0.316454
773.613247	0.316317
773.807640	0.316494
774.002014	0.316081
774.196370	0.315964
774.390708	0.315886
774.585028	0.315899
774.779330	0.315949
774.973613	0.316072
775.167878	0.316178
775.362125	0.315952
775.556354	0.315717
775.750564	0.316055
775.944756	0.315767
776.138930	0.315559
776.333086	0.315305
776.527223	0.315126
776.721343	0.314877
776.915444	0.314635
777.109526	0.314834
777.303591	0.314919
777.497637	0.314632
777.691666	0.314972
777.885676	0.315025
778.079667	0.315151
778.273641	0.314828
778.467596	0.314848
778.661533	0.314733
778.855452	0.314445
779.049352	0.314483
779.243235	0.314673
779.437099	0.314467
779.630945	0.314023
779.824773	0.313989
780.018582	0.314590
780.212373	0.314499
780.406146	0.314639
780.599901	0.314669
780.793638	0.314442
780.987356	0.314222
781.181056	0.314060
781.374738	0.314132
781.568402	0.314066
781.762047	0.313595
781.955674	0.313539
782.149283	0.313518
782.342874	0.313452
782.536447	0.313705
782.730001	0.313536
782.923537	0.313429
783.117055	0.313649
783.310555	0.313840
783.504036	0.313794
783.697499	0.313915
783.890944	0.313861
784.084371	0.313838
784.277780	0.313507
784.471170	0.313754
784.664542	0.313965
784.857896	0.314033
785.051231	0.313952
785.244549	0.314292
785.437848	0.314213
785.631129	0.314173
785.824392	0.314348
786.017636	0.314513
786.210863	0.314339
786.404071	0.314451
786.597260	0.314506
786.790432	0.314261
786.983585	0.313739
787.176721	0.313871
787.369838	0.314075
787.562936	0.314247
787.756017	0.314047
787.949079	0.314239
788.142123	0.314524
788.335149	0.314492
788.528156	0.314696
788.721146	0.315302
788.914117	0.315323
789.107070	0.315079
789.300005	0.314980
789.492921	0.315309
789.685819	0.315694
789.878699	0.315450
790.071561	0.315615
790.264405	0.315607
790.457230	0.315524
790.650037	0.315589
790.842826	0.315724
791.035597	0.316004
791.228349	0.315953
791.421084	0.315517
791.613800	0.315467
791.806497	0.315297
791.999177	0.315354
792.191838	0.315377
792.384481	0.315558
792.577106	0.315541
792.769713	0.315538
792.962301	0.315636
793.154871	0.315867
793.347423	0.315857
793.539957	0.316201
793.732473	0.316296
793.924970	0.316650
794.117449	0.316711
794.309910	0.317434
794.502353	0.317625
794.694777	0.317713
794.887183	0.318002
795.079571	0.318346
795.271941	0.318583
795.464293	0.318717
795.656626	0.318619
795.848941	0.318853
796.041238	0.318587
796.233516	0.318624
796.425777	0.318917
796.618019	0.318795
796.810243	0.319221
797.002449	0.319534
797.194636	0.319763
797.386805	0.320015
797.578956	0.320327
797.771089	0.320393
797.963204	0.320660
798.155300	0.320804
798.347378	0.321207
798.539438	0.321385
798.731480	0.321384
798.923503	0.321440
799.115509	0.321504
799.307496	0.321541
799.499465	0.321788
799.691415	0.321682
799.883348	0.322057
800.075262	0.322148
800.267158	0.321999
800.459035	0.321888
800.650895	0.322512
800.842736	0.322588
801.034559	0.322827
801.226364	0.323079
801.418150	0.323216
801.609919	0.323248
801.801669	0.323422
801.993401	0.323756
802.185114	0.324141
802.376810	0.324143
802.568487	0.324345
802.760146	0.324337
802.951787	0.324597
803.143409	0.324855
803.335014	0.324950
803.526600	0.325390
803.718168	0.325544
803.909717	0.325557
804.101249	0.325459
804.292762	0.325744
804.484257	0.325814
804.675734	0.325986
804.867192	0.326211
805.058632	0.326385
805.250054	0.326312
805.441458	0.326641
805.632844	0.327103
805.824211	0.327523
806.015561	0.327736
806.206891	0.328093
806.398204	0.328422
806.589499	0.328830
806.780775	0.329130
806.972033	0.329542
807.163273	0.329519
807.354495	0.329653
807.545698	0.329854
807.736883	0.330213
807.928050	0.330590
808.119199	0.330898
808.310329	0.331277
808.501441	0.331391
808.692535	0.331716
808.883611	0.331903
809.074669	0.332228
809.265708	0.332552
809.456729	0.332813
809.647732	0.332981
809.838717	0.333101
810.029683	0.333236
810.220632	0.333640
810.411562	0.333880
810.602474	0.334057
810.793367	0.334526
810.984242	0.334999
811.175100	0.335063
811.365938	0.335107
811.556759	0.335048
811.747562	0.335232
811.938346	0.335368
812.129112	0.335474
812.319860	0.336246
812.510589	0.336405
812.701300	0.336507
812.891994	0.337247
813.082668	0.337716
813.273325	0.338077
813.463964	0.338735
813.654584	0.339293
813.845186	0.339818
814.035769	0.339753
814.226335	0.340070
814.416882	0.340458
814.607411	0.340539
814.797922	0.341000
814.988415	0.341496
815.178889	0.341483
815.369345	0.341887
815.559783	0.342169
815.750203	0.342735
815.940605	0.343013
816.130988	0.343095
816.321353	0.343211
816.511700	0.343564
816.702028	0.344010
816.892339	0.344327
817.082631	0.344189
817.272905	0.344344
817.463161	0.344458
817.653398	0.344627
817.843617	0.345266
818.033819	0.345727
818.224001	0.345779
818.414166	0.346098
818.604312	0.346519
818.794440	0.346899
818.984550	0.347110
819.174642	0.347742
819.364716	0.348014
819.554771	0.348088
819.744808	0.348432
819.934827	0.348931
820.124827	0.349186
820.314810	0.349461
820.504774	0.349878
820.694720	0.350336
820.884647	0.350606
821.074557	0.351077
821.264448	0.351679
821.454321	0.351949
821.644176	0.352265
821.834012	0.352513
822.023831	0.352855
822.213631	0.353348
822.403413	0.354013
822.593176	0.354588
822.782922	0.355031
822.972649	0.355333
823.162358	0.355959
823.352049	0.356320
823.541721	0.356903
823.731376	0.357560
823.921012	0.358160
824.110629	0.358341
824.300229	0.358317
824.489811	0.358443
824.679374	0.358731
824.868919	0.359017
825.058445	0.359581
825.247954	0.359882
825.437444	0.359957
825.626916	0.359941
825.816370	0.360150
826.005806	0.360710
826.195223	0.361290
826.384622	0.361504
826.574003	0.361466
826.763366	0.361607
826.952711	0.361743
827.142037	0.362120
827.331345	0.362440
827.520635	0.363158
827.709906	0.363490
827.899160	0.363928
828.088395	0.364668
828.277612	0.365436
828.466810	0.365861
828.655991	0.366523
828.845153	0.366663
829.034297	0.367501
829.223423	0.367384
829.412531	0.367508
829.601620	0.367933
829.790691	0.367927
829.979744	0.368201
830.168779	0.368528
830.357795	0.369025
830.546793	0.370035
830.735773	0.370403
830.924735	0.371250
831.113679	0.371745
831.302604	0.372088
831.491511	0.372870
831.680400	0.373376
831.869271	0.373892
832.058123	0.374182
832.246957	0.374407
832.435773	0.375031
832.624571	0.374971
832.813351	0.375712
833.002112	0.376354
833.190855	0.376802
833.379580	0.377293
833.568287	0.378048
833.756975	0.378686
833.945645	0.379015
834.134297	0.379131
834.322931	0.380065
834.511547	0.380513
834.700144	0.380728
834.888723	0.381083
835.077284	0.381554
835.265826	0.381529
835.454351	0.381803
835.642857	0.382135
835.831345	0.382755
836.019815	0.383139
836.208266	0.383622
836.396699	0.384078
836.585114	0.384402
836.773511	0.384681
836.961890	0.385645
837.150250	0.386137
837.338592	0.386984
837.526916	0.387565
837.715222	0.388094
837.903510	0.388599
838.091779	0.388978
838.280030	0.389484
838.468263	0.390158
838.656477	0.390347
838.844674	0.390449
839.032852	0.390521
839.221012	0.391066
839.409153	0.391326
839.597277	0.391677
839.785382	0.392269
839.973469	0.392813
840.161538	0.393187
840.349589	0.393555
840.537621	0.394401
840.725635	0.394661
840.913631	0.394723
841.101609	0.395072
841.289568	0.395285
841.477509	0.395787
841.665432	0.396021
841.853337	0.396495
842.041224	0.397142
842.229092	0.397326
842.416942	0.397920
842.604774	0.398153
842.792588	0.398634
842.980383	0.399253
843.168160	0.399458
843.355919	0.399522
843.543660	0.399730
843.731382	0.400245
843.919087	0.400966
844.106773	0.401419
844.294441	0.402004
844.482090	0.402614
844.669722	0.403087
844.857335	0.403741
845.044930	0.404880
845.232507	0.405440
845.420065	0.405330
845.607605	0.405482
845.795127	0.406019
845.982631	0.406326
846.170117	0.406400
846.357584	0.406329
846.545033	0.406623
846.732464	0.406706
846.919877	0.406995
847.107272	0.407839
847.294648	0.408406
847.482006	0.408859
847.669346	0.409421
847.856667	0.409806
848.043971	0.410744
848.231256	0.411253
848.418523	0.411778
848.605771	0.412445
848.793002	0.412994
848.980214	0.413616
849.167408	0.414073
849.354584	0.414208
849.541742	0.415170
849.728881	0.415273
849.916002	0.415855
850.103105	0.416692
850.290190	0.417351
850.477256	0.417826
850.664304	0.418313
850.851334	0.418757
851.038346	0.419653
851.225340	0.419897
851.412315	0.420670
851.599272	0.420903
851.786211	0.421057
851.973132	0.421434
852.160034	0.421709
852.346918	0.421706
852.533784	0.422054
852.720632	0.422713
852.907462	0.423068
853.094273	0.423818
853.281066	0.424271
853.467841	0.424914
853.654598	0.425368
853.841336	0.425968
854.028056	0.426919
854.214758	0.427629
854.401442	0.428055
854.588107	0.428741
854.774755	0.428809
854.961384	0.429521
855.147995	0.429789
855.334587	0.430208
855.521162	0.430913
855.707718	0.431093
855.894256	0.431385
856.080775	0.431282
856.267277	0.431622
856.453760	0.432018
856.640225	0.432165
856.826672	0.432793
857.013101	0.432938
857.199511	0.432877
857.385903	0.433246
857.572277	0.433685
857.758633	0.434160
857.944970	0.434743
858.131290	0.435256
858.317591	0.435785
858.503873	0.435994
858.690138	0.436554
858.876384	0.436806
859.062612	0.437369
859.248822	0.437933
859.435014	0.438801
859.621188	0.439130
859.807343	0.439547
859.993480	0.440283
860.179599	0.440325
860.365699	0.440692
860.551781	0.441000
860.737846	0.441404
860.923891	0.441618
861.109919	0.441534
861.295929	0.441917
861.481920	0.442400
861.667893	0.442358
861.853848	0.443033
862.039784	0.443428
862.225702	0.444303
862.411603	0.444911
862.597484	0.445246
862.783348	0.445920
862.969193	0.446248
863.155021	0.446508
863.340830	0.447007
863.526620	0.447948
863.712393	0.448286
863.898147	0.448811
864.083883	0.449230
864.269601	0.449819
864.455301	0.450423
864.640982	0.450839
864.826645	0.451388
865.012290	0.451659
865.197917	0.451354
865.383526	0.452015
865.569116	0.452424
865.754688	0.452618
865.940242	0.452983
866.125777	0.453013
866.311295	0.453373
866.496794	0.453746
866.682275	0.454136
866.867737	0.455088
867.053182	0.455365
867.238608	0.455966
867.424016	0.456195
867.609406	0.457115
867.794778	0.457314
867.980131	0.457745
868.165466	0.458111
868.350783	0.458595
868.536082	0.458634
868.721362	0.458969
868.906625	0.458850
869.091869	0.459467
869.277094	0.458793
869.462302	0.459176
869.647491	0.459192
869.832662	0.459444
870.017815	0.459680
870.202950	0.460385
870.388066	0.460588
870.573165	0.460628
870.758245	0.460560
870.943306	0.460995
871.128350	0.462193
871.313375	0.462676
871.498382	0.462801
871.683371	0.462935
871.868342	0.462993
872.053294	0.463408
872.238229	0.463482
872.423144	0.464195
872.608042	0.464649
872.792922	0.464518
872.977783	0.464637
873.162626	0.465062
873.347451	0.465412
873.532258	0.465398
873.717046	0.465723
873.901816	0.466115
874.086568	0.465947
874.271302	0.466458
874.456017	0.466149
874.640715	0.466508
874.825394	0.466912
875.010055	0.467118
875.194697	0.467278
875.379322	0.467570
875.563928	0.467640
875.748516	0.468148
875.933085	0.467765
876.117637	0.468241
876.302170	0.468289
876.486685	0.468518
876.671182	0.468627
876.855661	0.468434
877.040121	0.468368
877.224563	0.468780
877.408987	0.468975
877.593393	0.469630
877.777780	0.469262
877.962150	0.469569
878.146501	0.469711
878.330833	0.469862
878.515148	0.470882
878.699444	0.470825
878.883722	0.471142
879.067982	0.470617
879.252224	0.470335
879.436447	0.471104
879.620653	0.471587
879.804840	0.471452
879.989008	0.471931
880.173159	0.471863
880.357291	0.472121
880.541405	0.471946
880.725501	0.472485
880.909579	0.473018
881.093638	0.472962
881.277680	0.473071
881.461703	0.473111
881.645707	0.473391
881.829694	0.473417
882.013662	0.474257
882.197612	0.474699
882.381544	0.474762
882.565458	0.475368
882.749353	0.475561
882.933230	0.475554
883.117089	0.475726
883.300930	0.475767
883.484753	0.476110
883.668557	0.475487
883.852343	0.475930
884.036111	0.476390
884.219861	0.476472
884.403592	0.476877
884.587305	0.477067
884.771000	0.477059
884.954677	0.476930
885.138335	0.476894
885.321976	0.477065
885.505598	0.476541
885.689201	0.476437
885.872787	0.476221
886.056354	0.476105
886.239904	0.476163
886.423434	0.476813
886.606947	0.477539
886.790442	0.477480
886.973918	0.477490
887.157376	0.477965
887.340816	0.477540
887.524237	0.476986
887.707641	0.476957
887.891026	0.476842
888.074393	0.476444
888.257741	0.475999
888.441072	0.475685
888.624384	0.475345
888.807678	0.475246
888.990954	0.475679
889.174211	0.476117
889.357451	0.476084
889.540672	0.476190
889.723875	0.476128
889.907059	0.475887
890.090226	0.476301
890.273374	0.476930
890.456504	0.477279
890.639616	0.477419
890.822709	0.477138
891.005785	0.477063
891.188842	0.477003
891.371881	0.476969
891.554901	0.477232
891.737904	0.477195
891.920888	0.476862
892.103854	0.476377
892.286802	0.476182
892.469731	0.476447
892.652643	0.476066
892.835536	0.476080
893.018410	0.476155
893.201267	0.476039
893.384106	0.475783
893.566926	0.475917
893.749728	0.475361
893.932511	0.475214
894.115277	0.474494
894.298024	0.474637
894.480753	0.474134
894.663464	0.474423
894.846157	0.473778
895.028831	0.473607
895.211487	0.472940
895.394125	0.472940
895.576745	0.472477
895.759346	0.472750
895.941930	0.472548
896.124495	0.471886
896.307041	0.470945
896.489570	0.470925
896.672080	0.470559
896.854573	0.470854
897.037046	0.470980
897.219502	0.471354
897.401940	0.471184
897.584359	0.470941
897.766760	0.470984
897.949143	0.471064
898.131507	0.471069
898.313854	0.471228
898.496182	0.470364
898.678492	0.469413
898.860783	0.468722
899.043057	0.468440
899.225312	0.468445
899.407549	0.468717
899.589768	0.468041
899.771968	0.467496
899.954151	0.466498
900.136315	0.466590
900.318461	0.466753
900.500588	0.466992
900.682698	0.466840
900.864789	0.466096
901.046862	0.465357
901.228917	0.464926
901.410953	0.464694
901.592971	0.464954
901.774972	0.463970
901.956953	0.463306
902.138917	0.462588
902.320862	0.461974
902.502790	0.461820
902.684699	0.461383
902.866589	0.460814
903.048462	0.460437
903.230316	0.460230
903.412152	0.460506
903.593970	0.460347
903.775770	0.459360
903.957551	0.458848
904.139314	0.458223
904.321059	0.457921
904.502786	0.458192
904.684494	0.457976
904.866185	0.457334
905.047857	0.457367
905.229510	0.457461
905.411146	0.457966
905.592763	0.457810
905.774363	0.458019
905.955943	0.457794
906.137506	0.457572
906.319051	0.457639
906.500577	0.457112
906.682085	0.456253
906.863575	0.455600
907.045046	0.454583
907.226500	0.453932
907.407935	0.453055
907.589352	0.453044
907.770750	0.451939
907.952131	0.451216
908.133493	0.450814
908.314837	0.450469
908.496163	0.449746
908.677470	0.449578
908.858760	0.448787
909.040031	0.448908
909.221284	0.448707
909.402518	0.448610
909.583735	0.447912
909.764933	0.447029
909.946113	0.446568
910.127275	0.446009
910.308418	0.445152
910.489544	0.445177
910.670651	0.443431
910.851740	0.442162
911.032810	0.441480
911.213863	0.440968
911.394897	0.440618
911.575913	0.439835
911.756911	0.439073
911.937890	0.438863
912.118851	0.438242
912.299794	0.438733
912.480719	0.438426
912.661626	0.438009
912.842514	0.437427
913.023384	0.437246
913.204236	0.436418
913.385070	0.435984
913.565886	0.435411
913.746683	0.435215
913.927462	0.433909
914.108223	0.433129
914.288965	0.432869
914.469690	0.432140
914.650396	0.431152
914.831084	0.430978
915.011754	0.430665
915.192405	0.429071
915.373038	0.428004
915.553653	0.427519
915.734250	0.427523
915.914829	0.426836
916.095389	0.426424
916.275931	0.426215
916.456455	0.425167
916.636961	0.424343
916.817448	0.424147
916.997917	0.423347
917.178368	0.422992
917.358801	0.421523
917.539216	0.420275
917.719612	0.419184
917.899990	0.418862
918.080350	0.417851
918.260692	0.417050
918.441015	0.416579
918.621320	0.415946
918.801607	0.414806
918.981876	0.413840
919.162127	0.413037
919.342359	0.411576
919.522573	0.410796
919.702769	0.410415
919.882947	0.409825
920.063106	0.409395
920.243247	0.408880
920.423370	0.408121
920.603475	0.407638
920.783562	0.406494
920.963630	0.406949
921.143680	0.405589
921.323712	0.404556
921.503725	0.404153
921.683721	0.402725
921.863698	0.401545
922.043657	0.401766
922.223598	0.400792
922.403520	0.400455
922.583424	0.398881
922.763311	0.398161
922.943178	0.397636
923.123028	0.396721
923.302859	0.396245
923.482673	0.395833
923.662467	0.394148
923.842244	0.393690
924.022003	0.393168
924.201743	0.393089
924.381465	0.391662
924.561169	0.391292
924.740854	0.390449
924.920522	0.390105
925.100171	0.388451
925.279802	0.387559
925.459414	0.385713
925.639009	0.384541
925.818585	0.383024
925.998143	0.382045
926.177683	0.380707
926.357205	0.379026
926.536708	0.377868
926.716193	0.377823
926.895660	0.377222
927.075109	0.376527
927.254539	0.375845
927.433951	0.374907
927.613345	0.375098
927.792721	0.373802
927.972079	0.373149
928.151418	0.371788
928.330739	0.370370
928.510042	0.369579
928.689327	0.368773
928.868593	0.367964
929.047841	0.367272
929.227071	0.365413
929.406283	0.364960
929.585476	0.364119
929.764652	0.362542
929.943809	0.360691
930.122948	0.359347
930.302068	0.359765
930.481171	0.358491
930.660255	0.357264
930.839321	0.356348
931.018369	0.355217
931.197398	0.354060
931.376409	0.353746
931.555402	0.353572
931.734377	0.352351
931.913334	0.350282
932.092272	0.349200
932.271192	0.348248
932.450094	0.347367
932.628978	0.345971
932.807844	0.344972
932.986691	0.344357
933.165520	0.343721
933.344331	0.342678
933.523123	0.342109
933.701898	0.341782
933.880654	0.340600
934.059392	0.339496
934.238111	0.338432
934.416813	0.338630
934.595496	0.335829
934.774161	0.334663
934.952808	0.333914
935.131437	0.332352
935.310047	0.330571
935.488639	0.329450
935.667213	0.328006
935.845769	0.327322
936.024306	0.325399
936.202825	0.325850
936.381326	0.323854
936.559809	0.322283
936.738274	0.321085
936.916720	0.319416
937.095148	0.318795
937.273558	0.318027
937.451950	0.316736
937.630323	0.315747
937.808678	0.313867
937.987015	0.312836
938.165334	0.311885
938.343635	0.310057
938.521917	0.310349
938.700181	0.308985
938.878427	0.307712
939.056655	0.307188
939.234864	0.304347
939.413055	0.303989
939.591228	0.304398
939.769383	0.303143
939.947519	0.302650
940.125638	0.300444
940.303738	0.299221
940.481820	0.297682
940.659883	0.295549
940.837929	0.295065
941.015956	0.293321
941.193965	0.290399
941.371955	0.289156
941.549928	0.287138
941.727882	0.285904
941.905818	0.284710
942.083736	0.283059
942.261636	0.281075
942.439517	0.281257
942.617380	0.279893
942.795225	0.279843
942.973052	0.277955
943.150860	0.277430
943.328651	0.275711
943.506423	0.273909
943.684176	0.274249
943.861912	0.274608
944.039629	0.271010
944.217328	0.270574
944.395009	0.268273
944.572672	0.268067
944.750317	0.266794
944.927943	0.264380
945.105551	0.262281
945.283141	0.260093
945.460712	0.257663
945.638265	0.257088
945.815801	0.255069
945.993317	0.254242
946.170816	0.252867
946.348297	0.252136
946.525759	0.253578
946.703203	0.252806
946.880629	0.251445
947.058036	0.249923
947.235425	0.249226
947.412797	0.248021
947.590149	0.244790
947.767484	0.242805
947.944800	0.242791
948.122099	0.239236
948.299379	0.238156
948.476640	0.236677
948.653884	0.234968
948.831109	0.233144
949.008316	0.230995
949.185505	0.231943
949.362676	0.230447
949.539828	0.226468
949.716962	0.225009
949.894078	0.223433
950.071176	0.221903
950.248256	0.222211
950.425317	0.221355
950.602360	0.221906
950.779385	0.219561
950.956391	0.220421
951.133380	0.219190
951.310350	0.217827
951.487302	0.217809
951.664235	0.216004
951.841151	0.213385
952.018048	0.211637
952.194927	0.209560
952.371788	0.208300
952.548631	0.204942
952.725455	0.203218
952.902261	0.203109
953.079049	0.201797
953.255819	0.201784
953.432570	0.202324
953.609303	0.201822
953.786018	0.200490
953.962715	0.198502
954.139394	0.196612
954.316054	0.196462
954.492696	0.195335
954.669320	0.192467
954.845926	0.188954
955.022513	0.184992
955.199083	0.182803
955.375634	0.181242
955.552166	0.181002
955.728681	0.180005
955.905177	0.179268
956.081655	0.178699
956.258115	0.177670
956.434557	0.178356
956.610980	0.178365
956.787385	0.177414
956.963772	0.177053
957.140141	0.176856
957.316492	0.175808
957.492824	0.173549
957.669138	0.172658
957.845434	0.173211
958.021712	0.172886
958.197971	0.173361
958.374212	0.172718
958.550435	0.170921
958.726640	0.168412
958.902826	0.167182
959.078995	0.165039
959.255145	0.163760
959.431277	0.160997
959.607390	0.161013
959.783486	0.160299
959.959563	0.160801
960.135622	0.160088
960.311662	0.161165
960.487685	0.161714
960.663689	0.164228
960.839675	0.160294
961.015643	0.161352
961.191593	0.159476
961.367524	0.158819
961.543437	0.158303
961.719332	0.157616
961.895209	0.155809
962.071067	0.155782
962.246907	0.155057
962.422730	0.158260
962.598533	0.156320
962.774319	0.156495
962.950086	0.157140
963.125835	0.156581
963.301566	0.155944
963.477279	0.156963
963.652973	0.156981
963.828650	0.155374
964.004308	0.154020
964.179947	0.152839
964.355569	0.151010
964.531172	0.149362
964.706757	0.148759
964.882324	0.150212
965.057873	0.148327
965.233403	0.146952
965.408916	0.144933
965.584410	0.144662
965.759885	0.144493
965.935343	0.145210
966.110782	0.144733
966.286203	0.143727
966.461606	0.142151
966.636991	0.140569
966.812357	0.140876
966.987705	0.141126
967.163035	0.141623
967.338347	0.143516
967.513641	0.144341
967.688916	0.145193
967.864173	0.143671
968.039412	0.144990
968.214632	0.148498
968.389835	0.148897
968.565019	0.151189
968.740185	0.148930
968.915333	0.146824
969.090462	0.145234
969.265573	0.143761
969.440667	0.143755
969.615741	0.142807
969.790798	0.142629
969.965836	0.140708
970.140856	0.138258
970.315858	0.141776
970.490842	0.143601
970.665808	0.143485
970.840755	0.143507
971.015684	0.144626
971.190595	0.143217
971.365487	0.141478
971.540362	0.140486
971.715218	0.143031
971.890056	0.140642
972.064875	0.140456
972.239677	0.141116
972.414460	0.140539
972.589225	0.141606
972.763972	0.142344
972.938700	0.142110
973.113411	0.143088
973.288103	0.141147
973.462777	0.141208
973.637432	0.139120
973.812070	0.138597
973.986689	0.139883
974.161290	0.137414
974.335873	0.138109
974.510437	0.139519
974.684984	0.141139
974.859512	0.143473
975.034022	0.145264
975.208513	0.146902
975.382987	0.147008
975.557442	0.146991
975.731879	0.147452
975.906298	0.147540
976.080698	0.144620
976.255080	0.143121
976.429445	0.140213
976.603790	0.138090
976.778118	0.136801
976.952427	0.136859
977.126719	0.136326
977.300992	0.137702
977.475246	0.137811
977.649483	0.140121
977.823701	0.141952
977.997901	0.142562
978.172083	0.145645
978.346247	0.146313
978.520392	0.145468
978.694519	0.145407
978.868628	0.144915
979.042719	0.142678
979.216791	0.140632
979.390845	0.140115
979.564882	0.137967
979.738899	0.134766
979.912899	0.136386
980.086880	0.137637
980.260843	0.137167
980.434788	0.135354
980.608715	0.134035
980.782623	0.136185
980.956514	0.135859
981.130386	0.138836
981.304240	0.138480
981.478075	0.138519
981.651892	0.139418
981.825692	0.137732
981.999472	0.138169
982.173235	0.141372
982.346980	0.140957
982.520706	0.141907
982.694414	0.140823
982.868104	0.142245
983.041775	0.142273
983.215428	0.138282
983.389064	0.141038
983.562680	0.144250
983.736279	0.144026
983.909860	0.146051
984.083422	0.144068
984.256966	0.143697
984.430491	0.143949
984.603999	0.142001
984.777488	0.142912
984.950959	0.141809
985.124412	0.140055
985.297847	0.140608
985.471263	0.138547
985.644661	0.139965
985.818041	0.139728
985.991403	0.140163
986.164747	0.140822
986.338072	0.141099
986.511379	0.141959
986.684668	0.141636
986.857938	0.141965
987.031191	0.141728
987.204425	0.140985
987.377641	0.141574
987.550839	0.141097
987.724018	0.142593
987.897179	0.145818
988.070322	0.145320
988.243447	0.146638
988.416554	0.145444
988.589642	0.147557
988.762712	0.147235
988.935764	0.145933
989.108798	0.144776
989.281813	0.143878
989.454811	0.143441
989.627790	0.145859
989.800751	0.144433
989.973693	0.144091
990.146617	0.142260
990.319524	0.141435
990.492412	0.144039
990.665281	0.144736
990.838133	0.144465
991.010966	0.141956
991.183781	0.140072
991.356578	0.141853
991.529356	0.141907
991.702117	0.140901
991.874859	0.142487
992.047583	0.143950
992.220288	0.145238
992.392976	0.145672
992.565645	0.147362
992.738296	0.145671
992.910929	0.144288
993.083543	0.144621
993.256139	0.145371
993.428718	0.143119
993.601277	0.140109
993.773819	0.137541
993.946342	0.135749
994.118848	0.135898
994.291335	0.135573
994.463803	0.137821
994.636254	0.140843
994.808686	0.142102
994.981100	0.142698
995.153496	0.142824
995.325874	0.144798
995.498233	0.148606
995.670574	0.149035
995.842897	0.150025
996.015202	0.147192
996.187488	0.143053
996.359757	0.141359
996.532007	0.143634
996.704239	0.143167
996.876452	0.142212
997.048648	0.140051
997.220825	0.138616
997.392984	0.139548
997.565124	0.141986
997.737247	0.145306
997.909351	0.147703
998.081437	0.146409
998.253505	0.145830
998.425554	0.146156
998.597586	0.144753
998.769599	0.146001
998.941594	0.146628
999.113571	0.144551
999.285529	0.143498
999.457469	0.141528
999.629391	0.143075
999.801295	0.143122
999.973181	0.144813
1000.145048	0.144571
1000.316897	0.145047
1000.488728	0.143956
1000.660541	0.144014
1000.832335	0.143446
1001.004111	0.144787
1001.175869	0.144904
1001.347609	0.144659
1001.519331	0.143216
1001.691034	0.145592
1001.862719	0.144422
1002.034386	0.146068
1002.206035	0.147163
1002.377665	0.145171
1002.549277	0.145131
1002.720871	0.143649
1002.892447	0.145796
1003.064004	0.146704
1003.235544	0.145618
1003.407065	0.145655
1003.578568	0.145603
1003.750052	0.145547
1003.921519	0.147199
1004.092967	0.145703
1004.264397	0.147052
1004.435809	0.148405
1004.607202	0.148468
1004.778577	0.151352
1004.949934	0.151379
1005.121273	0.150247
1005.292594	0.149118
1005.463896	0.149868
1005.635180	0.148169
1005.806446	0.148186
1005.977694	0.147507
1006.148923	0.147484
1006.320135	0.144293
1006.491328	0.145320
1006.662503	0.144250
1006.833659	0.144566
1007.004798	0.144904
1007.175918	0.147528
1007.347020	0.145657
1007.518103	0.145845
1007.689169	0.144661
1007.860216	0.145356
1008.031245	0.145447
1008.202256	0.146122
1008.373248	0.145781
1008.544223	0.143889
1008.715179	0.143721
1008.886117	0.144497
1009.057036	0.143414
1009.227938	0.144089
1009.398821	0.143420
1009.569686	0.142236
1009.740533	0.142342
1009.911361	0.142521
1010.082172	0.143401
1010.252964	0.143546
1010.423738	0.142694
1010.594493	0.142137
1010.765231	0.141720
1010.935950	0.141207
1011.106651	0.139326
1011.277334	0.138387
1011.447998	0.139053
1011.618645	0.139199
1011.789273	0.139172
1011.959882	0.139217
1012.130474	0.141424
1012.301048	0.141504
1012.471603	0.142087
1012.642140	0.145206
1012.812658	0.147066
1012.983159	0.147189
1013.153641	0.146601
1013.324105	0.146989
1013.494551	0.148824
1013.664979	0.147102
1013.835388	0.147108
1014.005779	0.146883
1014.176152	0.147625
1014.346507	0.146867
1014.516843	0.145959
1014.687162	0.145926
1014.857462	0.145046
1015.027744	0.143583
1015.198007	0.142767
1015.368252	0.142238
1015.538480	0.143028
1015.708689	0.140175
1015.878879	0.139924
1016.049052	0.140932
1016.219206	0.141576
1016.389342	0.141918
1016.559460	0.143740
1016.729559	0.144398
1016.899641	0.143121
1017.069704	0.142884
1017.239749	0.142614
1017.409775	0.143002
1017.579784	0.141434
1017.749774	0.139950
1017.919746	0.140928
1018.089700	0.141663
1018.259635	0.141731
1018.429553	0.143519
1018.599452	0.144186
1018.769333	0.144732
1018.939195	0.146041
1019.109040	0.147469
1019.278866	0.147778
1019.448674	0.145451
1019.618464	0.144952
1019.788235	0.146347
1019.957989	0.145147
1020.127724	0.145098
1020.297441	0.145153
1020.467139	0.143637
1020.636820	0.143972
1020.806482	0.145835
1020.976126	0.147045
1021.145752	0.146342
1021.315359	0.145671
1021.484948	0.148182
1021.654519	0.147302
1021.824072	0.148960
1021.993607	0.149079
1022.163123	0.149114
1022.332621	0.147362
1022.502101	0.147941
1022.671563	0.147406
1022.841007	0.147838
1023.010432	0.145336
1023.179839	0.145142
1023.349228	0.144120
1023.518598	0.143241
1023.687951	0.142633
1023.857285	0.142969
1024.026601	0.143795
1024.195899	0.144329
1024.365178	0.142826
1024.534439	0.144165
1024.703682	0.146467
1024.872907	0.147315
1025.042114	0.147096
1025.211302	0.146511
1025.380472	0.147713
1025.549624	0.145847
1025.718758	0.144038
1025.887873	0.144406
1026.056970	0.143382
1026.226049	0.141187
1026.395110	0.140636
1026.564153	0.142798
1026.733177	0.144327
1026.902183	0.144421
1027.071171	0.144598
1027.240141	0.144787
1027.409092	0.145824
1027.578026	0.146663
1027.746940	0.147867
1027.915837	0.148092
1028.084716	0.147700
1028.253576	0.147039
1028.422418	0.146909
1028.591242	0.147468
1028.760048	0.146326
1028.928835	0.146507
1029.097604	0.144977
1029.266355	0.142891
1029.435088	0.142145
1029.603803	0.140045
1029.772499	0.140294
1029.941177	0.141142
1030.109837	0.141416
1030.278478	0.144405
1030.447102	0.144360
1030.615707	0.147307
1030.784294	0.148401
1030.952863	0.148181
1031.121413	0.149663
1031.289945	0.149630
1031.458460	0.147018
1031.626955	0.145377
1031.795433	0.144246
1031.963892	0.141928
1032.132334	0.143003
1032.300756	0.142839
1032.469161	0.143259
1032.637548	0.142366
1032.805916	0.141070
1032.974266	0.140313
1033.142598	0.140894
1033.310911	0.140759
1033.479207	0.142729
1033.647484	0.140548
1033.815743	0.140231
1033.983983	0.139607
1034.152206	0.139519
1034.320410	0.139672
1034.488596	0.141300
1034.656764	0.141494
1034.824914	0.140912
1034.993045	0.139545
1035.161158	0.139172
1035.329253	0.139291
1035.497330	0.140702
1035.665388	0.142168
1035.833428	0.142254
1036.001450	0.142642
1036.169454	0.142794
1036.337440	0.144850
1036.505407	0.145435
1036.673356	0.145886
1036.841287	0.148110
1037.009200	0.146688
1037.177094	0.148179
1037.344970	0.149147
1037.512828	0.150519
1037.680668	0.151159
1037.848489	0.148299
1038.016293	0.147403
1038.184078	0.148495
1038.351845	0.145912
1038.519593	0.146726
1038.687324	0.144474
1038.855036	0.143925
1039.022730	0.141724
1039.190406	0.140537
1039.358063	0.142166
1039.525702	0.143423
1039.693323	0.141304
1039.860926	0.143338
1040.028511	0.142797
1040.196077	0.143174
1040.363625	0.144892
1040.531155	0.145693
1040.698667	0.147100
1040.866161	0.146592
1041.033636	0.145759
1041.201093	0.144912
1041.368532	0.142340
1041.535952	0.142059
1041.703355	0.142200
1041.870739	0.141418
1042.038105	0.139921
1042.205452	0.139432
1042.372782	0.139431
1042.540093	0.140681
1042.707386	0.141701
1042.874661	0.143247
1043.041918	0.144203
1043.209156	0.143778
1043.376376	0.144800
1043.543578	0.146747
1043.710762	0.146816
1043.877927	0.147047
1044.045074	0.145332
1044.212203	0.145359
1044.379314	0.145503
1044.546407	0.145214
1044.713481	0.146508
1044.880537	0.143945
1045.047575	0.143621
1045.214595	0.142862
1045.381596	0.143814
1045.548579	0.144260
1045.715544	0.143945
1045.882491	0.142331
1046.049420	0.142460
1046.216330	0.140470
1046.383222	0.140120
1046.550096	0.139697
1046.716951	0.140790
1046.883789	0.139864
1047.050608	0.139652
1047.217409	0.141917
1047.384192	0.142343
1047.550956	0.142445
1047.717703	0.143045
1047.884431	0.142940
1048.051140	0.142345
1048.217832	0.142344
1048.384505	0.143264
1048.551161	0.142482
1048.717798	0.143410
1048.884416	0.143977
1049.051017	0.141771
1049.217599	0.141571
1049.384163	0.141164
1049.550709	0.142808
1049.717237	0.141714
1049.883746	0.141514
1050.050237	0.144534
1050.216710	0.142746
1050.383165	0.142622
1050.549601	0.144295
1050.716019	0.145764
1050.882420	0.149033
1051.048801	0.148117
1051.215165	0.149430
1051.381510	0.148701
1051.547837	0.147245
1051.714146	0.145785
1051.880437	0.145777
1052.046709	0.147487
1052.212964	0.146879
1052.379200	0.144589
1052.545417	0.144353
1052.711617	0.143600
1052.877798	0.143144
1053.043961	0.143016
1053.210106	0.143849
1053.376233	0.144642
1053.542341	0.141382
1053.708432	0.138734
1053.874504	0.138741
1054.040557	0.139109
1054.206593	0.138563
1054.372610	0.138415
1054.538609	0.138624
1054.704590	0.138422
1054.870553	0.138097
1055.036497	0.139602
1055.202424	0.140680
1055.368331	0.139712
1055.534221	0.140050
1055.700093	0.142103
1055.865946	0.142908
1056.031781	0.142761
1056.197598	0.140505
1056.363397	0.140803
1056.529177	0.142338
1056.694939	0.143468
1056.860683	0.145305
1057.026409	0.145602
1057.192116	0.144637
1057.357806	0.145019
1057.523477	0.145891
1057.689130	0.147837
1057.854764	0.147368
1058.020381	0.146146
1058.185979	0.143672
1058.351559	0.144127
1058.517120	0.146358
1058.682664	0.144209
1058.848189	0.144787
1059.013696	0.143591
1059.179185	0.144769
1059.344656	0.144958
1059.510108	0.143838
1059.675542	0.147259
1059.840958	0.146643
1060.006356	0.143056
1060.171735	0.144433
1060.337096	0.144311
1060.502439	0.145574
1060.667764	0.145593
1060.833071	0.144707
1060.998359	0.145714
1061.163629	0.145074
1061.328881	0.144603
1061.494115	0.146375
1061.659330	0.144858
1061.824527	0.144343
1061.989706	0.144160
1062.154867	0.142607
1062.320010	0.143050
1062.485134	0.143651
1062.650240	0.143218
1062.815328	0.144838
1062.980398	0.143424
1063.145449	0.145928
1063.310482	0.145935
1063.475497	0.146045
1063.640494	0.147372
1063.805473	0.147456
1063.970433	0.148406
1064.135375	0.149100
1064.300299	0.148491
1064.465204	0.149206
1064.630092	0.148207
1064.794961	0.148487
1064.959812	0.147311
1065.124645	0.147760
1065.289459	0.146973
1065.454256	0.144359
1065.619034	0.144432
1065.783793	0.144979
1065.948535	0.146435
1066.113258	0.145645
1066.277964	0.145046
1066.442651	0.146326
1066.607319	0.146405
1066.771970	0.146968
1066.936602	0.150148
1067.101216	0.151075
1067.265812	0.151063
1067.430389	0.149756
1067.594949	0.150735
1067.759490	0.151336
1067.924013	0.150511
1068.088518	0.150805
1068.253004	0.151787
1068.417472	0.150541
1068.581922	0.149667
1068.746354	0.148092
1068.910768	0.146730
1069.075163	0.146957
1069.239540	0.143694
1069.403899	0.144000
1069.568240	0.143179
1069.732562	0.143515
1069.896866	0.142682
1070.061152	0.143514
1070.225420	0.144764
1070.389670	0.146797
1070.553901	0.147031
1070.718114	0.150485
1070.882309	0.149834
1071.046486	0.149301
1071.210644	0.151179
1071.374784	0.153130
1071.538906	0.153182
1071.703010	0.153202
1071.867096	0.151863
1072.031163	0.152120
1072.195212	0.152859
1072.359243	0.154213
1072.523256	0.157014
1072.687250	0.155663
1072.851226	0.155100
1073.015184	0.155936
1073.179124	0.156500
1073.343045	0.158166
1073.506949	0.156424
1073.670834	0.155592
1073.834701	0.155385
1073.998549	0.154778
1074.162380	0.154582
1074.326192	0.153211
1074.489986	0.149483
1074.653761	0.147033
1074.817519	0.146659
1074.981258	0.149964
1075.144979	0.151132
1075.308682	0.150635
1075.472367	0.149415
1075.636033	0.149380
1075.799681	0.153777
1075.963311	0.155591
1076.126923	0.156367
1076.290516	0.156242
1076.454092	0.153668
1076.617649	0.151208
1076.781187	0.151072
1076.944708	0.150678
1077.108210	0.149569
1077.271695	0.147214
1077.435160	0.148021
1077.598608	0.149307
1077.762038	0.150680
1077.925449	0.152203
1078.088842	0.154854
1078.252217	0.157433
1078.415573	0.158518
1078.578912	0.158932
1078.742232	0.158944
1078.905534	0.158908
1079.068817	0.158248
1079.232083	0.156565
1079.395330	0.156433
1079.558559	0.157113
1079.721770	0.155496
1079.884962	0.156781
1080.048136	0.155929
1080.211293	0.155717
1080.374430	0.157046
1080.537550	0.157823
1080.700651	0.156015
1080.863735	0.155825
1081.026800	0.156890
1081.189846	0.156244
1081.352875	0.156483
1081.515885	0.159119
1081.678877	0.154924
1081.841851	0.152899
1082.004807	0.152652
1082.167744	0.155037
1082.330663	0.157478
1082.493564	0.155006
1082.656447	0.156387
1082.819312	0.156363
1082.982158	0.155590
1083.144986	0.160361
1083.307796	0.160030
1083.470587	0.160400
1083.633361	0.159409
1083.796116	0.158812
1083.958853	0.158855
1084.121571	0.158181
1084.284272	0.158355
1084.446954	0.157740
1084.609618	0.156666
1084.772264	0.159207
1084.934892	0.159268
1085.097501	0.158896
1085.260092	0.158468
1085.422665	0.158654
1085.585220	0.158983
1085.747756	0.156830
1085.910274	0.157656
1086.072774	0.155954
1086.235256	0.154625
1086.397720	0.154889
1086.560165	0.155435
1086.722592	0.153912
1086.885001	0.154553
1087.047392	0.153829
1087.209764	0.155635
1087.372119	0.155058
1087.534455	0.156975
1087.696772	0.157074
1087.859072	0.157426
1088.021353	0.158228
1088.183616	0.157984
1088.345861	0.158660
1088.508088	0.157947
1088.670296	0.158505
1088.832486	0.157849
1088.994658	0.157196
1089.156812	0.155555
1089.318948	0.152848
1089.481065	0.151267
1089.643164	0.150058
1089.805245	0.150955
1089.967308	0.154223
1090.129352	0.152109
1090.291378	0.153740
1090.453386	0.154923
1090.615376	0.156194
1090.777347	0.157148
1090.939301	0.160522
1091.101236	0.163021
1091.263153	0.160885
1091.425051	0.160600
1091.586932	0.162378
1091.748794	0.163165
1091.910638	0.162325
1092.072463	0.164656
1092.234271	0.166744
1092.396060	0.163559
1092.557831	0.162195
1092.719584	0.165419
1092.881319	0.164931
1093.043035	0.162773
1093.204733	0.162842
1093.366413	0.160388
1093.528075	0.159052
1093.689718	0.160426
1093.851343	0.165024
1094.012950	0.167188
1094.174539	0.161384
1094.336110	0.159252
1094.497662	0.157380
1094.659196	0.157374
1094.820712	0.160630
1094.982210	0.161709
1095.143689	0.158742
1095.305151	0.153803
1095.466594	0.153940
1095.628018	0.157746
1095.789425	0.156117
1095.950813	0.160740
1096.112183	0.162010
1096.273535	0.161894
1096.434869	0.160396
1096.596184	0.162031
1096.757482	0.164155
1096.918761	0.164382
1097.080021	0.166592
1097.241264	0.173895
1097.402488	0.169646
1097.563694	0.166822
1097.724882	0.166582
1097.886052	0.167201
1098.047203	0.168077
1098.208336	0.169320
1098.369451	0.168846
1098.530548	0.166534
1098.691627	0.159921
1098.852687	0.161304
1099.013729	0.161442
1099.174753	0.158199
1099.335758	0.156600
1099.496746	0.157058
1099.657715	0.154649
1099.818666	0.152307
1099.979599	0.149085
1100.140513	0.152298
1100.301409	0.153950
1100.462287	0.156063
1100.623147	0.160356
1100.783989	0.162016
1100.944812	0.160889
1101.105617	0.163652
1101.266404	0.166330
1101.427173	0.164752
1101.587923	0.166307
1101.748656	0.167731
1101.909370	0.163969
1102.070066	0.163650
1102.230743	0.164262
1102.391403	0.165137
1102.552044	0.164240
1102.712667	0.163037
1102.873271	0.165986
1103.033858	0.164461
1103.194426	0.165380
1103.354976	0.164208
1103.515508	0.163220
1103.676021	0.160234
1103.836517	0.159308
1103.996994	0.160096
1104.157453	0.161189
1104.317893	0.165463
1104.478316	0.165431
1104.638720	0.162830
1104.799106	0.170581
1104.959474	0.173519
1105.119823	0.175367
1105.280155	0.173756
1105.440468	0.169601
1105.600763	0.167670
1105.761039	0.163984
1105.921298	0.164905
1106.081538	0.165803
1106.241760	0.160599
1106.401964	0.158214
1106.562149	0.159346
1106.722316	0.160627
1106.882465	0.165661
1107.042596	0.166374
1107.202709	0.163348
1107.362803	0.160971
1107.522879	0.159634
1107.682937	0.162647
1107.842977	0.164164
1108.002999	0.164260
1108.163002	0.166259
1108.322987	0.168730
1108.482954	0.169592
1108.642902	0.173159
1108.802833	0.173966
1108.962745	0.171817
1109.122639	0.169673
1109.282515	0.168433
1109.442372	0.166389
1109.602211	0.165175
1109.762032	0.159923
1109.921835	0.161421
1110.081620	0.160814
1110.241386	0.161380
1110.401134	0.164458
1110.560864	0.163958
1110.720576	0.168296
1110.880269	0.171172
1111.039945	0.171183
1111.199602	0.172770
1111.359240	0.174516
1111.518861	0.171121
1111.678463	0.172545
1111.838047	0.172969
1111.997613	0.178239
1112.157161	0.175016
1112.316690	0.178145
1112.476202	0.180122
1112.635695	0.183569
1112.795169	0.179311
1112.954626	0.184185
1113.114064	0.183143
1113.273484	0.182809
1113.432886	0.177355
1113.592270	0.173645
1113.751635	0.167731
1113.910983	0.168045
1114.070312	0.163219
1114.229622	0.163486
1114.388915	0.163793
1114.548189	0.166635
1114.707445	0.166673
1114.866683	0.169278
1115.025903	0.173988
1115.185104	0.174646
1115.344287	0.169373
1115.503452	0.173132
1115.662599	0.174428
1115.821727	0.171516
1115.980838	0.168561
1116.139930	0.167071
1116.299004	0.169477
1116.458059	0.171730
1116.617097	0.172417
1116.776116	0.174082
1116.935117	0.171014
1117.094099	0.168896
1117.253064	0.171333
1117.412010	0.171359
1117.570938	0.173176
1117.729848	0.166865
1117.888740	0.160849
1118.047613	0.164352
1118.206468	0.167812
1118.365305	0.172267
1118.524124	0.175586
1118.682924	0.173028
1118.841707	0.172152
1119.000471	0.173615
1119.159216	0.173972
1119.317944	0.177600
1119.476653	0.177999
1119.635344	0.176002
1119.794017	0.170025
1119.952672	0.171287
1120.111308	0.172239
1120.269927	0.173070
1120.428527	0.172542
1120.587108	0.172836
1120.745672	0.170419
1120.904217	0.165897
1121.062744	0.163533
1121.221253	0.169843
1121.379744	0.167464
1121.538216	0.170726
1121.696671	0.169270
1121.855107	0.173458
1122.013524	0.178983
1122.171924	0.184641
1122.330305	0.186309
1122.488668	0.187093
1122.647013	0.185931
1122.805340	0.184570
1122.963648	0.183527
1123.121938	0.183754
1123.280210	0.176544
1123.438464	0.177380
1123.596700	0.171697
1123.754917	0.171382
1123.913116	0.175911
1124.071297	0.171377
1124.229459	0.170887
1124.387604	0.169794
1124.545730	0.173640
1124.703838	0.176002
1124.861928	0.169123
1125.019999	0.173040
1125.178052	0.173192
1125.336088	0.163959
1125.494104	0.167500
1125.652103	0.166182
1125.810083	0.169029
1125.968045	0.168277
1126.125989	0.165041
1126.283915	0.165590
1126.441823	0.165703
1126.599712	0.163571
1126.757583	0.172606
1126.915436	0.170622
1127.073270	0.174286
1127.231087	0.171764
1127.388885	0.171188
1127.546665	0.173621
1127.704426	0.176041
1127.862170	0.172218
1128.019895	0.169498
1128.177602	0.163120
1128.335291	0.158615
1128.492961	0.157078
1128.650614	0.160381
1128.808248	0.158930
1128.965864	0.158694
1129.123461	0.159940
1129.281041	0.165354
1129.438602	0.171802
1129.596145	0.172899
1129.753670	0.172235
1129.911176	0.170675
1130.068665	0.171122
1130.226135	0.170122
1130.383587	0.172128
1130.541020	0.165581
1130.698436	0.159754
1130.855833	0.159325
1131.013212	0.160650
1131.170573	0.174891
1131.327915	0.178785
1131.485239	0.174706
1131.642545	0.176219
1131.799833	0.177014
1131.957103	0.179958
1132.114354	0.182105
1132.271588	0.179329
1132.428803	0.178109
1132.585999	0.166068
1132.743178	0.163181
1132.900338	0.168932
1133.057480	0.169855
1133.214604	0.169762
1133.371710	0.173541
1133.528797	0.174781
1133.685866	0.183802
1133.842917	0.184438
1133.999950	0.187334
1134.156964	0.188021
1134.313960	0.175098
1134.470938	0.174947
1134.627898	0.170837
1134.784840	0.174616
1134.941763	0.172877
1135.098668	0.173822
1135.255555	0.174794
1135.412424	0.174471
1135.569274	0.175668
1135.726107	0.181718
1135.882921	0.180797
1136.039716	0.182204
1136.196494	0.172924
1136.353253	0.167402
1136.509995	0.156893
1136.666717	0.158327
1136.823422	0.162796
1136.980109	0.163433
1137.136777	0.165390
1137.293427	0.163797
1137.450059	0.162175
1137.606672	0.161284
1137.763267	0.160438
1137.919844	0.161618
1138.076403	0.164279
1138.232944	0.161552
1138.389466	0.155262
1138.545971	0.149529
1138.702457	0.149492
1138.858924	0.148999
1139.015374	0.153283
1139.171805	0.155861
1139.328218	0.158414
1139.484613	0.152878
1139.640990	0.151114
1139.797348	0.159422
1139.953688	0.163442
1140.110010	0.165528
1140.266314	0.162857
1140.422600	0.163381
1140.578867	0.167796
1140.735116	0.165845
1140.891347	0.162545
1141.047559	0.161910
1141.203754	0.161480
1141.359930	0.160959
1141.516088	0.154308
1141.672228	0.156145
1141.828349	0.154102
1141.984452	0.148428
1142.140537	0.148293
1142.296604	0.144661
1142.452653	0.141945
1142.608683	0.142885
1142.764695	0.147305
1142.920689	0.152524
1143.076665	0.152631
1143.232622	0.154214
1143.388562	0.161131
1143.544483	0.156181
1143.700385	0.160228
1143.856270	0.163448
1144.012136	0.162018
1144.167985	0.161456
1144.323814	0.160086
1144.479626	0.161150
1144.635420	0.158506
1144.791195	0.150317
1144.946952	0.149805
1145.102691	0.161006
1145.258411	0.163705
1145.414113	0.154071
1145.569798	0.149205
1145.725463	0.151190
1145.881111	0.150514
1146.036741	0.150332
1146.192352	0.157105
1146.347945	0.156414
1146.503519	0.150999
1146.659076	0.146559
1146.814614	0.159133
1146.970134	0.160703
1147.125636	0.150436
1147.281120	0.154180
1147.436585	0.153055
1147.592032	0.152115
1147.747461	0.158745
1147.902872	0.157060
1148.058265	0.162812
1148.213639	0.158248
1148.368995	0.150453
1148.524333	0.160349
1148.679653	0.151258
1148.834954	0.151436
1148.990237	0.157700
1149.145502	0.154329
1149.300749	0.154918
1149.455977	0.151383
1149.611188	0.148452
1149.766380	0.155618
1149.921553	0.149212
1150.076709	0.156101
1150.231846	0.158418
1150.386966	0.147168
1150.542066	0.148817
1150.697149	0.151565
1150.852214	0.156007
1151.007260	0.155007
1151.162288	0.155909
1151.317298	0.156296
1151.472289	0.154325
1151.627263	0.152543
1151.782218	0.152688
1151.937155	0.155615
1152.092073	0.149951
1152.246974	0.142372
1152.401856	0.146417
1152.556720	0.148156
1152.711566	0.146889
1152.866393	0.150818
1153.021203	0.162882
1153.175994	0.161493
1153.330767	0.154686
1153.485521	0.159028
1153.640258	0.160557
1153.794976	0.156180
1153.949676	0.160403
1154.104358	0.168040
1154.259021	0.156379
1154.413667	0.145776
1154.568294	0.152980
1154.722903	0.163015
1154.877493	0.153605
1155.032066	0.154146
1155.186620	0.153068
1155.341156	0.146185
1155.495674	0.152197
1155.650173	0.162098
1155.804654	0.159655
1155.959118	0.164164
1156.113562	0.160807
1156.267989	0.167152
1156.422397	0.166636
1156.576788	0.159691
1156.731160	0.151154
1156.885513	0.139851
1157.039849	0.139291
1157.194166	0.137493
1157.348465	0.133439
1157.502746	0.132785
1157.657009	0.140193
1157.811253	0.138936
1157.965479	0.145727
1158.119687	0.150641
1158.273877	0.152515
1158.428048	0.159684
1158.582201	0.166748
1158.736337	0.166837
1158.890453	0.165245
1159.044552	0.157651
1159.198632	0.156845
1159.352694	0.165550
1159.506738	0.175631
1159.660764	0.176568
1159.814771	0.169522
1159.968761	0.163505
1160.122732	0.158021
1160.276685	0.160101
1160.430619	0.156740
1160.584535	0.162981
1160.738434	0.155140
1160.892313	0.154102
1161.046175	0.154289
1161.200019	0.154384
1161.353844	0.157520
1161.507651	0.158227
1161.661440	0.160086
1161.815210	0.163136
1161.968962	0.150304
1162.122697	0.158545
1162.276412	0.148486
1162.430110	0.159841
1162.583789	0.150130
1162.737451	0.150265
1162.891094	0.149340
1163.044718	0.149552
1163.198325	0.146646
1163.351913	0.156247
1163.505483	0.147402
1163.659035	0.150487
1163.812569	0.140796
1163.966084	0.152080
1164.119581	0.143956
1164.273060	0.142956
1164.426521	0.131110
1164.579964	0.131717
1164.733388	0.130574
1164.886794	0.134641
1165.040182	0.143852
1165.193551	0.143495
1165.346903	0.135107
1165.500236	0.138237
1165.653551	0.141743
1165.806848	0.150892
1165.960126	0.142801
1166.113386	0.139969
1166.266628	0.139457
1166.419852	0.128810
1166.573058	0.123544
1166.726245	0.125289
1166.879414	0.122348
1167.032565	0.116469
1167.185698	0.108602
1167.338812	0.128363
1167.491909	0.133381
1167.644987	0.134468
1167.798046	0.131715
1167.951088	0.141030
1168.104111	0.153191
1168.257117	0.158948
1168.410103	0.154418
1168.563072	0.158620
1168.716023	0.144792
1168.868955	0.136270
1169.021869	0.128594
1169.174765	0.132985
1169.327642	0.129483
1169.480501	0.122443
1169.633343	0.124249
1169.786165	0.132030
1169.938970	0.136054
1170.091757	0.128748
1170.244525	0.142482
1170.397275	0.144477
1170.550007	0.145314
1170.702720	0.131482
1170.855415	0.132290
1171.008092	0.134204
1171.160751	0.138322
1171.313392	0.136824
1171.466014	0.174005
1171.618619	0.158024
1171.771205	0.158024
1171.923772	0.158024
