sample name	sample
index	889
start time	 04-08-2021  02:43:34 PM


Wavelength (nm)	Absorbance
494.344910	0.035591
494.563924	0.035591
494.782919	0.035591
495.001897	0.020834
495.220856	0.008218
495.439797	0.005668
495.658719	0.006638
495.877624	0.001534
496.096510	0.000609
496.315378	0.002380
496.534227	-0.002449
496.753059	0.010539
496.971872	0.009313
497.190667	0.052075
497.409444	0.076284
497.628203	0.087186
497.846943	0.095108
498.065665	0.099089
498.284369	0.103029
498.503055	0.106567
498.721723	0.108406
498.940372	0.109932
499.159003	0.110065
499.377616	0.111156
499.596210	0.111097
499.814787	0.110512
500.033345	0.111227
500.251885	0.109360
500.470406	0.108863
500.688910	0.108263
500.907395	0.108620
501.125862	0.110252
501.344311	0.110705
501.562742	0.111279
501.781154	0.112355
501.999548	0.112700
502.217924	0.114136
502.436282	0.115442
502.654621	0.115723
502.872942	0.115362
503.091245	0.115420
503.309530	0.115670
503.527797	0.116468
503.746045	0.116520
503.964275	0.116553
504.182487	0.117187
504.400681	0.116932
504.618856	0.116703
504.837013	0.117273
505.055152	0.116679
505.273273	0.116420
505.491376	0.115330
505.709460	0.115176
505.927526	0.115201
506.145574	0.115847
506.363604	0.115683
506.581615	0.116303
506.799608	0.115947
507.017583	0.116389
507.235540	0.116466
507.453478	0.117259
507.671399	0.117605
507.889301	0.118034
508.107185	0.117160
508.325050	0.117710
508.542898	0.118085
508.760727	0.118495
508.978538	0.118281
509.196330	0.118644
509.414105	0.119472
509.631861	0.120288
509.849599	0.119988
510.067319	0.120700
510.285021	0.121100
510.502704	0.121740
510.720369	0.121435
510.938016	0.121973
511.155645	0.121960
511.373255	0.121490
511.590848	0.121580
511.808422	0.121532
512.025977	0.121953
512.243515	0.122260
512.461034	0.121937
512.678536	0.122292
512.896018	0.123702
513.113483	0.124089
513.330930	0.124420
513.548358	0.124259
513.765768	0.125536
513.983160	0.125323
514.200533	0.125392
514.417889	0.125600
514.635226	0.125849
514.852545	0.124412
515.069845	0.124606
515.287128	0.124972
515.504392	0.124605
515.721638	0.124620
515.938866	0.124504
516.156075	0.125163
516.373267	0.125422
516.590440	0.126662
516.807594	0.127487
517.024731	0.127749
517.241850	0.127814
517.458950	0.128262
517.676032	0.127920
517.893095	0.128825
518.110141	0.128539
518.327168	0.129124
518.544177	0.128716
518.761168	0.129159
518.978141	0.129775
519.195095	0.130420
519.412031	0.131061
519.628949	0.131431
519.845849	0.131808
520.062731	0.132003
520.279594	0.132191
520.496439	0.132854
520.713266	0.133055
520.930074	0.133225
521.146865	0.133331
521.363637	0.133362
521.580391	0.133978
521.797127	0.133397
522.013844	0.133183
522.230543	0.133208
522.447224	0.132807
522.663887	0.133116
522.880532	0.132829
523.097158	0.133400
523.313766	0.133574
523.530356	0.132925
523.746928	0.134158
523.963481	0.135241
524.180017	0.135678
524.396534	0.136192
524.613032	0.136707
524.829513	0.137321
525.045975	0.137421
525.262420	0.137934
525.478845	0.138296
525.695253	0.138453
525.911643	0.138957
526.128014	0.139054
526.344367	0.139105
526.560702	0.139210
526.777018	0.139302
526.993316	0.139351
527.209597	0.139283
527.425858	0.140526
527.642102	0.141119
527.858328	0.140672
528.074535	0.141182
528.290724	0.141562
528.506894	0.141591
528.723047	0.142259
528.939181	0.142456
529.155297	0.143131
529.371395	0.142971
529.587475	0.142369
529.803536	0.142655
530.019579	0.142896
530.235604	0.143731
530.451611	0.143505
530.667600	0.143364
530.883570	0.144197
531.099522	0.144176
531.315456	0.144483
531.531372	0.144888
531.747269	0.145415
531.963148	0.145219
532.179009	0.145657
532.394852	0.146278
532.610676	0.147068
532.826482	0.147091
533.042271	0.148098
533.258040	0.148309
533.473792	0.149046
533.689525	0.149154
533.905240	0.149594
534.120937	0.149361
534.336616	0.150110
534.552277	0.150351
534.767919	0.150656
534.983543	0.151022
535.199149	0.151871
535.414736	0.152379
535.630306	0.152691
535.845857	0.153639
536.061390	0.153477
536.276904	0.153949
536.492401	0.153757
536.707879	0.154000
536.923339	0.154259
537.138781	0.154513
537.354204	0.154443
537.569610	0.154838
537.784997	0.155049
538.000366	0.155875
538.215716	0.156010
538.431049	0.156909
538.646363	0.156952
538.861659	0.156637
539.076937	0.156728
539.292196	0.157322
539.507438	0.157282
539.722661	0.157302
539.937866	0.157746
540.153052	0.158040
540.368221	0.158403
540.583371	0.159223
540.798503	0.160006
541.013617	0.160376
541.228712	0.160463
541.443789	0.160871
541.658848	0.161490
541.873889	0.161659
542.088912	0.161533
542.303916	0.162126
542.518902	0.161933
542.733870	0.162553
542.948820	0.162704
543.163752	0.163429
543.378665	0.163956
543.593560	0.164099
543.808437	0.164621
544.023295	0.165561
544.238136	0.165151
544.452958	0.165447
544.667762	0.165591
544.882548	0.165987
545.097315	0.165770
545.312064	0.166049
545.526795	0.166657
545.741508	0.166941
545.956203	0.166663
546.170879	0.167084
546.385537	0.167292
546.600177	0.167189
546.814799	0.167243
547.029402	0.167913
547.243988	0.167541
547.458555	0.167582
547.673103	0.167340
547.887634	0.168162
548.102146	0.168129
548.316640	0.168883
548.531116	0.169208
548.745574	0.169457
548.960013	0.169242
549.174435	0.170275
549.388838	0.170223
549.603222	0.170355
549.817589	0.170337
550.031937	0.170710
550.246267	0.170865
550.460579	0.171410
550.674873	0.171819
550.889148	0.172398
551.103405	0.172730
551.317644	0.173051
551.531865	0.173593
551.746068	0.173688
551.960252	0.173885
552.174418	0.173507
552.388566	0.173357
552.602696	0.173457
552.816807	0.173359
553.030900	0.173329
553.244975	0.173707
553.459032	0.174370
553.673070	0.174428
553.887091	0.174473
554.101093	0.174872
554.315077	0.174881
554.529042	0.175280
554.742990	0.175486
554.956919	0.175701
555.170830	0.175786
555.384722	0.176075
555.598597	0.176428
555.812453	0.177057
556.026291	0.177254
556.240111	0.177644
556.453913	0.177784
556.667696	0.178096
556.881461	0.178425
557.095208	0.178541
557.308937	0.178546
557.522647	0.178737
557.736339	0.178789
557.950013	0.179270
558.163669	0.179468
558.377307	0.179835
558.590926	0.180252
558.804527	0.180322
559.018110	0.180466
559.231675	0.180626
559.445221	0.180928
559.658749	0.181037
559.872259	0.181082
560.085751	0.181307
560.299225	0.181461
560.512680	0.181273
560.726117	0.181553
560.939536	0.181756
561.152937	0.181597
561.366319	0.181883
561.579683	0.181912
561.793029	0.182085
562.006357	0.182068
562.219667	0.182112
562.432958	0.182498
562.646231	0.182250
562.859486	0.182769
563.072723	0.183553
563.285941	0.183817
563.499141	0.183992
563.712323	0.183468
563.925487	0.183751
564.138632	0.183715
564.351760	0.183656
564.564869	0.184118
564.777960	0.184097
564.991032	0.183910
565.204087	0.183922
565.417123	0.184553
565.630141	0.185884
565.843140	0.185991
566.056122	0.186106
566.269085	0.186616
566.482030	0.186467
566.694957	0.186600
566.907866	0.186949
567.120756	0.186967
567.333628	0.186934
567.546482	0.186621
567.759318	0.186827
567.972135	0.187696
568.184935	0.187349
568.397716	0.188062
568.610478	0.188192
568.823223	0.187897
569.035949	0.187765
569.248657	0.187877
569.461347	0.188028
569.674019	0.188242
569.886672	0.187819
570.099308	0.188089
570.311925	0.188062
570.524523	0.188285
570.737104	0.188837
570.949666	0.189281
571.162210	0.189612
571.374736	0.189877
571.587244	0.190316
571.799733	0.190414
572.012205	0.190562
572.224658	0.190899
572.437092	0.190994
572.649509	0.191041
572.861907	0.191182
573.074287	0.191162
573.286649	0.191149
573.498993	0.191315
573.711318	0.191477
573.923625	0.191768
574.135914	0.191521
574.348185	0.191713
574.560438	0.191637
574.772672	0.191685
574.984888	0.191726
575.197086	0.191919
575.409266	0.192024
575.621427	0.192197
575.833570	0.192462
576.045695	0.192879
576.257802	0.192786
576.469890	0.193276
576.681961	0.193449
576.894013	0.193390
577.106046	0.193993
577.318062	0.193928
577.530059	0.194333
577.742039	0.194682
577.954000	0.194560
578.165942	0.194647
578.377867	0.194386
578.589773	0.194561
578.801661	0.194862
579.013531	0.194527
579.225382	0.194617
579.437216	0.194630
579.649031	0.194742
579.860828	0.195150
580.072606	0.195577
580.284367	0.195476
580.496109	0.195520
580.707833	0.195930
580.919539	0.196048
581.131227	0.196111
581.342896	0.196109
581.554547	0.195908
581.766180	0.195924
581.977795	0.196334
582.189391	0.197410
582.400969	0.197664
582.612529	0.197647
582.824071	0.197691
583.035595	0.198095
583.247100	0.198461
583.458587	0.198598
583.670056	0.198631
583.881506	0.198712
584.092939	0.198389
584.304353	0.198839
584.515749	0.199251
584.727127	0.199715
584.938486	0.199683
585.149828	0.199714
585.361151	0.199933
585.572456	0.200397
585.783742	0.200553
585.995011	0.200935
586.206261	0.200963
586.417493	0.200836
586.628706	0.201014
586.839902	0.201267
587.051079	0.201551
587.262238	0.201758
587.473379	0.202108
587.684502	0.202547
587.895606	0.202176
588.106692	0.202339
588.317760	0.202550
588.528810	0.202622
588.739841	0.202883
588.950855	0.202878
589.161850	0.203020
589.372827	0.202903
589.583785	0.202491
589.794726	0.202525
590.005648	0.202690
590.216552	0.203021
590.427437	0.203683
590.638305	0.203827
590.849154	0.203833
591.059985	0.203879
591.270798	0.204042
591.481592	0.204014
591.692369	0.204564
591.903127	0.204574
592.113867	0.204659
592.324588	0.204179
592.535292	0.204240
592.745977	0.204638
592.956644	0.204566
593.167293	0.204882
593.377923	0.205067
593.588536	0.205106
593.799130	0.205001
594.009706	0.205146
594.220263	0.205259
594.430803	0.205699
594.641324	0.205578
594.851827	0.206241
595.062312	0.206123
595.272778	0.206626
595.483227	0.206953
595.693657	0.207065
595.904069	0.206949
596.114462	0.207383
596.324838	0.207071
596.535195	0.207292
596.745534	0.207427
596.955855	0.207832
597.166157	0.208135
597.376441	0.208353
597.586707	0.208803
597.796955	0.209090
598.007185	0.209031
598.217396	0.209366
598.427589	0.209492
598.637764	0.210024
598.847921	0.209775
599.058060	0.209956
599.268180	0.210424
599.478282	0.210756
599.688366	0.211003
599.898431	0.211130
600.108479	0.211181
600.318508	0.211131
600.528519	0.210882
600.738511	0.211124
600.948486	0.211001
601.158442	0.210619
601.368380	0.210704
601.578300	0.210807
601.788202	0.210981
601.998085	0.211253
602.207950	0.212046
602.417797	0.212164
602.627626	0.212378
602.837436	0.212418
603.047228	0.212635
603.257002	0.212748
603.466758	0.212963
603.676496	0.213427
603.886215	0.213663
604.095916	0.213613
604.305599	0.213666
604.515264	0.213935
604.724910	0.214410
604.934538	0.214610
605.144148	0.214603
605.353740	0.214889
605.563314	0.214898
605.772869	0.214649
605.982406	0.214478
606.191925	0.214837
606.401425	0.214960
606.610908	0.214760
606.820372	0.214844
607.029818	0.215065
607.239246	0.215302
607.448655	0.215285
607.658047	0.215645
607.867420	0.216160
608.076775	0.216118
608.286111	0.216265
608.495430	0.216504
608.704730	0.216780
608.914012	0.216852
609.123275	0.216776
609.332521	0.216766
609.541748	0.216695
609.750957	0.216702
609.960148	0.217053
610.169321	0.217200
610.378475	0.217227
610.587611	0.217182
610.796729	0.217236
611.005829	0.217298
611.214910	0.217572
611.423974	0.218107
611.633019	0.218040
611.842045	0.217812
612.051054	0.218306
612.260044	0.218581
612.469017	0.218850
612.677970	0.219174
612.886906	0.219296
613.095824	0.219583
613.304723	0.219322
613.513604	0.219658
613.722467	0.220001
613.931311	0.219895
614.140138	0.219940
614.348946	0.219998
614.557736	0.220273
614.766507	0.220348
614.975261	0.220545
615.183996	0.220881
615.392713	0.221007
615.601412	0.221216
615.810092	0.221195
616.018754	0.221424
616.227399	0.221754
616.436024	0.221743
616.644632	0.222203
616.853222	0.222500
617.061793	0.222648
617.270346	0.222677
617.478880	0.222901
617.687397	0.222939
617.895895	0.223021
618.104375	0.223186
618.312837	0.223240
618.521281	0.223131
618.729706	0.222967
618.938113	0.223340
619.146502	0.223607
619.354873	0.223769
619.563226	0.223879
619.771560	0.224046
619.979876	0.224116
620.188174	0.224262
620.396453	0.224273
620.604715	0.224300
620.812958	0.223981
621.021183	0.224134
621.229390	0.224284
621.437578	0.224581
621.645748	0.224671
621.853900	0.224706
622.062034	0.224689
622.270150	0.225167
622.478247	0.225341
622.686326	0.225822
622.894387	0.226113
623.102430	0.225957
623.310454	0.225612
623.518461	0.225722
623.726449	0.225612
623.934418	0.225950
624.142370	0.225742
624.350303	0.226138
624.558218	0.226199
624.766115	0.226394
624.973994	0.226838
625.181855	0.227421
625.389697	0.227785
625.597521	0.228039
625.805327	0.228249
626.013114	0.228556
626.220883	0.228697
626.428634	0.228751
626.636367	0.228797
626.844082	0.228741
627.051778	0.229067
627.259457	0.229206
627.467117	0.229305
627.674758	0.229079
627.882382	0.229559
628.089987	0.229417
628.297574	0.229500
628.505143	0.229473
628.712694	0.229649
628.920226	0.229392
629.127740	0.229276
629.335236	0.229423
629.542714	0.229898
629.750174	0.229578
629.957615	0.229789
630.165038	0.230026
630.372443	0.230084
630.579829	0.230103
630.787198	0.230619
630.994548	0.230875
631.201880	0.230907
631.409194	0.231015
631.616489	0.231328
631.823766	0.231623
632.031025	0.231906
632.238266	0.232426
632.445489	0.232693
632.652693	0.232958
632.859879	0.233131
633.067047	0.233701
633.274197	0.233822
633.481329	0.234117
633.688442	0.234239
633.895537	0.234193
634.102614	0.234026
634.309672	0.233969
634.516713	0.233740
634.723735	0.233951
634.930739	0.234091
635.137724	0.234226
635.344692	0.233949
635.551641	0.234146
635.758572	0.234446
635.965485	0.234927
636.172379	0.235332
636.379256	0.235471
636.586114	0.235576
636.792954	0.235389
636.999775	0.235588
637.206579	0.236067
637.413364	0.235990
637.620131	0.236014
637.826880	0.236234
638.033610	0.236342
638.240323	0.236477
638.447017	0.236792
638.653692	0.237239
638.860350	0.237391
639.066990	0.237346
639.273611	0.237636
639.480214	0.237867
639.686798	0.237777
639.893365	0.237850
640.099913	0.238199
640.306443	0.238172
640.512955	0.238157
640.719449	0.238342
640.925924	0.238626
641.132381	0.238789
641.338820	0.238965
641.545241	0.239021
641.751644	0.239215
641.958028	0.239379
642.164394	0.239342
642.370742	0.239504
642.577071	0.239604
642.783383	0.239850
642.989676	0.240113
643.195951	0.240361
643.402207	0.240501
643.608446	0.240913
643.814666	0.240982
644.020868	0.241529
644.227052	0.241742
644.433218	0.242003
644.639365	0.241904
644.845494	0.242088
645.051605	0.242293
645.257698	0.242559
645.463772	0.242354
645.669828	0.242451
645.875866	0.242390
646.081886	0.242682
646.287888	0.242396
646.493871	0.242675
646.699836	0.242490
646.905783	0.242854
647.111712	0.243008
647.317622	0.243244
647.523514	0.243744
647.729388	0.243945
647.935244	0.244024
648.141082	0.244458
648.346901	0.244526
648.552702	0.244861
648.758485	0.244659
648.964250	0.244726
649.169996	0.244889
649.375724	0.244695
649.581434	0.244969
649.787126	0.245288
649.992800	0.245451
650.198455	0.245835
650.404092	0.246181
650.609711	0.246344
650.815311	0.246615
651.020894	0.246950
651.226458	0.246998
651.432004	0.246929
651.637532	0.247165
651.843041	0.247443
652.048532	0.247576
652.254006	0.247734
652.459460	0.247820
652.664897	0.247858
652.870315	0.247958
653.075716	0.248060
653.281097	0.248112
653.486461	0.247888
653.691807	0.248190
653.897134	0.248403
654.102443	0.248230
654.307734	0.248446
654.513006	0.248896
654.718261	0.248934
654.923497	0.249421
655.128715	0.250057
655.333915	0.250445
655.539096	0.250508
655.744259	0.250618
655.949404	0.251328
656.154531	0.251527
656.359640	0.251672
656.564730	0.251903
656.769802	0.252100
656.974856	0.251975
657.179892	0.252069
657.384909	0.252301
657.589908	0.252544
657.794889	0.252328
657.999852	0.252609
658.204797	0.252512
658.409723	0.252637
658.614631	0.252693
658.819521	0.252904
659.024393	0.253070
659.229246	0.253185
659.434081	0.253297
659.638898	0.253759
659.843697	0.253936
660.048478	0.254430
660.253240	0.254705
660.457984	0.254977
660.662710	0.255350
660.867417	0.255847
661.072107	0.256081
661.276778	0.256472
661.481431	0.256352
661.686066	0.256298
661.890682	0.256221
662.095281	0.256678
662.299861	0.257176
662.504422	0.257292
662.708966	0.257565
662.913491	0.257821
663.117999	0.257850
663.322488	0.258540
663.526958	0.259054
663.731411	0.259374
663.935845	0.259512
664.140261	0.259455
664.344659	0.259603
664.549038	0.259586
664.753400	0.259692
664.957743	0.259867
665.162068	0.259701
665.366375	0.259751
665.570663	0.259992
665.774933	0.259994
665.979185	0.260164
666.183419	0.260446
666.387635	0.260638
666.591832	0.261047
666.796011	0.261382
667.000172	0.261465
667.204315	0.261954
667.408439	0.262051
667.612545	0.262457
667.816634	0.262791
668.020703	0.263070
668.224755	0.263446
668.428788	0.263680
668.632803	0.263863
668.836800	0.264251
669.040779	0.264377
669.244739	0.264636
669.448681	0.264836
669.652605	0.264821
669.856511	0.265247
670.060399	0.265364
670.264268	0.265509
670.468119	0.265539
670.671952	0.265820
670.875767	0.265887
671.079563	0.266099
671.283341	0.266266
671.487101	0.266550
671.690843	0.266620
671.894567	0.266641
672.098272	0.266583
672.301959	0.266971
672.505628	0.267068
672.709278	0.267388
672.912911	0.267703
673.116525	0.267698
673.320121	0.268172
673.523699	0.268166
673.727258	0.268472
673.930799	0.268828
674.134322	0.268884
674.337827	0.269289
674.541314	0.269342
674.744782	0.269312
674.948232	0.269517
675.151664	0.269689
675.355078	0.269894
675.558474	0.269980
675.761851	0.270467
675.965210	0.270736
676.168551	0.270777
676.371873	0.271008
676.575178	0.271311
676.778464	0.271715
676.981732	0.271787
677.184981	0.272104
677.388213	0.272271
677.591426	0.272166
677.794621	0.272324
677.997798	0.272312
678.200956	0.272678
678.404097	0.272759
678.607219	0.272843
678.810323	0.272808
679.013408	0.272831
679.216476	0.273283
679.419525	0.273716
679.622556	0.273917
679.825569	0.274271
680.028563	0.274287
680.231540	0.274587
680.434498	0.274996
680.637438	0.275476
680.840359	0.275649
681.043263	0.275623
681.246148	0.275953
681.449015	0.276054
681.651864	0.276259
681.854694	0.276329
682.057506	0.276667
682.260301	0.276744
682.463076	0.276746
682.665834	0.277222
682.868573	0.277341
683.071295	0.276975
683.273998	0.277133
683.476682	0.277100
683.679349	0.277441
683.881997	0.277500
684.084627	0.277595
684.287239	0.277857
684.489833	0.277790
684.692408	0.278081
684.894965	0.278363
685.097504	0.278929
685.300025	0.279569
685.502527	0.279599
685.705012	0.279779
685.907478	0.280088
686.109925	0.280504
686.312355	0.281166
686.514766	0.281494
686.717159	0.281780
686.919534	0.282138
687.121891	0.282218
687.324230	0.282539
687.526550	0.282868
687.728852	0.283106
687.931136	0.283060
688.133401	0.282955
688.335649	0.283193
688.537878	0.283439
688.740089	0.283329
688.942281	0.283485
689.144456	0.283737
689.346612	0.283693
689.548750	0.283763
689.750870	0.283998
689.952971	0.284029
690.155055	0.284134
690.357120	0.284285
690.559167	0.284542
690.761195	0.284658
690.963206	0.284531
691.165198	0.284822
691.367172	0.284906
691.569128	0.284903
691.771065	0.285130
691.972984	0.285213
692.174885	0.285382
692.376768	0.285354
692.578633	0.285498
692.780479	0.285734
692.982308	0.285966
693.184118	0.286161
693.385909	0.286480
693.587683	0.286643
693.789438	0.286775
693.991175	0.286903
694.192894	0.286866
694.394595	0.287098
694.596277	0.287404
694.797941	0.287523
694.999587	0.287661
695.201215	0.287845
695.402824	0.288092
695.604416	0.288258
695.805989	0.288300
696.007543	0.288562
696.209080	0.288692
696.410598	0.288843
696.612099	0.289010
696.813580	0.289055
697.015044	0.289008
697.216490	0.288977
697.417917	0.289203
697.619326	0.289504
697.820717	0.289635
698.022089	0.289761
698.223444	0.289848
698.424780	0.289796
698.626098	0.290134
698.827397	0.290478
699.028679	0.290630
699.229942	0.290823
699.431187	0.290972
699.632414	0.291326
699.833622	0.291513
700.034813	0.291890
700.235985	0.292403
700.437139	0.292536
700.638274	0.292495
700.839392	0.292777
701.040491	0.292893
701.241572	0.292828
701.442635	0.292984
701.643679	0.292833
701.844706	0.292782
702.045714	0.292621
702.246704	0.292468
702.447675	0.292530
702.648629	0.292593
702.849564	0.292459
703.050481	0.292614
703.251380	0.292457
703.452260	0.292644
703.653122	0.292641
703.853966	0.292706
704.054792	0.293014
704.255600	0.293101
704.456389	0.293121
704.657160	0.293152
704.857913	0.293400
705.058648	0.293558
705.259365	0.293577
705.460063	0.293808
705.660743	0.293990
705.861405	0.293740
706.062048	0.294026
706.262674	0.294108
706.463281	0.294224
706.663870	0.294391
706.864441	0.294419
707.064993	0.294664
707.265527	0.294432
707.466043	0.294112
707.666541	0.294214
707.867021	0.294100
708.067482	0.293985
708.267925	0.294130
708.468350	0.293795
708.668757	0.293852
708.869145	0.293783
709.069516	0.293965
709.269868	0.294340
709.470201	0.294409
709.670517	0.294321
709.870814	0.294596
710.071093	0.294343
710.271354	0.294230
710.471597	0.294144
710.671821	0.294196
710.872028	0.293878
711.072216	0.293689
711.272385	0.293905
711.472537	0.293893
711.672670	0.293437
711.872785	0.293514
712.072882	0.293643
712.272961	0.293698
712.473021	0.293457
712.673063	0.293690
712.873087	0.293933
713.073093	0.293728
713.273081	0.293816
713.473050	0.294001
713.673001	0.293979
713.872934	0.294302
714.072849	0.294126
714.272745	0.293995
714.472623	0.293965
714.672483	0.293615
714.872325	0.293817
715.072148	0.293701
715.271954	0.293694
715.471741	0.293856
715.671509	0.293555
715.871260	0.293577
716.070992	0.293910
716.270707	0.293957
716.470403	0.294046
716.670080	0.293725
716.869740	0.293650
717.069381	0.293657
717.269004	0.293495
717.468609	0.293621
717.668195	0.293479
717.867764	0.293268
718.067314	0.292830
718.266846	0.292755
718.466360	0.292724
718.665855	0.292671
718.865332	0.292395
719.064791	0.292239
719.264232	0.291888
719.463655	0.291993
719.663059	0.291951
719.862445	0.292231
720.061813	0.292242
720.261163	0.292407
720.460494	0.292655
720.659807	0.292851
720.859102	0.293114
721.058379	0.293191
721.257638	0.293135
721.456878	0.292947
721.656100	0.292876
721.855304	0.292760
722.054490	0.292660
722.253657	0.292116
722.452806	0.291788
722.651937	0.291513
722.851050	0.291441
723.050145	0.291199
723.249221	0.290882
723.448279	0.290789
723.647319	0.290525
723.846340	0.290231
724.045344	0.290356
724.244329	0.290442
724.443296	0.290113
724.642245	0.289974
724.841175	0.289885
725.040088	0.290188
725.238982	0.290107
725.437857	0.289959
725.636715	0.289949
725.835554	0.289676
726.034376	0.289518
726.233179	0.289577
726.431963	0.289342
726.630730	0.289240
726.829478	0.288965
727.028208	0.288842
727.226920	0.288769
727.425614	0.288550
727.624289	0.288869
727.822946	0.288721
728.021585	0.288689
728.220206	0.288459
728.418808	0.288452
728.617392	0.288340
728.815958	0.288099
729.014506	0.288060
729.213036	0.287935
729.411547	0.287547
729.610040	0.287496
729.808515	0.287206
730.006972	0.287275
730.205410	0.287154
730.403831	0.286868
730.602233	0.286456
730.800616	0.286326
730.998982	0.286110
731.197329	0.285911
731.395658	0.285589
731.593969	0.285357
731.792262	0.285115
731.990536	0.284916
732.188793	0.284916
732.387031	0.285127
732.585250	0.284951
732.783452	0.284877
732.981635	0.284654
733.179800	0.284576
733.377947	0.284291
733.576076	0.284317
733.774186	0.284078
733.972278	0.284032
734.170352	0.283669
734.368408	0.283434
734.566446	0.283538
734.764465	0.283488
734.962466	0.283258
735.160449	0.283179
735.358413	0.282966
735.556360	0.282944
735.754288	0.282814
735.952198	0.282946
736.150090	0.282790
736.347963	0.282229
736.545818	0.281920
736.743655	0.281883
736.941474	0.281852
737.139275	0.281563
737.337057	0.281144
737.534821	0.280889
737.732567	0.280309
737.930295	0.279915
738.128005	0.279708
738.325696	0.279722
738.523369	0.279140
738.721024	0.278888
738.918660	0.278771
739.116279	0.278417
739.313879	0.278322
739.511461	0.278367
739.709024	0.278446
739.906570	0.278552
740.104097	0.278099
740.301606	0.278222
740.499097	0.278112
740.696569	0.277740
740.894024	0.278014
741.091460	0.277539
741.288878	0.277310
741.486277	0.277137
741.683659	0.276870
741.881022	0.276706
742.078367	0.276394
742.275694	0.276365
742.473002	0.275962
742.670293	0.275571
742.867565	0.275411
743.064819	0.275235
743.262054	0.274883
743.459272	0.274298
743.656471	0.274099
743.853652	0.274024
744.050815	0.273894
744.247959	0.274052
744.445085	0.273657
744.642194	0.273613
744.839283	0.273393
745.036355	0.273412
745.233408	0.273475
745.430444	0.273136
745.627461	0.272805
745.824459	0.272453
746.021440	0.272296
746.218402	0.272503
746.415346	0.272227
746.612272	0.271958
746.809180	0.271707
747.006069	0.271390
747.202940	0.271400
747.399793	0.271422
747.596628	0.271158
747.793444	0.270754
747.990243	0.270375
748.187023	0.269958
748.383784	0.269648
748.580528	0.269382
748.777253	0.269398
748.973960	0.269214
749.170649	0.268976
749.367320	0.268628
749.563973	0.268315
749.760607	0.268109
749.957223	0.268195
750.153821	0.268132
750.350400	0.268176
750.546962	0.267718
750.743505	0.267457
750.940030	0.267076
751.136536	0.266799
751.333025	0.266685
751.529495	0.266600
751.725947	0.266516
751.922381	0.266021
752.118796	0.265540
752.315194	0.265386
752.511573	0.265329
752.707934	0.264956
752.904276	0.264714
753.100601	0.264719
753.296907	0.264203
753.493195	0.263951
753.689465	0.263936
753.885716	0.263883
754.081949	0.263674
754.278164	0.263377
754.474361	0.263498
754.670540	0.263452
754.866700	0.263220
755.062843	0.263117
755.258967	0.262548
755.455072	0.262361
755.651160	0.262201
755.847229	0.262195
756.043280	0.262007
756.239313	0.261523
756.435328	0.261325
756.631324	0.261147
756.827302	0.260922
757.023262	0.260967
757.219204	0.260666
757.415127	0.260308
757.611033	0.260063
757.806920	0.259762
758.002788	0.259721
758.198639	0.259727
758.394471	0.259230
758.590286	0.259190
758.786081	0.259130
758.981859	0.259223
759.177619	0.258987
759.373360	0.258887
759.569083	0.258967
759.764788	0.259046
759.960474	0.258881
760.156143	0.258881
760.351793	0.258750
760.547425	0.258553
760.743038	0.258347
760.938634	0.258448
761.134211	0.258364
761.329770	0.258170
761.525311	0.257970
761.720833	0.257653
761.916338	0.257368
762.111824	0.257054
762.307292	0.256888
762.502741	0.256832
762.698173	0.256684
762.893586	0.256503
763.088981	0.256423
763.284358	0.256374
763.479716	0.256390
763.675057	0.256408
763.870379	0.256366
764.065683	0.256299
764.260968	0.256249
764.456236	0.256167
764.651485	0.255933
764.846716	0.255702
765.041929	0.255554
765.237123	0.255398
765.432299	0.255482
765.627457	0.255472
765.822597	0.255361
766.017719	0.255233
766.212822	0.254899
766.407907	0.254940
766.602974	0.255068
766.798023	0.254969
766.993054	0.254828
767.188066	0.254723
767.383060	0.254474
767.578036	0.254303
767.772993	0.254026
767.967933	0.254137
768.162854	0.253926
768.357757	0.253420
768.552642	0.253165
768.747508	0.253198
768.942356	0.253231
769.137186	0.253353
769.331998	0.253321
769.526792	0.253496
769.721567	0.253394
769.916324	0.253401
770.111063	0.253392
770.305784	0.253482
770.500486	0.253250
770.695171	0.252916
770.889837	0.252714
771.084484	0.252614
771.279114	0.252532
771.473725	0.252222
771.668318	0.252119
771.862893	0.252273
772.057450	0.252096
772.251988	0.252379
772.446509	0.252498
772.641011	0.252313
772.835494	0.252112
773.029960	0.252095
773.224407	0.252129
773.418836	0.251892
773.613247	0.251673
773.807640	0.251580
774.002014	0.251169
774.196370	0.251122
774.390708	0.251287
774.585028	0.251076
774.779330	0.250640
774.973613	0.250574
775.167878	0.250736
775.362125	0.250743
775.556354	0.250627
775.750564	0.250489
775.944756	0.250193
776.138930	0.250192
776.333086	0.250296
776.527223	0.250528
776.721343	0.250572
776.915444	0.250471
777.109526	0.250486
777.303591	0.250534
777.497637	0.250544
777.691666	0.250593
777.885676	0.250263
778.079667	0.250180
778.273641	0.250185
778.467596	0.250181
778.661533	0.250174
778.855452	0.250100
779.049352	0.250009
779.243235	0.250246
779.437099	0.250270
779.630945	0.250497
779.824773	0.250887
780.018582	0.250867
780.212373	0.250904
780.406146	0.250992
780.599901	0.251008
780.793638	0.251019
780.987356	0.250924
781.181056	0.251016
781.374738	0.250897
781.568402	0.250715
781.762047	0.250569
781.955674	0.250675
782.149283	0.250620
782.342874	0.250649
782.536447	0.250837
782.730001	0.250850
782.923537	0.250989
783.117055	0.251346
783.310555	0.251397
783.504036	0.251741
783.697499	0.251598
783.890944	0.251518
784.084371	0.251555
784.277780	0.251664
784.471170	0.251614
784.664542	0.251309
784.857896	0.251052
785.051231	0.251083
785.244549	0.251156
785.437848	0.251203
785.631129	0.251465
785.824392	0.251435
786.017636	0.251416
786.210863	0.251534
786.404071	0.251802
786.597260	0.252088
786.790432	0.252413
786.983585	0.252328
787.176721	0.252802
787.369838	0.253024
787.562936	0.253090
787.756017	0.253075
787.949079	0.253267
788.142123	0.253472
788.335149	0.253423
788.528156	0.253325
788.721146	0.253512
788.914117	0.253412
789.107070	0.253355
789.300005	0.253621
789.492921	0.253881
789.685819	0.253977
789.878699	0.253744
790.071561	0.253827
790.264405	0.253933
790.457230	0.253965
790.650037	0.254003
790.842826	0.254055
791.035597	0.254212
791.228349	0.254333
791.421084	0.254410
791.613800	0.254801
791.806497	0.254897
791.999177	0.255006
792.191838	0.255048
792.384481	0.255319
792.577106	0.255532
792.769713	0.255645
792.962301	0.255716
793.154871	0.255831
793.347423	0.255935
793.539957	0.256257
793.732473	0.256568
793.924970	0.256762
794.117449	0.256596
794.309910	0.256338
794.502353	0.256683
794.694777	0.256682
794.887183	0.256805
795.079571	0.257075
795.271941	0.257420
795.464293	0.257331
795.656626	0.257341
795.848941	0.257530
796.041238	0.257842
796.233516	0.257884
796.425777	0.258213
796.618019	0.258192
796.810243	0.258214
797.002449	0.258107
797.194636	0.258120
797.386805	0.258482
797.578956	0.258608
797.771089	0.259056
797.963204	0.259264
798.155300	0.259378
798.347378	0.260033
798.539438	0.260147
798.731480	0.260229
798.923503	0.260709
799.115509	0.260742
799.307496	0.261144
799.499465	0.261340
799.691415	0.261299
799.883348	0.261598
800.075262	0.261647
800.267158	0.262064
800.459035	0.262371
800.650895	0.262661
800.842736	0.263011
801.034559	0.263303
801.226364	0.263235
801.418150	0.263632
801.609919	0.263856
801.801669	0.264095
801.993401	0.264030
802.185114	0.264360
802.376810	0.264325
802.568487	0.264676
802.760146	0.264777
802.951787	0.265200
803.143409	0.265210
803.335014	0.265441
803.526600	0.265883
803.718168	0.266233
803.909717	0.266374
804.101249	0.266651
804.292762	0.266739
804.484257	0.266915
804.675734	0.267093
804.867192	0.267402
805.058632	0.267723
805.250054	0.267836
805.441458	0.268166
805.632844	0.268487
805.824211	0.268827
806.015561	0.269151
806.206891	0.269304
806.398204	0.269592
806.589499	0.270161
806.780775	0.270461
806.972033	0.270582
807.163273	0.270982
807.354495	0.271393
807.545698	0.271615
807.736883	0.271799
807.928050	0.272542
808.119199	0.272996
808.310329	0.273088
808.501441	0.273152
808.692535	0.273535
808.883611	0.273777
809.074669	0.273937
809.265708	0.274377
809.456729	0.274744
809.647732	0.274594
809.838717	0.274930
810.029683	0.275206
810.220632	0.275437
810.411562	0.275603
810.602474	0.275759
810.793367	0.276093
810.984242	0.276184
811.175100	0.276455
811.365938	0.276783
811.556759	0.277019
811.747562	0.277452
811.938346	0.277930
812.129112	0.278124
812.319860	0.278251
812.510589	0.278666
812.701300	0.279167
812.891994	0.279257
813.082668	0.279818
813.273325	0.279938
813.463964	0.280057
813.654584	0.280602
813.845186	0.281299
814.035769	0.281957
814.226335	0.281992
814.416882	0.282072
814.607411	0.282870
814.797922	0.283095
814.988415	0.283538
815.178889	0.283789
815.369345	0.283952
815.559783	0.284149
815.750203	0.284578
815.940605	0.284832
816.130988	0.285391
816.321353	0.285639
816.511700	0.286255
816.702028	0.286720
816.892339	0.287455
817.082631	0.287671
817.272905	0.288052
817.463161	0.288391
817.653398	0.288871
817.843617	0.289387
818.033819	0.289605
818.224001	0.289445
818.414166	0.289696
818.604312	0.289779
818.794440	0.290200
818.984550	0.290644
819.174642	0.291068
819.364716	0.291520
819.554771	0.291528
819.744808	0.291971
819.934827	0.292522
820.124827	0.293050
820.314810	0.293601
820.504774	0.293964
820.694720	0.294199
820.884647	0.294478
821.074557	0.294990
821.264448	0.295624
821.454321	0.296059
821.644176	0.296578
821.834012	0.297056
822.023831	0.297348
822.213631	0.297812
822.403413	0.298079
822.593176	0.298443
822.782922	0.298680
822.972649	0.299253
823.162358	0.299822
823.352049	0.300183
823.541721	0.300403
823.731376	0.300705
823.921012	0.301037
824.110629	0.301671
824.300229	0.302269
824.489811	0.302769
824.679374	0.302730
824.868919	0.302756
825.058445	0.303172
825.247954	0.303340
825.437444	0.303757
825.626916	0.304019
825.816370	0.304324
826.005806	0.304541
826.195223	0.304613
826.384622	0.305664
826.574003	0.306203
826.763366	0.306496
826.952711	0.306718
827.142037	0.306855
827.331345	0.307302
827.520635	0.307610
827.709906	0.308099
827.899160	0.308716
828.088395	0.308438
828.277612	0.308715
828.466810	0.309171
828.655991	0.309922
828.845153	0.310730
829.034297	0.311014
829.223423	0.311360
829.412531	0.311552
829.601620	0.312006
829.790691	0.313031
829.979744	0.313601
830.168779	0.314088
830.357795	0.314436
830.546793	0.314821
830.735773	0.315506
830.924735	0.316117
831.113679	0.316804
831.302604	0.317297
831.491511	0.317408
831.680400	0.317841
831.869271	0.318223
832.058123	0.318706
832.246957	0.319293
832.435773	0.320007
832.624571	0.320303
832.813351	0.320746
833.002112	0.321271
833.190855	0.321759
833.379580	0.322121
833.568287	0.322637
833.756975	0.323323
833.945645	0.323777
834.134297	0.323809
834.322931	0.324240
834.511547	0.324411
834.700144	0.324978
834.888723	0.325278
835.077284	0.326026
835.265826	0.326396
835.454351	0.326883
835.642857	0.327485
835.831345	0.328213
836.019815	0.328890
836.208266	0.329616
836.396699	0.329998
836.585114	0.330366
836.773511	0.330486
836.961890	0.330869
837.150250	0.331202
837.338592	0.331740
837.526916	0.332192
837.715222	0.332443
837.903510	0.332814
838.091779	0.333053
838.280030	0.333661
838.468263	0.334600
838.656477	0.335348
838.844674	0.336027
839.032852	0.336212
839.221012	0.336597
839.409153	0.337336
839.597277	0.337558
839.785382	0.338172
839.973469	0.338960
840.161538	0.339157
840.349589	0.339798
840.537621	0.340396
840.725635	0.340559
840.913631	0.340970
841.101609	0.341247
841.289568	0.341997
841.477509	0.342365
841.665432	0.342569
841.853337	0.343328
842.041224	0.343589
842.229092	0.343588
842.416942	0.344460
842.604774	0.345054
842.792588	0.345854
842.980383	0.346103
843.168160	0.346743
843.355919	0.347138
843.543660	0.347352
843.731382	0.347809
843.919087	0.348713
844.106773	0.349117
844.294441	0.349496
844.482090	0.349602
844.669722	0.350413
844.857335	0.350904
845.044930	0.351360
845.232507	0.352213
845.420065	0.352919
845.607605	0.352938
845.795127	0.353468
845.982631	0.354156
846.170117	0.354987
846.357584	0.355372
846.545033	0.356385
846.732464	0.356985
846.919877	0.356841
847.107272	0.357179
847.294648	0.358208
847.482006	0.358807
847.669346	0.359479
847.856667	0.359812
848.043971	0.360380
848.231256	0.360181
848.418523	0.360992
848.605771	0.361643
848.793002	0.362555
848.980214	0.363085
849.167408	0.363447
849.354584	0.363578
849.541742	0.364108
849.728881	0.364631
849.916002	0.365176
850.103105	0.365580
850.290190	0.366234
850.477256	0.366664
850.664304	0.366844
850.851334	0.367152
851.038346	0.367645
851.225340	0.368202
851.412315	0.368748
851.599272	0.369266
851.786211	0.369758
851.973132	0.370292
852.160034	0.370253
852.346918	0.370722
852.533784	0.371294
852.720632	0.371786
852.907462	0.372387
853.094273	0.372451
853.281066	0.373413
853.467841	0.373762
853.654598	0.373882
853.841336	0.374723
854.028056	0.375146
854.214758	0.375631
854.401442	0.376561
854.588107	0.377090
854.774755	0.377580
854.961384	0.377434
855.147995	0.377771
855.334587	0.378433
855.521162	0.378557
855.707718	0.379167
855.894256	0.379736
856.080775	0.379826
856.267277	0.379936
856.453760	0.380745
856.640225	0.381441
856.826672	0.382309
857.013101	0.382668
857.199511	0.383256
857.385903	0.383546
857.572277	0.384182
857.758633	0.384603
857.944970	0.385173
858.131290	0.385541
858.317591	0.386081
858.503873	0.386160
858.690138	0.387056
858.876384	0.387675
859.062612	0.388166
859.248822	0.388378
859.435014	0.388739
859.621188	0.389193
859.807343	0.389436
859.993480	0.389632
860.179599	0.390118
860.365699	0.390351
860.551781	0.390817
860.737846	0.391087
860.923891	0.391893
861.109919	0.392778
861.295929	0.393367
861.481920	0.394016
861.667893	0.394853
861.853848	0.395397
862.039784	0.396013
862.225702	0.396640
862.411603	0.397550
862.597484	0.398313
862.783348	0.398453
862.969193	0.398837
863.155021	0.399317
863.340830	0.399714
863.526620	0.400553
863.712393	0.400943
863.898147	0.401024
864.083883	0.401538
864.269601	0.401427
864.455301	0.401770
864.640982	0.402064
864.826645	0.402619
865.012290	0.402657
865.197917	0.402356
865.383526	0.402780
865.569116	0.403200
865.754688	0.403404
865.940242	0.403497
866.125777	0.404127
866.311295	0.404291
866.496794	0.404430
866.682275	0.404740
866.867737	0.405206
867.053182	0.405391
867.238608	0.405811
867.424016	0.405797
867.609406	0.406287
867.794778	0.406542
867.980131	0.407166
868.165466	0.407270
868.350783	0.408006
868.536082	0.408235
868.721362	0.408443
868.906625	0.408682
869.091869	0.409374
869.277094	0.409609
869.462302	0.409467
869.647491	0.409381
869.832662	0.410058
870.017815	0.410093
870.202950	0.410733
870.388066	0.411020
870.573165	0.411352
870.758245	0.411349
870.943306	0.411169
871.128350	0.412009
871.313375	0.412562
871.498382	0.412882
871.683371	0.413114
871.868342	0.413163
872.053294	0.413654
872.238229	0.413793
872.423144	0.414172
872.608042	0.415179
872.792922	0.415609
872.977783	0.415963
873.162626	0.415955
873.347451	0.416552
873.532258	0.416707
873.717046	0.416727
873.901816	0.417109
874.086568	0.417454
874.271302	0.417620
874.456017	0.417156
874.640715	0.417388
874.825394	0.417959
875.010055	0.417792
875.194697	0.418700
875.379322	0.419156
875.563928	0.419579
875.748516	0.419709
875.933085	0.420067
876.117637	0.420762
876.302170	0.421127
876.486685	0.420994
876.671182	0.421715
876.855661	0.421289
877.040121	0.421970
877.224563	0.421917
877.408987	0.422114
877.593393	0.422256
877.777780	0.422251
877.962150	0.422573
878.146501	0.422722
878.330833	0.422410
878.515148	0.422910
878.699444	0.423062
878.883722	0.423418
879.067982	0.424185
879.252224	0.423892
879.436447	0.424754
879.620653	0.424932
879.804840	0.425453
879.989008	0.425888
880.173159	0.426095
880.357291	0.425956
880.541405	0.426236
880.725501	0.426030
880.909579	0.426494
881.093638	0.426408
881.277680	0.426494
881.461703	0.426645
881.645707	0.426965
881.829694	0.427172
882.013662	0.427385
882.197612	0.427494
882.381544	0.427551
882.565458	0.427887
882.749353	0.427764
882.933230	0.427521
883.117089	0.427530
883.300930	0.427588
883.484753	0.427885
883.668557	0.428241
883.852343	0.428082
884.036111	0.428209
884.219861	0.428158
884.403592	0.428560
884.587305	0.428797
884.771000	0.428964
884.954677	0.428945
885.138335	0.428854
885.321976	0.428426
885.505598	0.428461
885.689201	0.428833
885.872787	0.428980
886.056354	0.429530
886.239904	0.429914
886.423434	0.429937
886.606947	0.430078
886.790442	0.430334
886.973918	0.430269
887.157376	0.430538
887.340816	0.430289
887.524237	0.430374
887.707641	0.429709
887.891026	0.429527
888.074393	0.429256
888.257741	0.429420
888.441072	0.429359
888.624384	0.429639
888.807678	0.429813
888.990954	0.429969
889.174211	0.429665
889.357451	0.429516
889.540672	0.429686
889.723875	0.430030
889.907059	0.430179
890.090226	0.429885
890.273374	0.429877
890.456504	0.429342
890.639616	0.429409
890.822709	0.430004
891.005785	0.430169
891.188842	0.430490
891.371881	0.430709
891.554901	0.430493
891.737904	0.430490
891.920888	0.429869
892.103854	0.430433
892.286802	0.430361
892.469731	0.430322
892.652643	0.430383
892.835536	0.429899
893.018410	0.429991
893.201267	0.430001
893.384106	0.430108
893.566926	0.430350
893.749728	0.429982
893.932511	0.430019
894.115277	0.429442
894.298024	0.429272
894.480753	0.429073
894.663464	0.428637
894.846157	0.428616
895.028831	0.428532
895.211487	0.428704
895.394125	0.428748
895.576745	0.427976
895.759346	0.428416
895.941930	0.428378
896.124495	0.428287
896.307041	0.428116
896.489570	0.427430
896.672080	0.427419
896.854573	0.427382
897.037046	0.427148
897.219502	0.427228
897.401940	0.426392
897.584359	0.426200
897.766760	0.426236
897.949143	0.425855
898.131507	0.426021
898.313854	0.425478
898.496182	0.425276
898.678492	0.424955
898.860783	0.424701
899.043057	0.424841
899.225312	0.424749
899.407549	0.424256
899.589768	0.424252
899.771968	0.423943
899.954151	0.423925
900.136315	0.423035
900.318461	0.422668
900.500588	0.422406
900.682698	0.421606
900.864789	0.420596
901.046862	0.420782
901.228917	0.420230
901.410953	0.419819
901.592971	0.419273
901.774972	0.419058
901.956953	0.418943
902.138917	0.418564
902.320862	0.418570
902.502790	0.419099
902.684699	0.418257
902.866589	0.418160
903.048462	0.418036
903.230316	0.417198
903.412152	0.417586
903.593970	0.417190
903.775770	0.417136
903.957551	0.416683
904.139314	0.415645
904.321059	0.415640
904.502786	0.414867
904.684494	0.414139
904.866185	0.414447
905.047857	0.413799
905.229510	0.412996
905.411146	0.412539
905.592763	0.412213
905.774363	0.412408
905.955943	0.411621
906.137506	0.411524
906.319051	0.411278
906.500577	0.410763
906.682085	0.409533
906.863575	0.409120
907.045046	0.408053
907.226500	0.407806
907.407935	0.406829
907.589352	0.406635
907.770750	0.405908
907.952131	0.405679
908.133493	0.405169
908.314837	0.405282
908.496163	0.405150
908.677470	0.404704
908.858760	0.404060
909.040031	0.403905
909.221284	0.403590
909.402518	0.403229
909.583735	0.402340
909.764933	0.402137
909.946113	0.402304
910.127275	0.401801
910.308418	0.401703
910.489544	0.401736
910.670651	0.401264
910.851740	0.400376
911.032810	0.400025
911.213863	0.399677
911.394897	0.398720
911.575913	0.397894
911.756911	0.397056
911.937890	0.396786
912.118851	0.395777
912.299794	0.394802
912.480719	0.394331
912.661626	0.393921
912.842514	0.393038
913.023384	0.392181
913.204236	0.390475
913.385070	0.389829
913.565886	0.388879
913.746683	0.388273
913.927462	0.387753
914.108223	0.386964
914.288965	0.386710
914.469690	0.385957
914.650396	0.385716
914.831084	0.386423
915.011754	0.386314
915.192405	0.385860
915.373038	0.384708
915.553653	0.383643
915.734250	0.382642
915.914829	0.381561
916.095389	0.380753
916.275931	0.379849
916.456455	0.378917
916.636961	0.378188
916.817448	0.377797
916.997917	0.377425
917.178368	0.377275
917.358801	0.376865
917.539216	0.375867
917.719612	0.375034
917.899990	0.374508
918.080350	0.373322
918.260692	0.372431
918.441015	0.371628
918.621320	0.370352
918.801607	0.369966
918.981876	0.369361
919.162127	0.368570
919.342359	0.368520
919.522573	0.367689
919.702769	0.366413
919.882947	0.365371
920.063106	0.364228
920.243247	0.364191
920.423370	0.362686
920.603475	0.362044
920.783562	0.361054
920.963630	0.360034
921.143680	0.359089
921.323712	0.358975
921.503725	0.358490
921.683721	0.357336
921.863698	0.356788
922.043657	0.355799
922.223598	0.354964
922.403520	0.354209
922.583424	0.353840
922.763311	0.353130
922.943178	0.352766
923.123028	0.352080
923.302859	0.351036
923.482673	0.348883
923.662467	0.347898
923.842244	0.347540
924.022003	0.347219
924.201743	0.345919
924.381465	0.345504
924.561169	0.343926
924.740854	0.342841
924.920522	0.342624
925.100171	0.342759
925.279802	0.342572
925.459414	0.341614
925.639009	0.340175
925.818585	0.339216
925.998143	0.337341
926.177683	0.336049
926.357205	0.334719
926.536708	0.334106
926.716193	0.332807
926.895660	0.331858
927.075109	0.330219
927.254539	0.330018
927.433951	0.329110
927.613345	0.328713
927.792721	0.328242
927.972079	0.327948
928.151418	0.327006
928.330739	0.326844
928.510042	0.326441
928.689327	0.325479
928.868593	0.324424
929.047841	0.323550
929.227071	0.322748
929.406283	0.322017
929.585476	0.320210
929.764652	0.318392
929.943809	0.316438
930.122948	0.314715
930.302068	0.313722
930.481171	0.312651
930.660255	0.311732
930.839321	0.310055
931.018369	0.309358
931.197398	0.308574
931.376409	0.307807
931.555402	0.306532
931.734377	0.306029
931.913334	0.305055
932.092272	0.303453
932.271192	0.302389
932.450094	0.301940
932.628978	0.300245
932.807844	0.299992
932.986691	0.299075
933.165520	0.298300
933.344331	0.296923
933.523123	0.295618
933.701898	0.293805
933.880654	0.292592
934.059392	0.291297
934.238111	0.289677
934.416813	0.287410
934.595496	0.286036
934.774161	0.285251
934.952808	0.284226
935.131437	0.282885
935.310047	0.282298
935.488639	0.280069
935.667213	0.278510
935.845769	0.278960
936.024306	0.278406
936.202825	0.277289
936.381326	0.276127
936.559809	0.274807
936.738274	0.274178
936.916720	0.273358
937.095148	0.273513
937.273558	0.271828
937.451950	0.270180
937.630323	0.268283
937.808678	0.266706
937.987015	0.265684
938.165334	0.263906
938.343635	0.262546
938.521917	0.261455
938.700181	0.259132
938.878427	0.259178
939.056655	0.256366
939.234864	0.256219
939.413055	0.255518
939.591228	0.253467
939.769383	0.251803
939.947519	0.249502
940.125638	0.248680
940.303738	0.248964
940.481820	0.247150
940.659883	0.246385
940.837929	0.244088
941.015956	0.243016
941.193965	0.242582
941.371955	0.242799
941.549928	0.242915
941.727882	0.241064
941.905818	0.238935
942.083736	0.237152
942.261636	0.236633
942.439517	0.236499
942.617380	0.234414
942.795225	0.232534
942.973052	0.229996
943.150860	0.227527
943.328651	0.226843
943.506423	0.225277
943.684176	0.225002
943.861912	0.223942
944.039629	0.222221
944.217328	0.221477
944.395009	0.221160
944.572672	0.221307
944.750317	0.219830
944.927943	0.217660
945.105551	0.216669
945.283141	0.214356
945.460712	0.211057
945.638265	0.209147
945.815801	0.208917
945.993317	0.207170
946.170816	0.204864
946.348297	0.203977
946.525759	0.201928
946.703203	0.199422
946.880629	0.198754
947.058036	0.197858
947.235425	0.196886
947.412797	0.193954
947.590149	0.191330
947.767484	0.190539
947.944800	0.189708
948.122099	0.188599
948.299379	0.189138
948.476640	0.188244
948.653884	0.187579
948.831109	0.185230
949.008316	0.183915
949.185505	0.184718
949.362676	0.182887
949.539828	0.179783
949.716962	0.179089
949.894078	0.177069
950.071176	0.174769
950.248256	0.173272
950.425317	0.172709
950.602360	0.172633
950.779385	0.169693
950.956391	0.166871
951.133380	0.167082
951.310350	0.165826
951.487302	0.164252
951.664235	0.163897
951.841151	0.162672
952.018048	0.162564
952.194927	0.160224
952.371788	0.158840
952.548631	0.159326
952.725455	0.158976
952.902261	0.158469
953.079049	0.158088
953.255819	0.156174
953.432570	0.155726
953.609303	0.153197
953.786018	0.152906
953.962715	0.153063
954.139394	0.149351
954.316054	0.146696
954.492696	0.145087
954.669320	0.142246
954.845926	0.141308
955.022513	0.140224
955.199083	0.139395
955.375634	0.137683
955.552166	0.136773
955.728681	0.136851
955.905177	0.136855
956.081655	0.134562
956.258115	0.133606
956.434557	0.133246
956.610980	0.130340
956.787385	0.129210
956.963772	0.129407
957.140141	0.126698
957.316492	0.127947
957.492824	0.126984
957.669138	0.126337
957.845434	0.126972
958.021712	0.126341
958.197971	0.127056
958.374212	0.127255
958.550435	0.124825
958.726640	0.125225
958.902826	0.123355
959.078995	0.121807
959.255145	0.122203
959.431277	0.120187
959.607390	0.117524
959.783486	0.117242
959.959563	0.116565
960.135622	0.116617
960.311662	0.114681
960.487685	0.113984
960.663689	0.112950
960.839675	0.111124
961.015643	0.110917
961.191593	0.109511
961.367524	0.108759
961.543437	0.106742
961.719332	0.105908
961.895209	0.105388
962.071067	0.104610
962.246907	0.105448
962.422730	0.104716
962.598533	0.103448
962.774319	0.104813
962.950086	0.102626
963.125835	0.102593
963.301566	0.101201
963.477279	0.100564
963.652973	0.100127
963.828650	0.098085
964.004308	0.098701
964.179947	0.100492
964.355569	0.100409
964.531172	0.101909
964.706757	0.101395
964.882324	0.103903
965.057873	0.104716
965.233403	0.102974
965.408916	0.102084
965.584410	0.102093
965.759885	0.101041
965.935343	0.099836
966.110782	0.097974
966.286203	0.099599
966.461606	0.096289
966.636991	0.096408
966.812357	0.098473
966.987705	0.100264
967.163035	0.098885
967.338347	0.099202
967.513641	0.099344
967.688916	0.098753
967.864173	0.097479
968.039412	0.098696
968.214632	0.100067
968.389835	0.098770
968.565019	0.099233
968.740185	0.100072
968.915333	0.100810
969.090462	0.100367
969.265573	0.099948
969.440667	0.098763
969.615741	0.099274
969.790798	0.098535
969.965836	0.098921
970.140856	0.099087
970.315858	0.096382
970.490842	0.093818
970.665808	0.095445
970.840755	0.096007
971.015684	0.095697
971.190595	0.096283
971.365487	0.096831
971.540362	0.096350
971.715218	0.094823
971.890056	0.095817
972.064875	0.096059
972.239677	0.094322
972.414460	0.096407
972.589225	0.098024
972.763972	0.096367
972.938700	0.091822
973.113411	0.091567
973.288103	0.092314
973.462777	0.094692
973.637432	0.096102
973.812070	0.097761
973.986689	0.096163
974.161290	0.094805
974.335873	0.093423
974.510437	0.094697
974.684984	0.096059
974.859512	0.096444
975.034022	0.095346
975.208513	0.096022
975.382987	0.095203
975.557442	0.094308
975.731879	0.095082
975.906298	0.096394
976.080698	0.098639
976.255080	0.096527
976.429445	0.094901
976.603790	0.094183
976.778118	0.094672
976.952427	0.092990
977.126719	0.092484
977.300992	0.091853
977.475246	0.092248
977.649483	0.089016
977.823701	0.091233
977.997901	0.093400
978.172083	0.093035
978.346247	0.091343
978.520392	0.092181
978.694519	0.094180
978.868628	0.093217
979.042719	0.094104
979.216791	0.097201
979.390845	0.096105
979.564882	0.095157
979.738899	0.095566
979.912899	0.095975
980.086880	0.095600
980.260843	0.094871
980.434788	0.096362
980.608715	0.095087
980.782623	0.092250
980.956514	0.091513
981.130386	0.093423
981.304240	0.092552
981.478075	0.092038
981.651892	0.092132
981.825692	0.093025
981.999472	0.092912
982.173235	0.092279
982.346980	0.095032
982.520706	0.095793
982.694414	0.094028
982.868104	0.096416
983.041775	0.097238
983.215428	0.097650
983.389064	0.096706
983.562680	0.096492
983.736279	0.098039
983.909860	0.097673
984.083422	0.098839
984.256966	0.098445
984.430491	0.098528
984.603999	0.097177
984.777488	0.097876
984.950959	0.099069
985.124412	0.098510
985.297847	0.099386
985.471263	0.098511
985.644661	0.097091
985.818041	0.095138
985.991403	0.094562
986.164747	0.094851
986.338072	0.094058
986.511379	0.094042
986.684668	0.093838
986.857938	0.092870
987.031191	0.093978
987.204425	0.094219
987.377641	0.096471
987.550839	0.097431
987.724018	0.098203
987.897179	0.098069
988.070322	0.098421
988.243447	0.099800
988.416554	0.097888
988.589642	0.097414
988.762712	0.098225
988.935764	0.099030
989.108798	0.099439
989.281813	0.099493
989.454811	0.101227
989.627790	0.100664
989.800751	0.098775
989.973693	0.100471
990.146617	0.100396
990.319524	0.100609
990.492412	0.100479
990.665281	0.097786
990.838133	0.098174
991.010966	0.097561
991.183781	0.095787
991.356578	0.098819
991.529356	0.098679
991.702117	0.098585
991.874859	0.097655
992.047583	0.097418
992.220288	0.098667
992.392976	0.098402
992.565645	0.098268
992.738296	0.100655
992.910929	0.100041
993.083543	0.100357
993.256139	0.101250
993.428718	0.101648
993.601277	0.102380
993.773819	0.102137
993.946342	0.101738
994.118848	0.101156
994.291335	0.099820
994.463803	0.098015
994.636254	0.098888
994.808686	0.099343
994.981100	0.098882
995.153496	0.096611
995.325874	0.097025
995.498233	0.097577
995.670574	0.097309
995.842897	0.097163
996.015202	0.098136
996.187488	0.097681
996.359757	0.097643
996.532007	0.096753
996.704239	0.096624
996.876452	0.096959
997.048648	0.096089
997.220825	0.097297
997.392984	0.098468
997.565124	0.099595
997.737247	0.100223
997.909351	0.100491
998.081437	0.102013
998.253505	0.103635
998.425554	0.102444
998.597586	0.102111
998.769599	0.101709
998.941594	0.101706
999.113571	0.101559
999.285529	0.100797
999.457469	0.101034
999.629391	0.099254
999.801295	0.098703
999.973181	0.098209
1000.145048	0.098031
1000.316897	0.099286
1000.488728	0.098403
1000.660541	0.096707
1000.832335	0.097243
1001.004111	0.097793
1001.175869	0.100267
1001.347609	0.099839
1001.519331	0.100094
1001.691034	0.100102
1001.862719	0.098182
1002.034386	0.098903
1002.206035	0.100318
1002.377665	0.098323
1002.549277	0.096734
1002.720871	0.094470
1002.892447	0.096564
1003.064004	0.098347
1003.235544	0.097209
1003.407065	0.097240
1003.578568	0.096790
1003.750052	0.099305
1003.921519	0.100081
1004.092967	0.101081
1004.264397	0.103246
1004.435809	0.101281
1004.607202	0.101990
1004.778577	0.103794
1004.949934	0.106091
1005.121273	0.105255
1005.292594	0.101715
1005.463896	0.102390
1005.635180	0.100757
1005.806446	0.100420
1005.977694	0.100763
1006.148923	0.100127
1006.320135	0.099644
1006.491328	0.098223
1006.662503	0.099050
1006.833659	0.098357
1007.004798	0.098007
1007.175918	0.098534
1007.347020	0.098952
1007.518103	0.096504
1007.689169	0.096431
1007.860216	0.097006
1008.031245	0.097237
1008.202256	0.096923
1008.373248	0.097268
1008.544223	0.096903
1008.715179	0.095814
1008.886117	0.094361
1009.057036	0.096264
1009.227938	0.094412
1009.398821	0.094847
1009.569686	0.093989
1009.740533	0.094492
1009.911361	0.096401
1010.082172	0.097212
1010.252964	0.099337
1010.423738	0.098504
1010.594493	0.098230
1010.765231	0.099084
1010.935950	0.099040
1011.106651	0.099618
1011.277334	0.100588
1011.447998	0.100253
1011.618645	0.100132
1011.789273	0.099072
1011.959882	0.099896
1012.130474	0.099263
1012.301048	0.099647
1012.471603	0.097903
1012.642140	0.097224
1012.812658	0.096351
1012.983159	0.094718
1013.153641	0.094077
1013.324105	0.093532
1013.494551	0.092766
1013.664979	0.092999
1013.835388	0.092580
1014.005779	0.095378
1014.176152	0.095915
1014.346507	0.096077
1014.516843	0.097312
1014.687162	0.097214
1014.857462	0.097419
1015.027744	0.099246
1015.198007	0.099643
1015.368252	0.099782
1015.538480	0.098121
1015.708689	0.098522
1015.878879	0.098109
1016.049052	0.097864
1016.219206	0.097356
1016.389342	0.097084
1016.559460	0.096876
1016.729559	0.097722
1016.899641	0.100538
1017.069704	0.101444
1017.239749	0.099938
1017.409775	0.101835
1017.579784	0.101622
1017.749774	0.102355
1017.919746	0.103304
1018.089700	0.103038
1018.259635	0.102469
1018.429553	0.097884
1018.599452	0.097059
1018.769333	0.097886
1018.939195	0.096194
1019.109040	0.097061
1019.278866	0.097358
1019.448674	0.096675
1019.618464	0.096776
1019.788235	0.097494
1019.957989	0.099243
1020.127724	0.100018
1020.297441	0.099185
1020.467139	0.099770
1020.636820	0.098372
1020.806482	0.098157
1020.976126	0.097747
1021.145752	0.097239
1021.315359	0.097361
1021.484948	0.096768
1021.654519	0.096141
1021.824072	0.095605
1021.993607	0.095282
1022.163123	0.096009
1022.332621	0.096693
1022.502101	0.097345
1022.671563	0.099466
1022.841007	0.098833
1023.010432	0.098769
1023.179839	0.100139
1023.349228	0.101929
1023.518598	0.100001
1023.687951	0.099282
1023.857285	0.098608
1024.026601	0.099357
1024.195899	0.097578
1024.365178	0.097706
1024.534439	0.098072
1024.703682	0.096140
1024.872907	0.096654
1025.042114	0.098855
1025.211302	0.098946
1025.380472	0.097639
1025.549624	0.098245
1025.718758	0.098535
1025.887873	0.097912
1026.056970	0.098481
1026.226049	0.098020
1026.395110	0.096717
1026.564153	0.096657
1026.733177	0.095423
1026.902183	0.096410
1027.071171	0.094876
1027.240141	0.094703
1027.409092	0.095208
1027.578026	0.096230
1027.746940	0.095601
1027.915837	0.095571
1028.084716	0.095289
1028.253576	0.097851
1028.422418	0.098520
1028.591242	0.098637
1028.760048	0.096905
1028.928835	0.096114
1029.097604	0.094573
1029.266355	0.095424
1029.435088	0.095623
1029.603803	0.094165
1029.772499	0.092316
1029.941177	0.090864
1030.109837	0.090280
1030.278478	0.092345
1030.447102	0.093657
1030.615707	0.093014
1030.784294	0.093162
1030.952863	0.093923
1031.121413	0.094961
1031.289945	0.094670
1031.458460	0.095908
1031.626955	0.096425
1031.795433	0.094944
1031.963892	0.093623
1032.132334	0.094486
1032.300756	0.095627
1032.469161	0.095190
1032.637548	0.094690
1032.805916	0.095201
1032.974266	0.095131
1033.142598	0.095154
1033.310911	0.095939
1033.479207	0.097772
1033.647484	0.094398
1033.815743	0.094281
1033.983983	0.093389
1034.152206	0.093825
1034.320410	0.093647
1034.488596	0.092474
1034.656764	0.091302
1034.824914	0.088903
1034.993045	0.086990
1035.161158	0.090452
1035.329253	0.089198
1035.497330	0.089544
1035.665388	0.090258
1035.833428	0.090633
1036.001450	0.092340
1036.169454	0.095569
1036.337440	0.097119
1036.505407	0.098237
1036.673356	0.097205
1036.841287	0.098001
1037.009200	0.097177
1037.177094	0.095737
1037.344970	0.095039
1037.512828	0.092624
1037.680668	0.089917
1037.848489	0.091017
1038.016293	0.091662
1038.184078	0.091814
1038.351845	0.090330
1038.519593	0.089659
1038.687324	0.090611
1038.855036	0.090976
1039.022730	0.093011
1039.190406	0.093311
1039.358063	0.092769
1039.525702	0.091058
1039.693323	0.091968
1039.860926	0.092837
1040.028511	0.095012
1040.196077	0.094114
1040.363625	0.095413
1040.531155	0.094725
1040.698667	0.096146
1040.866161	0.096025
1041.033636	0.095011
1041.201093	0.093424
1041.368532	0.092952
1041.535952	0.091015
1041.703355	0.091537
1041.870739	0.090785
1042.038105	0.089688
1042.205452	0.087330
1042.372782	0.086382
1042.540093	0.089683
1042.707386	0.090068
1042.874661	0.091935
1043.041918	0.092912
1043.209156	0.091542
1043.376376	0.093374
1043.543578	0.094755
1043.710762	0.097238
1043.877927	0.099012
1044.045074	0.097721
1044.212203	0.098617
1044.379314	0.096928
1044.546407	0.097238
1044.713481	0.099218
1044.880537	0.097204
1045.047575	0.096687
1045.214595	0.094890
1045.381596	0.094368
1045.548579	0.094579
1045.715544	0.094787
1045.882491	0.094221
1046.049420	0.095119
1046.216330	0.094167
1046.383222	0.093467
1046.550096	0.092819
1046.716951	0.093172
1046.883789	0.092892
1047.050608	0.092541
1047.217409	0.093704
1047.384192	0.094461
1047.550956	0.092385
1047.717703	0.092309
1047.884431	0.093576
1048.051140	0.094896
1048.217832	0.094199
1048.384505	0.094085
1048.551161	0.094118
1048.717798	0.093149
1048.884416	0.092841
1049.051017	0.095313
1049.217599	0.095283
1049.384163	0.095782
1049.550709	0.095514
1049.717237	0.096668
1049.883746	0.095747
1050.050237	0.095837
1050.216710	0.095612
1050.383165	0.096756
1050.549601	0.095527
1050.716019	0.096518
1050.882420	0.096647
1051.048801	0.096909
1051.215165	0.096790
1051.381510	0.097447
1051.547837	0.097954
1051.714146	0.097314
1051.880437	0.097655
1052.046709	0.097366
1052.212964	0.097506
1052.379200	0.095940
1052.545417	0.097937
1052.711617	0.097312
1052.877798	0.097888
1053.043961	0.095783
1053.210106	0.095832
1053.376233	0.096322
1053.542341	0.096472
1053.708432	0.095677
1053.874504	0.097106
1054.040557	0.094848
1054.206593	0.096263
1054.372610	0.096592
1054.538609	0.098120
1054.704590	0.099313
1054.870553	0.098047
1055.036497	0.097000
1055.202424	0.096575
1055.368331	0.095786
1055.534221	0.094722
1055.700093	0.094191
1055.865946	0.094425
1056.031781	0.093378
1056.197598	0.091195
1056.363397	0.091378
1056.529177	0.092863
1056.694939	0.092140
1056.860683	0.092058
1057.026409	0.091516
1057.192116	0.091330
1057.357806	0.090632
1057.523477	0.090661
1057.689130	0.093503
1057.854764	0.093447
1058.020381	0.092938
1058.185979	0.094132
1058.351559	0.094445
1058.517120	0.094548
1058.682664	0.092267
1058.848189	0.091195
1059.013696	0.092895
1059.179185	0.091308
1059.344656	0.089379
1059.510108	0.091377
1059.675542	0.092152
1059.840958	0.091191
1060.006356	0.093166
1060.171735	0.094473
1060.337096	0.096578
1060.502439	0.095314
1060.667764	0.094874
1060.833071	0.095772
1060.998359	0.093896
1061.163629	0.090918
1061.328881	0.092525
1061.494115	0.091796
1061.659330	0.093713
1061.824527	0.092197
1061.989706	0.092580
1062.154867	0.091155
1062.320010	0.092676
1062.485134	0.093683
1062.650240	0.097583
1062.815328	0.095976
1062.980398	0.096381
1063.145449	0.095136
1063.310482	0.096230
1063.475497	0.097373
1063.640494	0.098505
1063.805473	0.098069
1063.970433	0.095851
1064.135375	0.093995
1064.300299	0.094100
1064.465204	0.092798
1064.630092	0.093818
1064.794961	0.095631
1064.959812	0.094573
1065.124645	0.096409
1065.289459	0.097766
1065.454256	0.099037
1065.619034	0.099402
1065.783793	0.099558
1065.948535	0.100096
1066.113258	0.099490
1066.277964	0.097317
1066.442651	0.097711
1066.607319	0.096479
1066.771970	0.094818
1066.936602	0.095738
1067.101216	0.095569
1067.265812	0.095692
1067.430389	0.095673
1067.594949	0.095538
1067.759490	0.094456
1067.924013	0.094811
1068.088518	0.095040
1068.253004	0.093831
1068.417472	0.093557
1068.581922	0.094240
1068.746354	0.095851
1068.910768	0.096386
1069.075163	0.096968
1069.239540	0.098212
1069.403899	0.099954
1069.568240	0.099772
1069.732562	0.100754
1069.896866	0.101611
1070.061152	0.101045
1070.225420	0.098915
1070.389670	0.099828
1070.553901	0.100878
1070.718114	0.102268
1070.882309	0.098643
1071.046486	0.096889
1071.210644	0.097762
1071.374784	0.098387
1071.538906	0.098783
1071.703010	0.099388
1071.867096	0.098631
1072.031163	0.095784
1072.195212	0.095579
1072.359243	0.097208
1072.523256	0.099173
1072.687250	0.099433
1072.851226	0.098552
1073.015184	0.096755
1073.179124	0.095957
1073.343045	0.097253
1073.506949	0.098686
1073.670834	0.099874
1073.834701	0.100882
1073.998549	0.102374
1074.162380	0.103177
1074.326192	0.103586
1074.489986	0.104500
1074.653761	0.106727
1074.817519	0.105087
1074.981258	0.105286
1075.144979	0.102827
1075.308682	0.102528
1075.472367	0.100521
1075.636033	0.099111
1075.799681	0.098308
1075.963311	0.100085
1076.126923	0.098831
1076.290516	0.100860
1076.454092	0.100916
1076.617649	0.101670
1076.781187	0.100905
1076.944708	0.101490
1077.108210	0.099715
1077.271695	0.100527
1077.435160	0.098119
1077.598608	0.096984
1077.762038	0.095102
1077.925449	0.096065
1078.088842	0.095865
1078.252217	0.095144
1078.415573	0.093956
1078.578912	0.095652
1078.742232	0.093732
1078.905534	0.096833
1079.068817	0.098390
1079.232083	0.097542
1079.395330	0.095160
1079.558559	0.094786
1079.721770	0.094365
1079.884962	0.095672
1080.048136	0.097805
1080.211293	0.098840
1080.374430	0.098283
1080.537550	0.099333
1080.700651	0.100608
1080.863735	0.100785
1081.026800	0.100851
1081.189846	0.099667
1081.352875	0.099767
1081.515885	0.098624
1081.678877	0.095732
1081.841851	0.096511
1082.004807	0.096758
1082.167744	0.096760
1082.330663	0.100153
1082.493564	0.101043
1082.656447	0.100953
1082.819312	0.102681
1082.982158	0.101728
1083.144986	0.103880
1083.307796	0.101708
1083.470587	0.100923
1083.633361	0.102041
1083.796116	0.098774
1083.958853	0.097325
1084.121571	0.100034
1084.284272	0.098476
1084.446954	0.098112
1084.609618	0.099701
1084.772264	0.098217
1084.934892	0.098617
1085.097501	0.097218
1085.260092	0.096686
1085.422665	0.096498
1085.585220	0.095148
1085.747756	0.094744
1085.910274	0.096512
1086.072774	0.095271
1086.235256	0.097908
1086.397720	0.098765
1086.560165	0.099561
1086.722592	0.099838
1086.885001	0.101459
1087.047392	0.103953
1087.209764	0.105035
1087.372119	0.103227
1087.534455	0.103784
1087.696772	0.101621
1087.859072	0.099245
1088.021353	0.098592
1088.183616	0.096551
1088.345861	0.095959
1088.508088	0.095135
1088.670296	0.094927
1088.832486	0.095664
1088.994658	0.097494
1089.156812	0.099486
1089.318948	0.101675
1089.481065	0.103452
1089.643164	0.106515
1089.805245	0.106806
1089.967308	0.104947
1090.129352	0.104893
1090.291378	0.103593
1090.453386	0.102249
1090.615376	0.101793
1090.777347	0.100594
1090.939301	0.098066
1091.101236	0.099092
1091.263153	0.098396
1091.425051	0.100109
1091.586932	0.098564
1091.748794	0.100213
1091.910638	0.100433
1092.072463	0.101102
1092.234271	0.100914
1092.396060	0.101758
1092.557831	0.100628
1092.719584	0.100405
1092.881319	0.097353
1093.043035	0.097869
1093.204733	0.097945
1093.366413	0.097650
1093.528075	0.097285
1093.689718	0.099536
1093.851343	0.099792
1094.012950	0.099430
1094.174539	0.099403
1094.336110	0.102628
1094.497662	0.105415
1094.659196	0.105095
1094.820712	0.103954
1094.982210	0.104866
1095.143689	0.101432
1095.305151	0.100381
1095.466594	0.100802
1095.628018	0.100778
1095.789425	0.102026
1095.950813	0.102949
1096.112183	0.103215
1096.273535	0.103831
1096.434869	0.102566
1096.596184	0.100191
1096.757482	0.100430
1096.918761	0.103072
1097.080021	0.104322
1097.241264	0.103228
1097.402488	0.100034
1097.563694	0.100696
1097.724882	0.100675
1097.886052	0.099084
1098.047203	0.102485
1098.208336	0.102112
1098.369451	0.098417
1098.530548	0.096514
1098.691627	0.097615
1098.852687	0.096975
1099.013729	0.096698
1099.174753	0.096477
1099.335758	0.098610
1099.496746	0.098506
1099.657715	0.100749
1099.818666	0.100741
1099.979599	0.103382
1100.140513	0.100837
1100.301409	0.101707
1100.462287	0.098688
1100.623147	0.098553
1100.783989	0.096085
1100.944812	0.095419
1101.105617	0.092524
1101.266404	0.095416
1101.427173	0.093519
1101.587923	0.095005
1101.748656	0.095192
1101.909370	0.097930
1102.070066	0.098218
1102.230743	0.102281
1102.391403	0.102480
1102.552044	0.102859
1102.712667	0.100193
1102.873271	0.100036
1103.033858	0.098813
1103.194426	0.098675
1103.354976	0.097672
1103.515508	0.096154
1103.676021	0.095157
1103.836517	0.097586
1103.996994	0.101188
1104.157453	0.101653
1104.317893	0.101745
1104.478316	0.103980
1104.638720	0.103843
1104.799106	0.103539
1104.959474	0.106126
1105.119823	0.103431
1105.280155	0.102018
1105.440468	0.101394
1105.600763	0.103269
1105.761039	0.105599
1105.921298	0.106348
1106.081538	0.108613
1106.241760	0.110904
1106.401964	0.110740
1106.562149	0.111704
1106.722316	0.110330
1106.882465	0.108000
1107.042596	0.104935
1107.202709	0.102767
1107.362803	0.100359
1107.522879	0.096897
1107.682937	0.097199
1107.842977	0.095822
1108.002999	0.095437
1108.163002	0.097488
1108.322987	0.098632
1108.482954	0.099842
1108.642902	0.104278
1108.802833	0.104513
1108.962745	0.105620
1109.122639	0.103977
1109.282515	0.104317
1109.442372	0.104789
1109.602211	0.104692
1109.762032	0.104192
1109.921835	0.105884
1110.081620	0.102835
1110.241386	0.100509
1110.401134	0.101173
1110.560864	0.099302
1110.720576	0.099990
1110.880269	0.099591
1111.039945	0.097898
1111.199602	0.100390
1111.359240	0.100670
1111.518861	0.102116
1111.678463	0.103898
1111.838047	0.104216
1111.997613	0.106230
1112.157161	0.105155
1112.316690	0.106714
1112.476202	0.108471
1112.635695	0.104900
1112.795169	0.103003
1112.954626	0.098175
1113.114064	0.097729
1113.273484	0.094937
1113.432886	0.095831
1113.592270	0.098571
1113.751635	0.097714
1113.910983	0.093940
1114.070312	0.094343
1114.229622	0.096171
1114.388915	0.096851
1114.548189	0.100311
1114.707445	0.103656
1114.866683	0.102757
1115.025903	0.100749
1115.185104	0.100600
1115.344287	0.104894
1115.503452	0.106241
1115.662599	0.104973
1115.821727	0.105260
1115.980838	0.102711
1116.139930	0.098822
1116.299004	0.100277
1116.458059	0.099939
1116.617097	0.100610
1116.776116	0.100155
1116.935117	0.098766
1117.094099	0.097635
1117.253064	0.102727
1117.412010	0.104476
1117.570938	0.107346
1117.729848	0.104722
1117.888740	0.104340
1118.047613	0.104481
1118.206468	0.105233
1118.365305	0.105701
1118.524124	0.105646
1118.682924	0.102470
1118.841707	0.095808
1119.000471	0.096108
1119.159216	0.098017
1119.317944	0.099515
1119.476653	0.099766
1119.635344	0.098244
1119.794017	0.097616
1119.952672	0.098507
1120.111308	0.098705
1120.269927	0.104387
1120.428527	0.102465
1120.587108	0.105075
1120.745672	0.101904
1120.904217	0.100515
1121.062744	0.097251
1121.221253	0.095667
1121.379744	0.095829
1121.538216	0.096036
1121.696671	0.097503
1121.855107	0.099888
1122.013524	0.096741
1122.171924	0.097834
1122.330305	0.099104
1122.488668	0.100350
1122.647013	0.103965
1122.805340	0.105311
1122.963648	0.101998
1123.121938	0.100949
1123.280210	0.102326
1123.438464	0.101373
1123.596700	0.102584
1123.754917	0.102839
1123.913116	0.104681
1124.071297	0.102238
1124.229459	0.101236
1124.387604	0.102879
1124.545730	0.102358
1124.703838	0.100288
1124.861928	0.098659
1125.019999	0.097270
1125.178052	0.096951
1125.336088	0.097712
1125.494104	0.097445
1125.652103	0.098566
1125.810083	0.098918
1125.968045	0.098650
1126.125989	0.097285
1126.283915	0.101588
1126.441823	0.102246
1126.599712	0.101828
1126.757583	0.097004
1126.915436	0.098140
1127.073270	0.093627
1127.231087	0.095416
1127.388885	0.094490
1127.546665	0.095880
1127.704426	0.095829
1127.862170	0.093272
1128.019895	0.095648
1128.177602	0.101115
1128.335291	0.099699
1128.492961	0.103227
1128.650614	0.104169
1128.808248	0.105404
1128.965864	0.104625
1129.123461	0.101463
1129.281041	0.104043
1129.438602	0.099596
1129.596145	0.097837
1129.753670	0.099847
1129.911176	0.102037
1130.068665	0.098742
1130.226135	0.096855
1130.383587	0.096052
1130.541020	0.095302
1130.698436	0.094334
1130.855833	0.092991
1131.013212	0.097381
1131.170573	0.094015
1131.327915	0.089779
1131.485239	0.087971
1131.642545	0.089885
1131.799833	0.087981
1131.957103	0.089001
1132.114354	0.090651
1132.271588	0.094883
1132.428803	0.092043
1132.585999	0.094808
1132.743178	0.095462
1132.900338	0.095978
1133.057480	0.093334
1133.214604	0.095283
1133.371710	0.093025
1133.528797	0.094846
1133.685866	0.093454
1133.842917	0.091392
1133.999950	0.087965
1134.156964	0.087836
1134.313960	0.091340
1134.470938	0.091870
1134.627898	0.095373
1134.784840	0.097275
1134.941763	0.094859
1135.098668	0.093840
1135.255555	0.095517
1135.412424	0.097605
1135.569274	0.096347
1135.726107	0.093266
1135.882921	0.093951
1136.039716	0.089183
1136.196494	0.090905
1136.353253	0.090230
1136.509995	0.090083
1136.666717	0.090151
1136.823422	0.090930
1136.980109	0.089365
1137.136777	0.089767
1137.293427	0.085998
1137.450059	0.085002
1137.606672	0.086109
1137.763267	0.085966
1137.919844	0.085297
1138.076403	0.084953
1138.232944	0.085203
1138.389466	0.088057
1138.545971	0.094374
1138.702457	0.098115
1138.858924	0.097706
1139.015374	0.092492
1139.171805	0.090767
1139.328218	0.090044
1139.484613	0.090669
1139.640990	0.090496
1139.797348	0.090838
1139.953688	0.088784
1140.110010	0.090933
1140.266314	0.095645
1140.422600	0.098410
1140.578867	0.101319
1140.735116	0.103928
1140.891347	0.101591
1141.047559	0.103162
1141.203754	0.102487
1141.359930	0.099455
1141.516088	0.098052
1141.672228	0.096844
1141.828349	0.094584
1141.984452	0.095982
1142.140537	0.096454
1142.296604	0.099671
1142.452653	0.099405
1142.608683	0.096882
1142.764695	0.096955
1142.920689	0.095193
1143.076665	0.097057
1143.232622	0.099154
1143.388562	0.096066
1143.544483	0.092157
1143.700385	0.089969
1143.856270	0.087341
1144.012136	0.090926
1144.167985	0.088139
1144.323814	0.088986
1144.479626	0.086279
1144.635420	0.086662
1144.791195	0.089524
1144.946952	0.093856
1145.102691	0.092036
1145.258411	0.095389
1145.414113	0.096527
1145.569798	0.095106
1145.725463	0.094613
1145.881111	0.093018
1146.036741	0.091305
1146.192352	0.086469
1146.347945	0.086232
1146.503519	0.085190
1146.659076	0.082996
1146.814614	0.080608
1146.970134	0.085083
1147.125636	0.082900
1147.281120	0.084915
1147.436585	0.089304
1147.592032	0.092113
1147.747461	0.086311
1147.902872	0.088065
1148.058265	0.089708
1148.213639	0.091961
1148.368995	0.091864
1148.524333	0.091279
1148.679653	0.088341
1148.834954	0.082478
1148.990237	0.082975
1149.145502	0.090141
1149.300749	0.090485
1149.455977	0.088195
1149.611188	0.084252
1149.766380	0.081408
1149.921553	0.083573
1150.076709	0.085514
1150.231846	0.083536
1150.386966	0.082875
1150.542066	0.078666
1150.697149	0.077636
1150.852214	0.080366
1151.007260	0.085342
1151.162288	0.085384
1151.317298	0.084636
1151.472289	0.085864
1151.627263	0.091530
1151.782218	0.090870
1151.937155	0.089450
1152.092073	0.089098
1152.246974	0.087260
1152.401856	0.084889
1152.556720	0.081886
1152.711566	0.081977
1152.866393	0.078048
1153.021203	0.075786
1153.175994	0.074013
1153.330767	0.075989
1153.485521	0.074443
1153.640258	0.072486
1153.794976	0.068761
1153.949676	0.072961
1154.104358	0.074575
1154.259021	0.075638
1154.413667	0.077415
1154.568294	0.080389
1154.722903	0.078171
1154.877493	0.079961
1155.032066	0.079354
1155.186620	0.080612
1155.341156	0.077249
1155.495674	0.080052
1155.650173	0.077314
1155.804654	0.077569
1155.959118	0.076146
1156.113562	0.077853
1156.267989	0.075859
1156.422397	0.076891
1156.576788	0.078542
1156.731160	0.081880
1156.885513	0.076948
1157.039849	0.081174
1157.194166	0.076229
1157.348465	0.074640
1157.502746	0.075986
1157.657009	0.074846
1157.811253	0.072401
1157.965479	0.073962
1158.119687	0.071642
1158.273877	0.070473
1158.428048	0.069546
1158.582201	0.073263
1158.736337	0.076054
1158.890453	0.072334
1159.044552	0.074236
1159.198632	0.076087
1159.352694	0.072900
1159.506738	0.071161
1159.660764	0.074690
1159.814771	0.074852
1159.968761	0.075620
1160.122732	0.073458
1160.276685	0.073430
1160.430619	0.076841
1160.584535	0.077580
1160.738434	0.080891
1160.892313	0.083616
1161.046175	0.079024
1161.200019	0.076234
1161.353844	0.074633
1161.507651	0.079598
1161.661440	0.082440
1161.815210	0.076526
1161.968962	0.072710
1162.122697	0.069752
1162.276412	0.070036
1162.430110	0.074906
1162.583789	0.079490
1162.737451	0.077897
1162.891094	0.073330
1163.044718	0.072717
1163.198325	0.079015
1163.351913	0.082738
1163.505483	0.087409
1163.659035	0.084776
1163.812569	0.082505
1163.966084	0.079732
1164.119581	0.081678
1164.273060	0.081117
1164.426521	0.076360
1164.579964	0.073285
1164.733388	0.079017
1164.886794	0.073833
1165.040182	0.074241
1165.193551	0.075466
1165.346903	0.077524
1165.500236	0.075812
1165.653551	0.078842
1165.806848	0.083410
1165.960126	0.081794
1166.113386	0.078602
1166.266628	0.077144
1166.419852	0.074812
1166.573058	0.075159
1166.726245	0.075240
1166.879414	0.077107
1167.032565	0.072736
1167.185698	0.072009
1167.338812	0.071373
1167.491909	0.068961
1167.644987	0.073619
1167.798046	0.079314
1167.951088	0.079416
1168.104111	0.076389
1168.257117	0.075969
1168.410103	0.075272
1168.563072	0.074967
1168.716023	0.074777
1168.868955	0.074875
1169.021869	0.068006
1169.174765	0.066953
1169.327642	0.061817
1169.480501	0.061854
1169.633343	0.059428
1169.786165	0.061214
1169.938970	0.058948
1170.091757	0.057575
1170.244525	0.056978
1170.397275	0.059855
1170.550007	0.057669
1170.702720	0.051551
1170.855415	0.053645
1171.008092	0.056171
1171.160751	0.058079
1171.313392	0.062323
1171.466014	0.079524
1171.618619	0.083163
1171.771205	0.083163
1171.923772	0.083163
