sample name	sample
index	1015
start time	 04-19-2021  11:45:31 AM


Wavelength (nm)	Absorbance
494.344910	0.111691
494.563924	0.111691
494.782919	0.111691
495.001897	0.030167
495.220856	0.043390
495.439797	0.018553
495.658719	-0.007793
495.877624	-0.019955
496.096510	-0.028082
496.315378	-0.013288
496.534227	-0.002243
496.753059	-0.004598
496.971872	-0.010556
497.190667	0.048158
497.409444	0.077134
497.628203	0.083563
497.846943	0.089063
498.065665	0.091253
498.284369	0.092812
498.503055	0.092770
498.721723	0.094298
498.940372	0.095103
499.159003	0.096214
499.377616	0.096754
499.596210	0.098533
499.814787	0.098577
500.033345	0.098790
500.251885	0.098124
500.470406	0.097730
500.688910	0.098103
500.907395	0.097465
501.125862	0.097482
501.344311	0.096978
501.562742	0.097173
501.781154	0.096125
501.999548	0.095516
502.217924	0.096839
502.436282	0.097971
502.654621	0.098244
502.872942	0.098926
503.091245	0.099577
503.309530	0.099836
503.527797	0.099531
503.746045	0.099712
503.964275	0.100872
504.182487	0.100347
504.400681	0.100975
504.618856	0.100373
504.837013	0.100390
505.055152	0.100610
505.273273	0.100988
505.491376	0.101230
505.709460	0.100815
505.927526	0.101072
506.145574	0.101154
506.363604	0.099444
506.581615	0.099567
506.799608	0.100352
507.017583	0.099320
507.235540	0.099512
507.453478	0.098603
507.671399	0.099772
507.889301	0.099364
508.107185	0.099910
508.325050	0.101022
508.542898	0.101275
508.760727	0.101006
508.978538	0.101471
509.196330	0.101353
509.414105	0.101678
509.631861	0.101774
509.849599	0.101646
510.067319	0.101055
510.285021	0.101066
510.502704	0.101250
510.720369	0.101272
510.938016	0.101039
511.155645	0.101109
511.373255	0.101812
511.590848	0.102343
511.808422	0.103419
512.025977	0.103702
512.243515	0.104096
512.461034	0.103421
512.678536	0.102576
512.896018	0.102853
513.113483	0.102339
513.330930	0.102180
513.548358	0.101483
513.765768	0.100764
513.983160	0.100862
514.200533	0.100468
514.417889	0.101095
514.635226	0.101587
514.852545	0.101504
515.069845	0.102049
515.287128	0.102078
515.504392	0.102481
515.721638	0.102386
515.938866	0.102046
516.156075	0.102398
516.373267	0.102434
516.590440	0.102658
516.807594	0.102345
517.024731	0.102439
517.241850	0.102720
517.458950	0.103111
517.676032	0.103657
517.893095	0.103995
518.110141	0.103206
518.327168	0.103426
518.544177	0.103544
518.761168	0.103760
518.978141	0.103924
519.195095	0.104428
519.412031	0.104371
519.628949	0.104106
519.845849	0.104112
520.062731	0.104479
520.279594	0.104249
520.496439	0.104758
520.713266	0.105834
520.930074	0.105715
521.146865	0.105336
521.363637	0.105477
521.580391	0.105824
521.797127	0.106557
522.013844	0.106663
522.230543	0.106643
522.447224	0.106234
522.663887	0.105758
522.880532	0.105966
523.097158	0.106222
523.313766	0.106492
523.530356	0.106874
523.746928	0.106534
523.963481	0.106747
524.180017	0.107046
524.396534	0.107647
524.613032	0.107589
524.829513	0.107890
525.045975	0.107758
525.262420	0.107724
525.478845	0.106894
525.695253	0.107261
525.911643	0.108365
526.128014	0.108254
526.344367	0.108518
526.560702	0.108383
526.777018	0.108324
526.993316	0.108547
527.209597	0.107713
527.425858	0.108881
527.642102	0.108192
527.858328	0.107165
528.074535	0.107522
528.290724	0.107621
528.506894	0.108079
528.723047	0.108349
528.939181	0.108155
529.155297	0.109253
529.371395	0.108690
529.587475	0.109492
529.803536	0.109955
530.019579	0.110262
530.235604	0.110103
530.451611	0.110332
530.667600	0.110289
530.883570	0.110422
531.099522	0.110646
531.315456	0.111201
531.531372	0.111163
531.747269	0.111948
531.963148	0.112352
532.179009	0.112220
532.394852	0.112485
532.610676	0.112478
532.826482	0.113236
533.042271	0.112716
533.258040	0.112472
533.473792	0.112425
533.689525	0.112045
533.905240	0.111669
534.120937	0.112046
534.336616	0.112121
534.552277	0.112042
534.767919	0.111894
534.983543	0.112595
535.199149	0.113152
535.414736	0.113402
535.630306	0.113801
535.845857	0.114119
536.061390	0.114384
536.276904	0.114813
536.492401	0.115455
536.707879	0.116114
536.923339	0.116178
537.138781	0.116358
537.354204	0.116821
537.569610	0.116837
537.784997	0.116901
538.000366	0.116969
538.215716	0.117290
538.431049	0.117313
538.646363	0.116687
538.861659	0.116705
539.076937	0.116840
539.292196	0.116274
539.507438	0.116535
539.722661	0.116920
539.937866	0.116967
540.153052	0.116825
540.368221	0.117036
540.583371	0.117780
540.798503	0.117849
541.013617	0.118010
541.228712	0.119118
541.443789	0.119490
541.658848	0.119887
541.873889	0.120233
542.088912	0.120765
542.303916	0.121472
542.518902	0.121302
542.733870	0.121648
542.948820	0.121564
543.163752	0.121155
543.378665	0.120869
543.593560	0.121038
543.808437	0.121412
544.023295	0.121288
544.238136	0.120798
544.452958	0.120796
544.667762	0.121206
544.882548	0.121484
545.097315	0.121793
545.312064	0.122045
545.526795	0.121526
545.741508	0.121562
545.956203	0.121646
546.170879	0.121732
546.385537	0.122207
546.600177	0.121870
546.814799	0.122437
547.029402	0.122332
547.243988	0.122470
547.458555	0.123021
547.673103	0.122998
547.887634	0.123137
548.102146	0.123359
548.316640	0.123551
548.531116	0.123938
548.745574	0.123615
548.960013	0.124012
549.174435	0.124458
549.388838	0.124454
549.603222	0.124634
549.817589	0.124747
550.031937	0.125232
550.246267	0.125292
550.460579	0.125318
550.674873	0.125235
550.889148	0.125361
551.103405	0.125619
551.317644	0.125805
551.531865	0.126171
551.746068	0.126178
551.960252	0.126361
552.174418	0.126608
552.388566	0.127503
552.602696	0.127936
552.816807	0.128102
553.030900	0.127449
553.244975	0.127707
553.459032	0.127865
553.673070	0.127990
553.887091	0.127911
554.101093	0.127829
554.315077	0.127534
554.529042	0.127373
554.742990	0.127089
554.956919	0.127433
555.170830	0.127656
555.384722	0.127487
555.598597	0.127195
555.812453	0.127260
556.026291	0.127478
556.240111	0.127254
556.453913	0.127538
556.667696	0.128234
556.881461	0.128251
557.095208	0.128175
557.308937	0.128129
557.522647	0.129125
557.736339	0.129452
557.950013	0.129221
558.163669	0.129254
558.377307	0.129592
558.590926	0.129140
558.804527	0.129670
559.018110	0.129970
559.231675	0.130045
559.445221	0.129943
559.658749	0.129569
559.872259	0.130067
560.085751	0.130192
560.299225	0.129965
560.512680	0.130397
560.726117	0.130031
560.939536	0.130107
561.152937	0.130602
561.366319	0.130452
561.579683	0.130600
561.793029	0.130479
562.006357	0.130735
562.219667	0.131002
562.432958	0.131027
562.646231	0.131276
562.859486	0.131538
563.072723	0.131523
563.285941	0.131422
563.499141	0.131940
563.712323	0.131965
563.925487	0.132322
564.138632	0.132237
564.351760	0.132210
564.564869	0.132460
564.777960	0.132018
564.991032	0.132215
565.204087	0.132425
565.417123	0.132424
565.630141	0.132677
565.843140	0.132565
566.056122	0.132819
566.269085	0.132961
566.482030	0.133066
566.694957	0.133301
566.907866	0.133087
567.120756	0.132968
567.333628	0.133012
567.546482	0.132902
567.759318	0.132745
567.972135	0.132779
568.184935	0.133257
568.397716	0.133240
568.610478	0.133538
568.823223	0.133608
569.035949	0.134157
569.248657	0.134256
569.461347	0.134339
569.674019	0.134111
569.886672	0.134312
570.099308	0.134332
570.311925	0.134580
570.524523	0.134690
570.737104	0.134946
570.949666	0.134854
571.162210	0.134835
571.374736	0.135143
571.587244	0.135719
571.799733	0.135850
572.012205	0.135610
572.224658	0.135552
572.437092	0.135414
572.649509	0.135579
572.861907	0.135807
573.074287	0.135522
573.286649	0.135419
573.498993	0.135135
573.711318	0.134853
573.923625	0.135089
574.135914	0.135474
574.348185	0.135730
574.560438	0.135873
574.772672	0.136107
574.984888	0.136433
575.197086	0.136543
575.409266	0.136835
575.621427	0.137168
575.833570	0.136793
576.045695	0.136432
576.257802	0.136151
576.469890	0.136016
576.681961	0.135861
576.894013	0.136047
577.106046	0.136206
577.318062	0.136359
577.530059	0.136448
577.742039	0.137175
577.954000	0.137293
578.165942	0.137469
578.377867	0.137646
578.589773	0.137542
578.801661	0.137548
579.013531	0.137975
579.225382	0.138181
579.437216	0.138515
579.649031	0.138374
579.860828	0.138494
580.072606	0.138631
580.284367	0.138475
580.496109	0.138785
580.707833	0.138954
580.919539	0.138769
581.131227	0.139100
581.342896	0.138987
581.554547	0.139329
581.766180	0.139097
581.977795	0.139161
582.189391	0.139432
582.400969	0.139650
582.612529	0.139814
582.824071	0.139849
583.035595	0.139536
583.247100	0.139661
583.458587	0.139804
583.670056	0.140229
583.881506	0.140625
584.092939	0.140695
584.304353	0.140476
584.515749	0.140528
584.727127	0.140851
584.938486	0.140873
585.149828	0.140681
585.361151	0.140756
585.572456	0.140931
585.783742	0.140777
585.995011	0.140906
586.206261	0.140996
586.417493	0.140974
586.628706	0.140703
586.839902	0.141079
587.051079	0.141537
587.262238	0.141126
587.473379	0.141157
587.684502	0.141327
587.895606	0.141497
588.106692	0.141660
588.317760	0.141871
588.528810	0.142104
588.739841	0.141962
588.950855	0.142026
589.161850	0.142106
589.372827	0.142489
589.583785	0.142471
589.794726	0.142430
590.005648	0.142650
590.216552	0.142583
590.427437	0.142746
590.638305	0.142873
590.849154	0.143126
591.059985	0.143342
591.270798	0.143414
591.481592	0.143725
591.692369	0.143769
591.903127	0.144077
592.113867	0.144179
592.324588	0.144093
592.535292	0.144204
592.745977	0.143807
592.956644	0.144119
593.167293	0.144019
593.377923	0.143882
593.588536	0.144280
593.799130	0.143767
594.009706	0.143847
594.220263	0.143768
594.430803	0.143972
594.641324	0.144154
594.851827	0.144051
595.062312	0.143949
595.272778	0.144158
595.483227	0.143842
595.693657	0.144291
595.904069	0.144124
596.114462	0.144319
596.324838	0.143992
596.535195	0.144340
596.745534	0.144371
596.955855	0.144276
597.166157	0.144477
597.376441	0.144589
597.586707	0.144785
597.796955	0.145220
598.007185	0.145347
598.217396	0.145875
598.427589	0.146046
598.637764	0.146253
598.847921	0.146643
599.058060	0.146687
599.268180	0.146799
599.478282	0.146631
599.688366	0.146621
599.898431	0.147026
600.108479	0.146870
600.318508	0.146569
600.528519	0.146573
600.738511	0.146590
600.948486	0.146425
601.158442	0.146516
601.368380	0.146435
601.578300	0.146524
601.788202	0.146122
601.998085	0.145968
602.207950	0.146156
602.417797	0.146323
602.627626	0.146301
602.837436	0.146308
603.047228	0.146472
603.257002	0.146750
603.466758	0.146870
603.676496	0.147369
603.886215	0.147696
604.095916	0.147871
604.305599	0.147937
604.515264	0.148262
604.724910	0.148610
604.934538	0.148615
605.144148	0.148862
605.353740	0.148910
605.563314	0.148792
605.772869	0.149133
605.982406	0.148902
606.191925	0.148776
606.401425	0.149011
606.610908	0.148814
606.820372	0.149044
607.029818	0.149352
607.239246	0.149787
607.448655	0.149945
607.658047	0.149881
607.867420	0.150298
608.076775	0.150508
608.286111	0.150296
608.495430	0.150519
608.704730	0.150466
608.914012	0.149992
609.123275	0.149848
609.332521	0.149622
609.541748	0.149908
609.750957	0.149849
609.960148	0.150132
610.169321	0.150302
610.378475	0.150204
610.587611	0.150624
610.796729	0.150959
611.005829	0.150816
611.214910	0.151038
611.423974	0.150970
611.633019	0.150913
611.842045	0.151044
612.051054	0.150874
612.260044	0.151082
612.469017	0.150929
612.677970	0.150844
612.886906	0.151139
613.095824	0.151438
613.304723	0.151353
613.513604	0.151676
613.722467	0.151436
613.931311	0.151753
614.140138	0.151926
614.348946	0.152048
614.557736	0.152303
614.766507	0.152309
614.975261	0.152271
615.183996	0.152270
615.392713	0.152153
615.601412	0.152316
615.810092	0.152379
616.018754	0.152434
616.227399	0.152427
616.436024	0.152491
616.644632	0.152733
616.853222	0.152620
617.061793	0.152970
617.270346	0.152851
617.478880	0.153028
617.687397	0.152876
617.895895	0.153040
618.104375	0.153000
618.312837	0.152954
618.521281	0.153100
618.729706	0.153613
618.938113	0.153624
619.146502	0.153997
619.354873	0.153974
619.563226	0.154223
619.771560	0.154035
619.979876	0.154581
620.188174	0.154433
620.396453	0.154238
620.604715	0.153814
620.812958	0.153806
621.021183	0.153479
621.229390	0.153351
621.437578	0.153596
621.645748	0.154016
621.853900	0.153853
622.062034	0.154072
622.270150	0.154258
622.478247	0.154427
622.686326	0.154478
622.894387	0.154812
623.102430	0.155144
623.310454	0.155070
623.518461	0.155230
623.726449	0.155157
623.934418	0.155362
624.142370	0.155156
624.350303	0.155486
624.558218	0.155601
624.766115	0.155843
624.973994	0.155915
625.181855	0.156013
625.389697	0.155799
625.597521	0.155968
625.805327	0.155744
626.013114	0.156237
626.220883	0.156304
626.428634	0.156365
626.636367	0.156386
626.844082	0.156200
627.051778	0.156164
627.259457	0.156022
627.467117	0.156002
627.674758	0.156245
627.882382	0.156211
628.089987	0.156000
628.297574	0.156128
628.505143	0.156167
628.712694	0.156441
628.920226	0.156401
629.127740	0.156522
629.335236	0.156555
629.542714	0.156800
629.750174	0.156543
629.957615	0.156855
630.165038	0.156614
630.372443	0.156809
630.579829	0.156944
630.787198	0.157085
630.994548	0.157205
631.201880	0.157261
631.409194	0.157346
631.616489	0.157332
631.823766	0.157126
632.031025	0.157301
632.238266	0.157226
632.445489	0.157342
632.652693	0.157571
632.859879	0.158080
633.067047	0.158255
633.274197	0.158211
633.481329	0.158479
633.688442	0.158676
633.895537	0.159114
634.102614	0.159199
634.309672	0.159353
634.516713	0.159557
634.723735	0.159416
634.930739	0.159609
635.137724	0.159615
635.344692	0.159612
635.551641	0.159780
635.758572	0.159741
635.965485	0.159901
636.172379	0.159707
636.379256	0.159527
636.586114	0.159478
636.792954	0.159341
636.999775	0.159769
637.206579	0.160052
637.413364	0.160097
637.620131	0.160183
637.826880	0.160060
638.033610	0.160272
638.240323	0.160342
638.447017	0.160380
638.653692	0.160549
638.860350	0.160416
639.066990	0.160285
639.273611	0.160421
639.480214	0.160464
639.686798	0.160551
639.893365	0.160349
640.099913	0.160511
640.306443	0.160610
640.512955	0.160715
640.719449	0.160711
640.925924	0.160876
641.132381	0.160929
641.338820	0.160773
641.545241	0.160986
641.751644	0.161387
641.958028	0.161477
642.164394	0.161699
642.370742	0.161727
642.577071	0.161746
642.783383	0.162055
642.989676	0.161981
643.195951	0.162396
643.402207	0.162574
643.608446	0.162554
643.814666	0.162512
644.020868	0.162581
644.227052	0.162485
644.433218	0.162765
644.639365	0.162732
644.845494	0.162909
645.051605	0.162829
645.257698	0.162757
645.463772	0.162793
645.669828	0.162840
645.875866	0.162909
646.081886	0.162932
646.287888	0.162836
646.493871	0.162998
646.699836	0.163049
646.905783	0.162904
647.111712	0.162973
647.317622	0.163010
647.523514	0.163304
647.729388	0.163209
647.935244	0.163582
648.141082	0.163775
648.346901	0.163622
648.552702	0.163603
648.758485	0.163980
648.964250	0.164131
649.169996	0.164286
649.375724	0.164509
649.581434	0.164850
649.787126	0.164925
649.992800	0.165069
650.198455	0.165372
650.404092	0.165458
650.609711	0.165411
650.815311	0.165529
651.020894	0.165653
651.226458	0.165342
651.432004	0.165293
651.637532	0.165259
651.843041	0.165181
652.048532	0.165130
652.254006	0.165301
652.459460	0.165632
652.664897	0.165610
652.870315	0.165693
653.075716	0.165965
653.281097	0.166162
653.486461	0.166329
653.691807	0.166362
653.897134	0.166442
654.102443	0.166788
654.307734	0.166822
654.513006	0.167052
654.718261	0.167328
654.923497	0.167419
655.128715	0.167274
655.333915	0.167428
655.539096	0.167977
655.744259	0.168186
655.949404	0.168065
656.154531	0.167815
656.359640	0.167698
656.564730	0.167538
656.769802	0.167561
656.974856	0.167771
657.179892	0.167862
657.384909	0.167552
657.589908	0.167499
657.794889	0.167721
657.999852	0.168136
658.204797	0.168480
658.409723	0.168576
658.614631	0.168931
658.819521	0.169340
659.024393	0.169527
659.229246	0.169717
659.434081	0.169978
659.638898	0.170243
659.843697	0.170258
660.048478	0.170168
660.253240	0.170318
660.457984	0.170448
660.662710	0.170229
660.867417	0.170250
661.072107	0.170292
661.276778	0.170308
661.481431	0.169954
661.686066	0.170007
661.890682	0.169956
662.095281	0.170236
662.299861	0.170180
662.504422	0.170249
662.708966	0.170125
662.913491	0.170265
663.117999	0.170258
663.322488	0.170509
663.526958	0.170587
663.731411	0.171004
663.935845	0.170932
664.140261	0.171109
664.344659	0.171298
664.549038	0.171784
664.753400	0.171962
664.957743	0.172205
665.162068	0.172529
665.366375	0.172812
665.570663	0.172933
665.774933	0.173073
665.979185	0.172962
666.183419	0.173043
666.387635	0.172816
666.591832	0.172727
666.796011	0.172966
667.000172	0.172878
667.204315	0.172899
667.408439	0.172898
667.612545	0.173008
667.816634	0.173243
668.020703	0.173427
668.224755	0.173633
668.428788	0.173990
668.632803	0.173849
668.836800	0.174082
669.040779	0.174021
669.244739	0.174014
669.448681	0.174037
669.652605	0.174282
669.856511	0.174168
670.060399	0.174487
670.264268	0.174556
670.468119	0.174801
670.671952	0.174647
670.875767	0.175063
671.079563	0.175289
671.283341	0.175235
671.487101	0.175287
671.690843	0.175614
671.894567	0.175489
672.098272	0.175459
672.301959	0.175461
672.505628	0.175782
672.709278	0.175624
672.912911	0.175688
673.116525	0.175884
673.320121	0.175896
673.523699	0.175923
673.727258	0.176063
673.930799	0.176131
674.134322	0.176388
674.337827	0.176548
674.541314	0.176725
674.744782	0.176730
674.948232	0.177135
675.151664	0.177127
675.355078	0.177223
675.558474	0.177336
675.761851	0.177549
675.965210	0.177651
676.168551	0.177594
676.371873	0.177843
676.575178	0.178042
676.778464	0.178076
676.981732	0.178206
677.184981	0.178423
677.388213	0.178371
677.591426	0.178500
677.794621	0.178576
677.997798	0.178897
678.200956	0.178798
678.404097	0.178990
678.607219	0.179092
678.810323	0.179325
679.013408	0.179156
679.216476	0.179415
679.419525	0.179423
679.622556	0.179514
679.825569	0.179495
680.028563	0.179570
680.231540	0.179564
680.434498	0.179246
680.637438	0.179297
680.840359	0.179465
681.043263	0.179466
681.246148	0.179633
681.449015	0.179568
681.651864	0.179438
681.854694	0.179700
682.057506	0.179972
682.260301	0.180411
682.463076	0.180594
682.665834	0.180685
682.868573	0.180943
683.071295	0.181083
683.273998	0.181187
683.476682	0.181478
683.679349	0.181555
683.881997	0.181847
684.084627	0.181923
684.287239	0.181777
684.489833	0.181880
684.692408	0.181913
684.894965	0.182012
685.097504	0.182290
685.300025	0.182367
685.502527	0.182402
685.705012	0.182106
685.907478	0.182264
686.109925	0.182368
686.312355	0.182470
686.514766	0.182680
686.717159	0.182929
686.919534	0.182767
687.121891	0.182887
687.324230	0.182940
687.526550	0.183099
687.728852	0.183085
687.931136	0.183131
688.133401	0.183362
688.335649	0.183361
688.537878	0.183083
688.740089	0.183239
688.942281	0.183302
689.144456	0.183303
689.346612	0.183346
689.548750	0.183383
689.750870	0.183720
689.952971	0.183703
690.155055	0.183810
690.357120	0.184108
690.559167	0.184233
690.761195	0.184305
690.963206	0.184552
691.165198	0.184901
691.367172	0.185221
691.569128	0.185112
691.771065	0.185261
691.972984	0.185453
692.174885	0.185606
692.376768	0.185660
692.578633	0.185732
692.780479	0.185656
692.982308	0.185491
693.184118	0.185460
693.385909	0.185540
693.587683	0.185504
693.789438	0.185459
693.991175	0.185419
694.192894	0.185579
694.394595	0.185691
694.596277	0.185806
694.797941	0.185783
694.999587	0.185783
695.201215	0.185951
695.402824	0.186022
695.604416	0.186045
695.805989	0.185999
696.007543	0.186035
696.209080	0.186082
696.410598	0.186194
696.612099	0.186319
696.813580	0.186351
697.015044	0.186265
697.216490	0.186389
697.417917	0.186403
697.619326	0.186617
697.820717	0.186687
698.022089	0.186635
698.223444	0.186652
698.424780	0.186931
698.626098	0.186938
698.827397	0.187174
699.028679	0.187201
699.229942	0.187242
699.431187	0.187274
699.632414	0.187120
699.833622	0.187193
700.034813	0.187351
700.235985	0.187062
700.437139	0.187385
700.638274	0.187390
700.839392	0.187505
701.040491	0.187698
701.241572	0.187950
701.442635	0.188183
701.643679	0.188300
701.844706	0.188441
702.045714	0.188867
702.246704	0.188659
702.447675	0.188636
702.648629	0.188817
702.849564	0.188608
703.050481	0.188489
703.251380	0.188465
703.452260	0.188585
703.653122	0.188368
703.853966	0.188121
704.054792	0.187951
704.255600	0.187897
704.456389	0.187792
704.657160	0.188025
704.857913	0.187691
705.058648	0.187712
705.259365	0.187621
705.460063	0.187478
705.660743	0.187427
705.861405	0.187668
706.062048	0.187629
706.262674	0.187211
706.463281	0.187050
706.663870	0.187345
706.864441	0.187472
707.064993	0.187353
707.265527	0.187510
707.466043	0.187509
707.666541	0.187487
707.867021	0.187800
708.067482	0.188125
708.267925	0.188277
708.468350	0.188500
708.668757	0.188287
708.869145	0.188400
709.069516	0.188592
709.269868	0.188755
709.470201	0.188844
709.670517	0.188805
709.870814	0.188829
710.071093	0.188760
710.271354	0.188505
710.471597	0.188813
710.671821	0.188874
710.872028	0.188661
711.072216	0.188715
711.272385	0.188684
711.472537	0.188498
711.672670	0.188437
711.872785	0.188578
712.072882	0.188611
712.272961	0.188465
712.473021	0.188413
712.673063	0.188366
712.873087	0.188272
713.073093	0.188299
713.273081	0.188347
713.473050	0.188434
713.673001	0.188332
713.872934	0.188369
714.072849	0.188277
714.272745	0.188298
714.472623	0.188424
714.672483	0.188360
714.872325	0.188473
715.072148	0.188569
715.271954	0.188424
715.471741	0.188485
715.671509	0.188396
715.871260	0.188493
716.070992	0.188281
716.270707	0.188041
716.470403	0.187948
716.670080	0.187799
716.869740	0.187853
717.069381	0.187795
717.269004	0.187492
717.468609	0.187538
717.668195	0.187513
717.867764	0.187747
718.067314	0.187907
718.266846	0.187928
718.466360	0.187984
718.665855	0.187777
718.865332	0.188019
719.064791	0.187775
719.264232	0.187628
719.463655	0.187433
719.663059	0.187345
719.862445	0.187435
720.061813	0.187500
720.261163	0.187467
720.460494	0.187647
720.659807	0.187449
720.859102	0.187845
721.058379	0.187788
721.257638	0.187750
721.456878	0.187490
721.656100	0.187378
721.855304	0.187318
722.054490	0.187068
722.253657	0.186718
722.452806	0.186713
722.651937	0.186608
722.851050	0.186534
723.050145	0.186586
723.249221	0.186570
723.448279	0.186513
723.647319	0.186522
723.846340	0.186517
724.045344	0.186562
724.244329	0.186471
724.443296	0.186403
724.642245	0.186303
724.841175	0.186267
725.040088	0.186506
725.238982	0.186328
725.437857	0.186230
725.636715	0.186279
725.835554	0.186335
726.034376	0.186206
726.233179	0.185939
726.431963	0.186043
726.630730	0.186034
726.829478	0.185833
727.028208	0.185776
727.226920	0.185812
727.425614	0.185540
727.624289	0.185392
727.822946	0.185352
728.021585	0.185560
728.220206	0.185175
728.418808	0.185026
728.617392	0.184984
728.815958	0.185119
729.014506	0.184933
729.213036	0.185220
729.411547	0.184974
729.610040	0.184946
729.808515	0.184696
730.006972	0.184839
730.205410	0.184729
730.403831	0.184573
730.602233	0.184477
730.800616	0.184260
730.998982	0.183937
731.197329	0.183941
731.395658	0.184049
731.593969	0.183955
731.792262	0.183853
731.990536	0.183802
732.188793	0.183859
732.387031	0.183849
732.585250	0.183994
732.783452	0.183894
732.981635	0.183930
733.179800	0.183677
733.377947	0.183765
733.576076	0.183506
733.774186	0.183432
733.972278	0.183204
734.170352	0.182908
734.368408	0.182810
734.566446	0.182681
734.764465	0.182638
734.962466	0.182499
735.160449	0.182194
735.358413	0.182379
735.556360	0.182396
735.754288	0.182416
735.952198	0.182585
736.150090	0.182459
736.347963	0.182482
736.545818	0.182115
736.743655	0.181968
736.941474	0.181941
737.139275	0.181866
737.337057	0.181710
737.534821	0.181544
737.732567	0.181057
737.930295	0.180809
738.128005	0.180701
738.325696	0.180617
738.523369	0.180455
738.721024	0.180384
738.918660	0.180105
739.116279	0.179869
739.313879	0.179802
739.511461	0.179780
739.709024	0.179839
739.906570	0.179432
740.104097	0.179470
740.301606	0.179429
740.499097	0.179333
740.696569	0.179310
740.894024	0.179429
741.091460	0.178968
741.288878	0.178860
741.486277	0.178865
741.683659	0.179019
741.881022	0.178758
742.078367	0.178785
742.275694	0.178632
742.473002	0.178581
742.670293	0.178346
742.867565	0.178637
743.064819	0.178726
743.262054	0.178433
743.459272	0.178350
743.656471	0.178536
743.853652	0.178412
744.050815	0.178374
744.247959	0.178260
744.445085	0.178091
744.642194	0.177838
744.839283	0.177641
745.036355	0.177397
745.233408	0.177272
745.430444	0.176917
745.627461	0.176706
745.824459	0.176397
746.021440	0.176247
746.218402	0.176143
746.415346	0.176012
746.612272	0.175781
746.809180	0.175858
747.006069	0.175646
747.202940	0.175598
747.399793	0.175696
747.596628	0.175915
747.793444	0.175684
747.990243	0.175646
748.187023	0.175564
748.383784	0.175550
748.580528	0.175266
748.777253	0.175234
748.973960	0.175028
749.170649	0.175020
749.367320	0.174645
749.563973	0.174578
749.760607	0.174187
749.957223	0.174197
750.153821	0.174067
750.350400	0.173931
750.546962	0.173703
750.743505	0.173810
750.940030	0.173338
751.136536	0.173357
751.333025	0.173219
751.529495	0.173359
751.725947	0.173240
751.922381	0.173134
752.118796	0.173231
752.315194	0.173251
752.511573	0.172956
752.707934	0.173108
752.904276	0.173099
753.100601	0.173182
753.296907	0.173131
753.493195	0.173176
753.689465	0.173225
753.885716	0.173028
754.081949	0.172903
754.278164	0.172898
754.474361	0.172747
754.670540	0.172698
754.866700	0.172553
755.062843	0.172441
755.258967	0.172269
755.455072	0.171928
755.651160	0.171766
755.847229	0.171709
756.043280	0.171708
756.239313	0.171650
756.435328	0.171493
756.631324	0.171510
756.827302	0.171449
757.023262	0.171445
757.219204	0.171756
757.415127	0.171991
757.611033	0.172091
757.806920	0.171997
758.002788	0.171754
758.198639	0.171779
758.394471	0.171671
758.590286	0.171630
758.786081	0.171434
758.981859	0.171162
759.177619	0.171026
759.373360	0.170764
759.569083	0.170581
759.764788	0.170666
759.960474	0.170475
760.156143	0.170339
760.351793	0.170197
760.547425	0.170130
760.743038	0.170054
760.938634	0.169988
761.134211	0.170057
761.329770	0.169931
761.525311	0.170013
761.720833	0.169831
761.916338	0.169905
762.111824	0.169833
762.307292	0.169578
762.502741	0.169443
762.698173	0.169201
762.893586	0.169231
763.088981	0.169308
763.284358	0.169041
763.479716	0.169146
763.675057	0.168864
763.870379	0.168753
764.065683	0.168712
764.260968	0.168577
764.456236	0.168651
764.651485	0.168264
764.846716	0.168247
765.041929	0.168228
765.237123	0.168150
765.432299	0.168067
765.627457	0.168083
765.822597	0.168191
766.017719	0.168213
766.212822	0.168014
766.407907	0.168149
766.602974	0.168007
766.798023	0.167900
766.993054	0.167674
767.188066	0.167975
767.383060	0.168081
767.578036	0.167974
767.772993	0.167988
767.967933	0.168139
768.162854	0.168195
768.357757	0.168403
768.552642	0.168347
768.747508	0.168563
768.942356	0.168326
769.137186	0.168147
769.331998	0.167959
769.526792	0.167892
769.721567	0.167575
769.916324	0.167350
770.111063	0.167080
770.305784	0.167007
770.500486	0.166781
770.695171	0.166737
770.889837	0.166813
771.084484	0.166908
771.279114	0.167361
771.473725	0.167592
771.668318	0.167412
771.862893	0.167378
772.057450	0.167507
772.251988	0.167665
772.446509	0.167611
772.641011	0.167432
772.835494	0.167342
773.029960	0.166759
773.224407	0.166785
773.418836	0.166845
773.613247	0.166894
773.807640	0.166912
774.002014	0.166882
774.196370	0.166897
774.390708	0.166929
774.585028	0.166935
774.779330	0.167012
774.973613	0.166717
775.167878	0.166736
775.362125	0.166728
775.556354	0.166599
775.750564	0.166441
775.944756	0.166350
776.138930	0.166188
776.333086	0.166126
776.527223	0.166121
776.721343	0.166200
776.915444	0.166288
777.109526	0.166348
777.303591	0.166354
777.497637	0.166265
777.691666	0.166285
777.885676	0.166302
778.079667	0.166492
778.273641	0.166442
778.467596	0.166707
778.661533	0.166611
778.855452	0.166629
779.049352	0.166392
779.243235	0.166326
779.437099	0.166412
779.630945	0.166487
779.824773	0.166481
780.018582	0.166622
780.212373	0.166423
780.406146	0.166614
780.599901	0.166619
780.793638	0.167050
780.987356	0.167257
781.181056	0.167378
781.374738	0.167577
781.568402	0.167754
781.762047	0.167734
781.955674	0.167846
782.149283	0.167901
782.342874	0.167859
782.536447	0.167829
782.730001	0.168081
782.923537	0.168086
783.117055	0.168218
783.310555	0.168033
783.504036	0.168201
783.697499	0.168124
783.890944	0.168017
784.084371	0.168098
784.277780	0.168192
784.471170	0.167958
784.664542	0.167956
784.857896	0.167781
785.051231	0.168120
785.244549	0.167952
785.437848	0.168255
785.631129	0.168215
785.824392	0.168145
786.017636	0.168391
786.210863	0.168569
786.404071	0.168687
786.597260	0.169019
786.790432	0.168913
786.983585	0.169091
787.176721	0.168956
787.369838	0.169201
787.562936	0.169620
787.756017	0.169416
787.949079	0.169410
788.142123	0.169333
788.335149	0.169300
788.528156	0.169287
788.721146	0.169565
788.914117	0.169562
789.107070	0.169613
789.300005	0.169585
789.492921	0.169450
789.685819	0.169634
789.878699	0.169760
790.071561	0.169591
790.264405	0.169609
790.457230	0.169516
790.650037	0.169656
790.842826	0.169749
791.035597	0.169884
791.228349	0.170198
791.421084	0.170154
791.613800	0.170182
791.806497	0.170542
791.999177	0.170679
792.191838	0.170702
792.384481	0.170600
792.577106	0.170626
792.769713	0.170654
792.962301	0.170524
793.154871	0.170776
793.347423	0.170796
793.539957	0.170878
793.732473	0.170979
793.924970	0.171129
794.117449	0.171436
794.309910	0.171662
794.502353	0.171779
794.694777	0.172185
794.887183	0.172279
795.079571	0.172440
795.271941	0.172306
795.464293	0.172323
795.656626	0.172248
795.848941	0.172327
796.041238	0.172368
796.233516	0.172400
796.425777	0.172366
796.618019	0.172455
796.810243	0.172498
797.002449	0.172519
797.194636	0.172607
797.386805	0.172810
797.578956	0.172824
797.771089	0.173058
797.963204	0.173018
798.155300	0.173241
798.347378	0.173578
798.539438	0.173913
798.731480	0.174002
798.923503	0.174323
799.115509	0.174411
799.307496	0.174644
799.499465	0.174636
799.691415	0.174633
799.883348	0.174647
800.075262	0.174551
800.267158	0.174465
800.459035	0.174781
800.650895	0.174991
800.842736	0.175135
801.034559	0.175217
801.226364	0.175326
801.418150	0.175569
801.609919	0.175449
801.801669	0.175569
801.993401	0.175777
802.185114	0.175814
802.376810	0.176003
802.568487	0.176342
802.760146	0.176455
802.951787	0.176608
803.143409	0.176891
803.335014	0.177036
803.526600	0.177203
803.718168	0.177222
803.909717	0.177314
804.101249	0.177125
804.292762	0.177099
804.484257	0.177214
804.675734	0.177236
804.867192	0.177470
805.058632	0.177834
805.250054	0.177985
805.441458	0.178171
805.632844	0.178336
805.824211	0.178679
806.015561	0.179033
806.206891	0.179223
806.398204	0.179479
806.589499	0.179640
806.780775	0.179713
806.972033	0.179740
807.163273	0.180323
807.354495	0.180559
807.545698	0.180769
807.736883	0.180781
807.928050	0.181050
808.119199	0.181329
808.310329	0.181378
808.501441	0.181629
808.692535	0.182035
808.883611	0.181804
809.074669	0.182025
809.265708	0.182276
809.456729	0.182407
809.647732	0.182830
809.838717	0.182806
810.029683	0.183042
810.220632	0.183242
810.411562	0.183267
810.602474	0.183592
810.793367	0.183809
810.984242	0.183749
811.175100	0.183781
811.365938	0.183665
811.556759	0.184046
811.747562	0.183850
811.938346	0.184013
812.129112	0.184273
812.319860	0.184370
812.510589	0.184764
812.701300	0.185267
812.891994	0.185566
813.082668	0.185881
813.273325	0.186100
813.463964	0.186648
813.654584	0.186686
813.845186	0.186781
814.035769	0.187188
814.226335	0.187138
814.416882	0.186981
814.607411	0.187207
814.797922	0.187370
814.988415	0.187362
815.178889	0.187509
815.369345	0.187927
815.559783	0.187996
815.750203	0.188019
815.940605	0.188284
816.130988	0.188735
816.321353	0.189117
816.511700	0.189526
816.702028	0.189942
816.892339	0.190310
817.082631	0.190396
817.272905	0.190912
817.463161	0.191209
817.653398	0.191598
817.843617	0.191684
818.033819	0.191954
818.224001	0.191920
818.414166	0.192049
818.604312	0.192336
818.794440	0.192591
818.984550	0.192770
819.174642	0.193211
819.364716	0.193271
819.554771	0.193608
819.744808	0.193650
819.934827	0.193861
820.124827	0.194195
820.314810	0.194201
820.504774	0.194730
820.694720	0.194872
820.884647	0.194643
821.074557	0.194748
821.264448	0.194766
821.454321	0.195027
821.644176	0.195360
821.834012	0.195464
822.023831	0.195619
822.213631	0.195621
822.403413	0.195671
822.593176	0.196087
822.782922	0.196509
822.972649	0.196648
823.162358	0.196878
823.352049	0.197162
823.541721	0.197565
823.731376	0.198101
823.921012	0.198365
824.110629	0.198778
824.300229	0.199004
824.489811	0.199066
824.679374	0.199557
824.868919	0.199559
825.058445	0.199608
825.247954	0.199719
825.437444	0.200011
825.626916	0.200169
825.816370	0.200487
826.005806	0.200685
826.195223	0.200935
826.384622	0.201137
826.574003	0.201449
826.763366	0.201834
826.952711	0.201912
827.142037	0.201953
827.331345	0.202112
827.520635	0.202335
827.709906	0.202563
827.899160	0.202845
828.088395	0.203409
828.277612	0.203881
828.466810	0.204041
828.655991	0.204260
828.845153	0.204414
829.034297	0.204848
829.223423	0.205034
829.412531	0.205564
829.601620	0.206090
829.790691	0.205856
829.979744	0.205962
830.168779	0.206069
830.357795	0.206484
830.546793	0.207112
830.735773	0.207357
830.924735	0.207699
831.113679	0.207701
831.302604	0.207824
831.491511	0.208153
831.680400	0.208582
831.869271	0.208820
832.058123	0.209104
832.246957	0.209047
832.435773	0.209456
832.624571	0.209686
832.813351	0.210072
833.002112	0.210185
833.190855	0.210351
833.379580	0.210756
833.568287	0.211216
833.756975	0.211296
833.945645	0.211531
834.134297	0.211569
834.322931	0.211827
834.511547	0.212255
834.700144	0.212613
834.888723	0.213475
835.077284	0.213502
835.265826	0.213739
835.454351	0.214117
835.642857	0.214249
835.831345	0.214676
836.019815	0.214885
836.208266	0.214866
836.396699	0.215380
836.585114	0.215396
836.773511	0.215569
836.961890	0.215857
837.150250	0.216453
837.338592	0.216854
837.526916	0.216694
837.715222	0.217043
837.903510	0.217462
838.091779	0.217439
838.280030	0.217659
838.468263	0.217966
838.656477	0.217878
838.844674	0.217817
839.032852	0.218037
839.221012	0.218334
839.409153	0.218639
839.597277	0.219051
839.785382	0.219556
839.973469	0.219779
840.161538	0.220192
840.349589	0.220978
840.537621	0.221392
840.725635	0.221879
840.913631	0.222329
841.101609	0.222625
841.289568	0.222743
841.477509	0.222862
841.665432	0.223283
841.853337	0.223555
842.041224	0.223396
842.229092	0.223708
842.416942	0.224092
842.604774	0.224651
842.792588	0.225129
842.980383	0.225221
843.168160	0.225454
843.355919	0.225467
843.543660	0.225881
843.731382	0.226561
843.919087	0.226729
844.106773	0.226951
844.294441	0.227395
844.482090	0.227458
844.669722	0.228406
844.857335	0.228916
845.044930	0.229295
845.232507	0.229458
845.420065	0.230054
845.607605	0.230570
845.795127	0.230881
845.982631	0.230779
846.170117	0.231168
846.357584	0.231175
846.545033	0.231435
846.732464	0.231598
846.919877	0.231877
847.107272	0.231772
847.294648	0.231874
847.482006	0.232132
847.669346	0.232652
847.856667	0.232820
848.043971	0.232802
848.231256	0.233053
848.418523	0.233412
848.605771	0.233926
848.793002	0.234102
848.980214	0.234417
849.167408	0.234999
849.354584	0.235433
849.541742	0.235633
849.728881	0.236285
849.916002	0.236551
850.103105	0.237048
850.290190	0.237178
850.477256	0.237682
850.664304	0.238069
850.851334	0.238150
851.038346	0.238108
851.225340	0.238539
851.412315	0.238884
851.599272	0.239152
851.786211	0.239446
851.973132	0.239852
852.160034	0.240227
852.346918	0.240475
852.533784	0.240510
852.720632	0.240773
852.907462	0.240898
853.094273	0.240889
853.281066	0.241308
853.467841	0.241212
853.654598	0.241304
853.841336	0.241575
854.028056	0.242052
854.214758	0.242348
854.401442	0.243044
854.588107	0.243537
854.774755	0.243622
854.961384	0.243612
855.147995	0.243952
855.334587	0.244257
855.521162	0.244540
855.707718	0.244954
855.894256	0.245296
856.080775	0.245378
856.267277	0.245475
856.453760	0.245952
856.640225	0.246465
856.826672	0.247107
857.013101	0.247446
857.199511	0.247411
857.385903	0.247384
857.572277	0.247601
857.758633	0.247658
857.944970	0.247774
858.131290	0.248210
858.317591	0.248109
858.503873	0.248242
858.690138	0.248618
858.876384	0.249078
859.062612	0.249443
859.248822	0.249609
859.435014	0.250154
859.621188	0.250620
859.807343	0.250514
859.993480	0.251106
860.179599	0.251254
860.365699	0.251687
860.551781	0.251876
860.737846	0.252066
860.923891	0.252389
861.109919	0.252246
861.295929	0.252673
861.481920	0.253327
861.667893	0.253316
861.853848	0.253613
862.039784	0.253495
862.225702	0.253878
862.411603	0.253989
862.597484	0.254189
862.783348	0.254588
862.969193	0.254574
863.155021	0.254681
863.340830	0.255094
863.526620	0.255581
863.712393	0.255917
863.898147	0.255892
864.083883	0.256142
864.269601	0.256423
864.455301	0.256957
864.640982	0.257373
864.826645	0.257395
865.012290	0.257616
865.197917	0.257412
865.383526	0.257301
865.569116	0.257884
865.754688	0.258260
865.940242	0.258695
866.125777	0.258941
866.311295	0.258865
866.496794	0.259221
866.682275	0.259541
866.867737	0.260360
867.053182	0.260701
867.238608	0.260572
867.424016	0.260981
867.609406	0.261002
867.794778	0.260840
867.980131	0.261078
868.165466	0.261390
868.350783	0.261357
868.536082	0.261188
868.721362	0.261402
868.906625	0.261676
869.091869	0.261457
869.277094	0.261733
869.462302	0.262077
869.647491	0.262444
869.832662	0.262585
870.017815	0.262894
870.202950	0.262908
870.388066	0.263494
870.573165	0.263811
870.758245	0.264487
870.943306	0.264520
871.128350	0.264885
871.313375	0.265030
871.498382	0.265241
871.683371	0.265221
871.868342	0.265616
872.053294	0.265896
872.238229	0.266163
872.423144	0.266055
872.608042	0.266350
872.792922	0.266299
872.977783	0.266509
873.162626	0.266483
873.347451	0.267025
873.532258	0.267169
873.717046	0.266858
873.901816	0.267357
874.086568	0.267578
874.271302	0.267795
874.456017	0.268022
874.640715	0.268127
874.825394	0.268569
875.010055	0.268682
875.194697	0.268709
875.379322	0.268895
875.563928	0.268492
875.748516	0.268817
875.933085	0.269211
876.117637	0.269390
876.302170	0.269595
876.486685	0.269449
876.671182	0.269503
876.855661	0.269610
877.040121	0.269833
877.224563	0.270153
877.408987	0.269854
877.593393	0.270106
877.777780	0.270375
877.962150	0.270677
878.146501	0.271007
878.330833	0.271504
878.515148	0.272018
878.699444	0.272194
878.883722	0.272362
879.067982	0.272407
879.252224	0.271855
879.436447	0.271949
879.620653	0.272068
879.804840	0.272182
879.989008	0.272007
880.173159	0.271664
880.357291	0.271370
880.541405	0.271626
880.725501	0.271571
880.909579	0.271971
881.093638	0.271625
881.277680	0.271819
881.461703	0.271729
881.645707	0.271997
881.829694	0.272270
882.013662	0.272318
882.197612	0.272200
882.381544	0.272367
882.565458	0.272540
882.749353	0.272822
882.933230	0.272719
883.117089	0.272988
883.300930	0.272763
883.484753	0.273016
883.668557	0.273266
883.852343	0.273621
884.036111	0.273760
884.219861	0.273733
884.403592	0.274292
884.587305	0.274324
884.771000	0.274420
884.954677	0.274569
885.138335	0.274707
885.321976	0.275225
885.505598	0.275191
885.689201	0.275319
885.872787	0.275037
886.056354	0.274803
886.239904	0.274918
886.423434	0.274805
886.606947	0.274920
886.790442	0.274641
886.973918	0.274499
887.157376	0.274362
887.340816	0.274482
887.524237	0.274854
887.707641	0.274875
887.891026	0.275007
888.074393	0.275196
888.257741	0.274948
888.441072	0.274837
888.624384	0.274567
888.807678	0.274846
888.990954	0.274806
889.174211	0.274674
889.357451	0.274917
889.540672	0.274796
889.723875	0.274389
889.907059	0.274738
890.090226	0.274992
890.273374	0.275277
890.456504	0.274733
890.639616	0.274633
890.822709	0.274339
891.005785	0.273993
891.188842	0.273722
891.371881	0.274156
891.554901	0.273904
891.737904	0.274025
891.920888	0.274111
892.103854	0.274474
892.286802	0.274641
892.469731	0.275319
892.652643	0.275228
892.835536	0.275184
893.018410	0.275150
893.201267	0.275203
893.384106	0.274884
893.566926	0.275236
893.749728	0.275149
893.932511	0.275213
894.115277	0.274516
894.298024	0.274463
894.480753	0.274632
894.663464	0.274443
894.846157	0.274448
895.028831	0.274107
895.211487	0.273323
895.394125	0.273031
895.576745	0.272999
895.759346	0.273296
895.941930	0.273188
896.124495	0.273234
896.307041	0.273103
896.489570	0.272781
896.672080	0.273010
896.854573	0.273250
897.037046	0.273412
897.219502	0.273172
897.401940	0.272720
897.584359	0.272609
897.766760	0.272227
897.949143	0.272444
898.131507	0.272396
898.313854	0.272355
898.496182	0.272307
898.678492	0.271738
898.860783	0.271186
899.043057	0.271038
899.225312	0.270774
899.407549	0.270347
899.589768	0.269517
899.771968	0.269288
899.954151	0.268919
900.136315	0.268444
900.318461	0.268243
900.500588	0.268562
900.682698	0.268364
900.864789	0.268251
901.046862	0.268259
901.228917	0.268187
901.410953	0.267952
901.592971	0.267818
901.774972	0.267555
901.956953	0.267099
902.138917	0.266977
902.320862	0.267113
902.502790	0.267094
902.684699	0.267294
902.866589	0.267365
903.048462	0.267397
903.230316	0.267462
903.412152	0.267579
903.593970	0.267823
903.775770	0.267190
903.957551	0.266969
904.139314	0.266225
904.321059	0.265894
904.502786	0.265655
904.684494	0.265228
904.866185	0.264804
905.047857	0.264352
905.229510	0.264050
905.411146	0.264137
905.592763	0.264147
905.774363	0.264074
905.955943	0.263648
906.137506	0.263057
906.319051	0.263064
906.500577	0.262971
906.682085	0.262537
906.863575	0.262227
907.045046	0.262026
907.226500	0.261874
907.407935	0.262214
907.589352	0.262324
907.770750	0.262620
907.952131	0.262153
908.133493	0.261644
908.314837	0.262097
908.496163	0.262062
908.677470	0.261588
908.858760	0.260887
909.040031	0.260495
909.221284	0.259716
909.402518	0.259401
909.583735	0.259324
909.764933	0.258514
909.946113	0.257539
910.127275	0.257032
910.308418	0.256365
910.489544	0.256180
910.670651	0.255735
910.851740	0.255389
911.032810	0.254934
911.213863	0.254720
911.394897	0.254908
911.575913	0.254449
911.756911	0.254455
911.937890	0.254181
912.118851	0.253543
912.299794	0.252831
912.480719	0.252752
912.661626	0.252435
912.842514	0.252133
913.023384	0.252000
913.204236	0.251499
913.385070	0.251169
913.565886	0.251276
913.746683	0.251099
913.927462	0.250863
914.108223	0.250552
914.288965	0.250277
914.469690	0.249416
914.650396	0.248776
914.831084	0.248757
915.011754	0.248350
915.192405	0.247915
915.373038	0.247436
915.553653	0.247220
915.734250	0.246942
915.914829	0.246099
916.095389	0.246001
916.275931	0.245563
916.456455	0.244637
916.636961	0.243889
916.817448	0.243228
916.997917	0.242656
917.178368	0.242015
917.358801	0.241345
917.539216	0.241116
917.719612	0.240592
917.899990	0.240200
918.080350	0.240228
918.260692	0.239684
918.441015	0.239360
918.621320	0.238763
918.801607	0.238317
918.981876	0.237704
919.162127	0.237376
919.342359	0.236922
919.522573	0.237016
919.702769	0.236568
919.882947	0.236310
920.063106	0.235940
920.243247	0.235483
920.423370	0.235942
920.603475	0.235651
920.783562	0.235298
920.963630	0.234347
921.143680	0.233563
921.323712	0.232840
921.503725	0.232435
921.683721	0.232343
921.863698	0.232215
922.043657	0.230492
922.223598	0.229979
922.403520	0.229126
922.583424	0.228798
922.763311	0.228273
922.943178	0.228183
923.123028	0.227782
923.302859	0.226620
923.482673	0.225967
923.662467	0.225636
923.842244	0.225370
924.022003	0.225767
924.201743	0.225690
924.381465	0.225255
924.561169	0.224244
924.740854	0.223000
924.920522	0.222310
925.100171	0.221987
925.279802	0.221921
925.459414	0.220508
925.639009	0.219328
925.818585	0.218399
925.998143	0.217264
926.177683	0.217249
926.357205	0.216889
926.536708	0.216765
926.716193	0.216277
926.895660	0.215668
927.075109	0.215140
927.254539	0.214293
927.433951	0.214088
927.613345	0.213995
927.792721	0.213333
927.972079	0.213168
928.151418	0.212149
928.330739	0.211360
928.510042	0.210393
928.689327	0.210045
928.868593	0.210200
929.047841	0.209800
929.227071	0.209098
929.406283	0.208472
929.585476	0.207853
929.764652	0.207318
929.943809	0.207071
930.122948	0.207034
930.302068	0.206497
930.481171	0.204561
930.660255	0.203903
930.839321	0.203643
931.018369	0.203091
931.197398	0.202270
931.376409	0.201930
931.555402	0.201049
931.734377	0.200365
931.913334	0.200016
932.092272	0.200548
932.271192	0.199859
932.450094	0.199365
932.628978	0.198961
932.807844	0.198614
932.986691	0.198073
933.165520	0.197383
933.344331	0.195392
933.523123	0.194770
933.701898	0.193387
933.880654	0.192046
934.059392	0.190880
934.238111	0.189736
934.416813	0.189701
934.595496	0.188983
934.774161	0.188118
934.952808	0.188333
935.131437	0.188591
935.310047	0.187900
935.488639	0.187610
935.667213	0.186776
935.845769	0.186368
936.024306	0.185579
936.202825	0.185143
936.381326	0.184287
936.559809	0.183712
936.738274	0.181661
936.916720	0.182074
937.095148	0.180996
937.273558	0.180422
937.451950	0.179870
937.630323	0.179119
937.808678	0.178272
937.987015	0.178570
938.165334	0.178142
938.343635	0.178159
938.521917	0.176675
938.700181	0.176359
938.878427	0.176609
939.056655	0.176118
939.234864	0.174848
939.413055	0.173790
939.591228	0.171987
939.769383	0.171736
939.947519	0.170599
940.125638	0.169681
940.303738	0.169622
940.481820	0.168199
940.659883	0.167482
940.837929	0.166444
941.015956	0.166405
941.193965	0.166476
941.371955	0.165843
941.549928	0.165884
941.727882	0.164751
941.905818	0.164895
942.083736	0.164319
942.261636	0.162758
942.439517	0.163043
942.617380	0.162355
942.795225	0.161883
942.973052	0.160720
943.150860	0.160008
943.328651	0.159962
943.506423	0.157563
943.684176	0.156659
943.861912	0.156175
944.039629	0.154849
944.217328	0.153565
944.395009	0.151898
944.572672	0.150409
944.750317	0.149974
944.927943	0.149045
945.105551	0.148002
945.283141	0.147498
945.460712	0.147184
945.638265	0.146578
945.815801	0.145263
945.993317	0.144797
946.170816	0.143559
946.348297	0.142005
946.525759	0.140757
946.703203	0.141137
946.880629	0.140155
947.058036	0.139622
947.235425	0.138492
947.412797	0.137528
947.590149	0.138184
947.767484	0.139074
947.944800	0.139769
948.122099	0.140256
948.299379	0.139334
948.476640	0.139639
948.653884	0.138195
948.831109	0.138254
949.008316	0.139475
949.185505	0.138197
949.362676	0.137806
949.539828	0.134274
949.716962	0.132774
949.894078	0.132304
950.071176	0.132434
950.248256	0.131130
950.425317	0.130217
950.602360	0.129422
950.779385	0.127563
950.956391	0.126473
951.133380	0.126385
951.310350	0.125551
951.487302	0.124217
951.664235	0.120159
951.841151	0.120282
952.018048	0.119136
952.194927	0.117287
952.371788	0.117331
952.548631	0.117101
952.725455	0.118288
952.902261	0.118534
953.079049	0.118285
953.255819	0.119627
953.432570	0.117354
953.609303	0.115075
953.786018	0.115415
953.962715	0.114344
954.139394	0.114661
954.316054	0.114437
954.492696	0.112568
954.669320	0.111303
954.845926	0.110041
955.022513	0.111699
955.199083	0.114628
955.375634	0.114214
955.552166	0.115201
955.728681	0.113278
955.905177	0.111631
956.081655	0.112212
956.258115	0.112496
956.434557	0.109793
956.610980	0.109028
956.787385	0.105455
956.963772	0.103548
957.140141	0.102151
957.316492	0.099651
957.492824	0.098743
957.669138	0.098992
957.845434	0.097462
958.021712	0.099796
958.197971	0.099512
958.374212	0.100249
958.550435	0.099452
958.726640	0.100034
958.902826	0.101271
959.078995	0.102186
959.255145	0.101750
959.431277	0.102110
959.607390	0.101766
959.783486	0.102541
959.959563	0.101679
960.135622	0.103628
960.311662	0.103611
960.487685	0.103256
960.663689	0.102928
960.839675	0.101197
961.015643	0.101763
961.191593	0.101383
961.367524	0.099508
961.543437	0.098998
961.719332	0.098028
961.895209	0.093310
962.071067	0.091204
962.246907	0.090076
962.422730	0.090821
962.598533	0.089622
962.774319	0.090225
962.950086	0.091413
963.125835	0.093274
963.301566	0.091576
963.477279	0.095398
963.652973	0.097252
963.828650	0.098399
964.004308	0.098152
964.179947	0.099157
964.355569	0.099621
964.531172	0.097540
964.706757	0.095421
964.882324	0.096013
965.057873	0.095220
965.233403	0.095571
965.408916	0.096248
965.584410	0.096534
965.759885	0.094980
965.935343	0.094677
966.110782	0.095154
966.286203	0.095714
966.461606	0.097309
966.636991	0.097339
966.812357	0.095869
966.987705	0.095926
967.163035	0.094143
967.338347	0.093980
967.513641	0.093473
967.688916	0.092875
967.864173	0.093929
968.039412	0.092401
968.214632	0.091018
968.389835	0.091806
968.565019	0.089729
968.740185	0.090474
968.915333	0.089583
969.090462	0.088245
969.265573	0.088543
969.440667	0.088004
969.615741	0.087992
969.790798	0.087737
969.965836	0.088411
970.140856	0.087155
970.315858	0.087862
970.490842	0.089989
970.665808	0.090877
970.840755	0.091809
971.015684	0.093885
971.190595	0.095846
971.365487	0.098241
971.540362	0.099020
971.715218	0.100763
971.890056	0.102185
972.064875	0.102154
972.239677	0.100257
972.414460	0.099108
972.589225	0.098865
972.763972	0.098327
972.938700	0.098749
973.113411	0.097946
973.288103	0.097048
973.462777	0.094264
973.637432	0.092753
973.812070	0.093521
973.986689	0.094171
974.161290	0.091694
974.335873	0.090143
974.510437	0.088093
974.684984	0.087537
974.859512	0.089289
975.034022	0.090712
975.208513	0.091873
975.382987	0.092216
975.557442	0.092278
975.731879	0.091632
975.906298	0.092499
976.080698	0.093290
976.255080	0.093745
976.429445	0.091322
976.603790	0.090727
976.778118	0.091694
976.952427	0.092117
977.126719	0.091862
977.300992	0.093343
977.475246	0.093577
977.649483	0.092913
977.823701	0.092356
977.997901	0.092112
978.172083	0.090418
978.346247	0.087758
978.520392	0.085997
978.694519	0.087394
978.868628	0.088012
979.042719	0.087186
979.216791	0.087600
979.390845	0.087327
979.564882	0.089627
979.738899	0.090676
979.912899	0.093024
980.086880	0.093669
980.260843	0.092475
980.434788	0.092226
980.608715	0.091747
980.782623	0.091173
980.956514	0.092616
981.130386	0.092576
981.304240	0.092656
981.478075	0.091627
981.651892	0.091294
981.825692	0.089931
981.999472	0.089551
982.173235	0.089730
982.346980	0.091316
982.520706	0.088939
982.694414	0.087677
982.868104	0.086890
983.041775	0.087972
983.215428	0.089764
983.389064	0.092388
983.562680	0.092408
983.736279	0.091916
983.909860	0.090682
984.083422	0.091677
984.256966	0.090061
984.430491	0.091427
984.603999	0.092008
984.777488	0.091476
984.950959	0.091035
985.124412	0.091404
985.297847	0.093761
985.471263	0.092924
985.644661	0.094127
985.818041	0.095229
985.991403	0.096452
986.164747	0.094575
986.338072	0.095241
986.511379	0.094303
986.684668	0.094076
986.857938	0.092936
987.031191	0.094099
987.204425	0.093708
987.377641	0.094835
987.550839	0.094266
987.724018	0.093764
987.897179	0.093174
988.070322	0.093716
988.243447	0.092878
988.416554	0.093864
988.589642	0.094683
988.762712	0.097127
988.935764	0.096707
989.108798	0.096982
989.281813	0.097138
989.454811	0.096661
989.627790	0.097660
989.800751	0.097660
989.973693	0.096288
990.146617	0.093890
990.319524	0.091780
990.492412	0.093896
990.665281	0.092146
990.838133	0.092258
991.010966	0.092735
991.183781	0.091747
991.356578	0.091976
991.529356	0.092228
991.702117	0.094363
991.874859	0.093045
992.047583	0.092237
992.220288	0.092622
992.392976	0.092892
992.565645	0.093652
992.738296	0.093555
992.910929	0.092278
993.083543	0.091797
993.256139	0.091664
993.428718	0.091178
993.601277	0.089997
993.773819	0.090409
993.946342	0.090119
994.118848	0.089712
994.291335	0.091800
994.463803	0.091911
994.636254	0.092934
994.808686	0.091565
994.981100	0.091438
995.153496	0.092020
995.325874	0.091232
995.498233	0.092275
995.670574	0.092636
995.842897	0.091552
996.015202	0.093542
996.187488	0.092871
996.359757	0.093980
996.532007	0.094811
996.704239	0.093207
996.876452	0.094260
997.048648	0.094268
997.220825	0.092626
997.392984	0.092078
997.565124	0.091888
997.737247	0.091505
997.909351	0.090555
998.081437	0.091620
998.253505	0.091976
998.425554	0.091854
998.597586	0.091574
998.769599	0.093144
998.941594	0.092892
999.113571	0.091057
999.285529	0.091492
999.457469	0.091671
999.629391	0.091892
999.801295	0.093159
999.973181	0.093083
1000.145048	0.092007
1000.316897	0.091678
1000.488728	0.091770
1000.660541	0.093950
1000.832335	0.094861
1001.004111	0.096919
1001.175869	0.097086
1001.347609	0.096075
1001.519331	0.096526
1001.691034	0.098067
1001.862719	0.097158
1002.034386	0.097013
1002.206035	0.097618
1002.377665	0.095656
1002.549277	0.094914
1002.720871	0.092626
1002.892447	0.092071
1003.064004	0.092397
1003.235544	0.089456
1003.407065	0.089382
1003.578568	0.088351
1003.750052	0.086509
1003.921519	0.088183
1004.092967	0.088615
1004.264397	0.088525
1004.435809	0.088527
1004.607202	0.089322
1004.778577	0.091077
1004.949934	0.092027
1005.121273	0.092124
1005.292594	0.094114
1005.463896	0.093264
1005.635180	0.091798
1005.806446	0.092261
1005.977694	0.091745
1006.148923	0.089148
1006.320135	0.090428
1006.491328	0.089907
1006.662503	0.088681
1006.833659	0.085920
1007.004798	0.084987
1007.175918	0.086033
1007.347020	0.086993
1007.518103	0.087699
1007.689169	0.087920
1007.860216	0.087588
1008.031245	0.088361
1008.202256	0.089936
1008.373248	0.091105
1008.544223	0.091794
1008.715179	0.090891
1008.886117	0.090516
1009.057036	0.091261
1009.227938	0.092204
1009.398821	0.090784
1009.569686	0.091769
1009.740533	0.092232
1009.911361	0.091969
1010.082172	0.092314
1010.252964	0.090816
1010.423738	0.092144
1010.594493	0.091860
1010.765231	0.091666
1010.935950	0.092611
1011.106651	0.090785
1011.277334	0.090058
1011.447998	0.090392
1011.618645	0.091110
1011.789273	0.093714
1011.959882	0.092236
1012.130474	0.091924
1012.301048	0.090775
1012.471603	0.091138
1012.642140	0.091272
1012.812658	0.090811
1012.983159	0.091480
1013.153641	0.091049
1013.324105	0.090204
1013.494551	0.091860
1013.664979	0.091798
1013.835388	0.092843
1014.005779	0.092814
1014.176152	0.093300
1014.346507	0.093213
1014.516843	0.091305
1014.687162	0.089072
1014.857462	0.087622
1015.027744	0.086780
1015.198007	0.087136
1015.368252	0.085750
1015.538480	0.085088
1015.708689	0.085133
1015.878879	0.085643
1016.049052	0.087599
1016.219206	0.089139
1016.389342	0.089801
1016.559460	0.090283
1016.729559	0.089373
1016.899641	0.092057
1017.069704	0.093483
1017.239749	0.092525
1017.409775	0.092241
1017.579784	0.091967
1017.749774	0.093405
1017.919746	0.094423
1018.089700	0.093831
1018.259635	0.092655
1018.429553	0.090716
1018.599452	0.089359
1018.769333	0.089231
1018.939195	0.090082
1019.109040	0.089033
1019.278866	0.089234
1019.448674	0.090581
1019.618464	0.089300
1019.788235	0.091457
1019.957989	0.091947
1020.127724	0.091834
1020.297441	0.092899
1020.467139	0.093636
1020.636820	0.094399
1020.806482	0.092977
1020.976126	0.090334
1021.145752	0.091856
1021.315359	0.089867
1021.484948	0.091187
1021.654519	0.091342
1021.824072	0.090193
1021.993607	0.089233
1022.163123	0.088940
1022.332621	0.089414
1022.502101	0.090363
1022.671563	0.088274
1022.841007	0.090884
1023.010432	0.089344
1023.179839	0.090348
1023.349228	0.090070
1023.518598	0.090937
1023.687951	0.091284
1023.857285	0.090177
1024.026601	0.090546
1024.195899	0.092475
1024.365178	0.092376
1024.534439	0.092670
1024.703682	0.092722
1024.872907	0.093995
1025.042114	0.092571
1025.211302	0.090872
1025.380472	0.092200
1025.549624	0.092698
1025.718758	0.092380
1025.887873	0.091462
1026.056970	0.091336
1026.226049	0.090793
1026.395110	0.089554
1026.564153	0.089662
1026.733177	0.090258
1026.902183	0.089076
1027.071171	0.088046
1027.240141	0.086916
1027.409092	0.087650
1027.578026	0.087985
1027.746940	0.087301
1027.915837	0.087123
1028.084716	0.086748
1028.253576	0.086932
1028.422418	0.087461
1028.591242	0.088092
1028.760048	0.088106
1028.928835	0.085833
1029.097604	0.087173
1029.266355	0.087453
1029.435088	0.087651
1029.603803	0.088763
1029.772499	0.088218
1029.941177	0.089119
1030.109837	0.087197
1030.278478	0.089044
1030.447102	0.090754
1030.615707	0.088203
1030.784294	0.088465
1030.952863	0.089571
1031.121413	0.088593
1031.289945	0.090446
1031.458460	0.088849
1031.626955	0.090109
1031.795433	0.088681
1031.963892	0.088635
1032.132334	0.089132
1032.300756	0.088852
1032.469161	0.089379
1032.637548	0.088754
1032.805916	0.088113
1032.974266	0.087532
1033.142598	0.087629
1033.310911	0.088528
1033.479207	0.088393
1033.647484	0.089255
1033.815743	0.090748
1033.983983	0.090915
1034.152206	0.091822
1034.320410	0.092149
1034.488596	0.093126
1034.656764	0.092722
1034.824914	0.090999
1034.993045	0.091591
1035.161158	0.090546
1035.329253	0.090008
1035.497330	0.088715
1035.665388	0.088904
1035.833428	0.088037
1036.001450	0.086696
1036.169454	0.086772
1036.337440	0.088058
1036.505407	0.086874
1036.673356	0.088399
1036.841287	0.086698
1037.009200	0.087324
1037.177094	0.087177
1037.344970	0.088032
1037.512828	0.090675
1037.680668	0.091849
1037.848489	0.092873
1038.016293	0.092794
1038.184078	0.091850
1038.351845	0.091065
1038.519593	0.091986
1038.687324	0.092392
1038.855036	0.092125
1039.022730	0.089602
1039.190406	0.088087
1039.358063	0.085206
1039.525702	0.085590
1039.693323	0.086243
1039.860926	0.088879
1040.028511	0.086760
1040.196077	0.086425
1040.363625	0.086083
1040.531155	0.087513
1040.698667	0.088161
1040.866161	0.089230
1041.033636	0.088427
1041.201093	0.087859
1041.368532	0.085209
1041.535952	0.086091
1041.703355	0.087532
1041.870739	0.089350
1042.038105	0.089165
1042.205452	0.087896
1042.372782	0.087470
1042.540093	0.088855
1042.707386	0.089340
1042.874661	0.090540
1043.041918	0.090800
1043.209156	0.091371
1043.376376	0.090543
1043.543578	0.089430
1043.710762	0.090774
1043.877927	0.092072
1044.045074	0.091735
1044.212203	0.091167
1044.379314	0.089341
1044.546407	0.089191
1044.713481	0.087218
1044.880537	0.087768
1045.047575	0.088706
1045.214595	0.089229
1045.381596	0.089665
1045.548579	0.091168
1045.715544	0.090985
1045.882491	0.092497
1046.049420	0.091126
1046.216330	0.091912
1046.383222	0.090265
1046.550096	0.091286
1046.716951	0.091449
1046.883789	0.090484
1047.050608	0.088523
1047.217409	0.088447
1047.384192	0.088180
1047.550956	0.089779
1047.717703	0.088132
1047.884431	0.088151
1048.051140	0.087709
1048.217832	0.086469
1048.384505	0.087103
1048.551161	0.086980
1048.717798	0.087368
1048.884416	0.087540
1049.051017	0.087976
1049.217599	0.089303
1049.384163	0.089355
1049.550709	0.089603
1049.717237	0.090080
1049.883746	0.088116
1050.050237	0.087758
1050.216710	0.086568
1050.383165	0.087823
1050.549601	0.086839
1050.716019	0.086467
1050.882420	0.086445
1051.048801	0.085355
1051.215165	0.086026
1051.381510	0.087298
1051.547837	0.089919
1051.714146	0.090156
1051.880437	0.089728
1052.046709	0.089565
1052.212964	0.088502
1052.379200	0.087686
1052.545417	0.086265
1052.711617	0.083508
1052.877798	0.083779
1053.043961	0.082239
1053.210106	0.084081
1053.376233	0.083045
1053.542341	0.083807
1053.708432	0.084178
1053.874504	0.084386
1054.040557	0.087872
1054.206593	0.088985
1054.372610	0.089304
1054.538609	0.088517
1054.704590	0.087476
1054.870553	0.088752
1055.036497	0.088712
1055.202424	0.089312
1055.368331	0.091781
1055.534221	0.088905
1055.700093	0.091957
1055.865946	0.089962
1056.031781	0.090694
1056.197598	0.090594
1056.363397	0.089518
1056.529177	0.088903
1056.694939	0.087908
1056.860683	0.084951
1057.026409	0.086982
1057.192116	0.085391
1057.357806	0.087158
1057.523477	0.086588
1057.689130	0.086968
1057.854764	0.087875
1058.020381	0.088212
1058.185979	0.089335
1058.351559	0.089202
1058.517120	0.088386
1058.682664	0.089242
1058.848189	0.089513
1059.013696	0.091177
1059.179185	0.089679
1059.344656	0.089674
1059.510108	0.088741
1059.675542	0.089000
1059.840958	0.088899
1060.006356	0.090165
1060.171735	0.087427
1060.337096	0.085796
1060.502439	0.083506
1060.667764	0.084061
1060.833071	0.082855
1060.998359	0.084670
1061.163629	0.086454
1061.328881	0.087935
1061.494115	0.087961
1061.659330	0.090620
1061.824527	0.092090
1061.989706	0.094593
1062.154867	0.094901
1062.320010	0.096264
1062.485134	0.095692
1062.650240	0.094035
1062.815328	0.094133
1062.980398	0.093753
1063.145449	0.091220
1063.310482	0.090560
1063.475497	0.088196
1063.640494	0.089290
1063.805473	0.089304
1063.970433	0.088167
1064.135375	0.088100
1064.300299	0.088391
1064.465204	0.088472
1064.630092	0.091385
1064.794961	0.092568
1064.959812	0.094962
1065.124645	0.096027
1065.289459	0.095426
1065.454256	0.096286
1065.619034	0.097241
1065.783793	0.097821
1065.948535	0.097179
1066.113258	0.095162
1066.277964	0.096372
1066.442651	0.096093
1066.607319	0.093808
1066.771970	0.094016
1066.936602	0.094025
1067.101216	0.094357
1067.265812	0.093111
1067.430389	0.092040
1067.594949	0.092355
1067.759490	0.092818
1067.924013	0.092304
1068.088518	0.093798
1068.253004	0.093112
1068.417472	0.092821
1068.581922	0.090187
1068.746354	0.090484
1068.910768	0.094995
1069.075163	0.093713
1069.239540	0.090831
1069.403899	0.091348
1069.568240	0.089704
1069.732562	0.091592
1069.896866	0.091947
1070.061152	0.093540
1070.225420	0.094569
1070.389670	0.091126
1070.553901	0.093328
1070.718114	0.094079
1070.882309	0.093138
1071.046486	0.095127
1071.210644	0.093839
1071.374784	0.092440
1071.538906	0.090959
1071.703010	0.089783
1071.867096	0.088543
1072.031163	0.088374
1072.195212	0.090130
1072.359243	0.092435
1072.523256	0.091816
1072.687250	0.092502
1072.851226	0.092968
1073.015184	0.093901
1073.179124	0.095224
1073.343045	0.096239
1073.506949	0.096179
1073.670834	0.092995
1073.834701	0.090334
1073.998549	0.091189
1074.162380	0.092341
1074.326192	0.093270
1074.489986	0.093693
1074.653761	0.094478
1074.817519	0.092870
1074.981258	0.092036
1075.144979	0.094982
1075.308682	0.095929
1075.472367	0.095439
1075.636033	0.093862
1075.799681	0.094517
1075.963311	0.093370
1076.126923	0.092118
1076.290516	0.091347
1076.454092	0.090893
1076.617649	0.087845
1076.781187	0.087243
1076.944708	0.086948
1077.108210	0.086254
1077.271695	0.085664
1077.435160	0.087375
1077.598608	0.084525
1077.762038	0.087122
1077.925449	0.089854
1078.088842	0.092180
1078.252217	0.091723
1078.415573	0.090604
1078.578912	0.090793
1078.742232	0.090445
1078.905534	0.090422
1079.068817	0.093808
1079.232083	0.092460
1079.395330	0.091355
1079.558559	0.089821
1079.721770	0.089837
1079.884962	0.089571
1080.048136	0.089347
1080.211293	0.090559
1080.374430	0.091929
1080.537550	0.089737
1080.700651	0.090908
1080.863735	0.091529
1081.026800	0.093887
1081.189846	0.095403
1081.352875	0.093870
1081.515885	0.092336
1081.678877	0.091651
1081.841851	0.088870
1082.004807	0.091408
1082.167744	0.090295
1082.330663	0.090605
1082.493564	0.088238
1082.656447	0.088289
1082.819312	0.091477
1082.982158	0.093945
1083.144986	0.092230
1083.307796	0.090904
1083.470587	0.088671
1083.633361	0.091603
1083.796116	0.089983
1083.958853	0.089920
1084.121571	0.088891
1084.284272	0.088698
1084.446954	0.088053
1084.609618	0.089438
1084.772264	0.093065
1084.934892	0.094890
1085.097501	0.092304
1085.260092	0.091470
1085.422665	0.089193
1085.585220	0.089078
1085.747756	0.088348
1085.910274	0.086942
1086.072774	0.087689
1086.235256	0.087055
1086.397720	0.086383
1086.560165	0.086266
1086.722592	0.089173
1086.885001	0.093940
1087.047392	0.096157
1087.209764	0.097738
1087.372119	0.100820
1087.534455	0.098115
1087.696772	0.097444
1087.859072	0.101176
1088.021353	0.102127
1088.183616	0.099064
1088.345861	0.097956
1088.508088	0.097099
1088.670296	0.097195
1088.832486	0.096841
1088.994658	0.098669
1089.156812	0.097935
1089.318948	0.095164
1089.481065	0.093890
1089.643164	0.095093
1089.805245	0.093754
1089.967308	0.096153
1090.129352	0.094885
1090.291378	0.096842
1090.453386	0.100143
1090.615376	0.103372
1090.777347	0.100346
1090.939301	0.103076
1091.101236	0.101626
1091.263153	0.103159
1091.425051	0.098923
1091.586932	0.096955
1091.748794	0.094691
1091.910638	0.093757
1092.072463	0.092535
1092.234271	0.093621
1092.396060	0.092113
1092.557831	0.093642
1092.719584	0.092125
1092.881319	0.092585
1093.043035	0.095225
1093.204733	0.096826
1093.366413	0.097728
1093.528075	0.098796
1093.689718	0.100490
1093.851343	0.100999
1094.012950	0.104859
1094.174539	0.106029
1094.336110	0.105962
1094.497662	0.102631
1094.659196	0.101748
1094.820712	0.098972
1094.982210	0.098481
1095.143689	0.096741
1095.305151	0.101442
1095.466594	0.096347
1095.628018	0.095674
1095.789425	0.094079
1095.950813	0.094816
1096.112183	0.093376
1096.273535	0.092939
1096.434869	0.092471
1096.596184	0.093712
1096.757482	0.086070
1096.918761	0.085069
1097.080021	0.085953
1097.241264	0.087092
1097.402488	0.089482
1097.563694	0.090322
1097.724882	0.088812
1097.886052	0.083343
1098.047203	0.082917
1098.208336	0.085284
1098.369451	0.086969
1098.530548	0.087545
1098.691627	0.088105
1098.852687	0.088091
1099.013729	0.087727
1099.174753	0.087729
1099.335758	0.089921
1099.496746	0.091821
1099.657715	0.094666
1099.818666	0.092628
1099.979599	0.092469
1100.140513	0.096749
1100.301409	0.096683
1100.462287	0.094933
1100.623147	0.096168
1100.783989	0.099698
1100.944812	0.098578
1101.105617	0.095447
1101.266404	0.097161
1101.427173	0.094160
1101.587923	0.090375
1101.748656	0.089683
1101.909370	0.089180
1102.070066	0.092500
1102.230743	0.089423
1102.391403	0.090649
1102.552044	0.093131
1102.712667	0.092816
1102.873271	0.095778
1103.033858	0.096891
1103.194426	0.098728
1103.354976	0.103032
1103.515508	0.099063
1103.676021	0.099906
1103.836517	0.098620
1103.996994	0.100798
1104.157453	0.103057
1104.317893	0.102145
1104.478316	0.099548
1104.638720	0.097173
1104.799106	0.094249
1104.959474	0.091944
1105.119823	0.091349
1105.280155	0.087442
1105.440468	0.085938
1105.600763	0.085194
1105.761039	0.083197
1105.921298	0.083987
1106.081538	0.086123
1106.241760	0.087176
1106.401964	0.090847
1106.562149	0.091337
1106.722316	0.093141
1106.882465	0.090816
1107.042596	0.089841
1107.202709	0.096044
1107.362803	0.099825
1107.522879	0.100369
1107.682937	0.100357
1107.842977	0.102711
1108.002999	0.101744
1108.163002	0.103671
1108.322987	0.102256
1108.482954	0.102384
1108.642902	0.099086
1108.802833	0.095438
1108.962745	0.093332
1109.122639	0.095504
1109.282515	0.092941
1109.442372	0.095463
1109.602211	0.097574
1109.762032	0.099332
1109.921835	0.098997
1110.081620	0.099249
1110.241386	0.104105
1110.401134	0.102967
1110.560864	0.100772
1110.720576	0.099931
1110.880269	0.096168
1111.039945	0.092310
1111.199602	0.091454
1111.359240	0.093324
1111.518861	0.095470
1111.678463	0.094061
1111.838047	0.097434
1111.997613	0.098825
1112.157161	0.099405
1112.316690	0.102405
1112.476202	0.102323
1112.635695	0.104837
1112.795169	0.101703
1112.954626	0.101124
1113.114064	0.097472
1113.273484	0.097521
1113.432886	0.096911
1113.592270	0.096114
1113.751635	0.093946
1113.910983	0.098375
1114.070312	0.096774
1114.229622	0.097727
1114.388915	0.095611
1114.548189	0.096888
1114.707445	0.095650
1114.866683	0.098127
1115.025903	0.102406
1115.185104	0.103178
1115.344287	0.100614
1115.503452	0.097748
1115.662599	0.100248
1115.821727	0.098653
1115.980838	0.097706
1116.139930	0.099246
1116.299004	0.095594
1116.458059	0.092092
1116.617097	0.093230
1116.776116	0.096557
1116.935117	0.099452
1117.094099	0.093388
1117.253064	0.095766
1117.412010	0.098194
1117.570938	0.094081
1117.729848	0.094520
1117.888740	0.092747
1118.047613	0.093748
1118.206468	0.088152
1118.365305	0.088169
1118.524124	0.096254
1118.682924	0.096335
1118.841707	0.094168
1119.000471	0.098581
1119.159216	0.096495
1119.317944	0.099234
1119.476653	0.096464
1119.635344	0.099589
1119.794017	0.098916
1119.952672	0.098395
1120.111308	0.096130
1120.269927	0.101314
1120.428527	0.093760
1120.587108	0.098689
1120.745672	0.096918
1120.904217	0.096869
1121.062744	0.098738
1121.221253	0.097573
1121.379744	0.094643
1121.538216	0.095498
1121.696671	0.091132
1121.855107	0.096051
1122.013524	0.090009
1122.171924	0.092817
1122.330305	0.093485
1122.488668	0.091970
1122.647013	0.091272
1122.805340	0.089993
1122.963648	0.086561
1123.121938	0.085196
1123.280210	0.083893
1123.438464	0.085680
1123.596700	0.088284
1123.754917	0.089186
1123.913116	0.085782
1124.071297	0.091145
1124.229459	0.088948
1124.387604	0.096834
1124.545730	0.099077
1124.703838	0.107197
1124.861928	0.106053
1125.019999	0.109869
1125.178052	0.111121
1125.336088	0.110258
1125.494104	0.107360
1125.652103	0.113380
1125.810083	0.111130
1125.968045	0.106104
1126.125989	0.095578
1126.283915	0.101820
1126.441823	0.090811
1126.599712	0.087809
1126.757583	0.086829
1126.915436	0.090363
1127.073270	0.088507
1127.231087	0.085879
1127.388885	0.087131
1127.546665	0.090787
1127.704426	0.085547
1127.862170	0.091254
1128.019895	0.098205
1128.177602	0.105050
1128.335291	0.097856
1128.492961	0.098300
1128.650614	0.104271
1128.808248	0.105133
1128.965864	0.103938
1129.123461	0.106610
1129.281041	0.101284
1129.438602	0.098338
1129.596145	0.095594
1129.753670	0.100959
1129.911176	0.096251
1130.068665	0.090385
1130.226135	0.093471
1130.383587	0.092992
1130.541020	0.090855
1130.698436	0.092563
1130.855833	0.090754
1131.013212	0.091397
1131.170573	0.091504
1131.327915	0.097687
1131.485239	0.096414
1131.642545	0.097406
1131.799833	0.101486
1131.957103	0.106486
1132.114354	0.106396
1132.271588	0.113223
1132.428803	0.113072
1132.585999	0.110984
1132.743178	0.108953
1132.900338	0.105295
1133.057480	0.099954
1133.214604	0.094799
1133.371710	0.086626
1133.528797	0.090464
1133.685866	0.083645
1133.842917	0.080203
1133.999950	0.081483
1134.156964	0.079906
1134.313960	0.090510
1134.470938	0.090857
1134.627898	0.099272
1134.784840	0.096954
1134.941763	0.096040
1135.098668	0.090584
1135.255555	0.096141
1135.412424	0.098861
1135.569274	0.098654
1135.726107	0.092681
1135.882921	0.091640
1136.039716	0.084937
1136.196494	0.096473
1136.353253	0.097321
1136.509995	0.102585
1136.666717	0.099591
1136.823422	0.091394
1136.980109	0.091143
1137.136777	0.093742
1137.293427	0.092674
1137.450059	0.091204
1137.606672	0.085094
1137.763267	0.084103
1137.919844	0.088505
1138.076403	0.087171
1138.232944	0.089289
1138.389466	0.095134
1138.545971	0.089450
1138.702457	0.092089
1138.858924	0.093235
1139.015374	0.093638
1139.171805	0.086951
1139.328218	0.082933
1139.484613	0.079415
1139.640990	0.085315
1139.797348	0.082448
1139.953688	0.080114
1140.110010	0.084179
1140.266314	0.083665
1140.422600	0.083890
1140.578867	0.088407
1140.735116	0.092716
1140.891347	0.099331
1141.047559	0.094685
1141.203754	0.090337
1141.359930	0.098461
1141.516088	0.093835
1141.672228	0.096706
1141.828349	0.101948
1141.984452	0.098163
1142.140537	0.092818
1142.296604	0.096579
1142.452653	0.098824
1142.608683	0.095780
1142.764695	0.095430
1142.920689	0.099134
1143.076665	0.094996
1143.232622	0.092012
1143.388562	0.093569
1143.544483	0.091192
1143.700385	0.082047
1143.856270	0.074211
1144.012136	0.079428
1144.167985	0.074894
1144.323814	0.069401
1144.479626	0.068224
1144.635420	0.062825
1144.791195	0.066768
1144.946952	0.070303
1145.102691	0.072325
1145.258411	0.075855
1145.414113	0.071329
1145.569798	0.068207
1145.725463	0.080249
1145.881111	0.086503
1146.036741	0.092589
1146.192352	0.091315
1146.347945	0.087749
1146.503519	0.089032
1146.659076	0.089554
1146.814614	0.094388
1146.970134	0.103452
1147.125636	0.090671
1147.281120	0.084232
1147.436585	0.075994
1147.592032	0.075153
1147.747461	0.078943
1147.902872	0.074372
1148.058265	0.076964
1148.213639	0.073945
1148.368995	0.071192
1148.524333	0.076278
1148.679653	0.082725
1148.834954	0.091653
1148.990237	0.090358
1149.145502	0.088521
1149.300749	0.088500
1149.455977	0.090208
1149.611188	0.092188
1149.766380	0.089329
1149.921553	0.088772
1150.076709	0.081410
1150.231846	0.077072
1150.386966	0.074158
1150.542066	0.078969
1150.697149	0.077259
1150.852214	0.071080
1151.007260	0.070417
1151.162288	0.071679
1151.317298	0.072835
1151.472289	0.087521
1151.627263	0.090992
1151.782218	0.089421
1151.937155	0.080302
1152.092073	0.089139
1152.246974	0.095599
1152.401856	0.093829
1152.556720	0.093985
1152.711566	0.084734
1152.866393	0.070655
1153.021203	0.066141
1153.175994	0.064549
1153.330767	0.070951
1153.485521	0.060615
1153.640258	0.059294
1153.794976	0.058600
1153.949676	0.057323
1154.104358	0.059646
1154.259021	0.070010
1154.413667	0.074035
1154.568294	0.072327
1154.722903	0.069332
1154.877493	0.078767
1155.032066	0.073618
1155.186620	0.074333
1155.341156	0.086564
1155.495674	0.080843
1155.650173	0.065407
1155.804654	0.059349
1155.959118	0.065387
1156.113562	0.068137
1156.267989	0.057878
1156.422397	0.058789
1156.576788	0.057627
1156.731160	0.040406
1156.885513	0.050608
1157.039849	0.061645
1157.194166	0.061437
1157.348465	0.064618
1157.502746	0.058208
1157.657009	0.072054
1157.811253	0.078123
1157.965479	0.078832
1158.119687	0.079639
1158.273877	0.086740
1158.428048	0.078264
1158.582201	0.082373
1158.736337	0.079342
1158.890453	0.086160
1159.044552	0.075002
1159.198632	0.066997
1159.352694	0.069031
1159.506738	0.078367
1159.660764	0.072471
1159.814771	0.074485
1159.968761	0.072921
1160.122732	0.079175
1160.276685	0.082805
1160.430619	0.094757
1160.584535	0.095545
1160.738434	0.100167
1160.892313	0.087545
1161.046175	0.081736
1161.200019	0.083944
1161.353844	0.084136
1161.507651	0.079175
1161.661440	0.071561
1161.815210	0.063783
1161.968962	0.060739
1162.122697	0.053312
1162.276412	0.058637
1162.430110	0.054205
1162.583789	0.052786
1162.737451	0.046554
1162.891094	0.046520
1163.044718	0.042529
1163.198325	0.044024
1163.351913	0.046796
1163.505483	0.048470
1163.659035	0.051948
1163.812569	0.057464
1163.966084	0.060330
1164.119581	0.068815
1164.273060	0.065620
1164.426521	0.070965
1164.579964	0.068848
1164.733388	0.070694
1164.886794	0.072795
1165.040182	0.070638
1165.193551	0.069561
1165.346903	0.070442
1165.500236	0.075320
1165.653551	0.075372
1165.806848	0.076571
1165.960126	0.079739
1166.113386	0.071926
1166.266628	0.057948
1166.419852	0.051321
1166.573058	0.052976
1166.726245	0.052439
1166.879414	0.046568
1167.032565	0.048800
1167.185698	0.050175
1167.338812	0.045517
1167.491909	0.050907
1167.644987	0.070180
1167.798046	0.078423
1167.951088	0.072595
1168.104111	0.066611
1168.257117	0.058846
1168.410103	0.055389
1168.563072	0.045200
1168.716023	0.043460
1168.868955	0.051764
1169.021869	0.036926
1169.174765	0.037601
1169.327642	0.041456
1169.480501	0.038044
1169.633343	0.054165
1169.786165	0.056826
1169.938970	0.066062
1170.091757	0.068125
1170.244525	0.058018
1170.397275	0.066762
1170.550007	0.058397
1170.702720	0.064544
1170.855415	0.077922
1171.008092	0.066352
1171.160751	0.064466
1171.313392	0.061767
1171.466014	0.117478
1171.618619	0.065295
1171.771205	0.065295
1171.923772	0.065295
