sample name	sample
index	429
start time	 03-08-2021  12:03:23 PM


Wavelength (nm)	Absorbance
494.344910	NaN
494.563924	NaN
494.782919	NaN
495.001897	NaN
495.220856	-0.125167
495.439797	0.211381
495.658719	0.232738
495.877624	0.819881
496.096510	0.601292
496.315378	0.680113
496.534227	0.440070
496.753059	0.485784
496.971872	0.325606
497.190667	0.073598
497.409444	0.075711
497.628203	0.077227
497.846943	0.071559
498.065665	0.069635
498.284369	0.068926
498.503055	0.070275
498.721723	0.071098
498.940372	0.070603
499.159003	0.071066
499.377616	0.070637
499.596210	0.070273
499.814787	0.071635
500.033345	0.072711
500.251885	0.072867
500.470406	0.072935
500.688910	0.072277
500.907395	0.072785
501.125862	0.072456
501.344311	0.071631
501.562742	0.071161
501.781154	0.070545
501.999548	0.069850
502.217924	0.070581
502.436282	0.070348
502.654621	0.070912
502.872942	0.070771
503.091245	0.071244
503.309530	0.071245
503.527797	0.071651
503.746045	0.072096
503.964275	0.071850
504.182487	0.071853
504.400681	0.071891
504.618856	0.071612
504.837013	0.070867
505.055152	0.071471
505.273273	0.071394
505.491376	0.071330
505.709460	0.072080
505.927526	0.072510
506.145574	0.072732
506.363604	0.072391
506.581615	0.072357
506.799608	0.073780
507.017583	0.072762
507.235540	0.073929
507.453478	0.073909
507.671399	0.073266
507.889301	0.073883
508.107185	0.073031
508.325050	0.073630
508.542898	0.073621
508.760727	0.073072
508.978538	0.073854
509.196330	0.072587
509.414105	0.073118
509.631861	0.073071
509.849599	0.072235
510.067319	0.072276
510.285021	0.071653
510.502704	0.070969
510.720369	0.070897
510.938016	0.070993
511.155645	0.071906
511.373255	0.071905
511.590848	0.071288
511.808422	0.070987
512.025977	0.071691
512.243515	0.072255
512.461034	0.072390
512.678536	0.071947
512.896018	0.072010
513.113483	0.071614
513.330930	0.071365
513.548358	0.071967
513.765768	0.072946
513.983160	0.072471
514.200533	0.072733
514.417889	0.072543
514.635226	0.073256
514.852545	0.073243
515.069845	0.073344
515.287128	0.074010
515.504392	0.073627
515.721638	0.073492
515.938866	0.074554
516.156075	0.073911
516.373267	0.075137
516.590440	0.074965
516.807594	0.074944
517.024731	0.075075
517.241850	0.074775
517.458950	0.075210
517.676032	0.074940
517.893095	0.074615
518.110141	0.075135
518.327168	0.075112
518.544177	0.075462
518.761168	0.075424
518.978141	0.075843
519.195095	0.076026
519.412031	0.076269
519.628949	0.076655
519.845849	0.076718
520.062731	0.076651
520.279594	0.076774
520.496439	0.076437
520.713266	0.076490
520.930074	0.076479
521.146865	0.075796
521.363637	0.076463
521.580391	0.076672
521.797127	0.077034
522.013844	0.077413
522.230543	0.077616
522.447224	0.078334
522.663887	0.078034
522.880532	0.078189
523.097158	0.078615
523.313766	0.078888
523.530356	0.079364
523.746928	0.078809
523.963481	0.079174
524.180017	0.078968
524.396534	0.078854
524.613032	0.079632
524.829513	0.079723
525.045975	0.080028
525.262420	0.079114
525.478845	0.078697
525.695253	0.079363
525.911643	0.078826
526.128014	0.079186
526.344367	0.079251
526.560702	0.078796
526.777018	0.078247
526.993316	0.078435
527.209597	0.078875
527.425858	0.079089
527.642102	0.079183
527.858328	0.079410
528.074535	0.079460
528.290724	0.079694
528.506894	0.080525
528.723047	0.081277
528.939181	0.081258
529.155297	0.081615
529.371395	0.082054
529.587475	0.082191
529.803536	0.082632
530.019579	0.082943
530.235604	0.082863
530.451611	0.082448
530.667600	0.082098
530.883570	0.082541
531.099522	0.082261
531.315456	0.082631
531.531372	0.082535
531.747269	0.082568
531.963148	0.082274
532.179009	0.082757
532.394852	0.083161
532.610676	0.083787
532.826482	0.083819
533.042271	0.084655
533.258040	0.083950
533.473792	0.083876
533.689525	0.083993
533.905240	0.084470
534.120937	0.084614
534.336616	0.085102
534.552277	0.085223
534.767919	0.085698
534.983543	0.085449
535.199149	0.086379
535.414736	0.086788
535.630306	0.087001
535.845857	0.086997
536.061390	0.087373
536.276904	0.087139
536.492401	0.087008
536.707879	0.086819
536.923339	0.087114
537.138781	0.087171
537.354204	0.087771
537.569610	0.087836
537.784997	0.087879
538.000366	0.087890
538.215716	0.088643
538.431049	0.088798
538.646363	0.089043
538.861659	0.089346
539.076937	0.089931
539.292196	0.089462
539.507438	0.089702
539.722661	0.090114
539.937866	0.089921
540.153052	0.089340
540.368221	0.089808
540.583371	0.089422
540.798503	0.089439
541.013617	0.089241
541.228712	0.089689
541.443789	0.090206
541.658848	0.090432
541.873889	0.091079
542.088912	0.091225
542.303916	0.090874
542.518902	0.091561
542.733870	0.091544
542.948820	0.091351
543.163752	0.091126
543.378665	0.091331
543.593560	0.091032
543.808437	0.091087
544.023295	0.091271
544.238136	0.091875
544.452958	0.091362
544.667762	0.091580
544.882548	0.091431
545.097315	0.092078
545.312064	0.091663
545.526795	0.092036
545.741508	0.092016
545.956203	0.092527
546.170879	0.092598
546.385537	0.093304
546.600177	0.093528
546.814799	0.093939
547.029402	0.093739
547.243988	0.093974
547.458555	0.094033
547.673103	0.094293
547.887634	0.094131
548.102146	0.094184
548.316640	0.094335
548.531116	0.094194
548.745574	0.094634
548.960013	0.094720
549.174435	0.094938
549.388838	0.094349
549.603222	0.094201
549.817589	0.094328
550.031937	0.094515
550.246267	0.094015
550.460579	0.094253
550.674873	0.094379
550.889148	0.094505
551.103405	0.094655
551.317644	0.095384
551.531865	0.095664
551.746068	0.096088
551.960252	0.095827
552.174418	0.096137
552.388566	0.096508
552.602696	0.096238
552.816807	0.096330
553.030900	0.096447
553.244975	0.096566
553.459032	0.096338
553.673070	0.096236
553.887091	0.096702
554.101093	0.097006
554.315077	0.097067
554.529042	0.097348
554.742990	0.097344
554.956919	0.097174
555.170830	0.097446
555.384722	0.097799
555.598597	0.097859
555.812453	0.097840
556.026291	0.098404
556.240111	0.098440
556.453913	0.098557
556.667696	0.098780
556.881461	0.099205
557.095208	0.099347
557.308937	0.099357
557.522647	0.099407
557.736339	0.099406
557.950013	0.098930
558.163669	0.098980
558.377307	0.098924
558.590926	0.099375
558.804527	0.099246
559.018110	0.099421
559.231675	0.099517
559.445221	0.099594
559.658749	0.100084
559.872259	0.100396
560.085751	0.100164
560.299225	0.100528
560.512680	0.100514
560.726117	0.100948
560.939536	0.100473
561.152937	0.100916
561.366319	0.101159
561.579683	0.101216
561.793029	0.100709
562.006357	0.101013
562.219667	0.100768
562.432958	0.100701
562.646231	0.100634
562.859486	0.101052
563.072723	0.100706
563.285941	0.100822
563.499141	0.100904
563.712323	0.101673
563.925487	0.101732
564.138632	0.102058
564.351760	0.101899
564.564869	0.101858
564.777960	0.102109
564.991032	0.102732
565.204087	0.102823
565.417123	0.102842
565.630141	0.102928
565.843140	0.102855
566.056122	0.103031
566.269085	0.103190
566.482030	0.103577
566.694957	0.103594
566.907866	0.103251
567.120756	0.103521
567.333628	0.103470
567.546482	0.103541
567.759318	0.103761
567.972135	0.103744
568.184935	0.104132
568.397716	0.103955
568.610478	0.104081
568.823223	0.104321
569.035949	0.104158
569.248657	0.104423
569.461347	0.104472
569.674019	0.104703
569.886672	0.105198
570.099308	0.105161
570.311925	0.105322
570.524523	0.105307
570.737104	0.105432
570.949666	0.105293
571.162210	0.105211
571.374736	0.105843
571.587244	0.106034
571.799733	0.106035
572.012205	0.106067
572.224658	0.106010
572.437092	0.106143
572.649509	0.106079
572.861907	0.106538
573.074287	0.106931
573.286649	0.106411
573.498993	0.106390
573.711318	0.106319
573.923625	0.106673
574.135914	0.106934
574.348185	0.107006
574.560438	0.107284
574.772672	0.107216
574.984888	0.107013
575.197086	0.107282
575.409266	0.107607
575.621427	0.107610
575.833570	0.107585
576.045695	0.107841
576.257802	0.108423
576.469890	0.108682
576.681961	0.108603
576.894013	0.108557
577.106046	0.108614
577.318062	0.108596
577.530059	0.108720
577.742039	0.108861
577.954000	0.108585
578.165942	0.108396
578.377867	0.107890
578.589773	0.108024
578.801661	0.108165
579.013531	0.107994
579.225382	0.108076
579.437216	0.107865
579.649031	0.108084
579.860828	0.108380
580.072606	0.108412
580.284367	0.108951
580.496109	0.109528
580.707833	0.109877
580.919539	0.110167
581.131227	0.110437
581.342896	0.110509
581.554547	0.110685
581.766180	0.110856
581.977795	0.110737
582.189391	0.110878
582.400969	0.110676
582.612529	0.110559
582.824071	0.110616
583.035595	0.110801
583.247100	0.111214
583.458587	0.111148
583.670056	0.111295
583.881506	0.111361
584.092939	0.111454
584.304353	0.111461
584.515749	0.111725
584.727127	0.111939
584.938486	0.111897
585.149828	0.112016
585.361151	0.112142
585.572456	0.112344
585.783742	0.112591
585.995011	0.112735
586.206261	0.112885
586.417493	0.112863
586.628706	0.112822
586.839902	0.112935
587.051079	0.112906
587.262238	0.113097
587.473379	0.113044
587.684502	0.113161
587.895606	0.113236
588.106692	0.113625
588.317760	0.114069
588.528810	0.114176
588.739841	0.114195
588.950855	0.114456
589.161850	0.114514
589.372827	0.114523
589.583785	0.114590
589.794726	0.114539
590.005648	0.114779
590.216552	0.114448
590.427437	0.114772
590.638305	0.114824
590.849154	0.114883
591.059985	0.114651
591.270798	0.114621
591.481592	0.114852
591.692369	0.114899
591.903127	0.114476
592.113867	0.114745
592.324588	0.114817
592.535292	0.114824
592.745977	0.114563
592.956644	0.114665
593.167293	0.115028
593.377923	0.115138
593.588536	0.115386
593.799130	0.115890
594.009706	0.116004
594.220263	0.115858
594.430803	0.115718
594.641324	0.116236
594.851827	0.116692
595.062312	0.116758
595.272778	0.116721
595.483227	0.116690
595.693657	0.116491
595.904069	0.116594
596.114462	0.116726
596.324838	0.117154
596.535195	0.117266
596.745534	0.117238
596.955855	0.116834
597.166157	0.116969
597.376441	0.117133
597.586707	0.117265
597.796955	0.117399
598.007185	0.117781
598.217396	0.117553
598.427589	0.117425
598.637764	0.117526
598.847921	0.118070
599.058060	0.118296
599.268180	0.118158
599.478282	0.118178
599.688366	0.118020
599.898431	0.118008
600.108479	0.118446
600.318508	0.118786
600.528519	0.118902
600.738511	0.119132
600.948486	0.119360
601.158442	0.119587
601.368380	0.119795
601.578300	0.120121
601.788202	0.120116
601.998085	0.120301
602.207950	0.120540
602.417797	0.120686
602.627626	0.121086
602.837436	0.120864
603.047228	0.120872
603.257002	0.120942
603.466758	0.121083
603.676496	0.121097
603.886215	0.121269
604.095916	0.120872
604.305599	0.120752
604.515264	0.120434
604.724910	0.120547
604.934538	0.120664
605.144148	0.120926
605.353740	0.121069
605.563314	0.121088
605.772869	0.120791
605.982406	0.121183
606.191925	0.121179
606.401425	0.121207
606.610908	0.121288
606.820372	0.121656
607.029818	0.121546
607.239246	0.121863
607.448655	0.122250
607.658047	0.122695
607.867420	0.122886
608.076775	0.123176
608.286111	0.123314
608.495430	0.123517
608.704730	0.123408
608.914012	0.123669
609.123275	0.123591
609.332521	0.123670
609.541748	0.123553
609.750957	0.123562
609.960148	0.123646
610.169321	0.123859
610.378475	0.123982
610.587611	0.124084
610.796729	0.123965
611.005829	0.123909
611.214910	0.123882
611.423974	0.124148
611.633019	0.124163
611.842045	0.124267
612.051054	0.124063
612.260044	0.124175
612.469017	0.124161
612.677970	0.124489
612.886906	0.124438
613.095824	0.124486
613.304723	0.124192
613.513604	0.124308
613.722467	0.124325
613.931311	0.124369
614.140138	0.124569
614.348946	0.124796
614.557736	0.124740
614.766507	0.125005
614.975261	0.124956
615.183996	0.125512
615.392713	0.125219
615.601412	0.125437
615.810092	0.125838
616.018754	0.125549
616.227399	0.125586
616.436024	0.125753
616.644632	0.125950
616.853222	0.126016
617.061793	0.125856
617.270346	0.126199
617.478880	0.126309
617.687397	0.126232
617.895895	0.126245
618.104375	0.126401
618.312837	0.126463
618.521281	0.126455
618.729706	0.126634
618.938113	0.126875
619.146502	0.127107
619.354873	0.127144
619.563226	0.127184
619.771560	0.127259
619.979876	0.127350
620.188174	0.127381
620.396453	0.127166
620.604715	0.127205
620.812958	0.126963
621.021183	0.126941
621.229390	0.126791
621.437578	0.127033
621.645748	0.127533
621.853900	0.127605
622.062034	0.127514
622.270150	0.127562
622.478247	0.127694
622.686326	0.127973
622.894387	0.128141
623.102430	0.128210
623.310454	0.128191
623.518461	0.128041
623.726449	0.128103
623.934418	0.128362
624.142370	0.128776
624.350303	0.129109
624.558218	0.128989
624.766115	0.128825
624.973994	0.129232
625.181855	0.129296
625.389697	0.129447
625.597521	0.129649
625.805327	0.129706
626.013114	0.129887
626.220883	0.129842
626.428634	0.130058
626.636367	0.130294
626.844082	0.130187
627.051778	0.130166
627.259457	0.130123
627.467117	0.129926
627.674758	0.129950
627.882382	0.129859
628.089987	0.130026
628.297574	0.130300
628.505143	0.130405
628.712694	0.130625
628.920226	0.130724
629.127740	0.130894
629.335236	0.131077
629.542714	0.131189
629.750174	0.131455
629.957615	0.131333
630.165038	0.131511
630.372443	0.131660
630.579829	0.131680
630.787198	0.132025
630.994548	0.131879
631.201880	0.132037
631.409194	0.132084
631.616489	0.132224
631.823766	0.132516
632.031025	0.132271
632.238266	0.132213
632.445489	0.132395
632.652693	0.132281
632.859879	0.132491
633.067047	0.132657
633.274197	0.132676
633.481329	0.132679
633.688442	0.132673
633.895537	0.132646
634.102614	0.132820
634.309672	0.132603
634.516713	0.132787
634.723735	0.132931
634.930739	0.133122
635.137724	0.133329
635.344692	0.133299
635.551641	0.133343
635.758572	0.133700
635.965485	0.133761
636.172379	0.134070
636.379256	0.134121
636.586114	0.134056
636.792954	0.133921
636.999775	0.134240
637.206579	0.134427
637.413364	0.134529
637.620131	0.134483
637.826880	0.134467
638.033610	0.134528
638.240323	0.134517
638.447017	0.134681
638.653692	0.134551
638.860350	0.134461
639.066990	0.134388
639.273611	0.134091
639.480214	0.134222
639.686798	0.134411
639.893365	0.134322
640.099913	0.134646
640.306443	0.134767
640.512955	0.135219
640.719449	0.135180
640.925924	0.135268
641.132381	0.135800
641.338820	0.135856
641.545241	0.135793
641.751644	0.135835
641.958028	0.135689
642.164394	0.135910
642.370742	0.135837
642.577071	0.135959
642.783383	0.135960
642.989676	0.136004
643.195951	0.136074
643.402207	0.136399
643.608446	0.136732
643.814666	0.136839
644.020868	0.136829
644.227052	0.136959
644.433218	0.137111
644.639365	0.137197
644.845494	0.137143
645.051605	0.137081
645.257698	0.136946
645.463772	0.136913
645.669828	0.137182
645.875866	0.137292
646.081886	0.137362
646.287888	0.137370
646.493871	0.137468
646.699836	0.137416
646.905783	0.137871
647.111712	0.138024
647.317622	0.138086
647.523514	0.138041
647.729388	0.137975
647.935244	0.137928
648.141082	0.137961
648.346901	0.138022
648.552702	0.138319
648.758485	0.138336
648.964250	0.138579
649.169996	0.138715
649.375724	0.138702
649.581434	0.138915
649.787126	0.139334
649.992800	0.139488
650.198455	0.139812
650.404092	0.139914
650.609711	0.139923
650.815311	0.139988
651.020894	0.140307
651.226458	0.140557
651.432004	0.140633
651.637532	0.140471
651.843041	0.140609
652.048532	0.140406
652.254006	0.140467
652.459460	0.140472
652.664897	0.140546
652.870315	0.140552
653.075716	0.140458
653.281097	0.140556
653.486461	0.140719
653.691807	0.140720
653.897134	0.141080
654.102443	0.141268
654.307734	0.141387
654.513006	0.141565
654.718261	0.141446
654.923497	0.141732
655.128715	0.141912
655.333915	0.142187
655.539096	0.142566
655.744259	0.142684
655.949404	0.143050
656.154531	0.143293
656.359640	0.143305
656.564730	0.143543
656.769802	0.143654
656.974856	0.143753
657.179892	0.143548
657.384909	0.143543
657.589908	0.143482
657.794889	0.143329
657.999852	0.143179
658.204797	0.143467
658.409723	0.143367
658.614631	0.143388
658.819521	0.143480
659.024393	0.143626
659.229246	0.143762
659.434081	0.144045
659.638898	0.144090
659.843697	0.144335
660.048478	0.144266
660.253240	0.144382
660.457984	0.144569
660.662710	0.144588
660.867417	0.144655
661.072107	0.144543
661.276778	0.144478
661.481431	0.144738
661.686066	0.144751
661.890682	0.144705
662.095281	0.144926
662.299861	0.145098
662.504422	0.145313
662.708966	0.145529
662.913491	0.145743
663.117999	0.145897
663.322488	0.145819
663.526958	0.146096
663.731411	0.146385
663.935845	0.146561
664.140261	0.146615
664.344659	0.146819
664.549038	0.146941
664.753400	0.146949
664.957743	0.147073
665.162068	0.147280
665.366375	0.147298
665.570663	0.147347
665.774933	0.147441
665.979185	0.147604
666.183419	0.147779
666.387635	0.147944
666.591832	0.148377
666.796011	0.148617
667.000172	0.148842
667.204315	0.148997
667.408439	0.149211
667.612545	0.149619
667.816634	0.149645
668.020703	0.149589
668.224755	0.149791
668.428788	0.149631
668.632803	0.149823
668.836800	0.149802
669.040779	0.149876
669.244739	0.150110
669.448681	0.150031
669.652605	0.150087
669.856511	0.150354
670.060399	0.150435
670.264268	0.150660
670.468119	0.150499
670.671952	0.150646
670.875767	0.150785
671.079563	0.150529
671.283341	0.150475
671.487101	0.150632
671.690843	0.150422
671.894567	0.150359
672.098272	0.150604
672.301959	0.150720
672.505628	0.150720
672.709278	0.150897
672.912911	0.151203
673.116525	0.151447
673.320121	0.151546
673.523699	0.151947
673.727258	0.151939
673.930799	0.151801
674.134322	0.152066
674.337827	0.152252
674.541314	0.152132
674.744782	0.152095
674.948232	0.152053
675.151664	0.152070
675.355078	0.151825
675.558474	0.152165
675.761851	0.152331
675.965210	0.152368
676.168551	0.152522
676.371873	0.152842
676.575178	0.152939
676.778464	0.153176
676.981732	0.153315
677.184981	0.153622
677.388213	0.153606
677.591426	0.153673
677.794621	0.153882
677.997798	0.153842
678.200956	0.153794
678.404097	0.154106
678.607219	0.154156
678.810323	0.154362
679.013408	0.154415
679.216476	0.154594
679.419525	0.154820
679.622556	0.154756
679.825569	0.154845
680.028563	0.154971
680.231540	0.154825
680.434498	0.154875
680.637438	0.155027
680.840359	0.155213
681.043263	0.155341
681.246148	0.155316
681.449015	0.155447
681.651864	0.155627
681.854694	0.155577
682.057506	0.155784
682.260301	0.155894
682.463076	0.155805
682.665834	0.155982
682.868573	0.156174
683.071295	0.156455
683.273998	0.156500
683.476682	0.156649
683.679349	0.157240
683.881997	0.157324
684.084627	0.157559
684.287239	0.157543
684.489833	0.157503
684.692408	0.157571
684.894965	0.157658
685.097504	0.157953
685.300025	0.158095
685.502527	0.158011
685.705012	0.157993
685.907478	0.157957
686.109925	0.158194
686.312355	0.158496
686.514766	0.158436
686.717159	0.158605
686.919534	0.158739
687.121891	0.158704
687.324230	0.158906
687.526550	0.159339
687.728852	0.159447
687.931136	0.159635
688.133401	0.159704
688.335649	0.159811
688.537878	0.159554
688.740089	0.159515
688.942281	0.159678
689.144456	0.159705
689.346612	0.159535
689.548750	0.159697
689.750870	0.159974
689.952971	0.159893
690.155055	0.160068
690.357120	0.160333
690.559167	0.160273
690.761195	0.160310
690.963206	0.160312
691.165198	0.160597
691.367172	0.160695
691.569128	0.160372
691.771065	0.160491
691.972984	0.160447
692.174885	0.160600
692.376768	0.160929
692.578633	0.160940
692.780479	0.161248
692.982308	0.161265
693.184118	0.161303
693.385909	0.161555
693.587683	0.161651
693.789438	0.161867
693.991175	0.161988
694.192894	0.161891
694.394595	0.162177
694.596277	0.162080
694.797941	0.162181
694.999587	0.162179
695.201215	0.162358
695.402824	0.162308
695.604416	0.162569
695.805989	0.162605
696.007543	0.162979
696.209080	0.162928
696.410598	0.162912
696.612099	0.162992
696.813580	0.163159
697.015044	0.163261
697.216490	0.163585
697.417917	0.163526
697.619326	0.163230
697.820717	0.162938
698.022089	0.163006
698.223444	0.163097
698.424780	0.162850
698.626098	0.162834
698.827397	0.162744
699.028679	0.162844
699.229942	0.162898
699.431187	0.163140
699.632414	0.163453
699.833622	0.163327
700.034813	0.163434
700.235985	0.163810
700.437139	0.164065
700.638274	0.164135
700.839392	0.164167
701.040491	0.164478
701.241572	0.164807
701.442635	0.164664
701.643679	0.164959
701.844706	0.165157
702.045714	0.165217
702.246704	0.165099
702.447675	0.165252
702.648629	0.165203
702.849564	0.165018
703.050481	0.165056
703.251380	0.165209
703.452260	0.165209
703.653122	0.165339
703.853966	0.165455
704.054792	0.165651
704.255600	0.165806
704.456389	0.165855
704.657160	0.165921
704.857913	0.165875
705.058648	0.166098
705.259365	0.166307
705.460063	0.165929
705.660743	0.165721
705.861405	0.165650
706.062048	0.165472
706.262674	0.165265
706.463281	0.165200
706.663870	0.165121
706.864441	0.164999
707.064993	0.164990
707.265527	0.165166
707.466043	0.165504
707.666541	0.165679
707.867021	0.165906
708.067482	0.166245
708.267925	0.166488
708.468350	0.166729
708.668757	0.166665
708.869145	0.166714
709.069516	0.166831
709.269868	0.166691
709.470201	0.166622
709.670517	0.166653
709.870814	0.166879
710.071093	0.166807
710.271354	0.166876
710.471597	0.166986
710.671821	0.167154
710.872028	0.167220
711.072216	0.167299
711.272385	0.167369
711.472537	0.167429
711.672670	0.166922
711.872785	0.166766
712.072882	0.166639
712.272961	0.166580
712.473021	0.166400
712.673063	0.166264
712.873087	0.166128
713.073093	0.166006
713.273081	0.165874
713.473050	0.166117
713.673001	0.166203
713.872934	0.166200
714.072849	0.166588
714.272745	0.166662
714.472623	0.166835
714.672483	0.167045
714.872325	0.167144
715.072148	0.167253
715.271954	0.167346
715.471741	0.167387
715.671509	0.167310
715.871260	0.166889
716.070992	0.166846
716.270707	0.166796
716.470403	0.166838
716.670080	0.166940
716.869740	0.166710
717.069381	0.166781
717.269004	0.166685
717.468609	0.166780
717.668195	0.166888
717.867764	0.166889
718.067314	0.166726
718.266846	0.166588
718.466360	0.166491
718.665855	0.166549
718.865332	0.166483
719.064791	0.166504
719.264232	0.166378
719.463655	0.166272
719.663059	0.166185
719.862445	0.166056
720.061813	0.165973
720.261163	0.165900
720.460494	0.165847
720.659807	0.165770
720.859102	0.165759
721.058379	0.165859
721.257638	0.165908
721.456878	0.165885
721.656100	0.166130
721.855304	0.166108
722.054490	0.166202
722.253657	0.166138
722.452806	0.166027
722.651937	0.165861
722.851050	0.165764
723.050145	0.165615
723.249221	0.165685
723.448279	0.165511
723.647319	0.165596
723.846340	0.165346
724.045344	0.165267
724.244329	0.165514
724.443296	0.165540
724.642245	0.165590
724.841175	0.165700
725.040088	0.165695
725.238982	0.165597
725.437857	0.165468
725.636715	0.165463
725.835554	0.165493
726.034376	0.165306
726.233179	0.165295
726.431963	0.165287
726.630730	0.165244
726.829478	0.165163
727.028208	0.165286
727.226920	0.165404
727.425614	0.165549
727.624289	0.165677
727.822946	0.165434
728.021585	0.165315
728.220206	0.165211
728.418808	0.165288
728.617392	0.165166
728.815958	0.165088
729.014506	0.164931
729.213036	0.164815
729.411547	0.164675
729.610040	0.164760
729.808515	0.164712
730.006972	0.164757
730.205410	0.164409
730.403831	0.164453
730.602233	0.164593
730.800616	0.164624
730.998982	0.164722
731.197329	0.164565
731.395658	0.164510
731.593969	0.164663
731.792262	0.164681
731.990536	0.164787
732.188793	0.164727
732.387031	0.164392
732.585250	0.164162
732.783452	0.163943
732.981635	0.164139
733.179800	0.164055
733.377947	0.163971
733.576076	0.163732
733.774186	0.163594
733.972278	0.163472
734.170352	0.163527
734.368408	0.163591
734.566446	0.163531
734.764465	0.163379
734.962466	0.163306
735.160449	0.163253
735.358413	0.163394
735.556360	0.163442
735.754288	0.163432
735.952198	0.163469
736.150090	0.163558
736.347963	0.163593
736.545818	0.163513
736.743655	0.163518
736.941474	0.163382
737.139275	0.163268
737.337057	0.163247
737.534821	0.163281
737.732567	0.163143
737.930295	0.162847
738.128005	0.162809
738.325696	0.162632
738.523369	0.162466
738.721024	0.162530
738.918660	0.162311
739.116279	0.162301
739.313879	0.161939
739.511461	0.161764
739.709024	0.161716
739.906570	0.161640
740.104097	0.161615
740.301606	0.161479
740.499097	0.161421
740.696569	0.161392
740.894024	0.161243
741.091460	0.161524
741.288878	0.161491
741.486277	0.161427
741.683659	0.161179
741.881022	0.161204
742.078367	0.161347
742.275694	0.161162
742.473002	0.160926
742.670293	0.160990
742.867565	0.160733
743.064819	0.160622
743.262054	0.160551
743.459272	0.160508
743.656471	0.160346
743.853652	0.160167
744.050815	0.159985
744.247959	0.160049
744.445085	0.159734
744.642194	0.159499
744.839283	0.159422
745.036355	0.159358
745.233408	0.159104
745.430444	0.158906
745.627461	0.158748
745.824459	0.158547
746.021440	0.158305
746.218402	0.158272
746.415346	0.158140
746.612272	0.158086
746.809180	0.157776
747.006069	0.157586
747.202940	0.157609
747.399793	0.157718
747.596628	0.157427
747.793444	0.157439
747.990243	0.157268
748.187023	0.157139
748.383784	0.156807
748.580528	0.156869
748.777253	0.157008
748.973960	0.156923
749.170649	0.156583
749.367320	0.156804
749.563973	0.156686
749.760607	0.156702
749.957223	0.156689
750.153821	0.156788
750.350400	0.156590
750.546962	0.156300
750.743505	0.156113
750.940030	0.156084
751.136536	0.155945
751.333025	0.155789
751.529495	0.155567
751.725947	0.155469
751.922381	0.155504
752.118796	0.155580
752.315194	0.155850
752.511573	0.155826
752.707934	0.155699
752.904276	0.155822
753.100601	0.155778
753.296907	0.155620
753.493195	0.155681
753.689465	0.155558
753.885716	0.155438
754.081949	0.155403
754.278164	0.155287
754.474361	0.155134
754.670540	0.155132
754.866700	0.154968
755.062843	0.155065
755.258967	0.154855
755.455072	0.154731
755.651160	0.154623
755.847229	0.154434
756.043280	0.154377
756.239313	0.154505
756.435328	0.154211
756.631324	0.154269
756.827302	0.154264
757.023262	0.154208
757.219204	0.154098
757.415127	0.154067
757.611033	0.153913
757.806920	0.153770
758.002788	0.153575
758.198639	0.153536
758.394471	0.153308
758.590286	0.153155
758.786081	0.153025
758.981859	0.152776
759.177619	0.152665
759.373360	0.152508
759.569083	0.152514
759.764788	0.152441
759.960474	0.152426
760.156143	0.152706
760.351793	0.152589
760.547425	0.152804
760.743038	0.152947
760.938634	0.152933
761.134211	0.152922
761.329770	0.152874
761.525311	0.152976
761.720833	0.152949
761.916338	0.152570
762.111824	0.152423
762.307292	0.152180
762.502741	0.152144
762.698173	0.152096
762.893586	0.152020
763.088981	0.151809
763.284358	0.151585
763.479716	0.151299
763.675057	0.151357
763.870379	0.151356
764.065683	0.151264
764.260968	0.151292
764.456236	0.151098
764.651485	0.151225
764.846716	0.151157
765.041929	0.150992
765.237123	0.151039
765.432299	0.151014
765.627457	0.150966
765.822597	0.150834
766.017719	0.150633
766.212822	0.150689
766.407907	0.150528
766.602974	0.150599
766.798023	0.150951
766.993054	0.150980
767.188066	0.151006
767.383060	0.151072
767.578036	0.150919
767.772993	0.150845
767.967933	0.150851
768.162854	0.150617
768.357757	0.150487
768.552642	0.150105
768.747508	0.150052
768.942356	0.149811
769.137186	0.149469
769.331998	0.149517
769.526792	0.149508
769.721567	0.149486
769.916324	0.149503
770.111063	0.149488
770.305784	0.149631
770.500486	0.149340
770.695171	0.149409
770.889837	0.149584
771.084484	0.149826
771.279114	0.149759
771.473725	0.149627
771.668318	0.149532
771.862893	0.149777
772.057450	0.149755
772.251988	0.149834
772.446509	0.149643
772.641011	0.149484
772.835494	0.149209
773.029960	0.149296
773.224407	0.149139
773.418836	0.149005
773.613247	0.148823
773.807640	0.148626
774.002014	0.148490
774.196370	0.148389
774.390708	0.148460
774.585028	0.148282
774.779330	0.147981
774.973613	0.147899
775.167878	0.148035
775.362125	0.147875
775.556354	0.147885
775.750564	0.147988
775.944756	0.148272
776.138930	0.148140
776.333086	0.148254
776.527223	0.148329
776.721343	0.148439
776.915444	0.148362
777.109526	0.148360
777.303591	0.148263
777.497637	0.148200
777.691666	0.148105
777.885676	0.148183
778.079667	0.148179
778.273641	0.148249
778.467596	0.148105
778.661533	0.148171
778.855452	0.148156
779.049352	0.148157
779.243235	0.148207
779.437099	0.147839
779.630945	0.147773
779.824773	0.147832
780.018582	0.147816
780.212373	0.147760
780.406146	0.147584
780.599901	0.147477
780.793638	0.147653
780.987356	0.147695
781.181056	0.147950
781.374738	0.148017
781.568402	0.147849
781.762047	0.147606
781.955674	0.147810
782.149283	0.148073
782.342874	0.148040
782.536447	0.147854
782.730001	0.147918
782.923537	0.147954
783.117055	0.147860
783.310555	0.147818
783.504036	0.148086
783.697499	0.148045
783.890944	0.147843
784.084371	0.147928
784.277780	0.148033
784.471170	0.147895
784.664542	0.147794
784.857896	0.147828
785.051231	0.147847
785.244549	0.147800
785.437848	0.147731
785.631129	0.147918
785.824392	0.147931
786.017636	0.147834
786.210863	0.147841
786.404071	0.147819
786.597260	0.147759
786.790432	0.147788
786.983585	0.147717
787.176721	0.147653
787.369838	0.147621
787.562936	0.147660
787.756017	0.147735
787.949079	0.147707
788.142123	0.147667
788.335149	0.147622
788.528156	0.147672
788.721146	0.147602
788.914117	0.147660
789.107070	0.147675
789.300005	0.147744
789.492921	0.147666
789.685819	0.147685
789.878699	0.147931
790.071561	0.148247
790.264405	0.148245
790.457230	0.148480
790.650037	0.148410
790.842826	0.148394
791.035597	0.148485
791.228349	0.148406
791.421084	0.148272
791.613800	0.148170
791.806497	0.147972
791.999177	0.147980
792.191838	0.147847
792.384481	0.148132
792.577106	0.148121
792.769713	0.148135
792.962301	0.148451
793.154871	0.148602
793.347423	0.148697
793.539957	0.148929
793.732473	0.148785
793.924970	0.148811
794.117449	0.148874
794.309910	0.148907
794.502353	0.148742
794.694777	0.148672
794.887183	0.148895
795.079571	0.149014
795.271941	0.149063
795.464293	0.149504
795.656626	0.149772
795.848941	0.149581
796.041238	0.149746
796.233516	0.149987
796.425777	0.149920
796.618019	0.149772
796.810243	0.149705
797.002449	0.149496
797.194636	0.149626
797.386805	0.149488
797.578956	0.149869
797.771089	0.149773
797.963204	0.149818
798.155300	0.149976
798.347378	0.150229
798.539438	0.150438
798.731480	0.150743
798.923503	0.150918
799.115509	0.150918
799.307496	0.150704
799.499465	0.150925
799.691415	0.150989
799.883348	0.151210
800.075262	0.151207
800.267158	0.151135
800.459035	0.151157
800.650895	0.150841
800.842736	0.151268
801.034559	0.151389
801.226364	0.151486
801.418150	0.151595
801.609919	0.151584
801.801669	0.151654
801.993401	0.151917
802.185114	0.152075
802.376810	0.152407
802.568487	0.152368
802.760146	0.152503
802.951787	0.152603
803.143409	0.152625
803.335014	0.152657
803.526600	0.152699
803.718168	0.152670
803.909717	0.152580
804.101249	0.152508
804.292762	0.152662
804.484257	0.152862
804.675734	0.152967
804.867192	0.153305
805.058632	0.153474
805.250054	0.153503
805.441458	0.153282
805.632844	0.153283
805.824211	0.153463
806.015561	0.153232
806.206891	0.153271
806.398204	0.153481
806.589499	0.153403
806.780775	0.153504
806.972033	0.153864
807.163273	0.154214
807.354495	0.154661
807.545698	0.154510
807.736883	0.154862
807.928050	0.155031
808.119199	0.154970
808.310329	0.155060
808.501441	0.155090
808.692535	0.155185
808.883611	0.155257
809.074669	0.154910
809.265708	0.155092
809.456729	0.155116
809.647732	0.155215
809.838717	0.155031
810.029683	0.154973
810.220632	0.154967
810.411562	0.154994
810.602474	0.155095
810.793367	0.155486
810.984242	0.155691
811.175100	0.155962
811.365938	0.156040
811.556759	0.156490
811.747562	0.156881
811.938346	0.157235
812.129112	0.157263
812.319860	0.157561
812.510589	0.157682
812.701300	0.157743
812.891994	0.157547
813.082668	0.157682
813.273325	0.157839
813.463964	0.157495
813.654584	0.157652
813.845186	0.157850
814.035769	0.157905
814.226335	0.157902
814.416882	0.158190
814.607411	0.158399
814.797922	0.158515
814.988415	0.158381
815.178889	0.158829
815.369345	0.158947
815.559783	0.159165
815.750203	0.159329
815.940605	0.159669
816.130988	0.159919
816.321353	0.160204
816.511700	0.160327
816.702028	0.160516
816.892339	0.160843
817.082631	0.160774
817.272905	0.161002
817.463161	0.161149
817.653398	0.161332
817.843617	0.161362
818.033819	0.161538
818.224001	0.161579
818.414166	0.162057
818.604312	0.162060
818.794440	0.162229
818.984550	0.162284
819.174642	0.162253
819.364716	0.162228
819.554771	0.162169
819.744808	0.162241
819.934827	0.162443
820.124827	0.162620
820.314810	0.162679
820.504774	0.162767
820.694720	0.162790
820.884647	0.162827
821.074557	0.162944
821.264448	0.163237
821.454321	0.163392
821.644176	0.163622
821.834012	0.163424
822.023831	0.163656
822.213631	0.163794
822.403413	0.163939
822.593176	0.164377
822.782922	0.164548
822.972649	0.164588
823.162358	0.164693
823.352049	0.164769
823.541721	0.164989
823.731376	0.164853
823.921012	0.165245
824.110629	0.165303
824.300229	0.165304
824.489811	0.165620
824.679374	0.165857
824.868919	0.165882
825.058445	0.166010
825.247954	0.165867
825.437444	0.166548
825.626916	0.166618
825.816370	0.167100
826.005806	0.167288
826.195223	0.167100
826.384622	0.167138
826.574003	0.167291
826.763366	0.167309
826.952711	0.168203
827.142037	0.168170
827.331345	0.168295
827.520635	0.168380
827.709906	0.168572
827.899160	0.169015
828.088395	0.169518
828.277612	0.169909
828.466810	0.170420
828.655991	0.170122
828.845153	0.170450
829.034297	0.170730
829.223423	0.170800
829.412531	0.170838
829.601620	0.170968
829.790691	0.171105
829.979744	0.171502
830.168779	0.171514
830.357795	0.171792
830.546793	0.171916
830.735773	0.172079
830.924735	0.172416
831.113679	0.172733
831.302604	0.173035
831.491511	0.173336
831.680400	0.173157
831.869271	0.173476
832.058123	0.173637
832.246957	0.173703
832.435773	0.174218
832.624571	0.174541
832.813351	0.174983
833.002112	0.174908
833.190855	0.174959
833.379580	0.175649
833.568287	0.175607
833.756975	0.175912
833.945645	0.176006
834.134297	0.175966
834.322931	0.175996
834.511547	0.176140
834.700144	0.176730
834.888723	0.176913
835.077284	0.177006
835.265826	0.177459
835.454351	0.177394
835.642857	0.177800
835.831345	0.178136
836.019815	0.178151
836.208266	0.178137
836.396699	0.178246
836.585114	0.178593
836.773511	0.178766
836.961890	0.178922
837.150250	0.179532
837.338592	0.179988
837.526916	0.180066
837.715222	0.180440
837.903510	0.180783
838.091779	0.180971
838.280030	0.181125
838.468263	0.181233
838.656477	0.181307
838.844674	0.181344
839.032852	0.181254
839.221012	0.181445
839.409153	0.181603
839.597277	0.181683
839.785382	0.181850
839.973469	0.181998
840.161538	0.181976
840.349589	0.182365
840.537621	0.182514
840.725635	0.182436
840.913631	0.182465
841.101609	0.182628
841.289568	0.183207
841.477509	0.183568
841.665432	0.183893
841.853337	0.184369
842.041224	0.184487
842.229092	0.184851
842.416942	0.185142
842.604774	0.185692
842.792588	0.185964
842.980383	0.186121
843.168160	0.186155
843.355919	0.186323
843.543660	0.186547
843.731382	0.186699
843.919087	0.186988
844.106773	0.187516
844.294441	0.187575
844.482090	0.187954
844.669722	0.188087
844.857335	0.188320
845.044930	0.188412
845.232507	0.188517
845.420065	0.188829
845.607605	0.188951
845.795127	0.189067
845.982631	0.189257
846.170117	0.189370
846.357584	0.189923
846.545033	0.190186
846.732464	0.190422
846.919877	0.190729
847.107272	0.190982
847.294648	0.191165
847.482006	0.191502
847.669346	0.191945
847.856667	0.192118
848.043971	0.191905
848.231256	0.192252
848.418523	0.192989
848.605771	0.193193
848.793002	0.193448
848.980214	0.193833
849.167408	0.194055
849.354584	0.194300
849.541742	0.194740
849.728881	0.195219
849.916002	0.195249
850.103105	0.195052
850.290190	0.195527
850.477256	0.195685
850.664304	0.195659
850.851334	0.195889
851.038346	0.195961
851.225340	0.196196
851.412315	0.196269
851.599272	0.196829
851.786211	0.196916
851.973132	0.196968
852.160034	0.197443
852.346918	0.197789
852.533784	0.198183
852.720632	0.198345
852.907462	0.198413
853.094273	0.198635
853.281066	0.198997
853.467841	0.199406
853.654598	0.199311
853.841336	0.199455
854.028056	0.199872
854.214758	0.199777
854.401442	0.200142
854.588107	0.200423
854.774755	0.200902
854.961384	0.200772
855.147995	0.200769
855.334587	0.201107
855.521162	0.201189
855.707718	0.201099
855.894256	0.201249
856.080775	0.201317
856.267277	0.201535
856.453760	0.201542
856.640225	0.201583
856.826672	0.201786
857.013101	0.202002
857.199511	0.202197
857.385903	0.202585
857.572277	0.202845
857.758633	0.202960
857.944970	0.203018
858.131290	0.202925
858.317591	0.203322
858.503873	0.203709
858.690138	0.204006
858.876384	0.204271
859.062612	0.204398
859.248822	0.204607
859.435014	0.204986
859.621188	0.205453
859.807343	0.205847
859.993480	0.205854
860.179599	0.206003
860.365699	0.206238
860.551781	0.206486
860.737846	0.206713
860.923891	0.207023
861.109919	0.207070
861.295929	0.207229
861.481920	0.207440
861.667893	0.207989
861.853848	0.208197
862.039784	0.208455
862.225702	0.208703
862.411603	0.209047
862.597484	0.209310
862.783348	0.209618
862.969193	0.209676
863.155021	0.210180
863.340830	0.210304
863.526620	0.210623
863.712393	0.210918
863.898147	0.211040
864.083883	0.211058
864.269601	0.210953
864.455301	0.211220
864.640982	0.211570
864.826645	0.211735
865.012290	0.211781
865.197917	0.212066
865.383526	0.212221
865.569116	0.212507
865.754688	0.212774
865.940242	0.213231
866.125777	0.213490
866.311295	0.213641
866.496794	0.213359
866.682275	0.213431
866.867737	0.213474
867.053182	0.213713
867.238608	0.213880
867.424016	0.214051
867.609406	0.214223
867.794778	0.214001
867.980131	0.214070
868.165466	0.214307
868.350783	0.214509
868.536082	0.214488
868.721362	0.214361
868.906625	0.214597
869.091869	0.214736
869.277094	0.214850
869.462302	0.215536
869.647491	0.215649
869.832662	0.215733
870.017815	0.216231
870.202950	0.216477
870.388066	0.216632
870.573165	0.216897
870.758245	0.217090
870.943306	0.217202
871.128350	0.217161
871.313375	0.217671
871.498382	0.218367
871.683371	0.218191
871.868342	0.218458
872.053294	0.218590
872.238229	0.218701
872.423144	0.218889
872.608042	0.218964
872.792922	0.218967
872.977783	0.219065
873.162626	0.218926
873.347451	0.219279
873.532258	0.219077
873.717046	0.219339
873.901816	0.219144
874.086568	0.219309
874.271302	0.219358
874.456017	0.219796
874.640715	0.219536
874.825394	0.219675
875.010055	0.219721
875.194697	0.219852
875.379322	0.220426
875.563928	0.220282
875.748516	0.219849
875.933085	0.220225
876.117637	0.220271
876.302170	0.220528
876.486685	0.220220
876.671182	0.220152
876.855661	0.220463
877.040121	0.220152
877.224563	0.220673
877.408987	0.221569
877.593393	0.221707
877.777780	0.221434
877.962150	0.221873
878.146501	0.222580
878.330833	0.222810
878.515148	0.222975
878.699444	0.223189
878.883722	0.223263
879.067982	0.223111
879.252224	0.223305
879.436447	0.223833
879.620653	0.223925
879.804840	0.223639
879.989008	0.224029
880.173159	0.224400
880.357291	0.224181
880.541405	0.224197
880.725501	0.224206
880.909579	0.224099
881.093638	0.223730
881.277680	0.223402
881.461703	0.223929
881.645707	0.223945
881.829694	0.223729
882.013662	0.223984
882.197612	0.224114
882.381544	0.224235
882.565458	0.224458
882.749353	0.225017
882.933230	0.225090
883.117089	0.224992
883.300930	0.224949
883.484753	0.224955
883.668557	0.225099
883.852343	0.225096
884.036111	0.225058
884.219861	0.225081
884.403592	0.225048
884.587305	0.225153
884.771000	0.224872
884.954677	0.224930
885.138335	0.224988
885.321976	0.224787
885.505598	0.224843
885.689201	0.224726
885.872787	0.224658
886.056354	0.224539
886.239904	0.224701
886.423434	0.224750
886.606947	0.224766
886.790442	0.224629
886.973918	0.224567
887.157376	0.224513
887.340816	0.224488
887.524237	0.224636
887.707641	0.224750
887.891026	0.224380
888.074393	0.224573
888.257741	0.224613
888.441072	0.224876
888.624384	0.225290
888.807678	0.225536
888.990954	0.225886
889.174211	0.225965
889.357451	0.225820
889.540672	0.225811
889.723875	0.225842
889.907059	0.225677
890.090226	0.225715
890.273374	0.225703
890.456504	0.225414
890.639616	0.225105
890.822709	0.224516
891.005785	0.224498
891.188842	0.224822
891.371881	0.224760
891.554901	0.224576
891.737904	0.224501
891.920888	0.224640
892.103854	0.224852
892.286802	0.225062
892.469731	0.225400
892.652643	0.225855
892.835536	0.225808
893.018410	0.226069
893.201267	0.226066
893.384106	0.226177
893.566926	0.225835
893.749728	0.225482
893.932511	0.225297
894.115277	0.225096
894.298024	0.224626
894.480753	0.224418
894.663464	0.223817
894.846157	0.224084
895.028831	0.223897
895.211487	0.223985
895.394125	0.224107
895.576745	0.223889
895.759346	0.224188
895.941930	0.224203
896.124495	0.224266
896.307041	0.224858
896.489570	0.224894
896.672080	0.224558
896.854573	0.224103
897.037046	0.223696
897.219502	0.223372
897.401940	0.222999
897.584359	0.222696
897.766760	0.222433
897.949143	0.221964
898.131507	0.221213
898.313854	0.220701
898.496182	0.220329
898.678492	0.220444
898.860783	0.220611
899.043057	0.220225
899.225312	0.219604
899.407549	0.219218
899.589768	0.219012
899.771968	0.219144
899.954151	0.219275
900.136315	0.219140
900.318461	0.218904
900.500588	0.218823
900.682698	0.218896
900.864789	0.219263
901.046862	0.219494
901.228917	0.219603
901.410953	0.219254
901.592971	0.219003
901.774972	0.219081
901.956953	0.218982
902.138917	0.218870
902.320862	0.218606
902.502790	0.218345
902.684699	0.217733
902.866589	0.217294
903.048462	0.217054
903.230316	0.216761
903.412152	0.216723
903.593970	0.216670
903.775770	0.216676
903.957551	0.216911
904.139314	0.216759
904.321059	0.216881
904.502786	0.216842
904.684494	0.216785
904.866185	0.217090
905.047857	0.216937
905.229510	0.216692
905.411146	0.216205
905.592763	0.216186
905.774363	0.215816
905.955943	0.215683
906.137506	0.215521
906.319051	0.215675
906.500577	0.215409
906.682085	0.215257
906.863575	0.215278
907.045046	0.215307
907.226500	0.214847
907.407935	0.215003
907.589352	0.214741
907.770750	0.214255
907.952131	0.213917
908.133493	0.213820
908.314837	0.213501
908.496163	0.212985
908.677470	0.212740
908.858760	0.212374
909.040031	0.212018
909.221284	0.211585
909.402518	0.211536
909.583735	0.210909
909.764933	0.210622
909.946113	0.210397
910.127275	0.210099
910.308418	0.209380
910.489544	0.208761
910.670651	0.208483
910.851740	0.208602
911.032810	0.208182
911.213863	0.208050
911.394897	0.207824
911.575913	0.207878
911.756911	0.207500
911.937890	0.207493
912.118851	0.207199
912.299794	0.206860
912.480719	0.206219
912.661626	0.206058
912.842514	0.206180
913.023384	0.205885
913.204236	0.205016
913.385070	0.205070
913.565886	0.204703
913.746683	0.204574
913.927462	0.204223
914.108223	0.204012
914.288965	0.203325
914.469690	0.202817
914.650396	0.202501
914.831084	0.202401
915.011754	0.202344
915.192405	0.202507
915.373038	0.202202
915.553653	0.202113
915.734250	0.202044
915.914829	0.201894
916.095389	0.201662
916.275931	0.200544
916.456455	0.200121
916.636961	0.198868
916.817448	0.198125
916.997917	0.197592
917.178368	0.197224
917.358801	0.196860
917.539216	0.196473
917.719612	0.195826
917.899990	0.196360
918.080350	0.196263
918.260692	0.196561
918.441015	0.196079
918.621320	0.196019
918.801607	0.194932
918.981876	0.193995
919.162127	0.193555
919.342359	0.193009
919.522573	0.192107
919.702769	0.191589
919.882947	0.191111
920.063106	0.190810
920.243247	0.190475
920.423370	0.190557
920.603475	0.190048
920.783562	0.189480
920.963630	0.189612
921.143680	0.189620
921.323712	0.188960
921.503725	0.188141
921.683721	0.187968
921.863698	0.187313
922.043657	0.186927
922.223598	0.186956
922.403520	0.186706
922.583424	0.185652
922.763311	0.185144
922.943178	0.184347
923.123028	0.183827
923.302859	0.182815
923.482673	0.182278
923.662467	0.181347
923.842244	0.180635
924.022003	0.180659
924.201743	0.180049
924.381465	0.179648
924.561169	0.179470
924.740854	0.179403
924.920522	0.179148
925.100171	0.179105
925.279802	0.179087
925.459414	0.178637
925.639009	0.177551
925.818585	0.177424
925.998143	0.176748
926.177683	0.176274
926.357205	0.175704
926.536708	0.175349
926.716193	0.174177
926.895660	0.173721
927.075109	0.173193
927.254539	0.173162
927.433951	0.172517
927.613345	0.171815
927.792721	0.171423
927.972079	0.170942
928.151418	0.170538
928.330739	0.170224
928.510042	0.168933
928.689327	0.168302
928.868593	0.167500
929.047841	0.167052
929.227071	0.166854
929.406283	0.166163
929.585476	0.165468
929.764652	0.164442
929.943809	0.164215
930.122948	0.163837
930.302068	0.163532
930.481171	0.162814
930.660255	0.162398
930.839321	0.161560
931.018369	0.160560
931.197398	0.159877
931.376409	0.159294
931.555402	0.158743
931.734377	0.158196
931.913334	0.157622
932.092272	0.157249
932.271192	0.156618
932.450094	0.156056
932.628978	0.155769
932.807844	0.155162
932.986691	0.154342
933.165520	0.153649
933.344331	0.153695
933.523123	0.153095
933.701898	0.152582
933.880654	0.151497
934.059392	0.151323
934.238111	0.151663
934.416813	0.151467
934.595496	0.151344
934.774161	0.150750
934.952808	0.149926
935.131437	0.149825
935.310047	0.148322
935.488639	0.148090
935.667213	0.146979
935.845769	0.146436
936.024306	0.145080
936.202825	0.144217
936.381326	0.143286
936.559809	0.143193
936.738274	0.142305
936.916720	0.142748
937.095148	0.142219
937.273558	0.140930
937.451950	0.139192
937.630323	0.139524
937.808678	0.139602
937.987015	0.139498
938.165334	0.138482
938.343635	0.137980
938.521917	0.137169
938.700181	0.136459
938.878427	0.136835
939.056655	0.136734
939.234864	0.135377
939.413055	0.134217
939.591228	0.133169
939.769383	0.133094
939.947519	0.131817
940.125638	0.131098
940.303738	0.130962
940.481820	0.130095
940.659883	0.129107
940.837929	0.128189
941.015956	0.128007
941.193965	0.127993
941.371955	0.125999
941.549928	0.125419
941.727882	0.124821
941.905818	0.123951
942.083736	0.123662
942.261636	0.122789
942.439517	0.122536
942.617380	0.121211
942.795225	0.120671
942.973052	0.120741
943.150860	0.120917
943.328651	0.119808
943.506423	0.119829
943.684176	0.119262
943.861912	0.119123
944.039629	0.119342
944.217328	0.118891
944.395009	0.117405
944.572672	0.117677
944.750317	0.115837
944.927943	0.116074
945.105551	0.115179
945.283141	0.114599
945.460712	0.115614
945.638265	0.115129
945.815801	0.114999
945.993317	0.114863
946.170816	0.114130
946.348297	0.114544
946.525759	0.114544
946.703203	0.114140
946.880629	0.113072
947.058036	0.110670
947.235425	0.109146
947.412797	0.108516
947.590149	0.108689
947.767484	0.107200
947.944800	0.106894
948.122099	0.105411
948.299379	0.104342
948.476640	0.104562
948.653884	0.104605
948.831109	0.104776
949.008316	0.105306
949.185505	0.103047
949.362676	0.102493
949.539828	0.099902
949.716962	0.098699
949.894078	0.097383
950.071176	0.095804
950.248256	0.093846
950.425317	0.092097
950.602360	0.090527
950.779385	0.090372
950.956391	0.089349
951.133380	0.089772
951.310350	0.089232
951.487302	0.089941
951.664235	0.088500
951.841151	0.089024
952.018048	0.090259
952.194927	0.090202
952.371788	0.090565
952.548631	0.090886
952.725455	0.090965
952.902261	0.089724
953.079049	0.088731
953.255819	0.088929
953.432570	0.088854
953.609303	0.088604
953.786018	0.086799
953.962715	0.085285
954.139394	0.085919
954.316054	0.085183
954.492696	0.084232
954.669320	0.084233
954.845926	0.085386
955.022513	0.085139
955.199083	0.083453
955.375634	0.083184
955.552166	0.083098
955.728681	0.081861
955.905177	0.081539
956.081655	0.081984
956.258115	0.080928
956.434557	0.079791
956.610980	0.078566
956.787385	0.078578
956.963772	0.078579
957.140141	0.077866
957.316492	0.076325
957.492824	0.076233
957.669138	0.079069
957.845434	0.078601
958.021712	0.078343
958.197971	0.078414
958.374212	0.076444
958.550435	0.076198
958.726640	0.076063
958.902826	0.076359
959.078995	0.075095
959.255145	0.073512
959.431277	0.074210
959.607390	0.075532
959.783486	0.074847
959.959563	0.076979
960.135622	0.077174
960.311662	0.077569
960.487685	0.076898
960.663689	0.076499
960.839675	0.075334
961.015643	0.075119
961.191593	0.072375
961.367524	0.072175
961.543437	0.072301
961.719332	0.071660
961.895209	0.072795
962.071067	0.075333
962.246907	0.077401
962.422730	0.078400
962.598533	0.077295
962.774319	0.076286
962.950086	0.078210
963.125835	0.077857
963.301566	0.078607
963.477279	0.076871
963.652973	0.074886
963.828650	0.074819
964.004308	0.073289
964.179947	0.073638
964.355569	0.073887
964.531172	0.073408
964.706757	0.071142
964.882324	0.070249
965.057873	0.070268
965.233403	0.069634
965.408916	0.067592
965.584410	0.067652
965.759885	0.068556
965.935343	0.069726
966.110782	0.068622
966.286203	0.069614
966.461606	0.070893
966.636991	0.074365
966.812357	0.074037
966.987705	0.076004
967.163035	0.075073
967.338347	0.073000
967.513641	0.074172
967.688916	0.073675
967.864173	0.072494
968.039412	0.070402
968.214632	0.067645
968.389835	0.069890
968.565019	0.068327
968.740185	0.071157
968.915333	0.072248
969.090462	0.072026
969.265573	0.072966
969.440667	0.075422
969.615741	0.075403
969.790798	0.075041
969.965836	0.072813
970.140856	0.073987
970.315858	0.072193
970.490842	0.073925
970.665808	0.072515
970.840755	0.070618
971.015684	0.068901
971.190595	0.069175
971.365487	0.069330
971.540362	0.068442
971.715218	0.069032
971.890056	0.068471
972.064875	0.065774
972.239677	0.066176
972.414460	0.068180
972.589225	0.068857
972.763972	0.069024
972.938700	0.067731
973.113411	0.067726
973.288103	0.066372
973.462777	0.066866
973.637432	0.067677
973.812070	0.065104
973.986689	0.063532
974.161290	0.064142
974.335873	0.064224
974.510437	0.062253
974.684984	0.062968
974.859512	0.063899
975.034022	0.062950
975.208513	0.064247
975.382987	0.067009
975.557442	0.066887
975.731879	0.065500
975.906298	0.066173
976.080698	0.069908
976.255080	0.070788
976.429445	0.070965
976.603790	0.072435
976.778118	0.070897
976.952427	0.072234
977.126719	0.073435
977.300992	0.073922
977.475246	0.073532
977.649483	0.070907
977.823701	0.070517
977.997901	0.067617
978.172083	0.066897
978.346247	0.066604
978.520392	0.063843
978.694519	0.062810
978.868628	0.062513
979.042719	0.062827
979.216791	0.063681
979.390845	0.064486
979.564882	0.067314
979.738899	0.067940
979.912899	0.067522
980.086880	0.069112
980.260843	0.069239
980.434788	0.071439
980.608715	0.070095
980.782623	0.069598
980.956514	0.069074
981.130386	0.067602
981.304240	0.068170
981.478075	0.069863
981.651892	0.069934
981.825692	0.070496
981.999472	0.067456
982.173235	0.066943
982.346980	0.067205
982.520706	0.067961
982.694414	0.068186
982.868104	0.066724
983.041775	0.065804
983.215428	0.064496
983.389064	0.064114
983.562680	0.066041
983.736279	0.067440
983.909860	0.068122
984.083422	0.065568
984.256966	0.063185
984.430491	0.065164
984.603999	0.064513
984.777488	0.065778
984.950959	0.064871
985.124412	0.064236
985.297847	0.063485
985.471263	0.063606
985.644661	0.064262
985.818041	0.067565
985.991403	0.066791
986.164747	0.067234
986.338072	0.066637
986.511379	0.067028
986.684668	0.067252
986.857938	0.067786
987.031191	0.067529
987.204425	0.067168
987.377641	0.065616
987.550839	0.065819
987.724018	0.065596
987.897179	0.064864
988.070322	0.065637
988.243447	0.065539
988.416554	0.064627
988.589642	0.064277
988.762712	0.065993
988.935764	0.066830
989.108798	0.067215
989.281813	0.067560
989.454811	0.068704
989.627790	0.069457
989.800751	0.069335
989.973693	0.070225
990.146617	0.071146
990.319524	0.071470
990.492412	0.070762
990.665281	0.068979
990.838133	0.069085
991.010966	0.068105
991.183781	0.068961
991.356578	0.068718
991.529356	0.069815
991.702117	0.071730
991.874859	0.068591
992.047583	0.068196
992.220288	0.068959
992.392976	0.070013
992.565645	0.071054
992.738296	0.069822
992.910929	0.069255
993.083543	0.069416
993.256139	0.066746
993.428718	0.069543
993.601277	0.070032
993.773819	0.070246
993.946342	0.070594
994.118848	0.070625
994.291335	0.070279
994.463803	0.069466
994.636254	0.068247
994.808686	0.068479
994.981100	0.068690
995.153496	0.068715
995.325874	0.067380
995.498233	0.065376
995.670574	0.065040
995.842897	0.064516
996.015202	0.063314
996.187488	0.062347
996.359757	0.062182
996.532007	0.059578
996.704239	0.057608
996.876452	0.059176
997.048648	0.059687
997.220825	0.058929
997.392984	0.059163
997.565124	0.060675
997.737247	0.060146
997.909351	0.059604
998.081437	0.061258
998.253505	0.061486
998.425554	0.060860
998.597586	0.061398
998.769599	0.062378
998.941594	0.061072
999.113571	0.060847
999.285529	0.062692
999.457469	0.062663
999.629391	0.063661
999.801295	0.065571
999.973181	0.064598
1000.145048	0.063183
1000.316897	0.063369
1000.488728	0.064475
1000.660541	0.066707
1000.832335	0.067227
1001.004111	0.067956
1001.175869	0.066952
1001.347609	0.066475
1001.519331	0.066552
1001.691034	0.068865
1001.862719	0.067960
1002.034386	0.068234
1002.206035	0.066587
1002.377665	0.066488
1002.549277	0.065473
1002.720871	0.064496
1002.892447	0.065207
1003.064004	0.065329
1003.235544	0.065009
1003.407065	0.065392
1003.578568	0.065827
1003.750052	0.066271
1003.921519	0.064271
1004.092967	0.066060
1004.264397	0.066742
1004.435809	0.067150
1004.607202	0.068356
1004.778577	0.067728
1004.949934	0.067158
1005.121273	0.067437
1005.292594	0.068306
1005.463896	0.070900
1005.635180	0.070849
1005.806446	0.072961
1005.977694	0.071337
1006.148923	0.071990
1006.320135	0.070199
1006.491328	0.071012
1006.662503	0.070252
1006.833659	0.068891
1007.004798	0.066851
1007.175918	0.066058
1007.347020	0.064564
1007.518103	0.065921
1007.689169	0.065234
1007.860216	0.067000
1008.031245	0.067062
1008.202256	0.068259
1008.373248	0.067467
1008.544223	0.069022
1008.715179	0.069298
1008.886117	0.069653
1009.057036	0.068806
1009.227938	0.068499
1009.398821	0.067119
1009.569686	0.066996
1009.740533	0.065339
1009.911361	0.066302
1010.082172	0.065471
1010.252964	0.065518
1010.423738	0.065005
1010.594493	0.064220
1010.765231	0.065295
1010.935950	0.065657
1011.106651	0.065606
1011.277334	0.065187
1011.447998	0.064880
1011.618645	0.065433
1011.789273	0.064931
1011.959882	0.063608
1012.130474	0.064559
1012.301048	0.063803
1012.471603	0.063886
1012.642140	0.062732
1012.812658	0.063170
1012.983159	0.062883
1013.153641	0.062835
1013.324105	0.063041
1013.494551	0.065560
1013.664979	0.064175
1013.835388	0.064395
1014.005779	0.064505
1014.176152	0.064497
1014.346507	0.066741
1014.516843	0.067158
1014.687162	0.068017
1014.857462	0.066828
1015.027744	0.064829
1015.198007	0.067951
1015.368252	0.066883
1015.538480	0.067891
1015.708689	0.068859
1015.878879	0.066825
1016.049052	0.067624
1016.219206	0.067631
1016.389342	0.070755
1016.559460	0.070641
1016.729559	0.069373
1016.899641	0.068604
1017.069704	0.068874
1017.239749	0.068822
1017.409775	0.067832
1017.579784	0.069033
1017.749774	0.067693
1017.919746	0.065153
1018.089700	0.065219
1018.259635	0.064261
1018.429553	0.065774
1018.599452	0.063536
1018.769333	0.062347
1018.939195	0.062800
1019.109040	0.061696
1019.278866	0.061792
1019.448674	0.061560
1019.618464	0.063034
1019.788235	0.062858
1019.957989	0.062663
1020.127724	0.063609
1020.297441	0.064752
1020.467139	0.064541
1020.636820	0.063762
1020.806482	0.063335
1020.976126	0.063530
1021.145752	0.062655
1021.315359	0.062446
1021.484948	0.061614
1021.654519	0.059960
1021.824072	0.060081
1021.993607	0.062188
1022.163123	0.062060
1022.332621	0.061258
1022.502101	0.062281
1022.671563	0.061655
1022.841007	0.062435
1023.010432	0.061842
1023.179839	0.064050
1023.349228	0.064279
1023.518598	0.063235
1023.687951	0.063912
1023.857285	0.065110
1024.026601	0.064236
1024.195899	0.065195
1024.365178	0.064981
1024.534439	0.065137
1024.703682	0.064542
1024.872907	0.064360
1025.042114	0.064250
1025.211302	0.064477
1025.380472	0.062752
1025.549624	0.061244
1025.718758	0.059597
1025.887873	0.060100
1026.056970	0.061394
1026.226049	0.062233
1026.395110	0.061422
1026.564153	0.061562
1026.733177	0.060872
1026.902183	0.060939
1027.071171	0.064856
1027.240141	0.065889
1027.409092	0.066221
1027.578026	0.064767
1027.746940	0.064239
1027.915837	0.064812
1028.084716	0.063506
1028.253576	0.064394
1028.422418	0.066466
1028.591242	0.064328
1028.760048	0.065155
1028.928835	0.064596
1029.097604	0.065756
1029.266355	0.065826
1029.435088	0.065467
1029.603803	0.066210
1029.772499	0.064303
1029.941177	0.063393
1030.109837	0.063424
1030.278478	0.061683
1030.447102	0.061347
1030.615707	0.061856
1030.784294	0.062026
1030.952863	0.061730
1031.121413	0.062022
1031.289945	0.061769
1031.458460	0.060511
1031.626955	0.059687
1031.795433	0.062657
1031.963892	0.063057
1032.132334	0.061649
1032.300756	0.059895
1032.469161	0.059987
1032.637548	0.060201
1032.805916	0.063278
1032.974266	0.064307
1033.142598	0.064299
1033.310911	0.062241
1033.479207	0.061087
1033.647484	0.062017
1033.815743	0.063876
1033.983983	0.064950
1034.152206	0.064704
1034.320410	0.062761
1034.488596	0.062898
1034.656764	0.063201
1034.824914	0.063732
1034.993045	0.066197
1035.161158	0.066663
1035.329253	0.066039
1035.497330	0.064070
1035.665388	0.064061
1035.833428	0.064107
1036.001450	0.064276
1036.169454	0.064242
1036.337440	0.064398
1036.505407	0.062074
1036.673356	0.060115
1036.841287	0.060035
1037.009200	0.061618
1037.177094	0.061729
1037.344970	0.060853
1037.512828	0.061234
1037.680668	0.060276
1037.848489	0.058765
1038.016293	0.060469
1038.184078	0.063045
1038.351845	0.063222
1038.519593	0.063343
1038.687324	0.064079
1038.855036	0.064468
1039.022730	0.064039
1039.190406	0.065579
1039.358063	0.066840
1039.525702	0.065781
1039.693323	0.065975
1039.860926	0.066246
1040.028511	0.065796
1040.196077	0.063153
1040.363625	0.064587
1040.531155	0.065116
1040.698667	0.065456
1040.866161	0.064944
1041.033636	0.065505
1041.201093	0.062608
1041.368532	0.063150
1041.535952	0.061901
1041.703355	0.063100
1041.870739	0.062360
1042.038105	0.062251
1042.205452	0.062452
1042.372782	0.062532
1042.540093	0.062835
1042.707386	0.064672
1042.874661	0.063424
1043.041918	0.065424
1043.209156	0.066045
1043.376376	0.067603
1043.543578	0.066429
1043.710762	0.065846
1043.877927	0.064941
1044.045074	0.064045
1044.212203	0.064100
1044.379314	0.064481
1044.546407	0.063335
1044.713481	0.063335
1044.880537	0.060442
1045.047575	0.060193
1045.214595	0.060831
1045.381596	0.060760
1045.548579	0.060279
1045.715544	0.059672
1045.882491	0.059588
1046.049420	0.060063
1046.216330	0.059223
1046.383222	0.061916
1046.550096	0.064060
1046.716951	0.063199
1046.883789	0.064894
1047.050608	0.064099
1047.217409	0.062026
1047.384192	0.062035
1047.550956	0.061929
1047.717703	0.063321
1047.884431	0.061317
1048.051140	0.061870
1048.217832	0.061766
1048.384505	0.060868
1048.551161	0.061841
1048.717798	0.063575
1048.884416	0.065066
1049.051017	0.064881
1049.217599	0.063861
1049.384163	0.063807
1049.550709	0.061918
1049.717237	0.063699
1049.883746	0.065625
1050.050237	0.065977
1050.216710	0.066496
1050.383165	0.064930
1050.549601	0.064656
1050.716019	0.064702
1050.882420	0.065335
1051.048801	0.065992
1051.215165	0.064336
1051.381510	0.064189
1051.547837	0.064405
1051.714146	0.064963
1051.880437	0.064246
1052.046709	0.065331
1052.212964	0.065362
1052.379200	0.066104
1052.545417	0.066200
1052.711617	0.067349
1052.877798	0.066274
1053.043961	0.065342
1053.210106	0.065684
1053.376233	0.067894
1053.542341	0.067610
1053.708432	0.068432
1053.874504	0.067054
1054.040557	0.066844
1054.206593	0.067288
1054.372610	0.066428
1054.538609	0.067270
1054.704590	0.067542
1054.870553	0.064454
1055.036497	0.063590
1055.202424	0.062756
1055.368331	0.062847
1055.534221	0.063341
1055.700093	0.062850
1055.865946	0.064370
1056.031781	0.063532
1056.197598	0.062538
1056.363397	0.064918
1056.529177	0.066385
1056.694939	0.068347
1056.860683	0.068591
1057.026409	0.068323
1057.192116	0.067302
1057.357806	0.065078
1057.523477	0.065572
1057.689130	0.065994
1057.854764	0.065336
1058.020381	0.064321
1058.185979	0.063191
1058.351559	0.064239
1058.517120	0.064986
1058.682664	0.064123
1058.848189	0.066299
1059.013696	0.067662
1059.179185	0.064761
1059.344656	0.064102
1059.510108	0.064378
1059.675542	0.063893
1059.840958	0.061953
1060.006356	0.061078
1060.171735	0.063304
1060.337096	0.062501
1060.502439	0.061855
1060.667764	0.064398
1060.833071	0.065405
1060.998359	0.064715
1061.163629	0.065011
1061.328881	0.067680
1061.494115	0.067770
1061.659330	0.067166
1061.824527	0.066223
1061.989706	0.065547
1062.154867	0.065127
1062.320010	0.064575
1062.485134	0.067426
1062.650240	0.067876
1062.815328	0.065672
1062.980398	0.064872
1063.145449	0.064331
1063.310482	0.066627
1063.475497	0.067550
1063.640494	0.068144
1063.805473	0.067070
1063.970433	0.064849
1064.135375	0.066114
1064.300299	0.066786
1064.465204	0.067400
1064.630092	0.065418
1064.794961	0.063983
1064.959812	0.064431
1065.124645	0.063518
1065.289459	0.064935
1065.454256	0.065062
1065.619034	0.062451
1065.783793	0.062167
1065.948535	0.061542
1066.113258	0.062920
1066.277964	0.063187
1066.442651	0.062035
1066.607319	0.063076
1066.771970	0.060981
1066.936602	0.060173
1067.101216	0.060105
1067.265812	0.058978
1067.430389	0.059795
1067.594949	0.060590
1067.759490	0.059940
1067.924013	0.058519
1068.088518	0.057650
1068.253004	0.059736
1068.417472	0.060839
1068.581922	0.060090
1068.746354	0.061203
1068.910768	0.059752
1069.075163	0.060485
1069.239540	0.060744
1069.403899	0.062017
1069.568240	0.062006
1069.732562	0.064195
1069.896866	0.065471
1070.061152	0.067070
1070.225420	0.066700
1070.389670	0.066777
1070.553901	0.066030
1070.718114	0.068446
1070.882309	0.068378
1071.046486	0.068532
1071.210644	0.065224
1071.374784	0.062922
1071.538906	0.062618
1071.703010	0.065616
1071.867096	0.065642
1072.031163	0.066032
1072.195212	0.062939
1072.359243	0.062446
1072.523256	0.062180
1072.687250	0.062654
1072.851226	0.063764
1073.015184	0.064255
1073.179124	0.060623
1073.343045	0.060227
1073.506949	0.059017
1073.670834	0.061032
1073.834701	0.060774
1073.998549	0.060906
1074.162380	0.061922
1074.326192	0.059541
1074.489986	0.058801
1074.653761	0.061476
1074.817519	0.063150
1074.981258	0.063473
1075.144979	0.062244
1075.308682	0.064558
1075.472367	0.064516
1075.636033	0.064019
1075.799681	0.065629
1075.963311	0.067545
1076.126923	0.065020
1076.290516	0.064091
1076.454092	0.064944
1076.617649	0.066274
1076.781187	0.064160
1076.944708	0.063105
1077.108210	0.062837
1077.271695	0.063848
1077.435160	0.061658
1077.598608	0.062575
1077.762038	0.063361
1077.925449	0.062684
1078.088842	0.060947
1078.252217	0.062028
1078.415573	0.063601
1078.578912	0.064605
1078.742232	0.063302
1078.905534	0.064401
1079.068817	0.063728
1079.232083	0.062791
1079.395330	0.063602
1079.558559	0.062602
1079.721770	0.059917
1079.884962	0.057425
1080.048136	0.057693
1080.211293	0.057731
1080.374430	0.056069
1080.537550	0.057639
1080.700651	0.058019
1080.863735	0.056947
1081.026800	0.057341
1081.189846	0.059851
1081.352875	0.061991
1081.515885	0.060609
1081.678877	0.061204
1081.841851	0.061350
1082.004807	0.059517
1082.167744	0.060407
1082.330663	0.062386
1082.493564	0.064363
1082.656447	0.064768
1082.819312	0.065245
1082.982158	0.065606
1083.144986	0.066412
1083.307796	0.066030
1083.470587	0.069742
1083.633361	0.070021
1083.796116	0.067082
1083.958853	0.067443
1084.121571	0.068850
1084.284272	0.067913
1084.446954	0.068943
1084.609618	0.066270
1084.772264	0.067990
1084.934892	0.066473
1085.097501	0.066559
1085.260092	0.066677
1085.422665	0.069363
1085.585220	0.068133
1085.747756	0.070770
1085.910274	0.069756
1086.072774	0.071829
1086.235256	0.073603
1086.397720	0.074573
1086.560165	0.073261
1086.722592	0.075438
1086.885001	0.071563
1087.047392	0.069852
1087.209764	0.067683
1087.372119	0.070308
1087.534455	0.073155
1087.696772	0.072440
1087.859072	0.071694
1088.021353	0.071035
1088.183616	0.070000
1088.345861	0.070977
1088.508088	0.072988
1088.670296	0.073232
1088.832486	0.069917
1088.994658	0.067345
1089.156812	0.067615
1089.318948	0.068293
1089.481065	0.066863
1089.643164	0.068809
1089.805245	0.067657
1089.967308	0.067994
1090.129352	0.066872
1090.291378	0.067414
1090.453386	0.069285
1090.615376	0.067832
1090.777347	0.065940
1090.939301	0.070157
1091.101236	0.068075
1091.263153	0.067373
1091.425051	0.067406
1091.586932	0.067278
1091.748794	0.069458
1091.910638	0.067570
1092.072463	0.072866
1092.234271	0.075147
1092.396060	0.076084
1092.557831	0.078225
1092.719584	0.079626
1092.881319	0.078034
1093.043035	0.080915
1093.204733	0.078908
1093.366413	0.080299
1093.528075	0.075947
1093.689718	0.074151
1093.851343	0.073589
1094.012950	0.071264
1094.174539	0.071322
1094.336110	0.073646
1094.497662	0.076553
1094.659196	0.078077
1094.820712	0.075920
1094.982210	0.074874
1095.143689	0.075428
1095.305151	0.075468
1095.466594	0.076887
1095.628018	0.079464
1095.789425	0.076931
1095.950813	0.073198
1096.112183	0.071725
1096.273535	0.072589
1096.434869	0.072082
1096.596184	0.071266
1096.757482	0.068832
1096.918761	0.068289
1097.080021	0.062697
1097.241264	0.063319
1097.402488	0.065571
1097.563694	0.066398
1097.724882	0.069341
1097.886052	0.070182
1098.047203	0.071428
1098.208336	0.073545
1098.369451	0.073309
1098.530548	0.077466
1098.691627	0.078981
1098.852687	0.077462
1099.013729	0.076966
1099.174753	0.074934
1099.335758	0.075667
1099.496746	0.075394
1099.657715	0.074763
1099.818666	0.072893
1099.979599	0.073564
1100.140513	0.073709
1100.301409	0.072730
1100.462287	0.072885
1100.623147	0.072227
1100.783989	0.073377
1100.944812	0.072214
1101.105617	0.070761
1101.266404	0.070742
1101.427173	0.068636
1101.587923	0.065541
1101.748656	0.066304
1101.909370	0.067443
1102.070066	0.067816
1102.230743	0.067372
1102.391403	0.070204
1102.552044	0.069925
1102.712667	0.072697
1102.873271	0.074209
1103.033858	0.073272
1103.194426	0.073539
1103.354976	0.074400
1103.515508	0.071663
1103.676021	0.075148
1103.836517	0.074755
1103.996994	0.074788
1104.157453	0.077225
1104.317893	0.077477
1104.478316	0.080368
1104.638720	0.078820
1104.799106	0.077432
1104.959474	0.081971
1105.119823	0.080334
1105.280155	0.075830
1105.440468	0.077183
1105.600763	0.073616
1105.761039	0.073509
1105.921298	0.074583
1106.081538	0.073931
1106.241760	0.070046
1106.401964	0.061731
1106.562149	0.057596
1106.722316	0.057284
1106.882465	0.056773
1107.042596	0.057560
1107.202709	0.061105
1107.362803	0.060709
1107.522879	0.063910
1107.682937	0.067833
1107.842977	0.070610
1108.002999	0.073978
1108.163002	0.080754
1108.322987	0.083452
1108.482954	0.081400
1108.642902	0.079563
1108.802833	0.079705
1108.962745	0.078214
1109.122639	0.076712
1109.282515	0.081463
1109.442372	0.080284
1109.602211	0.079666
1109.762032	0.076488
1109.921835	0.079323
1110.081620	0.076289
1110.241386	0.073851
1110.401134	0.072096
1110.560864	0.072383
1110.720576	0.070095
1110.880269	0.068253
1111.039945	0.060067
1111.199602	0.063670
1111.359240	0.066598
1111.518861	0.067236
1111.678463	0.067851
1111.838047	0.068957
1111.997613	0.068902
1112.157161	0.072406
1112.316690	0.072344
1112.476202	0.079303
1112.635695	0.077924
1112.795169	0.074993
1112.954626	0.073002
1113.114064	0.077065
1113.273484	0.079317
1113.432886	0.080547
1113.592270	0.075663
1113.751635	0.075237
1113.910983	0.073103
1114.070312	0.070473
1114.229622	0.070844
1114.388915	0.074276
1114.548189	0.070616
1114.707445	0.066984
1114.866683	0.068309
1115.025903	0.070469
1115.185104	0.066909
1115.344287	0.064718
1115.503452	0.069533
1115.662599	0.066786
1115.821727	0.065749
1115.980838	0.070544
1116.139930	0.072293
1116.299004	0.070347
1116.458059	0.068598
1116.617097	0.076773
1116.776116	0.082089
1116.935117	0.080311
1117.094099	0.082018
1117.253064	0.081035
1117.412010	0.076670
1117.570938	0.076586
1117.729848	0.078048
1117.888740	0.081310
1118.047613	0.078465
1118.206468	0.077143
1118.365305	0.078021
1118.524124	0.080796
1118.682924	0.078403
1118.841707	0.079435
1119.000471	0.077346
1119.159216	0.076839
1119.317944	0.077816
1119.476653	0.079285
1119.635344	0.079443
1119.794017	0.078410
1119.952672	0.074712
1120.111308	0.077173
1120.269927	0.076974
1120.428527	0.078985
1120.587108	0.074276
1120.745672	0.074977
1120.904217	0.072887
1121.062744	0.068056
1121.221253	0.067418
1121.379744	0.068450
1121.538216	0.067084
1121.696671	0.064878
1121.855107	0.066096
1122.013524	0.071589
1122.171924	0.071922
1122.330305	0.068030
1122.488668	0.073931
1122.647013	0.076661
1122.805340	0.072731
1122.963648	0.078790
1123.121938	0.082476
1123.280210	0.083329
1123.438464	0.084485
1123.596700	0.082996
1123.754917	0.091914
1123.913116	0.088304
1124.071297	0.083793
1124.229459	0.087598
1124.387604	0.083398
1124.545730	0.085545
1124.703838	0.087038
1124.861928	0.083218
1125.019999	0.080731
1125.178052	0.080303
1125.336088	0.084159
1125.494104	0.088497
1125.652103	0.093557
1125.810083	0.097727
1125.968045	0.088381
1126.125989	0.084127
1126.283915	0.082582
1126.441823	0.087618
1126.599712	0.081122
1126.757583	0.081979
1126.915436	0.080627
1127.073270	0.075030
1127.231087	0.073522
1127.388885	0.080648
1127.546665	0.081795
1127.704426	0.079024
1127.862170	0.076522
1128.019895	0.083339
1128.177602	0.084135
1128.335291	0.080044
1128.492961	0.083528
1128.650614	0.078769
1128.808248	0.075956
1128.965864	0.074686
1129.123461	0.080158
1129.281041	0.074598
1129.438602	0.068806
1129.596145	0.066434
1129.753670	0.065192
1129.911176	0.065519
1130.068665	0.067003
1130.226135	0.070431
1130.383587	0.077256
1130.541020	0.077729
1130.698436	0.079114
1130.855833	0.080921
1131.013212	0.077588
1131.170573	0.082022
1131.327915	0.081573
1131.485239	0.080587
1131.642545	0.076465
1131.799833	0.069990
1131.957103	0.070000
1132.114354	0.074361
1132.271588	0.077618
1132.428803	0.072670
1132.585999	0.072059
1132.743178	0.074906
1132.900338	0.078684
1133.057480	0.083403
1133.214604	0.085076
1133.371710	0.085676
1133.528797	0.087175
1133.685866	0.085094
1133.842917	0.096077
1133.999950	0.095136
1134.156964	0.091907
1134.313960	0.087699
1134.470938	0.085594
1134.627898	0.088942
1134.784840	0.087396
1134.941763	0.088635
1135.098668	0.091258
1135.255555	0.088498
1135.412424	0.083111
1135.569274	0.088702
1135.726107	0.089484
1135.882921	0.089732
1136.039716	0.086951
1136.196494	0.087615
1136.353253	0.086764
1136.509995	0.083604
1136.666717	0.083643
1136.823422	0.090917
1136.980109	0.088481
1137.136777	0.092866
1137.293427	0.095327
1137.450059	0.091483
1137.606672	0.097945
1137.763267	0.095496
1137.919844	0.096318
1138.076403	0.094352
1138.232944	0.092991
1138.389466	0.088110
1138.545971	0.083891
1138.702457	0.082875
1138.858924	0.086982
1139.015374	0.077982
1139.171805	0.074986
1139.328218	0.076363
1139.484613	0.082574
1139.640990	0.081457
1139.797348	0.072761
1139.953688	0.074941
1140.110010	0.067312
1140.266314	0.066543
1140.422600	0.075059
1140.578867	0.082606
1140.735116	0.077548
1140.891347	0.077303
1141.047559	0.084153
1141.203754	0.096100
1141.359930	0.095473
1141.516088	0.105999
1141.672228	0.107436
1141.828349	0.102979
1141.984452	0.091451
1142.140537	0.092379
1142.296604	0.085790
1142.452653	0.082280
1142.608683	0.079596
1142.764695	0.080145
1142.920689	0.071962
1143.076665	0.072741
1143.232622	0.070044
1143.388562	0.075876
1143.544483	0.083554
1143.700385	0.086888
1143.856270	0.079312
1144.012136	0.078398
1144.167985	0.078964
1144.323814	0.083715
1144.479626	0.077307
1144.635420	0.082573
1144.791195	0.084912
1144.946952	0.079168
1145.102691	0.080734
1145.258411	0.088604
1145.414113	0.089564
1145.569798	0.087418
1145.725463	0.083872
1145.881111	0.091197
1146.036741	0.090857
1146.192352	0.092223
1146.347945	0.091272
1146.503519	0.096084
1146.659076	0.090056
1146.814614	0.089575
1146.970134	0.080001
1147.125636	0.085906
1147.281120	0.086111
1147.436585	0.081994
1147.592032	0.072280
1147.747461	0.077187
1147.902872	0.071075
1148.058265	0.077156
1148.213639	0.078092
1148.368995	0.085229
1148.524333	0.085249
1148.679653	0.084658
1148.834954	0.083708
1148.990237	0.086336
1149.145502	0.078682
1149.300749	0.071906
1149.455977	0.066870
1149.611188	0.065167
1149.766380	0.071118
1149.921553	0.070850
1150.076709	0.065032
1150.231846	0.063098
1150.386966	0.061918
1150.542066	0.073212
1150.697149	0.079508
1150.852214	0.081932
1151.007260	0.084835
1151.162288	0.079387
1151.317298	0.079366
1151.472289	0.074733
1151.627263	0.076313
1151.782218	0.078279
1151.937155	0.069183
1152.092073	0.064472
1152.246974	0.066628
1152.401856	0.057073
1152.556720	0.064221
1152.711566	0.059155
1152.866393	0.067085
1153.021203	0.075045
1153.175994	0.086237
1153.330767	0.086413
1153.485521	0.103106
1153.640258	0.102769
1153.794976	0.112436
1153.949676	0.108516
1154.104358	0.114160
1154.259021	0.114462
1154.413667	0.116432
1154.568294	0.100211
1154.722903	0.101917
1154.877493	0.090368
1155.032066	0.087934
1155.186620	0.091510
1155.341156	0.088546
1155.495674	0.089650
1155.650173	0.097950
1155.804654	0.085999
1155.959118	0.092272
1156.113562	0.089389
1156.267989	0.081555
1156.422397	0.085235
1156.576788	0.081969
1156.731160	0.091123
1156.885513	0.086208
1157.039849	0.084032
1157.194166	0.085983
1157.348465	0.081461
1157.502746	0.085752
1157.657009	0.084631
1157.811253	0.074635
1157.965479	0.074317
1158.119687	0.067538
1158.273877	0.069697
1158.428048	0.067263
1158.582201	0.068225
1158.736337	0.070804
1158.890453	0.065283
1159.044552	0.082101
1159.198632	0.087242
1159.352694	0.089794
1159.506738	0.098083
1159.660764	0.096951
1159.814771	0.098277
1159.968761	0.096600
1160.122732	0.105952
1160.276685	0.115453
1160.430619	0.098130
1160.584535	0.105133
1160.738434	0.108690
1160.892313	0.102731
1161.046175	0.096426
1161.200019	0.094288
1161.353844	0.102668
1161.507651	0.103928
1161.661440	0.102675
1161.815210	0.107048
1161.968962	0.107659
1162.122697	0.105755
1162.276412	0.117834
1162.430110	0.129775
1162.583789	0.127424
1162.737451	0.115130
1162.891094	0.106146
1163.044718	0.107335
1163.198325	0.116271
1163.351913	0.102086
1163.505483	0.091997
1163.659035	0.073774
1163.812569	0.072143
1163.966084	0.075162
1164.119581	0.070399
1164.273060	0.068868
1164.426521	0.068091
1164.579964	0.056372
1164.733388	0.059421
1164.886794	0.060128
1165.040182	0.058768
1165.193551	0.064285
1165.346903	0.059134
1165.500236	0.075764
1165.653551	0.078912
1165.806848	0.068466
1165.960126	0.068609
1166.113386	0.083611
1166.266628	0.096811
1166.419852	0.106220
1166.573058	0.100202
1166.726245	0.094837
1166.879414	0.095193
1167.032565	0.105106
1167.185698	0.100762
1167.338812	0.116708
1167.491909	0.105917
1167.644987	0.098222
1167.798046	0.086074
1167.951088	0.076292
1168.104111	0.085581
1168.257117	0.096634
1168.410103	0.091612
1168.563072	0.107771
1168.716023	0.103819
1168.868955	0.101275
1169.021869	0.103725
1169.174765	0.108447
1169.327642	0.110403
1169.480501	0.094569
1169.633343	0.073122
1169.786165	0.067607
1169.938970	0.058707
1170.091757	0.053923
1170.244525	0.063367
1170.397275	0.063534
1170.550007	0.074322
1170.702720	0.082202
1170.855415	0.093503
1171.008092	0.106827
1171.160751	0.116176
1171.313392	0.128291
1171.466014	0.074740
1171.618619	0.162406
1171.771205	0.162406
1171.923772	0.162406
