sample name	sample
index	1359
start time	 05-03-2021  01:47:54 PM
880	0.399322
Peak Time (s)	90.536
Peak Height 	0.3993
calc peak height	90,93
Baseline Time (s)	9.537
Baseline Value 	-0.004299
subtract baseline	10,4
Abs	0.280032
Peak Time (s)	90.536
Peak Height 	0.28
calc peak height	90,93
Baseline Time (s)	9.037
Baseline Value 	0.001724
subtract baseline	10,3
PK_550	0.155303
Peak Time (s)	90.036
Peak Height 	0.1553
calc peak height	90,93
Baseline Time (s)	9.537
Baseline Value 	7.5141E-4
subtract baseline	10,2
PK_880	0.275722
Peak Time (s)	90.036
Peak Height 	0.2757
calc peak height	90,93
Baseline Time (s)	10.037
Baseline Value 	0.001384
subtract baseline	10,1


Time (s)	A880-A510	A880-A775	A880-A975	A880	I510	I775	I975	I880	
0.036000	0.000721	-0.000380	0.003186	0.002271	6129.883959	42436.161665	3917.234884	22062.247683
0.537000	-0.002220	-0.001000	-0.001384	0.003586	6098.863554	42260.741338	3903.879994	22004.445985
1.037500	-0.002488	-0.000998	-0.007975	0.002495	6104.839951	42359.732381	3891.562681	22052.400461
1.537500	0.002026	-0.000720	0.000579	0.000180	6154.856819	42595.577032	3916.055759	22154.539774
2.035000	0.000424	-0.000504	-0.000666	0.000935	6137.501408	42546.508369	3911.504145	22121.185410
2.535500	-0.000882	-0.000490	0.000943	0.002226	6118.498670	42430.321511	3912.227003	22064.258542
3.038500	0.003219	-0.000413	0.003502	-0.001363	6175.119225	42764.718756	3926.301136	22222.943514
3.536000	0.000451	0.000359	0.003509	0.000698	6139.440690	42646.770887	3921.574390	22131.633195
4.036000	-0.000264	-0.000138	0.000998	-0.000075	6139.870790	42672.002764	3917.595978	22165.834961
4.536000	-0.002257	-0.000321	0.004015	0.005119	6087.497979	42183.625604	3912.633093	21937.292396
5.037000	-0.001230	-0.000712	0.000256	-0.000444	6135.481689	42653.268413	3916.742915	22182.173314
5.536500	0.001044	0.000427	-0.000437	0.000453	6145.602072	42675.400603	3913.120708	22142.479159
6.037000	0.000306	-0.000835	0.001158	-0.000672	6148.454224	42662.891645	3919.328302	22192.278208
6.537500	0.000150	-0.000341	0.002877	0.000171	6141.100962	42630.969870	3921.334946	22154.936206
7.035000	0.000733	-0.000510	-0.004281	0.000284	6144.560542	42605.260103	3904.795715	22149.954315
7.538500	-0.000198	-0.000423	0.000009	-0.000258	6141.697618	42662.738128	3915.755981	22173.944698
8.035500	0.000037	-0.000461	0.001204	0.000053	6141.140489	42630.803316	3917.773521	22160.157573
8.535500	0.002527	0.000670	-0.004507	0.000636	6155.184841	42680.919881	3903.490740	22134.392098
9.036500	0.002487	-0.000093	0.000000	-0.000084	6160.212695	42677.008427	3915.338237	22166.232385
9.536500	0.000862	0.000000	0.001642	0.000000	6147.599705	42677.795072	3918.896667	22162.513187
10.036500	0.000000	-0.000017	0.004427	-0.000002	6141.270729	42676.445392	3925.294285	22162.596178
10.537000	-0.001256	0.000053	-0.000657	0.000021	6131.882432	42680.710956	3913.601626	22161.565227
11.037500	-0.000353	0.000246	-0.001373	0.000295	6136.499503	42673.346749	3911.353060	22149.479163
11.537500	-0.001032	-0.000423	0.000422	-0.000834	6139.803941	42715.417657	3918.014840	22199.478699
12.038000	-0.000839	-0.000398	-0.002179	-0.000772	6140.765182	42712.028570	3911.943974	22196.717657
12.535000	-0.002436	-0.000339	-0.000483	0.003901	6095.018489	42292.091105	3905.203303	21990.655400
13.036000	0.002131	0.000272	0.001487	-0.001955	6171.432070	42881.859032	3923.024306	22249.232717
13.536000	-0.000272	-0.000045	0.004633	-0.000919	6146.015670	42757.756395	3927.884407	22203.236552
14.039000	0.000904	-0.000102	0.005218	-0.000203	6149.410179	42687.028159	3927.583269	22171.518574
14.536500	-0.002129	0.000376	0.003643	0.003053	6103.393420	42433.841519	3916.492196	22027.853494
15.037000	-0.001525	-0.000162	-0.000322	0.000172	6128.804285	42647.238029	3914.020265	22154.891686
15.569500	-0.000903	-0.000665	0.003263	-0.001173	6143.243510	42724.261513	3925.312084	22214.499821
16.035000	0.002138	0.000189	0.004338	-0.000770	6162.701893	42765.507818	3926.858621	22196.601214
16.540500	-0.000996	-0.000433	-0.000756	0.004441	6101.542184	42234.737958	3903.369916	21966.955385
17.035500	-0.000983	0.000402	-0.001598	-0.000154	6135.168341	42728.691452	3911.861331	22169.335021
17.536000	-0.000401	-0.000865	-0.000461	-0.001584	6149.958316	42743.501221	3917.709124	22232.724800
18.036000	0.000801	-0.000692	0.001986	-0.001206	6156.043017	42724.844928	3922.450364	22215.961351
18.536000	-0.000886	-0.000704	0.002067	0.000350	6132.185849	42581.518953	3919.067669	22147.015767
19.037000	0.001842	0.000008	0.002918	0.000816	6148.807841	42603.954661	3919.951080	22126.428194
19.537000	0.000824	0.000072	-0.003010	0.001129	6139.013208	42581.294391	3905.755159	22112.602537
20.034000	0.000725	-0.000298	-0.003455	0.000391	6143.714669	42614.852280	3906.417820	22145.217456
20.537000	0.002058	-0.000003	0.000230	0.000808	6150.454575	42603.722281	3913.830328	22126.774514
21.037500	0.001007	-0.000306	0.001486	0.001136	6140.309982	42546.211186	3915.945091	22112.288164
21.534500	-0.000357	0.000516	-0.000282	0.001160	6130.120181	42618.982821	3911.863431	22111.226947
22.035000	0.000181	-0.000430	0.003116	0.000848	6136.360962	42561.151821	3920.332158	22125.035494
22.535500	0.002664	-0.000541	0.000549	0.001000	6153.513798	42537.173402	3914.119588	22118.322459
23.036000	0.002236	0.000515	-0.000823	0.001601	6145.927674	42578.582617	3909.634937	22091.770797
23.536500	0.000362	0.000272	-0.002281	0.001191	6135.166167	42593.874944	3907.261863	22109.854518
24.036500	0.001051	0.000534	-0.003701	0.000834	6142.852096	42650.381460	3904.862057	22125.634247
24.537000	0.000867	0.000408	0.000237	0.001755	6134.737549	42554.894073	3911.693032	22085.002565
25.037500	-0.000386	-0.000709	0.000990	0.000017	6138.301183	42611.546269	3917.368773	22161.781326
25.540500	-0.000145	0.000823	0.002416	0.001076	6132.299834	42654.735025	3918.207325	22114.965369
26.034500	0.001674	0.000429	0.006261	0.001027	6146.012656	42623.185579	3927.150584	22117.107923
26.535000	-0.001273	-0.000203	-0.001456	0.001154	6123.460662	42553.855565	3909.213956	22111.486152
27.035000	-0.000222	-0.000250	0.000333	0.000357	6137.007027	42622.404995	3915.093388	22146.729371
27.536000	0.000648	0.000482	0.000971	0.001016	6138.554055	42629.049886	3915.044622	22117.604583
28.036000	0.001455	0.000599	0.000701	-0.002216	6168.357332	42935.989536	3921.818051	22260.844262
28.536000	-0.001960	-0.000533	-0.002101	0.004722	6092.514172	42200.338639	3899.714796	21954.659928
29.036500	0.000110	0.000017	0.002278	-0.000536	6146.004751	42728.360523	3921.581378	22186.238888
29.537000	0.000549	-0.000558	0.005247	-0.001065	6153.145013	42724.143574	3929.640401	22209.699372
30.040000	0.000803	0.000374	0.003613	-0.000607	6151.640476	42767.635116	3924.815312	22189.415676
30.535000	-0.002528	-0.000450	-0.000775	0.003549	6096.902088	42313.967861	3905.338689	22006.095003
31.035000	0.001396	0.000873	-0.001509	-0.000303	6153.764101	42785.406490	3912.400260	22175.906378
31.547000	0.002656	0.000520	0.000634	-0.000221	6162.475552	42745.630386	3917.098001	22172.295137
32.035500	-0.000794	-0.000245	0.001888	0.001493	6124.487913	42519.263159	3916.048770	22096.554039
32.555000	-0.003073	-0.000345	-0.003722	0.005310	6080.226785	42164.198835	3894.768970	21928.913043
33.044500	-0.000098	0.000491	-0.002830	-0.000397	6143.459227	42759.072292	3909.616673	22180.104670
33.536500	0.000801	0.000115	-0.000917	-0.000709	6152.374340	42753.169222	3914.671289	22193.904305
34.037000	0.001177	-0.000821	0.000953	-0.001240	6159.078079	42716.111247	3920.160331	22217.486373
34.537000	-0.003231	-0.000056	-0.000610	0.004481	6085.068665	42265.233991	3903.608172	21965.199547
35.034500	0.000899	0.000467	-0.002179	-0.002387	6165.502018	42939.562297	3915.619768	22268.443951
35.535000	-0.000832	0.000445	0.002248	0.001206	6126.315532	42608.275249	3917.526555	22109.225054
36.035500	0.000252	0.000304	0.002268	0.000994	6135.808329	42614.772262	3918.054053	22118.567405
36.535500	-0.000398	-0.000724	0.000643	0.001992	6123.741698	42430.297506	3912.077416	22074.559836
37.035500	-0.000236	0.000630	0.000580	0.001320	6129.844086	42614.823898	3913.462556	22104.196682
37.536000	-0.000395	0.000716	0.007097	0.001167	6129.801496	42636.629078	3928.759624	22110.950418
38.036000	-0.000961	0.000609	-0.002904	0.001875	6120.474020	42562.232975	3904.311785	22079.694448
38.536500	0.000774	0.000709	0.003480	0.001762	6134.009910	42581.677670	3919.072626	22084.709401
39.037000	0.001455	-0.000519	0.001830	0.001026	6144.414639	42536.843041	3916.981463	22117.169047
39.537500	0.000249	0.000937	-0.000443	0.002163	6127.218916	42565.880517	3909.224026	22067.038625
40.037500	0.000920	0.000046	0.004492	0.001538	6136.719371	42541.669442	3921.903396	22094.569859
40.535000	-0.000155	-0.000014	0.004602	0.001381	6129.987618	42550.471678	3922.516706	22101.485819
41.035500	-0.000829	0.000322	0.001186	0.001692	6122.783223	42552.800247	3913.995769	22087.794050
41.536000	-0.000410	0.000613	0.003376	0.002097	6122.880014	42542.305317	3918.066378	22069.912108
42.036000	0.000644	0.000142	0.007177	0.002046	6130.973959	42504.194881	3926.913085	22072.190024
42.536000	-0.003234	0.000203	-0.000089	0.003152	6094.661068	42409.105660	3907.786143	22023.504137
43.036500	-0.001582	0.000164	0.004574	0.002225	6113.399224	42489.817373	3920.517275	22064.291605
43.539500	-0.000029	-0.000084	-0.000209	0.002093	6125.697185	42479.332093	3909.913817	22070.123273
44.037000	0.000062	-0.000377	0.000431	0.001698	6129.254890	42488.524676	3912.261792	22087.505004
44.534500	0.000470	-0.000724	0.003060	0.002632	6125.405428	42372.220740	3916.123374	22046.387345
45.037500	0.001436	0.000811	0.003684	0.002144	6136.056853	42556.148593	3918.663834	22067.857875
45.535500	0.003182	0.000625	0.004949	0.000451	6161.391383	42693.709872	3925.453496	22142.566182
46.035000	0.001428	0.000125	0.003413	-0.000027	6151.972254	42691.711042	3923.020846	22163.710065
46.563000	0.000296	-0.000514	-0.005212	0.005437	6103.688042	42137.520140	3891.165835	21923.375653
47.036000	0.000373	0.000453	0.002861	0.000271	6142.010621	42694.506752	3921.069579	22150.544193
47.536500	0.000639	0.000223	0.001819	-0.000347	6148.511291	42729.943244	3920.095262	22177.863751
48.039000	0.002135	0.000857	0.007235	0.000487	6153.388300	42711.626340	3930.649954	22140.957346
48.536500	-0.002028	0.000259	-0.000690	0.006243	6081.038812	42134.585524	3899.467985	21888.194100
49.037000	-0.000703	0.000835	0.004138	0.002349	6118.899323	42539.610828	3919.233110	22058.817531
49.537500	0.000640	-0.000007	-0.001498	0.001666	6133.725219	42525.137005	3907.959847	22088.919157
50.035000	0.002736	0.001148	0.006308	0.000574	6157.190972	42730.382407	3928.305301	22137.147214
50.535500	-0.002263	-0.000440	0.005594	0.004978	6088.473549	42185.608687	3916.552531	21943.460700
51.036000	0.001573	0.000588	0.001520	0.000013	6152.747868	42730.379148	3918.589453	22161.949957
51.536000	0.004252	0.000138	0.001805	-0.003295	6197.217451	42992.879257	3926.842165	22308.905734
52.036000	0.003647	0.000965	0.000254	0.000057	6167.758205	42760.932529	3915.597820	22160.010266
52.539000	0.001759	0.000380	-0.000462	0.022583	5991.802751	40699.186119	3863.981971	21188.575344
53.037000	0.036540	-0.029376	0.032762	0.543098	3943.320029	13602.499856	3230.814577	8445.416161
53.537000	0.021238	-0.022774	-0.015859	-0.016932	6434.523628	42147.293465	3917.596202	22926.682718
54.037000	0.013786	-0.073882	-0.021751	-0.262278	8976.887702	64239.203240	4647.696570	38102.054255
54.536500	0.003272	-0.067781	-0.017377	-0.245113	8604.681431	62698.063805	4597.698986	36739.422808
55.035000	0.014615	-0.074193	-0.018987	-0.267144	9056.450429	64885.033465	4678.228117	38498.228820
55.535000	0.017114	-0.059552	-0.012234	-0.242144	8748.078989	63425.877146	4606.094228	36509.180632
56.036000	0.018081	-0.035728	-0.007636	-0.187974	8079.438509	59346.242558	4424.762054	32572.809976
56.536000	0.013203	-0.018880	-0.007229	-0.131986	7408.530328	54488.469635	4244.612467	28988.835705
57.038500	0.016558	-0.026905	-0.003608	-0.191098	8098.387342	60918.338703	4449.664974	32786.718793
57.536500	0.020311	-0.019006	0.002706	-0.174323	7946.281446	59746.247513	4413.379845	31655.895283
58.039500	0.032325	-0.012379	0.016113	-0.155521	7868.793676	58176.980203	4395.009259	30439.334739
58.537000	0.048298	0.002650	0.031643	-0.089357	7331.824497	52045.701317	4233.245062	26553.536741
59.034500	0.068716	0.017066	0.055489	-0.028823	6945.115858	47102.255056	4127.277095	23481.455797
59.535000	0.093718	0.030769	0.075716	0.022282	6712.003075	43461.201683	4044.770550	21201.221720
60.038000	0.114330	0.043882	0.104917	0.070790	6477.893873	40292.765872	3996.084278	19271.497495
60.535500	0.132414	0.057194	0.130079	0.125611	6191.654405	36891.330047	3925.384589	17334.919007
61.038500	0.158263	0.071960	0.148014	0.172327	6039.529932	34485.949900	3861.243690	15867.008316
61.539000	0.175907	0.083481	0.165832	0.212060	5886.275141	32504.284529	3815.176819	14736.964257
62.036500	0.190202	0.094034	0.183150	0.233747	5836.698799	31756.870688	3806.266921	14162.381520
62.536500	0.202547	0.103074	0.198853	0.258622	5754.573503	30726.460075	3787.851630	13537.744889
63.037000	0.212957	0.110977	0.206460	0.287207	5639.580618	29435.970134	3747.168693	12862.754251
63.537500	0.221692	0.115600	0.218880	0.320088	5494.071047	27769.287927	3709.337940	12139.334344
64.037500	0.223350	0.122417	0.227973	0.339275	5393.387788	27073.066367	3691.318514	11741.807536
64.535000	0.228060	0.126804	0.229754	0.338858	5422.418119	27341.112946	3695.206554	11750.262990
65.035000	0.229873	0.130647	0.230738	0.339631	5428.350295	27513.952860	3695.580712	11734.594624
65.548500	0.232082	0.133571	0.235054	0.338684	5446.431763	27733.621399	3704.974610	11753.794218
66.047000	0.238386	0.135224	0.238902	0.341082	5468.993095	27691.177668	3707.582462	11705.267065
66.536500	0.238906	0.136942	0.241362	0.343124	5460.179467	27672.774447	3708.337854	11664.164774
67.036500	0.238996	0.138553	0.240417	0.345107	5449.258618	27651.631473	3703.073763	11624.422699
67.536500	0.240251	0.140342	0.240498	0.348066	5439.472237	27585.241989	3697.936571	11565.469391
68.037000	0.238650	0.141772	0.242507	0.348727	5426.532064	27628.878532	3700.339304	11552.357097
68.536500	0.240916	0.142598	0.247049	0.356818	5393.522722	27219.923135	3694.029596	11393.414942
69.034500	0.243762	0.145499	0.251798	0.355371	5417.808310	27463.871561	3705.077618	11421.622085
69.535000	0.246495	0.144967	0.248147	0.356957	5424.330819	27344.668532	3695.728423	11390.699199
70.035500	0.246081	0.145780	0.249086	0.359394	5408.137446	27253.771504	3693.073991	11343.421959
70.538500	0.248872	0.147278	0.253159	0.360821	5415.873525	27257.743511	3697.768496	11315.863382
71.036000	0.247615	0.148902	0.253916	0.361525	5404.763392	27309.204355	3697.863464	11302.303515
71.536500	0.253038	0.151443	0.261776	0.363531	5424.158878	27339.195891	3708.349559	11263.773510
72.037000	0.253382	0.153191	0.255220	0.365131	5417.014168	27347.538712	3693.777983	11233.172878
72.537000	0.251012	0.153284	0.253026	0.370520	5373.311009	27052.179376	3680.472531	11130.915319
73.037500	0.256667	0.153674	0.260719	0.367004	5425.045068	27269.625933	3700.222113	11197.477641
73.537500	0.260444	0.156353	0.251860	0.369686	5431.301314	27269.486681	3679.894458	11146.654494
74.035000	0.259173	0.156623	0.264328	0.370481	5419.518831	27240.104615	3700.457717	11131.642819
74.535000	0.256174	0.156693	0.259601	0.377176	5364.981831	26872.834777	3680.331429	11006.355318
75.041000	0.258246	0.158381	0.265624	0.373829	5395.317929	27151.454418	3696.803045	11068.757070
75.536000	0.257266	0.157820	0.265580	0.374471	5386.200933	27084.623097	3695.585601	11056.748429
76.035500	0.256396	0.157425	0.258851	0.375007	5378.320927	27032.938735	3682.803137	11046.729238
76.536000	0.256772	0.157860	0.254718	0.382888	5336.699544	26624.066431	3662.130329	10900.981796
77.036500	0.256991	0.159101	0.264125	0.379226	5358.136932	26892.552302	3684.647042	10968.387068
77.537000	0.258235	0.160039	0.263911	0.381489	5352.487768	26819.662801	3680.326317	10926.660875
78.034500	0.261887	0.159069	0.260576	0.382019	5369.825688	26737.456149	3673.635170	10916.917609
78.535000	0.254110	0.158244	0.263144	0.388866	5289.670949	26321.454144	3666.296062	10792.172134
79.035000	0.257602	0.158165	0.268684	0.385175	5328.703231	26516.406014	3682.217852	10859.169572
79.538000	0.260951	0.156245	0.260550	0.385226	5346.845026	26409.794946	3668.082937	10858.243723
80.036000	0.260772	0.157030	0.265159	0.386992	5336.124775	26356.892393	3672.962800	10826.107263
80.536000	0.262784	0.157307	0.264011	0.394737	5304.818888	25958.327811	3657.804354	10686.742239
81.036500	0.264849	0.158053	0.265331	0.390727	5338.006892	26211.395870	3666.852497	10758.591414
81.536500	0.263706	0.155898	0.271180	0.390032	5335.544424	26133.426713	3678.113814	10771.109829
82.037000	0.264454	0.155841	0.271709	0.391761	5330.157519	26038.384587	3676.035268	10739.998698
82.537000	0.264771	0.156242	0.268936	0.394019	5319.545226	25940.050952	3667.388258	10699.574095
83.037000	0.265298	0.155802	0.275912	0.393422	5325.686104	25948.264646	3680.444128	10710.232082
83.535000	0.267494	0.155000	0.272521	0.393818	5335.552477	25885.002644	3673.886628	10703.149720
84.038000	0.266336	0.155512	0.274142	0.394751	5324.093521	25862.834235	3675.074395	10686.502951
84.535500	0.266749	0.155839	0.273719	0.396754	5315.414333	25774.692855	3670.897406	10650.866609
85.036000	0.264535	0.153371	0.276656	0.395095	5312.391327	25732.226308	3678.829975	10680.359554
85.535500	0.267061	0.154961	0.276635	0.396665	5317.600262	25733.344688	3676.074567	10652.446476
86.036500	0.269696	0.154755	0.273526	0.396338	5333.811472	25739.636805	3671.279671	10658.246532
86.537000	0.268209	0.152563	0.269243	0.396592	5324.268871	25611.826585	3663.524645	10653.736754
87.036500	0.268915	0.154058	0.275094	0.397368	5323.885857	25649.273735	3672.204189	10639.962384
87.537000	0.268387	0.154170	0.276933	0.397799	5318.647128	25632.655842	3674.630969	10632.335590
88.035000	0.271576	0.153459	0.279829	0.397883	5335.655445	25591.268179	3679.499935	10630.854569
88.537500	0.268964	0.152513	0.275922	0.397165	5325.262574	25579.342727	3673.980168	10643.566163
89.035500	0.271793	0.154247	0.282382	0.398764	5332.004209	25586.362327	3682.408839	10615.259479
89.535500	0.269779	0.153067	0.277761	0.396812	5331.663538	25626.649683	3677.769177	10649.836620
90.036000	0.275722	0.155303	0.269542	0.399205	5351.218810	25618.434524	3659.601076	10607.476839
90.536000	0.271389	0.154249	0.280032	0.399322	5326.730252	25557.449308	3677.354756	10605.405605
91.037000	0.274987	0.153847	0.279488	0.397945	5354.128820	25608.232125	3678.799852	10629.754582
91.540000	0.273250	0.154983	0.278286	0.398277	5342.696198	25650.191191	3676.142717	10623.881579
92.034000	0.275307	0.154065	0.276514	0.397629	5357.650951	25636.045423	3674.200763	10635.342510
92.534500	0.275351	0.154024	0.273603	0.397644	5357.807279	25633.131444	3669.170331	10635.073437
93.037500	0.275411	0.155957	0.278938	0.398663	5352.498983	25680.839623	3676.601171	10617.046388
93.535500	0.277677	0.153664	0.280273	0.396134	5379.179992	25693.186386	3683.317950	10661.871848
94.035500	0.278629	0.154630	0.278657	0.396790	5380.841006	25709.467618	3679.361984	10650.229951
94.536000	0.274050	0.153880	0.281461	0.401446	5329.674057	25428.240647	3676.153458	10568.025224
95.036000	0.276660	0.154981	0.287262	0.397131	5367.938631	25709.966182	3693.851761	10644.170361
95.536000	0.279511	0.156045	0.276254	0.397587	5381.316364	25741.819291	3673.824641	10636.096299
96.064000	0.278217	0.153469	0.277257	0.396461	5380.372416	25665.935866	3677.504188	10656.064331
96.539000	0.276831	0.155069	0.281041	0.395962	5375.416550	25775.882024	3684.961555	10664.938900
97.034500	0.275481	0.155079	0.282714	0.396275	5366.142386	25759.955688	3687.345507	10659.377772
97.534500	0.278777	0.154680	0.280711	0.395737	5387.577848	25767.236600	3684.777626	10668.943715
98.035000	0.277802	0.154090	0.285259	0.395498	5383.442953	25748.798479	3693.196002	10673.182525
98.535500	0.278249	0.153793	0.281639	0.394967	5388.930454	25761.061013	3687.753473	10682.645589
99.035500	0.277620	0.153929	0.282262	0.394924	5385.641728	25770.473086	3688.923958	10683.413759
