sample name	sample
index	1422
start time	 05-10-2021  12:10:01 PM
880	0.399990
Peak Time (s)	92.538
Peak Height 	0.4
calc peak height	90,93
Baseline Time (s)	10.54
Baseline Value 	-0.004868
subtract baseline	10,4
Abs	0.286546
Peak Time (s)	92.538
Peak Height 	0.2865
calc peak height	90,93
Baseline Time (s)	9.036
Baseline Value 	7.0541E-4
subtract baseline	10,3
PK_550	0.151610
Peak Time (s)	90.035
Peak Height 	0.1516
calc peak height	90,93
Baseline Time (s)	9.536
Baseline Value 	8.4681E-4
subtract baseline	10,2
PK_880	0.263419
Peak Time (s)	92.037
Peak Height 	0.2634
calc peak height	90,93
Baseline Time (s)	10.04
Baseline Value 	0.002181
subtract baseline	10,1


Time (s)	A880-A510	A880-A775	A880-A975	A880	I510	I775	I975	I880	
0.036000	-0.005896	-0.000844	-0.004152	0.008203	6388.225981	43419.554008	3906.596190	22344.663210
0.536500	-0.002021	-0.000581	-0.000480	0.005570	6441.635381	43690.335488	3922.555179	22463.147041
1.037000	-0.003499	-0.000921	-0.000814	0.004144	6441.205133	43792.342886	3925.342673	22527.606517
1.539500	-0.002124	-0.000221	-0.001021	0.004267	6451.574682	43846.617037	3924.499078	22522.045633
2.037000	-0.001894	-0.000052	-0.001169	0.003825	6457.146276	43904.216078	3925.249358	22542.068533
2.534500	-0.003634	-0.000967	-0.003930	0.005718	6427.101292	43640.257010	3913.418901	22456.452267
3.038000	0.000683	0.000490	0.001154	-0.000004	6510.744910	44318.652630	3941.084149	22716.381498
3.535500	-0.000458	-0.000845	-0.003028	0.002734	6478.199810	43932.427505	3923.289965	22591.609643
4.035500	0.000495	-0.000419	-0.001219	0.001371	6497.593121	44101.562344	3931.410751	22653.600010
4.536000	-0.003094	-0.000963	0.000747	0.004856	6438.667465	43721.511360	3927.515430	22495.412125
5.036500	-0.001007	-0.000239	0.000127	0.000890	6489.038147	44164.334773	3936.119010	22675.573760
5.536500	-0.003347	-0.000617	0.004339	0.000496	6472.761619	44165.786518	3948.067190	22693.523952
6.039500	0.000328	-0.000473	0.001196	0.000500	6503.513637	44179.050590	3939.889015	22693.356703
6.537500	0.000010	0.000092	0.002818	0.000873	6497.701128	44197.347700	3943.126322	22676.319606
7.037500	0.000031	0.000243	-0.001534	0.000873	6497.874601	44211.596887	3931.881530	22676.307034
7.534500	-0.001567	-0.000298	0.001661	0.000332	6489.012701	44211.636786	3941.527644	22701.012734
8.035000	0.000990	-0.000161	-0.002411	0.000276	6510.976883	44230.015196	3931.162219	22703.590794
8.536000	0.000815	0.000047	0.004026	0.001023	6503.212147	44178.812240	3945.877151	22669.473858
9.035500	-0.003185	-0.000346	0.000000	0.000579	6473.421914	44183.661695	3936.592802	22689.763151
9.536000	-0.000930	0.000000	-0.000970	0.000515	6492.827034	44222.632806	3934.254896	22692.683079
10.039500	0.000000	-0.000965	0.000538	-0.000339	6507.811382	44211.996975	3940.357160	22731.698013
10.539500	-0.000517	0.000331	-0.001607	0.000000	6500.614399	44303.145116	3933.942190	22716.206306
11.036500	0.000523	0.000175	-0.000613	-0.000083	6510.069941	44296.153000	3936.719391	22720.016018
11.534500	0.000860	-0.000570	0.000520	-0.000715	6518.238641	44285.399303	3941.286704	22748.947932
12.037500	-0.000557	-0.000181	0.004847	0.000043	6499.914825	44250.313535	3950.577681	22714.251577
12.535000	-0.002997	-0.000634	0.003557	0.004638	6441.273366	43772.822971	3935.294504	22505.244522
13.035500	-0.002173	-0.000033	0.006653	0.000418	6483.227515	44228.710120	3954.324688	22697.120902
13.536500	-0.000869	0.000810	0.000176	0.000842	6490.587892	44268.528027	3936.365442	22677.730238
14.036000	-0.001313	0.000407	-0.001606	0.003221	6466.999754	44004.633834	3925.677309	22569.456432
14.537000	-0.003425	0.000028	-0.004191	0.005283	6432.415616	43774.533609	3913.859781	22476.119551
15.036500	0.000222	0.000769	0.000847	0.001352	6495.468805	44216.113417	3936.783857	22654.488893
15.536500	0.001093	-0.000256	0.000955	0.000655	6508.640901	44184.913175	3938.863676	22686.260472
16.037500	-0.000976	-0.000290	0.000352	0.000714	6490.767887	44176.129652	3937.151784	22683.590547
16.535500	-0.003639	-0.001286	0.002099	0.003735	6443.429007	43796.539877	3933.865934	22546.159798
17.035000	0.002241	-0.000099	0.003584	-0.002169	6542.265082	44469.086188	3953.060733	22815.639239
17.535500	-0.004223	-0.000055	0.003005	0.003502	6440.529275	43934.496245	3936.804289	22556.733650
18.035500	-0.001092	0.000900	0.002690	0.002673	6473.416528	44103.189101	3938.131661	22594.371373
18.535500	-0.003543	-0.001021	-0.000672	0.002590	6453.712932	43929.355797	3929.685036	22598.123390
19.036500	-0.001973	-0.000162	0.000670	0.002110	6470.758650	44055.940538	3934.372105	22619.959342
19.536500	-0.001027	-0.000115	-0.000121	0.001744	6481.721398	44095.112279	3933.277946	22636.638058
20.036500	-0.002918	-0.000922	0.005154	0.000964	6472.444368	44092.490520	3948.972841	22672.190411
20.537000	-0.001760	-0.000638	-0.000061	0.002895	6465.996960	43936.747799	3930.472118	22584.281671
21.037000	-0.001217	-0.000061	0.000448	0.001622	6481.147716	44111.737533	3935.054682	22642.161403
21.535000	-0.001534	0.000013	0.001720	0.001803	6476.989451	44101.599716	3937.874332	22633.942952
22.035000	-0.002895	-0.000065	0.002504	0.001509	6468.089754	44122.124339	3940.663858	22647.343873
22.535500	-0.004367	-0.000412	-0.002374	0.003242	6441.485723	43925.313806	3923.661353	22568.520173
23.036000	-0.001191	-0.000060	0.001004	0.001647	6481.154139	44109.414183	3936.425845	22641.026428
23.536500	-0.001369	-0.000151	0.007008	0.001686	6479.346135	44097.201290	3951.932095	22639.280848
24.036500	-0.000689	-0.001393	-0.001428	0.000174	6497.706514	44122.724379	3933.955187	22708.264543
24.536500	-0.003575	-0.000178	-0.001505	0.003632	6444.814717	43910.556443	3924.885940	22550.828011
25.037000	-0.000927	-0.000291	-0.002499	0.001531	6484.337723	44098.568456	3927.717313	22646.330214
25.537500	-0.000919	-0.000162	0.000525	0.001802	6482.141764	44085.178773	3934.793222	22633.999112
26.035000	-0.001951	-0.000592	0.003853	0.001481	6476.194074	44074.751098	3944.238658	22648.607259
26.535000	-0.002019	-0.000240	0.003192	0.001618	6474.481873	44095.170745	3942.165673	22642.369346
27.035500	-0.002133	-0.000251	0.005205	-0.001413	6498.902199	44382.294286	3955.327408	22780.902731
27.538000	-0.001625	-0.001348	-0.000267	-0.001071	6500.304657	44245.312577	3940.170304	22765.252353
28.038000	-0.000951	-0.001078	-0.001405	-0.000474	6500.942125	44214.085802	3935.683088	22737.869326
28.536500	-0.001468	0.000457	0.003363	0.000780	6486.089697	44240.910397	3944.785626	22680.576737
29.035500	-0.000472	-0.000189	0.000109	0.000510	6496.707969	44205.106008	3937.050429	22692.889310
29.539500	-0.004037	-0.001091	0.000039	0.005445	6426.034465	43654.223791	3924.198629	22468.786768
30.037000	-0.001107	-0.000488	-0.003232	0.000069	6495.079417	44218.582447	3929.586160	22713.055393
30.539500	-0.002512	0.000099	0.000821	0.004898	6443.131766	43817.384570	3927.596265	22493.512562
31.037500	-0.001133	-0.000418	0.000920	0.001523	6482.679872	44087.291606	3936.531262	22646.700478
31.539500	-0.004002	0.000268	-0.005376	0.005807	6423.349017	43747.852882	3909.544323	22452.465981
32.035500	-0.001375	0.000633	0.000627	0.000649	6487.969047	44270.089434	3938.031803	22686.552016
32.538500	-0.004848	-0.000709	-0.000969	0.005220	6421.212645	43711.105291	3922.199198	22478.936004
33.036500	-0.002021	-0.000737	0.004815	-0.000435	6491.637921	44242.874236	3951.744929	22736.115565
33.536500	-0.003033	-0.000630	-0.002406	0.004070	6445.674177	43826.766028	3921.469885	22530.991011
34.036500	-0.000821	-0.001066	0.001372	0.001387	6486.425724	44038.768637	3938.050067	22652.890138
34.537000	-0.002140	0.000053	0.002102	0.003547	6457.414514	43940.408543	3934.356319	22554.662056
35.037000	-0.000580	0.000288	0.002277	0.002571	6478.545126	44054.876340	3937.329619	22599.000542
35.534500	-0.000060	-0.000394	-0.000307	0.003357	6476.318040	43916.129005	3928.656014	22563.298385
36.035000	-0.000933	-0.000422	0.002005	0.002159	6479.033281	44026.625618	3937.690558	22617.722845
36.535000	-0.003030	-0.000774	0.000771	0.003891	6447.178664	43829.958330	3930.051448	22539.087061
37.038000	-0.002952	0.000680	0.002404	0.002145	6462.319242	44132.350322	3938.757140	22618.363443
37.536000	-0.001284	-0.000008	0.002821	0.002442	6473.742179	44039.073712	3939.067814	22604.867167
38.036000	-0.002248	-0.000745	-0.003704	0.001362	6474.706583	44071.561048	3925.066186	22654.034164
38.536000	-0.003461	-0.000471	-0.001614	0.003866	6443.819630	43860.826654	3924.008692	22540.204225
39.036500	-0.000482	-0.000742	0.000933	0.001742	6486.294298	44035.852039	3935.997825	22636.725953
39.537000	-0.001967	-0.000033	0.001539	0.001613	6474.959604	44115.220572	3937.895143	22642.574469
40.040000	-0.001285	0.000120	-0.002372	0.002113	6476.477382	44082.314195	3926.551699	22619.805115
40.534500	-0.003530	-0.000487	-0.001561	0.003667	6444.900440	43878.157675	3924.653623	22549.256988
41.035000	-0.003190	-0.000515	0.002141	0.001454	6466.086933	44084.590597	3939.865190	22649.820077
41.535500	-0.001418	-0.000275	0.005253	0.002020	6476.145258	44053.736958	3946.478583	22624.068655
42.035000	-0.001582	-0.000457	0.002610	0.001676	6477.649844	44069.100587	3940.505474	22639.722012
42.538500	-0.001248	0.000087	-0.000126	0.004119	6460.076987	43889.629865	3927.167643	22528.762128
43.036500	-0.003141	-0.000063	0.000137	0.001526	6465.897402	44120.666461	3934.503583	22646.561443
43.536500	-0.001131	-0.000704	0.000299	-0.000654	6500.954033	44266.907422	3940.555738	22746.146373
44.037000	-0.000448	0.000566	0.002488	0.000385	6497.962301	44288.870495	3943.538798	22698.625806
44.537000	-0.006854	-0.001206	0.001317	0.004421	6411.295677	43739.506014	3930.089319	22515.063470
45.037500	-0.000257	0.000783	0.007878	0.000775	6496.287355	44272.410257	3956.602931	22680.821806
45.537000	0.001086	-0.000439	0.004073	-0.000351	6517.071119	44263.192570	3949.583517	22732.261693
46.035500	0.001060	-0.000015	0.002647	0.000195	6512.245297	44251.588086	3944.444225	22707.291555
46.535500	-0.002977	-0.000352	-0.001431	0.005014	6438.333019	43764.039008	3921.547347	22488.252754
47.038500	-0.002196	0.000175	0.000366	0.001714	6472.205379	44125.356173	3934.608846	22637.996526
47.536500	-0.000989	0.000087	-0.000473	0.002490	6475.807305	44043.569990	3930.453786	22602.687135
48.039000	-0.001073	-0.000032	0.006102	0.000082	6495.256892	44260.695781	3953.760059	22712.452425
48.539500	-0.002895	-0.000117	0.001656	0.003603	6450.690617	43919.079057	3933.065924	22552.151047
49.039000	-0.000920	-0.000034	0.004041	-0.000088	6497.969219	44276.717734	3948.813562	22720.242405
49.537000	-0.001646	-0.000844	0.003214	0.005133	6448.355969	43706.641019	3933.138565	22482.893229
50.035000	-0.001305	-0.000765	0.002961	-0.001485	6506.481603	44340.197670	3949.644075	22784.244478
50.535000	0.000470	-0.000287	0.003388	0.006279	6456.403370	43651.448899	3930.638094	22431.183367
51.035500	-0.006072	-0.009227	0.007126	0.012889	6348.839441	42219.560237	3923.288021	22135.528005
51.537000	0.030015	-0.016471	0.063599	0.408875	4377.871910	18461.616398	3322.297121	10603.985953
52.036000	-0.003767	-0.033849	-0.015772	-0.099646	7407.773045	51032.735654	4177.291807	27837.558783
52.536500	-0.020567	-0.100012	-0.035894	-0.279621	9486.144520	65441.576428	4783.323414	40663.694561
53.036500	-0.010544	-0.091217	-0.021665	-0.269053	9477.819740	65186.911202	4799.982934	39754.883624
53.537000	0.002863	-0.051412	-0.007768	-0.211196	8833.063848	62652.668301	4608.922812	35152.874244
54.036500	0.010958	-0.027628	0.003298	-0.147849	8118.357991	57453.289018	4405.486643	30769.720226
54.539500	0.001960	-0.020391	0.009163	-0.089782	7364.563970	51432.371869	4225.385823	27276.587383
55.037000	0.004821	-0.019171	0.005521	-0.120995	7733.000672	55192.368863	4317.810459	29096.158633
55.534500	0.017389	-0.019340	0.021232	-0.134408	8034.014354	56810.431256	4422.024979	29919.143009
56.035500	0.035621	-0.006441	0.041602	-0.094818	7785.256929	53599.324570	4352.470092	27561.403426
56.536000	0.053297	0.009960	0.063579	0.007140	6914.765876	44540.878092	4093.910871	22392.410340
57.036000	0.066016	0.019066	0.076161	0.049560	6646.096647	41469.008239	4009.011509	20574.622630
57.536500	0.081379	0.028707	0.089939	0.088677	6444.059163	38940.804914	3941.356506	19048.670368
58.036500	0.102208	0.039674	0.105858	0.114391	6403.860693	37738.811617	3916.240204	18117.871819
58.537000	0.116720	0.049785	0.128894	0.156506	6185.039701	35266.663303	3868.922081	16707.588957
59.039500	0.133613	0.060419	0.146188	0.188385	6071.933329	33723.359180	3834.124360	15727.411161
59.537500	0.146304	0.068542	0.167313	0.233463	5840.430620	31212.317282	3779.451586	14458.656271
60.034500	0.162235	0.077167	0.182102	0.266462	5725.202451	29669.323983	3739.860466	13609.885034
60.535500	0.175226	0.084233	0.198484	0.296704	5613.245715	28280.275973	3710.817377	12886.664110
61.035500	0.186031	0.092209	0.202645	0.308341	5607.955355	28067.561811	3695.532703	12621.523257
61.536000	0.194862	0.102805	0.217234	0.337994	5478.865892	26988.784127	3665.524231	11977.152322
62.036000	0.201784	0.109485	0.224659	0.340987	5502.757300	27193.869786	3674.246069	11914.537510
62.536500	0.204615	0.115182	0.224668	0.336529	5547.644335	27767.623340	3683.126137	12007.964934
63.037000	0.211956	0.119714	0.227272	0.334890	5604.002827	28122.954579	3691.646849	12042.573176
63.538500	0.215321	0.122024	0.229964	0.333343	5635.322548	28347.583299	3700.242614	12075.345209
64.040000	0.217556	0.124849	0.234133	0.335858	5633.527984	28365.744983	3703.618923	12022.121087
64.535000	0.216192	0.125633	0.230974	0.337367	5615.175165	28323.373103	3694.123136	11990.340992
65.035500	0.219169	0.126999	0.235567	0.339831	5618.439137	28259.202506	3698.441382	11938.665514
65.535500	0.222434	0.127845	0.235749	0.344300	5610.778801	28048.913374	3689.767106	11845.715862
66.036000	0.225139	0.130295	0.244494	0.349469	5595.166422	27892.235912	3696.998163	11739.386437
66.537500	0.224993	0.131694	0.241555	0.359831	5529.547897	27382.532030	3670.402131	11529.990857
67.035500	0.229206	0.133853	0.241571	0.358949	5561.167082	27554.229797	3672.171724	11547.619458
67.536500	0.228656	0.133860	0.251181	0.364501	5523.347333	27242.000283	3680.216768	11437.247588
68.037000	0.234945	0.135510	0.249955	0.365420	5556.596554	27282.904636	3675.954433	11419.100635
68.539500	0.233361	0.137914	0.258559	0.375130	5487.131679	26876.832072	3673.766046	11229.835883
69.037500	0.238816	0.139085	0.253368	0.371811	5540.942078	27125.584396	3670.072298	11294.049151
69.535500	0.238706	0.138987	0.253557	0.373478	5529.958184	27027.519342	3667.168129	11261.734376
70.035000	0.238347	0.141145	0.258541	0.376938	5506.496383	26955.393195	3670.163583	11195.056000
70.535500	0.238191	0.142930	0.255086	0.387172	5443.708517	26492.727652	3643.637129	11000.902362
71.035500	0.246245	0.142067	0.259956	0.382848	5518.682681	26681.121846	3661.360530	11082.365123
71.536000	0.242334	0.143379	0.258996	0.388592	5460.015678	26440.095914	3648.399783	10974.320172
72.036500	0.244945	0.143319	0.260686	0.387720	5481.027512	26484.054946	3653.329532	10990.627784
72.536500	0.243662	0.143553	0.261254	0.394507	5432.596557	26131.502370	3641.414780	10864.524797
73.034000	0.248733	0.145083	0.265784	0.391042	5483.857134	26399.773676	3656.764367	10928.664698
73.537500	0.244350	0.144687	0.260437	0.393554	5442.373699	26243.231786	3641.674140	10882.121695
74.037000	0.250285	0.146777	0.264479	0.395699	5465.095757	26240.283511	3645.291768	10842.585432
74.535000	0.245789	0.144877	0.265914	0.400513	5409.637635	25882.794596	3638.856814	10754.563617
75.035500	0.248596	0.147149	0.268926	0.395905	5453.708097	26249.157048	3653.435534	10838.787810
75.535500	0.247925	0.145715	0.267921	0.395974	5449.279370	26168.632361	3651.365268	10837.529090
76.036000	0.250880	0.146410	0.267854	0.394389	5476.584605	26290.889648	3654.291902	10866.696137
76.536500	0.247196	0.145047	0.256764	0.398292	5431.111437	26009.505681	3625.822892	10795.059694
77.036500	0.250718	0.146630	0.267525	0.393124	5483.264282	26370.877759	3656.102825	10890.066047
77.536500	0.252266	0.146300	0.264284	0.393301	5491.590792	26343.519610	3649.512344	10886.789877
78.037000	0.251010	0.147665	0.273283	0.391794	5493.122404	26498.833494	3669.939391	10914.704429
78.537500	0.251959	0.147248	0.268223	0.390760	5505.209836	26532.324933	3662.051749	10933.896469
79.035000	0.252078	0.147629	0.267556	0.388906	5517.297812	26654.052474	3664.369359	10968.447833
79.535500	0.251949	0.147112	0.263037	0.389330	5513.910022	26602.730481	3654.760581	10960.541861
80.035500	0.256053	0.148619	0.265508	0.388239	5545.958173	26744.721918	3661.674440	10980.914327
80.536000	0.256427	0.149953	0.271921	0.388419	5547.162849	26808.064305	3673.910142	10977.556275
81.039000	0.254029	0.147997	0.267415	0.385762	5548.771885	26846.599219	3670.261856	11027.372622
81.536500	0.254825	0.149799	0.266640	0.387201	5544.781856	26866.610245	3665.913865	11000.355018
82.036500	0.254821	0.149465	0.275755	0.386526	5548.944963	26885.353770	3685.307000	11013.012492
82.536000	0.256943	0.149564	0.268971	0.386798	5560.463802	26875.866678	3671.286815	11007.914938
83.034500	0.255188	0.150256	0.270739	0.386843	5549.255495	26911.521542	3674.689272	11007.073072
83.535000	0.258138	0.150054	0.269859	0.388066	5560.010134	26832.998596	3670.536691	10984.150881
84.035000	0.258260	0.151783	0.261944	0.389456	5552.112984	26851.688471	3652.408784	10958.187629
84.535500	0.259846	0.150700	0.274464	0.388568	5567.547937	26840.966708	3678.657098	10974.772373
85.035500	0.257021	0.151220	0.275636	0.389083	5546.727956	26841.189530	3679.963726	10965.150965
85.541500	0.256518	0.150607	0.269981	0.389611	5540.336034	26778.504186	3667.741313	10955.303438
86.035500	0.257219	0.151614	0.271741	0.391165	5535.056741	26748.476029	3668.143495	10926.372554
86.536500	0.256860	0.149159	0.272722	0.396024	5502.991595	26350.854666	3660.562620	10836.605914
87.037500	0.259563	0.150373	0.270437	0.392130	5543.594620	26627.837863	3663.699107	10908.467210
87.536500	0.258367	0.150526	0.275367	0.392963	5531.041267	26590.768444	3671.742120	10893.042104
88.037000	0.259161	0.150460	0.273546	0.393205	5534.450302	26574.053395	3667.682476	10888.566077
88.537500	0.258626	0.150692	0.274542	0.399069	5495.194397	26269.495323	3658.181215	10780.869309
89.035000	0.258266	0.148393	0.273603	0.392817	5531.322104	26482.830126	3668.558003	10895.749392
89.535000	0.259133	0.150610	0.274524	0.396545	5513.714118	26401.069651	3663.058444	10827.044698
90.035000	0.260895	0.151610	0.277796	0.397196	5520.538166	26419.933074	3668.191728	10815.108401
90.536500	0.261449	0.149660	0.274788	0.396575	5527.774825	26348.188796	3663.516606	10826.501319
91.036500	0.261482	0.150437	0.279491	0.398234	5517.765117	26300.681979	3669.482210	10796.116306
91.537000	0.260369	0.149515	0.275066	0.399140	5505.393586	26202.560345	3659.059669	10779.563236
92.037000	0.263419	0.150384	0.277725	0.399657	5520.920884	26221.425984	3663.232080	10770.140812
92.537500	0.261930	0.149484	0.286546	0.399990	5509.748250	26155.461582	3679.968683	10764.086904
93.034500	0.259812	0.149410	0.276587	0.401131	5489.861447	26090.550190	3658.148613	10743.337046
93.535000	0.259110	0.147949	0.281308	0.401080	5485.911192	26015.544488	3667.462346	10744.270808
94.036000	0.261484	0.148341	0.274879	0.402256	5493.193059	25973.912450	3652.668592	10722.943736
94.536000	0.259455	0.148113	0.279213	0.403453	5473.633438	25898.428198	3658.737651	10701.293081
95.036000	0.260118	0.147006	0.280324	0.403522	5477.221974	25836.417072	3660.766000	10700.055174
95.536000	0.260774	0.147931	0.288594	0.405365	5470.052067	25787.999866	3673.370095	10666.835393
96.037000	0.258513	0.146645	0.284886	0.404685	5460.532293	25756.147653	3667.406970	10679.075019
