sample name	sample
index	1115
start time	 04-22-2021  01:17:08 PM
880	0.461956
Peak Time (s)	101.535
Peak Height 	0.462
calc peak height	100,103
Baseline Time (s)	11.036
Baseline Value 	-0.003513
subtract baseline	10,4
Abs	0.325152
Peak Time (s)	101.035
Peak Height 	0.3252
calc peak height	100,103
Baseline Time (s)	8.537
Baseline Value 	0.001003
subtract baseline	10,3
PK_550	0.179257
Peak Time (s)	101.535
Peak Height 	0.1793
calc peak height	100,103
Baseline Time (s)	11.036
Baseline Value 	6.3593E-4
subtract baseline	10,2
PK_880	0.306162
Peak Time (s)	102.536
Peak Height 	0.3062
calc peak height	100,103
Baseline Time (s)	10.036
Baseline Value 	0.001818
subtract baseline	10,1


Time (s)	A880-A510	A880-A775	A880-A975	A880	I510	I775	I975	I880	
0.035000	-0.003522	-0.001255	-0.001870	0.006201	6222.613494	42741.746637	3898.451064	22465.945171
0.535500	-0.003314	-0.001063	-0.002166	0.004860	6234.398794	42882.319601	3900.848994	22526.356701
1.035000	-0.001104	0.000010	0.003105	0.004417	6254.678938	43021.869126	3914.068721	22546.382451
1.536500	-0.000647	0.000326	-0.003244	0.002002	6276.774694	43274.505218	3904.949279	22655.778270
2.036000	-0.003773	0.000323	-0.000266	0.005266	6227.805384	42972.456863	3904.287668	22508.031341
2.539500	-0.000500	0.000994	0.003653	0.002247	6276.017608	43313.754744	3920.419001	22644.656648
3.037000	-0.000870	-0.000206	0.004316	-0.000236	6292.358169	43433.120335	3927.816550	22757.711108
3.537000	-0.002535	-0.000639	0.000013	0.000047	6277.288838	43366.537673	3917.048408	22744.795811
4.037000	-0.003981	-0.000314	-0.002133	0.005266	6226.232812	42913.885434	3899.993693	22508.065993
4.534500	0.000040	-0.000471	0.004393	0.000462	6294.009202	43343.587123	3926.351779	22725.874524
5.037500	-0.000878	0.000554	-0.003213	0.000603	6285.802063	43425.749683	3908.252791	22719.432548
5.535000	-0.001862	-0.000088	0.002971	0.000017	6282.720655	43420.552856	3924.051365	22746.145739
6.035500	0.000484	0.001186	0.000515	0.001249	6291.343467	43424.465005	3915.414201	22690.003767
6.536000	0.001647	-0.000075	-0.002348	0.000106	6309.272411	43413.452872	3911.411966	22742.109037
7.036500	0.000217	0.000206	0.001520	0.000298	6296.651961	43421.750337	3919.987142	22733.350522
7.536000	0.000976	0.000044	0.004291	0.000167	6303.571664	43418.913885	3926.809183	22739.340479
8.037000	-0.001617	-0.000374	-0.000804	-0.000277	6286.894483	43421.337761	3915.898958	22759.601528
8.536500	0.000454	-0.000066	0.000000	-0.000263	6302.855538	43448.628289	3917.742105	22758.934159
9.037500	-0.000061	0.000472	0.007499	0.000590	6292.231436	43419.311428	3933.395670	22720.017645
9.535000	0.000204	0.000197	-0.000118	-0.000050	6299.256281	43453.393424	3916.969741	22749.226325
10.035500	0.000000	-0.000086	-0.001332	0.000006	6297.232757	43421.782070	3914.007200	22746.651908
10.535500	-0.001771	0.000056	0.003883	0.000306	6281.185090	43407.040216	3925.516670	22732.964530
11.036000	0.000617	0.000000	-0.001493	0.000000	6302.073649	43430.346029	3913.646777	22746.941222
11.536000	-0.002140	-0.000656	0.005239	-0.000714	6286.226382	43435.747405	3931.128480	22779.537764
12.036500	-0.001372	-0.000060	-0.001748	-0.000606	6291.338477	43481.194453	3914.463175	22774.617594
12.536000	-0.000581	-0.000098	0.001307	-0.000353	6295.509094	43454.110433	3921.013376	22763.049217
13.037000	0.001198	0.000090	0.001973	-0.000088	6307.284265	43446.890221	3921.952903	22750.955813
13.535000	-0.000886	0.000487	-0.000149	0.000531	6286.297086	43426.241050	3915.541772	22722.725323
14.034500	-0.003614	-0.000984	0.004330	0.001481	6257.945182	43201.423163	3923.805380	22679.470044
14.537500	0.000054	-0.000780	0.001972	0.000861	6291.014061	43277.742327	3919.725527	22707.667441
15.035500	-0.000126	-0.000246	0.005062	-0.000558	6300.637444	43459.382572	3930.340037	22772.419636
15.540500	-0.000319	-0.000304	-0.002342	-0.000730	6300.475533	43470.027100	3913.370221	22780.291827
16.035500	-0.000149	0.000245	0.001485	0.000106	6295.297626	43443.296733	3920.353486	22742.098512
16.536000	0.001408	0.000110	-0.001634	-0.000649	6313.294902	43501.120573	3914.831842	22776.593831
17.036500	0.002362	-0.000004	0.005621	-0.003628	6344.122910	43769.323672	3938.963447	22913.219803
17.536500	0.000534	0.000872	0.004919	0.001001	6293.654894	43418.314888	3926.319469	22701.288636
18.037000	0.000610	0.000739	-0.002900	0.001017	6294.124422	43404.485894	3908.019492	22700.587784
18.534500	-0.001019	-0.000545	0.001864	0.000202	6287.811554	43360.865299	3921.019159	22737.728634
19.037500	-0.000109	0.000257	0.003401	0.000760	6290.544138	43383.543038	3923.316045	22712.292852
19.535000	-0.000903	-0.000220	0.000784	0.000681	6285.000559	43346.536955	3917.368394	22715.883784
20.035000	-0.001769	-0.000381	0.000165	0.001002	6275.830795	43301.646295	3915.173106	22701.244567
20.535500	0.000520	-0.001006	-0.001612	-0.000327	6303.864706	43367.174976	3914.131466	22761.880766
21.036000	-0.001612	-0.000156	-0.000544	0.000722	6279.205392	43348.671944	3914.177444	22714.036233
21.536500	-0.000886	0.000393	0.006465	0.000699	6284.996112	43401.847674	3930.686998	22715.062524
22.036500	-0.003305	0.000405	0.004390	0.000953	6264.376087	43379.381497	3925.188576	22703.502358
22.536500	-0.000392	0.000910	0.001713	0.001304	6284.139715	43393.685396	3918.085003	22687.535621
23.034500	-0.002652	-0.000663	-0.000895	0.000043	6276.415000	43364.632996	3914.939583	22744.977739
23.538000	0.002288	0.000906	0.008310	0.001261	6305.267115	43397.269107	3933.726416	22689.456600
24.035500	-0.001303	0.000829	0.000229	0.001241	6277.577581	43391.977303	3914.765655	22690.361124
24.535500	-0.000830	0.000336	0.004131	0.000589	6286.276581	43406.736790	3925.433648	22720.056871
25.035500	-0.000631	0.000651	0.008802	0.000877	6285.589162	43409.248484	3935.808112	22706.950771
25.536000	-0.001802	-0.000423	0.001887	0.000484	6279.580402	43345.938324	3920.410963	22724.870764
26.035500	-0.001290	-0.000196	0.004862	0.000135	6286.231076	43399.511231	3928.229939	22740.768258
26.536500	0.000575	0.000400	-0.000100	0.000937	6294.478780	43380.359507	3914.710502	22704.245408
27.037000	0.001450	-0.000021	0.005253	-0.002785	6330.332813	43688.625619	3936.079418	22874.457545
27.536500	-0.001886	0.001033	0.002384	-0.000321	6285.145572	43556.679768	3923.465253	22761.580951
28.034500	0.000474	-0.000107	0.000234	-0.000933	6308.228658	43507.411262	3919.858745	22789.575850
28.534500	-0.000485	0.000567	0.000609	-0.000066	6294.030003	43489.425488	3918.706128	22749.971483
29.035500	0.000398	0.000879	-0.001093	-0.000306	6302.755288	43540.839749	3915.290383	22760.904768
29.535500	0.000343	0.000306	0.004314	-0.000603	6304.633254	43515.122163	3928.678925	22774.464032
30.035500	-0.001213	0.000137	-0.001598	0.004048	6256.676126	43067.621469	3904.025985	22563.053140
30.536000	-0.002924	0.000729	-0.000140	0.002574	6254.854189	43258.785684	3910.808726	22629.800156
31.036500	-0.003280	-0.000085	-0.000606	0.000304	6269.568323	43394.190954	3915.006527	22733.087198
31.536500	-0.001598	0.000440	0.006007	-0.000149	6286.046437	43485.237488	3931.608795	22753.738332
32.036500	-0.002760	0.000636	0.001948	0.004060	6244.733708	43112.681137	3912.206794	22562.520744
32.537000	-0.000415	0.000075	0.005608	-0.000522	6298.111783	43485.977295	3931.546895	22770.761407
33.037500	0.001211	0.000401	0.005331	-0.000023	6306.879955	43469.894842	3929.710650	22747.989441
33.534500	-0.001175	0.000166	-0.000510	-0.002713	6309.247164	43699.433552	3922.287178	22871.145547
34.035500	-0.003973	0.000128	0.001366	0.001546	6254.691883	43298.471827	3916.706628	22676.498287
34.535500	-0.000466	0.000175	-0.001289	0.001246	6284.012933	43330.669727	3911.223613	22690.156787
35.036000	-0.003661	0.000088	0.002817	0.001017	6261.144182	43343.834043	3921.340127	22700.562549
35.536000	0.000002	-0.000245	0.003881	0.001184	6288.111908	43297.433850	3923.446852	22692.978319
36.036000	0.000414	0.000801	0.003666	0.002222	6283.268298	43298.198156	3920.507894	22645.793998
36.536500	-0.001024	0.000293	0.002608	0.001846	6275.065902	43285.964242	3918.908614	22662.865114
37.037000	0.001335	0.000291	0.001210	0.001481	6296.144932	43319.593378	3916.494606	22679.460536
37.537000	-0.000822	-0.000168	0.000497	0.000921	6283.776464	43329.059779	3916.140433	22704.970898
38.037500	-0.001316	-0.000188	-0.001677	0.001005	6279.309150	43319.370537	3910.884002	22701.130170
38.538000	-0.002609	0.000464	0.000655	0.001554	6265.107728	43328.924372	3915.029370	22676.139365
39.035000	-0.001536	-0.000048	-0.008241	0.001101	6276.863481	43323.449131	3895.538408	22696.737829
39.536000	-0.000121	0.000125	0.000881	0.001248	6286.664339	43325.849112	3916.271085	22690.060438
40.035500	-0.001702	0.000265	-0.000756	0.001543	6272.174619	43311.429873	3911.772749	22676.640630
40.536500	-0.002429	-0.000236	0.000717	0.001136	6269.710866	43302.725270	3916.151174	22695.175200
41.036500	0.000174	0.000511	0.002507	0.001550	6286.613695	43333.662278	3919.366775	22676.321384
41.536500	-0.000452	-0.000047	0.002907	0.001408	6282.868337	43295.019422	3920.636738	22682.798884
42.036500	-0.001073	0.000913	0.002051	0.002278	6271.351721	43303.353839	3916.596787	22643.223729
42.537500	-0.000155	0.000739	0.002992	0.001446	6284.869775	43364.500866	3920.744479	22681.047498
43.035000	-0.003212	-0.000143	0.000071	0.000878	6265.670688	43335.378519	3915.246505	22706.929867
43.535500	0.001502	0.000120	0.002951	-0.002549	6328.892507	43679.757940	3930.057766	22863.634264
44.035500	-0.001286	0.000553	0.004205	0.000667	6282.147369	43419.723620	3925.425162	22716.500859
44.536000	0.000829	0.000685	0.000897	-0.000067	6304.244904	43500.377581	3919.382406	22749.977891
45.036000	0.001618	0.000673	0.000608	0.000169	6308.553024	43477.364024	3918.154358	22739.231559
45.536500	-0.000954	0.000916	0.006100	0.000001	6289.879100	43515.749029	3931.475216	22746.913123
46.036500	0.001352	0.000223	0.003357	0.000038	6307.498005	43447.523917	3924.908783	22745.193387
46.536500	-0.000270	0.000751	0.005308	-0.000152	6296.372260	43514.539902	3929.962350	22753.895201
47.037000	0.000525	-0.000010	-0.001130	0.001182	6292.186623	43319.438873	3911.742401	22693.073919
47.537500	-0.002575	0.000097	0.001294	0.001888	6262.796153	43263.793563	3915.740127	22660.950269
48.035000	-0.001153	0.000851	0.001267	0.002055	6272.459656	43318.349497	3915.290159	22653.368238
48.535500	0.000628	0.001072	0.005232	0.000246	6300.252997	43507.421662	3928.842267	22735.730530
49.035500	-0.002433	0.000075	0.000922	-0.000263	6280.472422	43461.847098	3919.900144	22758.946128
49.536500	0.002349	0.001054	0.008009	-0.002396	6334.332378	43752.999135	3941.724501	22856.578070
50.036000	0.001501	0.000180	0.003575	0.000032	6308.708315	43444.164842	3925.438916	22745.496327
50.536500	-0.002968	-0.007085	0.005642	0.021989	6108.934676	40810.653125	3879.654850	21768.344912
51.036500	0.019313	-0.026055	0.004874	0.429209	4237.065974	17155.354371	3284.549322	10303.525871
51.537500	0.016684	-0.019208	-0.002442	0.060719	5972.079984	36629.726190	3779.824918	20160.751573
52.037500	0.006175	-0.060903	-0.018522	-0.237667	8837.690357	63752.683186	4582.915681	37186.379248
52.535000	0.007432	-0.128867	-0.007027	-0.318183	10062.784685	65535.000000	4979.410353	44165.103349
53.035500	-0.024649	-0.218710	-0.035823	-0.408026	11078.195124	65535.000000	5292.831614	53642.796253
53.535500	0.000895	-0.139891	-0.003673	-0.329207	10136.912976	65535.000000	5049.310393	45225.262770
54.036000	0.000510	-0.075155	-0.001157	-0.263138	9113.602816	65343.250155	4757.086289	39255.817973
54.536000	0.007257	-0.051897	0.005882	-0.230655	8757.502366	64032.448709	4651.569496	36637.687754
55.036000	0.000871	-0.035531	-0.001135	-0.202768	8314.901404	62433.924890	4516.513736	34541.030303
55.536500	0.008184	-0.030120	0.009535	-0.196009	8321.768635	62249.686176	4531.112820	34052.781793
56.037000	0.018739	-0.011517	0.018379	-0.146921	7863.531231	58231.401242	4386.993512	30726.054347
56.537000	0.031256	0.000845	0.031799	-0.083118	7313.425382	52059.091733	4224.412177	26927.728499
57.035000	0.044289	0.011188	0.043574	-0.031112	6936.733072	47569.067070	4107.476062	24218.975399
57.535000	0.064244	0.021977	0.064973	0.021035	6650.092111	43518.210607	4025.129554	21809.798695
58.035500	0.085108	0.034839	0.085161	0.061744	6483.691115	41000.090167	3973.327364	20120.135088
58.535500	0.105239	0.046949	0.105913	0.094088	6384.993977	39269.036569	3945.127250	18886.081298
59.036000	0.123639	0.061169	0.123038	0.132241	6231.142431	37323.054498	3895.859221	17543.817269
59.536500	0.132595	0.068057	0.139629	0.165634	6050.226664	35289.319856	3858.169483	16461.952508
60.036500	0.138128	0.073310	0.144822	0.178777	5995.930678	34707.511636	3840.837145	16058.439506
60.536500	0.144124	0.079328	0.153615	0.191203	5950.792648	34242.718429	3833.022386	15688.013690
61.037500	0.149737	0.082607	0.158050	0.198247	5940.836697	33972.864568	3827.450702	15482.696590
61.537500	0.157217	0.086743	0.160930	0.208486	5921.739046	33540.297056	3811.912314	15190.124554
62.038000	0.161579	0.090427	0.167216	0.220128	5871.918626	32985.233431	3800.769101	14865.715570
62.535500	0.169416	0.094890	0.184724	0.230718	5853.296630	32564.878079	3815.189368	14578.113754
63.035500	0.176142	0.098909	0.189427	0.242503	5819.377876	32040.414436	3800.430403	14266.156347
63.535500	0.184853	0.104527	0.191146	0.254028	5800.684238	31647.722949	3780.386311	13969.172053
64.036000	0.186095	0.106233	0.195415	0.263924	5743.937939	31112.037790	3769.088397	13720.379092
64.537000	0.194586	0.110821	0.201255	0.273602	5736.240349	30784.193735	3761.465297	13482.489905
65.036500	0.199477	0.113331	0.206370	0.282932	5707.655632	30350.885007	3753.171341	13258.126323
65.537500	0.203337	0.116885	0.219024	0.293676	5663.889725	29901.450358	3756.921653	13005.663282
66.034000	0.208096	0.118587	0.227385	0.302554	5638.030872	29460.138472	3755.903975	12801.693163
66.538000	0.212326	0.124518	0.224275	0.310863	5612.668773	29315.516760	3733.764744	12614.547112
67.035000	0.219580	0.126431	0.232480	0.315882	5626.535403	29127.777722	3739.883533	12503.219308
67.535000	0.223445	0.129644	0.241950	0.320763	5620.214975	29027.502569	3748.774049	12396.169571
68.038500	0.227222	0.132071	0.240644	0.325166	5616.341501	28909.253563	3737.726407	12300.656720
68.536000	0.234025	0.134710	0.244154	0.329172	5633.729471	28827.726202	3736.772523	12214.576254
69.036000	0.237652	0.135828	0.254774	0.334072	5625.798031	28603.541021	3747.831130	12110.358909
69.536000	0.238452	0.138730	0.253867	0.339893	5594.755837	28431.918805	3734.840639	11988.087715
70.036500	0.241117	0.139343	0.253450	0.343809	5587.071884	28239.027893	3726.578459	11906.740793
70.537000	0.248063	0.142689	0.263083	0.347890	5604.690296	28196.264072	3737.178165	11822.730110
71.040000	0.250794	0.144092	0.258806	0.352661	5592.133039	28001.446529	3719.972503	11725.535812
71.535000	0.255947	0.147375	0.266844	0.356948	5597.454725	27943.621480	3727.062235	11639.090856
72.040000	0.253763	0.148807	0.272690	0.360139	5564.586542	27842.731583	3732.118057	11575.322754
72.535000	0.260741	0.150375	0.270475	0.364536	5580.321109	27681.244418	3719.586622	11488.187867
73.036000	0.261417	0.153093	0.275372	0.368631	5559.493173	27603.025320	3721.096339	11407.836885
73.536500	0.264249	0.154334	0.274043	0.371926	5556.685489	27486.851261	3712.428964	11343.728779
74.036000	0.268276	0.156482	0.285715	0.376820	5551.431048	27332.279856	3725.162816	11249.384471
74.536500	0.266692	0.157964	0.283829	0.380267	5521.182650	27222.322035	3715.125553	11183.584782
75.037000	0.270156	0.160403	0.279747	0.384764	5515.010200	27107.702535	3699.234335	11098.517760
75.537000	0.269780	0.160059	0.289504	0.387551	5496.215028	26934.353804	3712.122198	11046.245631
76.037500	0.276153	0.162628	0.278062	0.393081	5501.212693	26771.542118	3681.100937	10943.500104
76.535000	0.277122	0.163882	0.290501	0.397755	5479.324304	26584.821557	3695.142914	10857.670205
77.035500	0.273858	0.163480	0.290721	0.400212	5445.893606	26429.946982	3691.073131	10812.932822
77.535500	0.274190	0.163560	0.283307	0.403687	5427.710209	26247.280570	3671.550686	10750.072040
78.036000	0.275839	0.166002	0.287477	0.408426	5409.968721	26124.497876	3670.545040	10665.161888
78.536000	0.278009	0.166375	0.292207	0.409955	5413.634334	26062.972953	3676.224155	10637.957208
79.036000	0.278064	0.167180	0.296769	0.411999	5402.263769	25997.198048	3680.722647	10601.743109
79.536500	0.279030	0.168596	0.295100	0.414248	5394.956951	25953.093007	3673.736215	10562.101897
80.037000	0.282051	0.169128	0.293071	0.415433	5405.418943	25918.580180	3668.050782	10541.295246
80.540000	0.284292	0.169188	0.301210	0.417693	5405.313160	25802.636031	3678.483015	10501.776068
81.035000	0.284227	0.168661	0.296909	0.418319	5401.368933	25742.120777	3669.730295	10490.857493
81.535000	0.284863	0.169797	0.297863	0.420506	5392.538951	25687.085689	3667.556265	10452.863374
82.035000	0.286934	0.168623	0.296654	0.421934	5396.192755	25551.375638	3662.925089	10428.144048
82.536000	0.286006	0.171064	0.302213	0.423933	5379.592701	25574.392545	3669.182277	10393.697938
83.036000	0.285354	0.169669	0.302240	0.424129	5374.804528	25491.697804	3668.883928	10390.318348
83.536000	0.289325	0.171544	0.298359	0.426831	5381.977054	25448.883977	3657.358518	10344.027179
84.036000	0.292098	0.172296	0.308453	0.429307	5383.655509	25359.808661	3670.711824	10301.851732
84.536500	0.292835	0.173965	0.304076	0.431254	5376.811944	25345.475025	3659.609717	10268.855542
85.040000	0.289770	0.171595	0.307696	0.430455	5364.052755	25264.723304	3667.351816	10282.386921
85.540000	0.295590	0.173297	0.310049	0.433551	5379.402874	25193.292304	3666.043846	10230.127364
86.035000	0.294235	0.173744	0.312814	0.434297	5367.553294	25178.018360	3669.601140	10217.590993
86.535000	0.296480	0.172660	0.304379	0.433909	5382.413973	25142.506062	3655.523323	10224.118098
87.035500	0.295636	0.172810	0.310254	0.435143	5370.681343	25087.198530	3663.611196	10203.406505
87.536000	0.295606	0.174902	0.316586	0.438524	5351.545746	25021.673822	3668.798049	10146.967994
88.036000	0.298121	0.175573	0.312656	0.439472	5360.312831	25007.564602	3660.240602	10131.213958
88.536000	0.299308	0.174500	0.311843	0.439041	5369.404925	24975.054615	3659.576133	10138.375704
89.037000	0.297077	0.174436	0.317755	0.439328	5355.276232	24957.301168	3669.442842	10133.613098
89.537000	0.300885	0.175901	0.311779	0.443008	5355.986627	24845.416971	3652.583538	10072.792565
90.037500	0.301538	0.174471	0.314513	0.441440	5368.452676	24852.390447	3660.048565	10098.642925
90.534500	0.300106	0.177783	0.318009	0.443522	5348.760443	24914.443706	3662.517639	10064.337141
91.035000	0.301639	0.175302	0.313840	0.443416	5357.925711	24794.781134	3655.443537	10066.084494
91.535500	0.302522	0.176351	0.316869	0.446143	5347.619158	24710.656329	3655.966457	10021.392623
92.035500	0.302400	0.176835	0.313766	0.445779	5348.969095	24753.111065	3651.230398	10027.341880
92.536000	0.303745	0.175769	0.315111	0.446105	5354.665198	24683.474347	3652.990076	10022.017068
93.036000	0.306258	0.178358	0.319377	0.448223	5356.871631	24707.006645	3656.708767	9987.485860
93.536000	0.303152	0.177938	0.315280	0.450214	5328.496753	24586.687763	3646.214099	9955.190606
94.037000	0.302372	0.178430	0.318659	0.448640	5332.898799	24689.729915	3654.742248	9980.715733
94.540000	0.301767	0.177017	0.324237	0.448095	5332.560450	24646.347084	3665.417764	9989.564372
95.040000	0.304775	0.177450	0.312372	0.449469	5341.635448	24599.434064	3642.518630	9967.249748
95.537500	0.302817	0.177623	0.313492	0.452338	5314.925387	24465.635941	3639.545933	9920.894300
96.035000	0.307032	0.177205	0.320992	0.450033	5351.080961	24559.194206	3656.370224	9958.116941
96.537500	0.305030	0.178381	0.316415	0.451510	5331.719123	24544.272138	3645.937543	9934.249678
97.039000	0.306781	0.180145	0.321698	0.453135	5332.420130	24551.187056	3652.223960	9908.071167
97.536000	0.304546	0.179554	0.315499	0.456293	5302.701341	24365.686828	3636.247086	9857.476575
98.039500	0.304813	0.177938	0.315434	0.452321	5326.025688	24482.044854	3642.876332	9921.160182
98.537000	0.303825	0.177531	0.314752	0.452599	5319.040766	24448.193756	3641.242728	9916.693931
99.036500	0.306010	0.177841	0.322863	0.453546	5325.875091	24416.704681	3653.525768	9901.461583
99.537000	0.304975	0.177906	0.317287	0.458235	5294.430811	24189.579960	3635.987949	9826.546892
100.034500	0.304098	0.177079	0.313680	0.455032	5307.160997	24305.965653	3635.306732	9877.635348
100.535000	0.305125	0.178753	0.317882	0.456508	5304.699023	24315.754084	3639.920022	9854.057070
101.035000	0.305621	0.178860	0.325152	0.457198	5303.632690	24287.068484	3651.173679	9843.050417
101.535500	0.303758	0.179257	0.317955	0.461956	5267.640362	24074.114269	3630.851137	9767.674711
102.036000	0.304666	0.178900	0.316879	0.458492	5291.345500	24225.638392	3634.865182	9822.469581
102.536000	0.306162	0.177790	0.313581	0.458821	5297.718005	24155.346883	3628.777859	9817.254384
103.036000	0.307927	0.178644	0.320339	0.459133	5305.668467	24181.789572	3639.633981	9812.295682
103.536500	0.302741	0.176685	0.312844	0.463658	5253.014374	23867.518344	3619.517918	9740.919948
104.043000	0.309422	0.179803	0.322727	0.462130	5297.444726	24092.199433	3638.600690	9764.941798
