sample name	sample
index	1463
start time	 05-10-2021  02:00:05 PM
880	0.376265
Peak Time (s)	91.535
Peak Height 	0.3763
calc peak height	90,93
Baseline Time (s)	9.037
Baseline Value 	-0.006327
subtract baseline	10,4
Abs	0.281375
Peak Time (s)	91.535
Peak Height 	0.2814
calc peak height	90,93
Baseline Time (s)	9.537
Baseline Value 	0.005475
subtract baseline	10,3
PK_550	0.149242
Peak Time (s)	91.535
Peak Height 	0.1492
calc peak height	90,93
Baseline Time (s)	8.537
Baseline Value 	3.0947E-4
subtract baseline	10,2
PK_880	0.261504
Peak Time (s)	91.535
Peak Height 	0.2615
calc peak height	90,93
Baseline Time (s)	10.537
Baseline Value 	0.00125
subtract baseline	10,1


Time (s)	A880-A510	A880-A775	A880-A975	A880	I510	I775	I975	I880	
0.037000	-0.000545	0.000431	-0.007703	0.003700	6458.812230	43721.910312	3929.118755	22463.209097
0.537500	-0.001577	-0.000652	-0.008949	0.004904	6440.284357	43507.713388	3922.851273	22408.927881
1.037500	-0.002020	0.000282	-0.001287	0.004972	6436.056228	43588.669749	3942.386491	22405.841430
1.538000	-0.001640	0.000062	-0.003851	0.002929	6456.120606	43759.676508	3941.038619	22498.054586
2.035500	0.000000	0.000986	-0.008785	0.002636	6472.207751	43874.282055	3929.071279	22511.302967
2.536000	-0.002516	-0.000374	-0.001782	0.001568	6460.150804	43846.735782	3949.964217	22559.701557
3.036000	0.000430	0.000105	-0.002025	0.000648	6492.425096	43978.701537	3951.734567	22601.467902
3.536500	-0.001424	0.000207	-0.001648	0.004540	6444.557892	43622.089649	3942.573949	22425.327389
4.036000	-0.000866	-0.000146	-0.005704	0.001148	6477.394057	43907.740956	3940.849353	22578.731794
4.536500	-0.000832	0.000244	0.000496	0.000910	6479.667439	43967.001435	3957.659822	22589.540334
5.037000	-0.000136	0.000650	-0.006169	0.001239	6482.735506	43974.339458	3939.411091	22574.611139
5.540500	-0.001523	0.000005	-0.001198	0.000659	6475.992685	43968.236856	3953.872087	22600.974732
6.035000	0.000057	0.000090	-0.001873	0.000712	6488.757556	43971.241273	3951.964095	22598.539344
6.534500	-0.000146	-0.000402	0.000446	-0.000179	6494.527722	44008.927432	3960.397344	22639.089448
7.035500	0.000560	0.000348	-0.006428	0.000036	6498.653624	44059.473950	3941.856962	22629.281416
7.536000	0.000129	-0.000042	-0.001015	-0.000017	6495.486691	44027.696628	3956.127865	22631.731965
8.036500	-0.000076	-0.000296	-0.000138	-0.000365	6496.677039	44036.546325	3959.348424	22647.544781
8.536500	0.001260	0.000000	-0.004450	0.000191	6503.241101	44011.988245	3946.595947	22622.259636
9.036500	-0.000430	-0.000106	0.000283	0.000000	6490.652173	44019.963809	3959.494706	22630.938438
9.537500	-0.000715	0.000047	0.000000	0.003734	6457.115889	43682.591115	3948.960292	22461.652066
10.037000	0.000449	-0.000254	0.000022	-0.000054	6498.481238	44011.120044	3958.951422	22633.410885
10.537500	0.000000	0.000408	-0.004976	0.000354	6491.283218	44035.117726	3944.801927	22614.816062
11.035000	-0.000886	0.000020	0.000664	-0.000069	6487.404160	44038.454408	3960.680218	22634.063726
11.535000	0.000294	-0.000075	-0.002302	-0.000340	6499.575833	44055.078801	3953.595754	22646.415763
12.035500	0.000032	0.000117	0.003226	0.000126	6493.458770	44029.094099	3966.940643	22625.181878
12.536000	-0.000420	-0.000189	0.000157	-0.000428	6494.320701	44052.665307	3960.290361	22650.430836
13.036000	-0.000617	-0.000141	-0.004243	-0.000237	6491.069575	44039.137030	3948.249914	22641.725020
13.536500	-0.003331	-0.000722	-0.003242	0.003060	6441.031462	43673.791681	3942.277253	22492.130839
14.039500	-0.001429	0.000161	-0.006029	0.002342	6462.751072	43824.149487	3936.919622	22524.597702
14.537000	-0.001137	0.000009	0.000638	0.001861	6469.188252	43855.162374	3955.535453	22546.408296
15.040000	-0.000272	-0.000205	-0.001631	0.000121	6490.955590	43999.179724	3954.147524	22625.437082
15.535000	-0.000216	-0.000884	-0.006432	0.002640	6470.368966	43697.958425	3935.110059	22511.090718
16.035500	0.000506	0.000206	0.002653	0.000163	6497.139058	44034.167347	3965.325974	22623.533639
16.535500	-0.000833	-0.000188	-0.004161	0.000329	6484.511987	43981.118894	3946.987835	22615.949982
17.036000	-0.001477	0.000196	-0.002404	0.001692	6467.759409	43888.723706	3948.014447	22554.040109
17.536000	-0.000439	0.000434	-0.005154	0.001539	6477.693571	43925.608626	3941.261227	22560.974147
18.036000	-0.001427	-0.000506	-0.005922	0.000358	6479.308634	43948.324799	3942.334351	22614.626136
18.539500	-0.001941	-0.000324	-0.003803	0.000896	6470.528555	43914.823087	3946.445533	22590.205869
19.037000	-0.001551	-0.000584	-0.002998	0.000405	6477.884090	43936.631875	3949.825147	22612.524703
19.537000	-0.002819	-0.001230	-0.004326	0.000920	6463.014419	43827.074746	3945.020870	22589.099895
20.037500	-0.000943	-0.000509	-0.002174	0.000528	6481.928419	43931.977795	3951.657776	22606.894332
20.535000	-0.000304	0.000413	0.000117	0.001558	6478.667757	43921.898993	3954.963612	22560.151650
21.035500	-0.000916	-0.000573	-0.001549	0.000830	6479.634730	43897.476704	3952.503316	22593.166315
21.535500	-0.002644	-0.000010	-0.003178	0.002086	6454.785787	43832.233267	3944.975115	22536.215265
22.036000	-0.001636	-0.000203	-0.005001	0.000628	6475.303388	43951.448436	3944.024760	22602.351736
22.536500	-0.001052	-0.000144	-0.005074	0.000451	6481.660279	43973.786292	3944.294414	22610.406154
23.039000	-0.001824	-0.000495	-0.003451	0.000563	6474.281423	43930.027835	3948.229706	22605.313923
23.537000	-0.001928	-0.001357	-0.001141	0.001076	6469.139288	43800.486615	3952.928720	22582.009621
24.037000	-0.000132	-0.000422	-0.003559	0.000673	6487.503668	43926.588211	3947.662753	22600.325984
24.537500	0.001590	0.000079	-0.007079	0.000877	6500.245861	43954.609976	3937.994019	22591.062835
25.035000	-0.000432	-0.000263	-0.004521	0.000864	6483.396492	43923.526006	3944.660981	22591.655064
25.535000	-0.000082	-0.000090	-0.003099	0.000662	6488.015540	43958.939463	3948.890645	22600.812990
26.035000	-0.002109	-0.000406	-0.003264	0.000332	6473.832498	43960.225110	3949.319957	22615.819402
26.535500	0.000532	0.000015	-0.000772	0.000471	6494.768786	43986.889889	3955.481127	22609.504126
27.036000	-0.001308	-0.000227	-0.004462	0.002946	6458.738216	43730.896296	3939.409973	22497.262082
27.535500	-0.000322	0.000476	-0.005126	-0.000968	6499.673168	44166.840132	3947.853516	22675.042837
28.036500	0.002255	0.000048	-0.002224	-0.000468	6517.172604	44078.927251	3954.138280	22652.273544
28.537000	-0.000236	-0.000913	-0.002081	-0.001197	6502.326599	44056.938561	3956.427040	22685.529665
29.037000	-0.005006	-0.000044	-0.003376	0.004054	6419.022269	43644.084985	3939.352186	22447.217124
29.535000	-0.001874	0.000068	-0.002125	0.003286	6451.216323	43726.654811	3944.591782	22481.903332
30.037500	-0.001205	-0.000849	-0.001916	-0.000830	6491.110733	44028.236903	3955.895255	22668.785463
30.535500	-0.000406	0.000095	0.000066	0.001860	6475.293654	43863.396100	3954.036547	22546.449173
31.035500	-0.002869	-0.000454	-0.007993	0.004625	6431.911353	43552.217290	3926.003837	22421.469698
31.536000	-0.002008	-0.000268	-0.003842	0.003293	6450.054236	43694.491884	3940.119817	22481.600124
32.036500	0.000890	-0.000187	0.001150	-0.000498	6505.916469	44059.465307	3963.098667	22653.624435
32.536000	0.000114	-0.000906	-0.004098	-0.000682	6500.935257	44008.771846	3949.790065	22662.001016
33.037000	-0.003938	-0.000512	-0.002065	0.003873	6429.305651	43617.197402	3943.220843	22455.381578
33.540000	-0.002979	0.000213	-0.006271	0.003602	6439.452269	43710.655269	3933.048038	22467.622166
34.034500	0.000063	0.000316	-0.007817	0.001333	6483.614334	43933.914790	3934.909002	22570.320859
34.535000	-0.000148	-0.000370	-0.004101	0.001036	6484.326606	43897.137078	3945.303141	22583.809497
35.035500	-0.002321	-0.000718	0.000493	0.002617	6453.058220	43715.698049	3953.171176	22512.149316
35.535500	-0.002682	-0.001157	-0.001523	0.002191	6453.592771	43714.393266	3949.013259	22531.416679
36.036000	-0.003028	-0.000972	-0.005700	0.000340	6466.102743	43906.036232	3942.958178	22615.463610
36.536000	-0.001505	-0.000403	-0.002429	0.001017	6473.159901	43895.870968	3949.713274	22584.696272
37.036500	-0.000716	-0.000148	-0.001776	0.000808	6481.486905	43939.675366	3951.967176	22594.174077
37.536500	-0.001334	-0.000943	0.000265	0.002336	6463.589879	43720.902694	3953.309196	22524.864881
38.036500	0.002161	0.000029	0.001324	0.001723	6497.934633	43870.081219	3957.699861	22552.658988
38.537000	0.000416	-0.000488	-0.002883	0.001330	6486.597073	43858.422353	3947.713396	22570.491629
39.037500	-0.000058	-0.000626	0.001410	0.002087	6476.297338	43774.122242	3956.968000	22536.144633
39.535000	-0.002114	0.000032	0.001220	0.002939	6452.103945	43755.946732	3954.234677	22497.601483
40.038000	0.001598	-0.000751	-0.004983	0.001055	6498.813065	43859.572428	3942.962533	22582.979417
40.538500	-0.001476	-0.000117	0.001131	0.001249	6471.466871	43901.049557	3958.439846	22574.175091
41.036000	-0.000050	-0.000282	-0.000999	0.001486	6481.386705	43863.053013	3952.226605	22563.398705
41.536500	-0.002714	-0.000697	-0.001564	0.002222	6453.072747	43754.725337	3948.824235	22530.024881
42.036500	-0.002048	0.000272	-0.003353	0.001589	6463.863997	43905.606554	3945.810362	22558.718128
42.536500	0.000867	0.000281	-0.001467	0.002044	6484.393654	43863.619253	3949.543323	22538.118434
43.040000	-0.002397	-0.001022	0.000200	0.001730	6459.785478	43770.409257	3954.727697	22552.318266
43.537000	0.000288	-0.000279	0.000964	0.000881	6489.278914	43920.429341	3958.967208	22590.854228
44.037500	0.000071	0.000426	-0.000440	0.000011	6494.750110	44069.271774	3957.562598	22630.417712
44.535000	-0.000257	0.000378	0.001650	0.000316	6489.448039	44035.876429	3962.267018	22616.557671
45.038500	-0.003593	-0.000321	-0.003656	0.004971	6423.100591	43532.346359	3936.259353	22405.895756
45.535500	-0.000035	-0.000006	0.005243	0.002741	6471.036079	43770.924648	3965.356322	22506.517892
46.036000	0.002453	0.000125	-0.001453	-0.000090	6515.652158	44050.322456	3955.166321	22635.014366
46.536000	0.000148	-0.000112	-0.004030	-0.000026	6495.716638	44021.892930	3948.256456	22632.128275
47.036500	-0.002810	-0.001216	-0.006946	0.001688	6456.706639	43756.169994	3936.240660	22554.223871
47.537000	-0.001124	-0.000126	-0.003362	0.003221	6457.979895	43714.595965	3941.548319	22484.833517
48.037500	0.000354	-0.000356	-0.002103	-0.000559	6501.922043	44049.198327	3954.693218	22656.403013
48.537500	0.000819	-0.000171	-0.003744	-0.000476	6505.136260	44058.838276	3950.177444	22652.608614
49.035000	-0.001002	0.000509	-0.002909	0.004483	6448.522426	43655.782488	3939.451440	22427.884392
49.535000	-0.000947	-0.000038	0.000958	0.001603	6472.915329	43875.005236	3957.052141	22558.071877
50.036000	-0.000385	-0.000799	0.001125	0.001019	6482.492663	43858.311995	3959.028058	22584.578294
50.535500	-0.000531	-0.003217	-0.000055	0.006105	6438.994796	43157.380030	3942.646006	22354.916762
51.036000	0.045585	-0.026546	0.121637	0.585040	3902.612900	12989.694074	3208.660232	7999.062208
51.536500	-0.021547	-0.031328	-0.022509	-0.008789	6388.763101	41951.898933	3923.190039	23035.140285
52.037000	-0.014659	-0.118412	-0.047751	-0.301216	9899.258469	65535.000000	4864.989444	42420.459301
52.537000	-0.011873	-0.116922	-0.038020	-0.299725	9920.313437	65535.000000	4904.251850	42284.920891
53.037000	-0.006593	-0.083427	-0.026592	-0.261517	9404.079898	64859.247086	4779.328614	38964.421546
53.537500	-0.006632	-0.049627	-0.022009	-0.208741	8653.639526	62212.124566	4573.035820	34832.899234
54.035000	-0.001801	-0.045487	-0.014796	-0.203793	8652.073031	62101.885786	4582.228369	34470.672827
54.535000	0.004169	-0.031139	-0.009736	-0.175918	8366.706759	60287.634801	4491.800083	32505.402955
55.035500	0.008513	-0.017749	0.003857	-0.139934	7979.112275	57380.341692	4407.553690	30147.975132
55.536000	0.015875	-0.014636	0.014291	-0.128585	7932.247419	56357.646943	4404.200000	29444.065670
56.036000	0.030738	-0.004870	0.032345	-0.077857	7529.438147	51549.775215	4289.046026	26513.243802
56.536500	0.051549	0.007388	0.049108	-0.038375	7332.537856	48596.215324	4213.931333	24457.599724
57.037000	0.072682	0.021942	0.069252	0.008681	7072.829888	45304.071416	4129.889457	22239.649780
57.537000	0.088731	0.037133	0.094569	0.082136	6550.014600	39985.354850	3991.961063	19223.790280
58.040500	0.110169	0.047631	0.117532	0.135964	6284.124250	36467.692469	3911.233751	17316.047594
58.535000	0.126418	0.057127	0.134471	0.180892	6064.705762	33840.949716	3842.830121	15895.165135
59.035500	0.143902	0.067694	0.158887	0.219818	5909.857697	31887.630117	3809.067343	14777.507978
59.536000	0.161581	0.076147	0.182455	0.246304	5848.445906	30710.260728	3802.411346	14072.327972
60.036000	0.179210	0.089106	0.192469	0.270124	5806.010617	30024.415993	3771.524266	13473.832940
60.536000	0.189913	0.100990	0.208892	0.281638	5800.492138	30047.461593	3782.394073	13196.079644
61.036000	0.199555	0.109440	0.212324	0.299768	5743.393754	29449.956233	3750.210658	12773.412623
61.537000	0.204861	0.114286	0.219217	0.314444	5681.642922	28856.640612	3733.604483	12443.950153
62.034500	0.208604	0.117940	0.216475	0.309224	5740.681033	29391.644962	3738.859331	12559.852105
62.537500	0.210690	0.121473	0.219195	0.308599	5758.783597	29646.127320	3746.001961	12573.838969
63.053500	0.217488	0.127075	0.223969	0.310044	5794.859673	29903.028445	3753.164197	12541.570784
63.535000	0.220556	0.130638	0.229905	0.309503	5819.428520	30158.972545	3767.255905	12553.635401
64.035500	0.223691	0.131896	0.233668	0.310502	5834.064835	30175.174511	3773.334208	12531.350379
64.535500	0.228844	0.133799	0.237972	0.312061	5858.856020	30196.823976	3779.409137	12496.697137
65.036000	0.229992	0.134184	0.237414	0.316695	5834.806999	29931.432610	3767.949982	12394.396891
65.536500	0.227688	0.136162	0.237752	0.323004	5776.203041	29663.602885	3754.942965	12256.871902
66.036000	0.234667	0.140271	0.242815	0.325264	5808.162651	29777.579021	3761.025846	12208.080311
66.539500	0.237352	0.140410	0.240619	0.327466	5811.456466	29650.392188	3751.498438	12160.800512
67.039500	0.238442	0.141190	0.246605	0.332548	5784.365416	29387.178622	3753.450376	12052.590717
67.534500	0.240498	0.143178	0.249857	0.335085	5781.121060	29353.750592	3754.994503	11999.037665
68.038000	0.242370	0.144800	0.249642	0.339459	5764.279892	29186.875217	3745.115848	11907.426210
68.535000	0.243046	0.145357	0.256517	0.341718	5753.679507	29084.243224	3755.053701	11860.486232
69.035500	0.240791	0.146070	0.250432	0.346825	5704.876654	28820.992761	3731.143069	11755.232942
69.536000	0.243940	0.146308	0.254782	0.349399	5708.654573	28682.201865	3734.895258	11702.661089
70.036500	0.245663	0.148546	0.261299	0.348624	5725.149634	28861.424332	3750.467540	11718.463105
70.536000	0.247178	0.149728	0.261068	0.351964	5713.092736	28732.961592	3742.811234	11650.596215
71.036500	0.247545	0.150050	0.262390	0.357570	5678.768042	28421.043928	3733.704478	11537.826319
71.537000	0.248441	0.149830	0.259919	0.360430	5666.002726	28240.966938	3722.499433	11480.850569
72.037500	0.250923	0.151310	0.258958	0.357665	5700.229542	28489.496769	3726.277855	11535.932713
72.535000	0.251949	0.151255	0.262186	0.357964	5705.003980	28468.640614	3732.441280	11529.958038
73.035000	0.251447	0.150473	0.260216	0.359684	5690.437083	28322.036643	3724.682638	11495.680803
73.535500	0.252807	0.153493	0.260722	0.358833	5704.930312	28549.267731	3727.527162	11512.618841
74.036000	0.255423	0.153672	0.265504	0.358495	5724.414535	28579.750799	3738.347152	11519.359761
74.536000	0.253055	0.154328	0.262499	0.358930	5705.917591	28592.795986	3731.061768	11510.675904
75.039000	0.253316	0.154637	0.266183	0.361664	5689.708210	28449.993550	3733.069015	11456.390808
75.536500	0.257924	0.155988	0.271101	0.360565	5727.267280	28594.302387	3745.874011	11478.180705
76.036500	0.256681	0.157219	0.271947	0.360762	5717.739552	28655.392322	3747.263282	11474.259155
76.537000	0.257087	0.156777	0.261622	0.361042	5718.579397	28612.753252	3724.782564	11468.716495
77.037500	0.257379	0.157374	0.266134	0.363891	5701.736401	28479.921200	3728.270366	11412.404960
77.535000	0.260101	0.156743	0.266697	0.361785	5733.608608	28566.786912	3733.897875	11453.986314
78.035000	0.256049	0.155876	0.266501	0.361753	5707.050033	28517.643688	3733.553461	11454.632083
78.538000	0.257144	0.155653	0.267059	0.362532	5709.125682	28458.647799	3733.085024	11439.219945
79.036000	0.259864	0.155364	0.265008	0.366053	5703.860075	28235.744550	3721.384549	11369.934029
79.535500	0.260218	0.154864	0.270633	0.365429	5710.291771	28242.950168	3734.516073	11382.165054
80.036500	0.260733	0.154938	0.267714	0.366617	5705.865218	28178.156166	3725.865448	11358.881145
80.539000	0.261552	0.153361	0.273344	0.366212	5713.924181	28110.141993	3738.606736	11366.819906
81.037000	0.255911	0.152623	0.272039	0.366755	5673.438748	28036.052338	3734.686317	11356.189529
81.537500	0.256441	0.151840	0.270163	0.370119	5655.077233	27797.506404	3723.660536	11290.612950
82.037500	0.257934	0.152709	0.269452	0.366643	5687.350537	28047.473514	3729.461146	11358.373113
82.538500	0.260307	0.151628	0.269944	0.366637	5702.927935	27985.392404	3730.509017	11358.486035
83.035500	0.256283	0.149657	0.270020	0.366884	5675.019374	27857.848293	3730.151918	11353.670760
83.538000	0.257737	0.151024	0.268118	0.372725	5646.632834	27602.451426	3713.983230	11240.174204
84.035500	0.258792	0.151222	0.269082	0.368246	5682.485781	27869.479748	3725.317138	11327.060143
84.536000	0.257568	0.150473	0.275485	0.368269	5674.367824	27825.228570	3738.787876	11326.622980
85.039000	0.258542	0.151001	0.275339	0.370496	5666.233859	27728.023294	3733.752642	11283.300468
85.536500	0.258604	0.149357	0.271966	0.372704	5652.352307	27509.130248	3722.026020	11240.571147
86.037000	0.258730	0.149692	0.270405	0.369179	5676.009470	27728.479431	3726.136909	11308.889277
86.537500	0.259287	0.149861	0.270841	0.370109	5673.582971	27685.103961	3725.101277	11290.818280
87.035000	0.259988	0.149720	0.276261	0.372280	5664.043582	27553.729494	3731.933009	11248.767938
87.535500	0.258138	0.148751	0.275131	0.375272	5632.850594	27330.275643	3723.273829	11191.164558
88.035500	0.261473	0.151435	0.278129	0.373730	5664.269676	27568.695251	3732.815215	11220.796173
88.535500	0.261453	0.150223	0.273624	0.373022	5668.727504	27540.170931	3724.828094	11234.441016
89.035500	0.260164	0.148146	0.276810	0.373111	5659.799495	27417.784187	3731.336982	11232.723802
89.536500	0.260718	0.147617	0.280358	0.372296	5668.673500	27433.919960	3740.586853	11248.459462
90.036000	0.260471	0.149177	0.280840	0.373660	5658.240263	27444.968166	3738.708985	11222.149500
90.536500	0.258793	0.148443	0.270041	0.373796	5646.531300	27395.929862	3715.748399	11219.528876
91.034500	0.259748	0.148593	0.281061	0.374378	5648.936405	27371.609857	3737.652784	11208.333046
91.534500	0.261504	0.149242	0.281375	0.376265	5648.092014	27302.064417	3734.318166	11172.129418
92.035000	0.260005	0.148449	0.274637	0.375344	5644.372052	27309.264102	3722.091467	11189.782323
92.535500	0.261031	0.148164	0.280558	0.375652	5648.994855	27275.982742	3733.886910	11183.868382
93.071000	0.262504	0.148837	0.275019	0.376858	5650.713330	27246.117769	3719.730047	11160.781440
93.535500	0.258379	0.146819	0.279608	0.375517	5632.819565	27208.253465	3732.162537	11186.449214
94.036500	0.260888	0.147722	0.275140	0.376343	5643.623168	27212.541112	3721.055766	11170.628753
94.536500	0.259735	0.148384	0.279825	0.377278	5630.223102	27197.333745	3728.910718	11152.754334
95.036500	0.261645	0.147297	0.280146	0.376858	5645.179880	27160.091107	3730.471904	11160.787939
95.536500	0.259335	0.147986	0.273882	0.382997	5591.329460	26858.005252	3704.702857	11044.239072
96.040000	0.260972	0.146292	0.276284	0.377161	5638.901400	27087.258150	3721.734591	11154.983430
