sample name	sample
index	325
start time	 02-25-2021  03:34:06 PM
880	0.455390
Peak Time (s)	90.535
Peak Height 	0.4554
calc peak height	90,93
Baseline Time (s)	9.536
Baseline Value 	-0.002167
subtract baseline	10,4
Abs	0.308157
Peak Time (s)	92.039
Peak Height 	0.3082
calc peak height	90,93
Baseline Time (s)	9.536
Baseline Value 	0.001048
subtract baseline	10,3
PK_550	0.153123
Peak Time (s)	90.035
Peak Height 	0.1531
calc peak height	90,93
Baseline Time (s)	11.537
Baseline Value 	5.5752E-4
subtract baseline	10,2
PK_880	0.297418
Peak Time (s)	92.537
Peak Height 	0.2974
calc peak height	90,93
Baseline Time (s)	9.036
Baseline Value 	5.1928E-4
subtract baseline	10,1


Time (s)	A880-A510	A880-A775	A880-A975	A880	I510	I775	I975	I880	
0.036000	-0.000647	-0.000613	-0.001544	0.001723	6827.455311	44829.437226	4005.879154	23803.745989
0.536500	-0.000725	0.000176	0.001453	0.004958	6798.228927	44594.533177	4005.304162	23649.173767
1.036500	-0.001340	-0.000820	-0.001962	0.002860	6811.284221	44700.294996	4002.125158	23749.298670
1.537000	-0.000875	-0.000575	0.000624	0.000838	6833.279975	44918.574286	4013.290990	23846.267787
2.037000	-0.001002	-0.000036	-0.000858	0.001407	6827.111675	44915.552585	4008.305039	23818.922896
2.535000	0.000878	0.000238	-0.001700	0.002068	6837.922343	44878.260618	4004.668767	23787.231396
3.035000	0.001138	0.000029	-0.003408	-0.001335	6870.576143	45187.346353	4008.769811	23950.923822
3.535500	0.000145	0.000228	0.001863	0.000987	6841.004640	44981.589864	4015.945646	23839.062331
4.035500	-0.000494	-0.001663	0.000196	-0.000045	6844.505279	44898.703007	4014.397990	23888.722771
4.536000	-0.000444	0.000018	-0.001690	0.000339	6841.534348	45024.014900	4008.878068	23870.241985
5.036500	0.001073	-0.000303	-0.003251	0.000082	6857.329193	45017.833801	4005.718670	23882.605303
5.536500	0.000110	-0.000427	-0.003435	-0.000336	6852.470514	45046.226851	4006.284194	23902.719977
6.037000	-0.001153	-0.001258	0.002680	-0.001278	6849.614508	45057.023468	4023.499547	23948.183149
6.537000	0.000760	-0.000637	0.001024	-0.000419	6859.010414	45033.938518	4017.332594	23906.737096
7.037500	0.001660	-0.000213	0.000954	-0.000500	6867.780662	45082.929709	4017.359636	23910.647999
7.535000	-0.001828	-0.000231	0.000148	-0.000731	6838.744550	45103.529369	4015.956611	23921.799759
8.035000	-0.000722	-0.000723	0.000171	-0.000750	6848.748773	45057.670201	4016.058344	23922.707896
8.535000	-0.001683	-0.001075	-0.001718	0.003571	6801.997162	44607.640912	4001.000943	23715.324588
9.036000	0.000000	0.000278	-0.005642	0.000224	6846.505530	45060.296502	3999.610846	23875.772158
9.535500	0.000798	0.000071	0.000000	0.000000	6855.607061	45061.922014	4013.810673	23886.554891
10.036000	0.001213	0.000681	0.001308	-0.000189	6860.999006	45139.356555	4017.464588	23895.644925
10.536500	-0.002791	-0.001258	-0.003622	0.003507	6792.826656	44596.247532	3996.580895	23718.384994
11.036500	-0.002058	-0.000148	0.003420	-0.000906	6838.250169	45128.464173	4024.403769	23930.212199
11.537000	0.001359	0.000000	0.004626	-0.000127	6861.749125	45067.350856	4025.457355	23892.658702
12.037500	-0.001339	-0.000462	-0.001031	-0.000923	6844.802174	45099.784689	4013.548611	23931.053736
12.534500	-0.001572	0.000197	0.004409	0.004857	6791.671141	44606.272776	4012.717341	23653.972590
13.035500	0.000397	0.000024	-0.000838	-0.000708	6858.350070	45126.088143	4013.495042	23920.692104
13.536500	-0.000519	-0.000124	0.001147	-0.000761	6850.648775	45116.768722	4018.468823	23923.210392
14.035500	0.000394	-0.000536	0.004184	0.002025	6834.006921	44807.910424	4019.086711	23789.297659
14.535500	-0.002394	-0.001031	-0.001374	0.003920	6792.683916	44578.372209	4000.988102	23698.653211
15.036000	-0.000511	-0.001008	0.001956	-0.000930	6852.232810	45047.500542	4020.866305	23931.364106
15.536500	0.000547	-0.000667	0.000165	-0.000420	6857.119158	45031.185618	4015.237970	23906.780325
16.037000	-0.002058	-0.001043	-0.003846	0.002015	6812.400111	44759.972866	3999.623395	23789.740511
16.537000	-0.001545	0.000034	-0.000280	0.003600	6802.959638	44711.252344	4004.398890	23713.940336
17.037500	0.003025	0.000394	0.006695	-0.001875	6892.379401	45275.373017	4034.904375	23977.046563
17.535000	0.001463	-0.000318	-0.007494	0.000485	6857.213676	44977.377895	3994.544885	23863.214639
18.035000	-0.002433	-0.000846	0.003605	0.001256	6815.790074	44851.996220	4019.550725	23826.157382
18.535500	-0.001211	-0.000274	0.003967	0.002379	6816.670978	44798.954964	4017.688196	23772.327649
19.035500	0.000212	-0.000390	-0.001663	0.000745	6843.758223	44945.413896	4007.960781	23850.735030
19.536000	0.001291	-0.000372	-0.007116	0.000327	6857.096726	44987.520564	3995.827173	23870.830664
20.036500	-0.000882	0.000563	0.004926	0.001743	6825.191218	44940.956180	4021.595687	23802.781364
20.536000	-0.000831	-0.000385	0.000662	0.002180	6821.783369	44807.408327	4010.118441	23781.851807
21.037000	-0.001048	-0.000906	0.002419	0.000131	6838.022593	44954.788194	4019.402498	23880.264972
21.537000	-0.001631	-0.000722	0.001835	0.000121	6832.932633	44973.491307	4017.995341	23880.728485
22.037500	-0.001218	-0.000083	0.002431	0.000660	6831.819214	44983.172199	4018.134480	23854.808096
22.535000	-0.002314	0.000296	-0.000157	0.003451	6797.514530	44750.704898	4005.055630	23721.065353
23.035500	0.000312	-0.000833	-0.003360	0.000223	6849.297306	44952.988840	4005.116791	23875.833404
23.535500	-0.000963	-0.000392	0.001316	0.000376	6836.593948	44980.800051	4016.103943	23868.453810
24.036000	0.000165	-0.000579	-0.001211	0.000305	6847.251499	44969.617683	4010.123622	23871.881075
24.536000	0.001831	-0.000091	0.006362	0.000921	6856.608076	44957.196726	4027.151293	23842.235476
25.037000	0.000278	0.000412	0.002832	0.000862	6843.299762	45011.512478	4018.622094	23845.068618
25.537000	-0.002523	0.000047	-0.003359	0.000728	6819.666760	44989.252132	4003.897384	23851.547239
26.034000	-0.000359	-0.000433	-0.000450	0.000208	6843.455151	44993.038652	4012.209380	23876.553984
26.537500	-0.000247	0.000461	-0.002463	0.000920	6838.125708	45010.609506	4005.597864	23842.300663
27.034500	-0.000821	-0.000585	-0.000544	0.000532	6836.475219	44947.068741	4011.192683	23860.963913
27.535500	-0.000600	-0.000473	-0.002571	-0.001363	6855.306460	45141.370308	4010.871939	23952.306929
28.035000	-0.000255	-0.000796	0.002641	-0.000877	6854.042394	45062.889129	4022.417868	23928.805538
28.536000	0.000300	-0.000006	-0.001748	-0.000616	6856.656003	45114.106477	4011.054439	23916.213488
29.036000	-0.001021	0.000019	0.003784	-0.000181	6841.025935	45074.457670	4023.518035	23895.281611
29.536000	-0.000571	0.000071	-0.002348	-0.000656	6849.255209	45125.519651	4009.695894	23918.166232
30.036500	0.002689	0.001058	-0.000447	0.000369	6869.214692	45121.842867	4011.824325	23868.802536
30.536500	0.000610	-0.000376	0.001314	-0.000747	6860.604380	45091.084919	4018.847044	23922.573886
31.037000	-0.002879	-0.000595	0.004628	0.001675	6808.165165	44835.876506	4021.031523	23806.078445
31.537500	0.000857	0.000568	0.000811	0.000045	6855.742292	45105.817014	4015.680278	23884.399643
32.035000	-0.003656	-0.000363	0.000132	0.004522	6776.366972	44584.712025	4003.166419	23669.951990
32.535500	-0.005196	0.000555	-0.002296	0.005333	6755.876150	44594.963789	3995.382008	23631.344074
33.035500	0.000305	0.000464	-0.000367	-0.000519	6855.849756	45150.379931	4014.182508	23911.575024
33.535500	-0.000294	-0.000138	0.008040	-0.001301	6857.474454	45167.811661	4036.819648	23949.292553
34.036000	-0.002212	0.000031	0.001488	0.003139	6801.139727	44755.156663	4009.794839	23735.937847
34.536500	-0.000434	0.000013	-0.001262	0.001735	6829.234460	44888.713489	4006.531005	23803.178971
35.037000	0.001338	0.000223	-0.001532	0.001368	6848.231713	44944.384213	4006.766851	23820.782904
35.537500	-0.000346	0.000871	0.007093	0.001888	6828.661371	44956.737934	4026.571344	23795.854818
36.034500	0.000977	0.000194	0.000566	0.003182	6828.912070	44766.697188	4007.453852	23733.882950
36.535000	-0.000369	0.000127	-0.000628	0.001298	6833.684086	44941.846371	4009.126755	23824.155124
37.035000	-0.002063	0.000140	-0.001879	0.001190	6819.636720	44953.531990	4006.357903	23829.320782
37.535500	0.000430	0.000295	0.001783	0.001327	6840.521870	44955.261031	4014.923165	23822.767443
38.036000	-0.003299	-0.000809	-0.003902	0.002537	6796.879088	44732.290691	3998.235465	23764.749645
38.536500	-0.002222	-0.000186	-0.000324	0.003090	6801.490626	44739.096880	4005.523552	23738.307659
39.036500	-0.000716	-0.000777	0.005224	0.000950	6833.691152	44888.197750	4024.277248	23840.861336
39.536500	0.000652	-0.000377	-0.000525	0.001078	6844.706421	44914.425929	4009.910326	23834.703923
40.037000	0.000356	-0.000367	-0.003551	0.000958	6843.145261	44927.017432	4002.880911	23840.495853
40.537000	-0.000679	-0.000302	0.000725	0.000618	6836.970292	44966.146692	4014.071238	23856.829906
41.034500	0.000359	0.000768	0.003046	0.001583	6837.625053	44976.290680	4017.383237	23810.496655
41.535000	0.000806	0.000369	-0.000946	0.001695	6840.591289	44926.858001	4007.393983	23805.090563
42.035500	-0.002198	-0.000506	-0.004859	0.000583	6823.816972	44949.763140	4000.630692	23858.505007
42.536000	-0.000361	-0.000070	-0.002432	0.002646	6821.817164	44792.971565	4001.507648	23759.552191
43.036000	0.000372	-0.000274	0.001591	0.000949	6843.361028	44936.812619	4015.375388	23840.909224
43.536000	0.001773	-0.000553	-0.000781	-0.001934	6881.652084	45189.035751	4016.625366	23979.890687
44.037000	0.002372	0.000135	-0.000379	-0.002346	6890.731332	45295.962459	4018.613006	23999.803399
44.536500	-0.004806	-0.000983	-0.002959	0.003752	6773.047020	44599.116504	3997.581291	23706.668402
45.037000	-0.001416	-0.000008	0.006137	-0.000580	6841.064128	45110.536847	4030.307386	23914.496335
45.537500	0.000954	0.000994	0.006234	-0.000106	6857.948874	45161.707521	4029.373419	23891.662611
46.035000	-0.004868	-0.000475	0.000163	0.004521	6765.798603	44574.049332	4003.242986	23669.988056
46.535500	-0.001883	0.000018	0.000165	0.003459	6801.226933	44723.212916	4005.812967	23720.652135
47.035500	0.000215	-0.000033	0.000020	0.001205	6839.701048	44935.408630	4010.927763	23828.631181
47.536000	0.000206	-0.000062	0.001549	0.001722	6835.021573	44882.686108	4013.390158	23803.810816
48.036000	-0.003820	-0.000389	-0.003465	0.004732	6773.095935	44562.140451	3994.023084	23659.954483
48.536000	-0.001573	-0.000423	-0.003375	0.002748	6810.219123	44749.203844	3998.994455	23754.664633
49.037000	0.001749	-0.000135	0.004266	-0.000817	6871.416630	45121.171616	4026.269983	23925.930130
49.537000	0.002475	0.000455	0.002002	-0.003029	6897.822581	45393.727749	4026.142412	24032.911464
50.037500	-0.000849	0.000181	0.003310	0.004325	6802.703455	44655.753685	4011.339189	23679.342017
50.537500	-0.003182	-0.000058	0.003844	0.007209	6757.080234	44357.387442	4005.643015	23542.329000
51.035000	-0.021567	-0.021381	0.011240	0.109121	5843.629619	34141.065471	3800.252189	19240.528646
51.535500	-0.025274	-0.025406	0.005712	0.017464	6486.083521	41102.432467	3985.554890	23062.336968
52.035500	-0.025139	-0.022019	0.002383	-0.068019	7249.774648	49753.377855	4200.063128	27432.018556
52.536000	-0.016401	-0.023453	0.000381	-0.112700	7808.441697	54648.391347	4328.583938	30082.192346
53.036500	-0.006486	-0.013790	0.012104	-0.069289	7450.143757	50787.195865	4231.963668	27503.663485
53.537000	0.007254	-0.007046	0.014354	-0.066194	7561.026353	51190.450984	4229.481667	27329.495987
54.036500	0.021976	-0.004359	0.031321	-0.049683	7542.196249	49680.696876	4230.819332	26420.954421
54.537000	0.037580	0.002046	0.044489	-0.017791	7374.324857	47020.333813	4177.003975	24760.977924
55.037500	0.055681	0.009515	0.057719	-0.000757	7385.129448	46061.499569	4166.350098	23923.012882
55.535000	0.077331	0.018373	0.078478	0.042217	7174.140683	42808.629466	4105.971303	21949.513493
56.035000	0.090111	0.027777	0.098099	0.092019	6831.548357	39273.002790	4028.730502	19893.797760
56.535500	0.113625	0.038543	0.115344	0.157724	6475.118402	34963.331131	3915.411946	17518.399169
57.036000	0.132888	0.048218	0.140731	0.195929	6326.028843	32931.395275	3887.493811	16293.723680
57.536000	0.159123	0.063987	0.167405	0.196277	6531.444779	34013.126307	3945.740405	16283.065662
58.036500	0.174038	0.078364	0.185529	0.255033	6190.587183	31000.997222	3857.293371	14599.142041
58.536500	0.198136	0.092975	0.205720	0.298632	6049.679268	29193.310890	3809.973373	13488.901499
59.037000	0.213741	0.103291	0.227718	0.341175	5865.153473	27320.337229	3770.490665	12507.849859
59.537000	0.224835	0.112831	0.238284	0.364882	5782.614480	26539.925659	3746.198197	12001.440083
60.037500	0.232084	0.120627	0.250848	0.377967	5745.224584	26255.019413	3745.251079	11733.552600
60.537500	0.243042	0.128167	0.259190	0.389936	5738.800744	26019.116388	3738.681719	11495.478238
61.035000	0.252760	0.133018	0.267267	0.392529	5784.408451	26139.072169	3748.634979	11444.755983
61.535500	0.259648	0.139807	0.269083	0.393753	5821.196107	26437.409939	3749.715986	11420.920247
62.036000	0.261053	0.144143	0.275196	0.400842	5784.278062	26289.399049	3747.934740	11284.187999
62.536000	0.263932	0.146793	0.277930	0.401764	5796.929096	26382.180319	3751.246136	11266.556449
63.036500	0.267172	0.148968	0.277257	0.406252	5788.850370	26257.982173	3741.845627	11181.315923
63.542000	0.270718	0.150885	0.279255	0.410655	5783.319934	26125.263556	3737.502438	11098.548502
64.037500	0.269935	0.151561	0.276882	0.411522	5772.696919	26115.155439	3731.691156	11082.356431
64.537500	0.273641	0.152375	0.283441	0.413877	5781.396710	26033.264006	3739.241236	11038.510787
65.037500	0.273223	0.153501	0.280977	0.414656	5773.686372	26051.669149	3733.409658	11024.055270
65.538000	0.272108	0.152998	0.286850	0.413594	5773.345849	26081.389138	3745.932916	11043.770236
66.035000	0.275597	0.153751	0.281034	0.414023	5793.083686	26098.572867	3734.645968	11035.790416
66.536000	0.276532	0.154808	0.288929	0.413915	5799.845134	26160.654344	3749.138671	11037.807774
67.036000	0.279500	0.154733	0.287505	0.412895	5825.848160	26211.077136	3748.400872	11056.760283
67.536000	0.275739	0.155140	0.293082	0.413344	5798.406854	26208.808644	3757.818800	11048.406653
68.036500	0.273590	0.154835	0.287066	0.417834	5755.673187	25954.032198	3738.642575	10965.377352
68.537000	0.281057	0.155878	0.298925	0.414503	5825.513269	26186.358251	3766.519156	11026.895576
69.037000	0.281883	0.155770	0.294821	0.414580	5830.421554	26176.446681	3758.748946	11025.464368
69.537500	0.282815	0.155373	0.290301	0.415642	5829.566887	26098.756743	3748.490572	11005.808150
70.035000	0.281140	0.155784	0.294237	0.419405	5794.127588	25921.177458	3748.806359	10936.527984
70.535000	0.280006	0.154952	0.284097	0.423287	5761.830172	25673.760605	3723.600425	10865.675681
71.035500	0.286289	0.157828	0.298920	0.420983	5817.350746	25945.786955	3754.497352	10907.648655
71.535000	0.288231	0.157253	0.292555	0.422209	5822.029529	25850.857898	3740.653953	10885.290686
72.036000	0.282368	0.156555	0.294057	0.426123	5758.797234	25609.496276	3736.303843	10814.317158
72.536500	0.282516	0.155988	0.293232	0.430150	5734.105410	25371.654187	3727.630393	10741.980381
73.036500	0.285317	0.157098	0.301963	0.426011	5778.444159	25643.628333	3750.855297	10816.351334
73.536500	0.286890	0.157467	0.297413	0.427691	5777.751305	25575.381944	3739.525452	10786.070819
74.037500	0.282582	0.156379	0.290998	0.430154	5734.496280	25391.572543	3723.660760	10741.898261
74.537500	0.288427	0.157054	0.293237	0.429736	5774.481601	25448.019384	3728.375473	10749.378199
75.034500	0.287437	0.156449	0.302406	0.430282	5764.625949	25388.650818	3743.875406	10739.622660
75.535000	0.288334	0.157508	0.300331	0.432973	5753.149354	25304.648823	3735.269416	10691.652060
76.035500	0.286440	0.154145	0.295355	0.435022	5728.104012	25028.502240	3722.758345	10655.343239
76.535500	0.285347	0.156542	0.300751	0.440164	5688.948604	24889.670201	3723.205232	10564.936665
77.036000	0.290187	0.155561	0.301521	0.434897	5752.699045	25106.783650	3733.952718	10657.550072
77.536500	0.292682	0.156054	0.303973	0.435854	5762.526881	25083.171481	3736.638031	10640.633541
78.037000	0.290787	0.155608	0.303527	0.436722	5744.886878	25016.436016	3734.277438	10625.324908
78.537000	0.289108	0.156364	0.305402	0.437540	5729.051469	25013.329921	3736.177098	10610.946096
79.036500	0.291585	0.155840	0.302437	0.439075	5735.012549	24909.200938	3728.127096	10583.989975
79.535000	0.289742	0.155239	0.301534	0.438911	5724.390572	24887.164494	3726.812498	10586.863787
80.035000	0.289039	0.155185	0.304022	0.441758	5702.066499	24741.510573	3726.176724	10537.139969
80.535500	0.292196	0.156470	0.295499	0.441863	5721.250121	24800.612719	3711.016850	10535.305891
81.036000	0.290821	0.155130	0.303825	0.441236	5716.535369	24764.884392	3726.753145	10546.230905
81.535500	0.291179	0.155029	0.304685	0.442104	5713.323325	24716.413866	3726.740372	10531.117406
82.036500	0.291336	0.154019	0.303537	0.442181	5713.826353	24662.110564	3724.566479	10529.775207
82.536500	0.291188	0.153616	0.306741	0.442502	5710.881214	24626.076540	3729.690898	10524.199674
83.037000	0.292122	0.153974	0.303561	0.443154	5712.651716	24611.446895	3722.888103	10512.876602
83.537000	0.290382	0.153184	0.303851	0.443230	5701.255113	24568.389261	3723.266840	10511.559523
84.034500	0.291294	0.153297	0.299199	0.444034	5701.931564	24534.057325	3713.680750	10497.609511
84.535000	0.293881	0.155807	0.304906	0.446393	5703.357443	24541.575213	3719.548081	10456.861781
85.035500	0.291302	0.153908	0.301578	0.446142	5688.808729	24459.990631	3714.154008	10461.192579
85.535500	0.290943	0.153488	0.305721	0.445993	5687.498170	24446.585859	3721.687924	10463.752323
86.035500	0.289474	0.153283	0.306140	0.446950	5672.425232	24389.353838	3720.741339	10447.276889
86.536000	0.290477	0.152966	0.307143	0.446843	5679.310201	24378.980564	3722.698458	10449.115237
87.036000	0.292653	0.152402	0.308116	0.447289	5690.081441	24329.376368	3723.630704	10441.452981
87.537000	0.295747	0.153052	0.301948	0.448980	5698.842054	24278.264600	3709.855747	10412.429957
88.037000	0.290496	0.153880	0.303848	0.451053	5653.402682	24217.389083	3709.553869	10377.017747
88.537500	0.290740	0.152180	0.299110	0.455101	5630.103434	23938.470356	3694.451540	10308.347615
89.034000	0.291936	0.152347	0.300631	0.449647	5670.973760	24211.172846	3706.416625	10401.022420
89.535500	0.295479	0.152422	0.306908	0.450497	5687.698076	24173.386545	3715.858998	10386.495491
90.035500	0.296665	0.153123	0.307960	0.453365	5677.239592	24068.022544	3712.687343	10337.719183
90.535500	0.289831	0.150773	0.307351	0.455390	5622.805411	23856.853729	3708.107189	10303.464838
91.036000	0.293685	0.152155	0.306409	0.452056	5666.889608	24084.580835	3712.264728	10359.948343
91.536500	0.294171	0.149870	0.302381	0.451045	5676.160314	24022.803811	3707.026561	10377.156210
92.039000	0.293402	0.151373	0.308157	0.453908	5653.717068	23957.074939	3712.083433	10328.514812
92.537000	0.297418	0.151337	0.306978	0.453527	5680.909158	23973.720975	3710.694608	10334.969032
93.037000	0.295315	0.150955	0.305797	0.453803	5666.164292	23941.968757	3708.164064	10330.295885
93.534500	0.293068	0.150488	0.300435	0.453920	5651.589342	23913.851758	3698.728319	10328.313813
94.034500	0.295989	0.150630	0.307149	0.454153	5668.172350	23909.520148	3709.904892	10324.379806
94.535500	0.293019	0.150156	0.307399	0.461861	5602.917718	23519.328343	3697.059168	10195.096487
95.035500	0.296345	0.151373	0.307869	0.457081	5652.302207	23804.555759	3706.077634	10274.987958
95.536000	0.295099	0.148418	0.307727	0.455290	5655.653484	23748.894885	3708.933347	10305.152961
96.036000	0.292822	0.149415	0.311929	0.456707	5633.015173	23728.878237	3713.782105	10281.291685
