sample name	sample
index	974
start time	 04-14-2021  02:41:45 PM


Wavelength (nm)	Absorbance
494.344910	-0.078482
494.563924	-0.078482
494.782919	-0.078482
495.001897	-0.106460
495.220856	-0.046857
495.439797	-0.033502
495.658719	-0.018097
495.877624	-0.004833
496.096510	-0.000332
496.315378	-0.004578
496.534227	-0.008842
496.753059	0.000365
496.971872	0.002980
497.190667	0.135882
497.409444	0.178276
497.628203	0.191151
497.846943	0.198891
498.065665	0.203948
498.284369	0.206748
498.503055	0.209942
498.721723	0.211205
498.940372	0.211341
499.159003	0.211422
499.377616	0.211625
499.596210	0.212168
499.814787	0.212247
500.033345	0.212424
500.251885	0.212385
500.470406	0.211143
500.688910	0.211112
500.907395	0.211576
501.125862	0.212273
501.344311	0.212213
501.562742	0.211329
501.781154	0.210632
501.999548	0.210684
502.217924	0.211696
502.436282	0.214006
502.654621	0.214769
502.872942	0.215184
503.091245	0.214949
503.309530	0.214163
503.527797	0.215155
503.746045	0.215015
503.964275	0.215639
504.182487	0.215172
504.400681	0.214618
504.618856	0.214025
504.837013	0.213981
505.055152	0.213465
505.273273	0.214285
505.491376	0.213435
505.709460	0.214905
505.927526	0.213787
506.145574	0.213299
506.363604	0.213397
506.581615	0.214772
506.799608	0.215954
507.017583	0.216692
507.235540	0.216232
507.453478	0.216855
507.671399	0.215369
507.889301	0.215843
508.107185	0.216163
508.325050	0.216710
508.542898	0.215663
508.760727	0.213642
508.978538	0.213371
509.196330	0.214462
509.414105	0.214549
509.631861	0.216464
509.849599	0.215941
510.067319	0.216342
510.285021	0.215934
510.502704	0.215864
510.720369	0.218107
510.938016	0.218646
511.155645	0.218469
511.373255	0.218931
511.590848	0.218357
511.808422	0.220569
512.025977	0.220407
512.243515	0.220028
512.461034	0.220995
512.678536	0.219431
512.896018	0.219893
513.113483	0.220575
513.330930	0.220786
513.548358	0.221189
513.765768	0.219527
513.983160	0.220272
514.200533	0.221422
514.417889	0.222651
514.635226	0.224881
514.852545	0.224784
515.069845	0.225031
515.287128	0.225446
515.504392	0.224651
515.721638	0.225531
515.938866	0.225024
516.156075	0.225057
516.373267	0.224314
516.590440	0.223876
516.807594	0.223430
517.024731	0.223173
517.241850	0.223402
517.458950	0.223948
517.676032	0.224720
517.893095	0.224916
518.110141	0.225211
518.327168	0.226021
518.544177	0.226760
518.761168	0.227662
518.978141	0.228312
519.195095	0.228988
519.412031	0.229884
519.628949	0.229951
519.845849	0.231570
520.062731	0.232192
520.279594	0.232343
520.496439	0.232016
520.713266	0.231515
520.930074	0.232237
521.146865	0.232317
521.363637	0.232840
521.580391	0.232911
521.797127	0.232684
522.013844	0.232028
522.230543	0.231818
522.447224	0.232374
522.663887	0.233104
522.880532	0.233490
523.097158	0.233664
523.313766	0.233487
523.530356	0.233519
523.746928	0.234179
523.963481	0.234936
524.180017	0.235885
524.396534	0.235438
524.613032	0.236512
524.829513	0.236423
525.045975	0.236979
525.262420	0.237834
525.478845	0.238833
525.695253	0.238689
525.911643	0.238982
526.128014	0.238228
526.344367	0.238661
526.560702	0.239405
526.777018	0.239456
526.993316	0.238686
527.209597	0.238435
527.425858	0.238583
527.642102	0.238935
527.858328	0.239242
528.074535	0.240358
528.290724	0.241253
528.506894	0.240915
528.723047	0.241619
528.939181	0.242007
529.155297	0.243922
529.371395	0.244211
529.587475	0.244751
529.803536	0.244810
530.019579	0.244869
530.235604	0.245102
530.451611	0.245544
530.667600	0.245117
530.883570	0.246267
531.099522	0.245384
531.315456	0.245663
531.531372	0.245890
531.747269	0.246989
531.963148	0.247517
532.179009	0.247316
532.394852	0.247628
532.610676	0.248044
532.826482	0.248110
533.042271	0.248274
533.258040	0.248976
533.473792	0.248970
533.689525	0.248547
533.905240	0.249109
534.120937	0.249143
534.336616	0.249340
534.552277	0.249743
534.767919	0.250025
534.983543	0.250126
535.199149	0.250061
535.414736	0.250046
535.630306	0.251138
535.845857	0.251831
536.061390	0.253437
536.276904	0.253780
536.492401	0.254341
536.707879	0.254557
536.923339	0.254815
537.138781	0.255022
537.354204	0.256315
537.569610	0.255817
537.784997	0.255729
538.000366	0.255461
538.215716	0.255054
538.431049	0.255581
538.646363	0.256466
538.861659	0.256614
539.076937	0.257169
539.292196	0.256908
539.507438	0.257891
539.722661	0.257459
539.937866	0.257628
540.153052	0.259095
540.368221	0.259466
540.583371	0.259621
540.798503	0.260710
541.013617	0.261627
541.228712	0.261969
541.443789	0.262487
541.658848	0.262661
541.873889	0.262573
542.088912	0.262938
542.303916	0.263301
542.518902	0.263002
542.733870	0.262965
542.948820	0.262744
543.163752	0.263396
543.378665	0.263179
543.593560	0.264539
543.808437	0.264617
544.023295	0.264419
544.238136	0.264255
544.452958	0.265281
544.667762	0.265839
544.882548	0.266530
545.097315	0.266929
545.312064	0.267076
545.526795	0.266814
545.741508	0.268322
545.956203	0.269332
546.170879	0.270260
546.385537	0.270342
546.600177	0.270532
546.814799	0.270716
547.029402	0.270725
547.243988	0.271561
547.458555	0.271883
547.673103	0.272296
547.887634	0.271775
548.102146	0.271939
548.316640	0.271726
548.531116	0.272182
548.745574	0.272478
548.960013	0.273108
549.174435	0.272910
549.388838	0.273411
549.603222	0.273487
549.817589	0.274118
550.031937	0.274538
550.246267	0.275385
550.460579	0.275562
550.674873	0.275440
550.889148	0.275405
551.103405	0.276188
551.317644	0.276649
551.531865	0.276711
551.746068	0.276529
551.960252	0.276541
552.174418	0.276720
552.388566	0.276697
552.602696	0.276902
552.816807	0.277641
553.030900	0.277154
553.244975	0.277763
553.459032	0.277721
553.673070	0.278210
553.887091	0.278065
554.101093	0.278529
554.315077	0.278746
554.529042	0.279136
554.742990	0.278418
554.956919	0.279122
555.170830	0.278565
555.384722	0.279036
555.598597	0.279402
555.812453	0.279717
556.026291	0.279421
556.240111	0.280044
556.453913	0.280886
556.667696	0.281531
556.881461	0.281806
557.095208	0.281930
557.308937	0.282437
557.522647	0.282379
557.736339	0.282646
557.950013	0.283240
558.163669	0.283211
558.377307	0.282986
558.590926	0.283797
558.804527	0.284210
559.018110	0.284888
559.231675	0.284686
559.445221	0.284978
559.658749	0.285750
559.872259	0.286363
560.085751	0.286942
560.299225	0.287722
560.512680	0.287091
560.726117	0.286467
560.939536	0.286692
561.152937	0.286941
561.366319	0.287451
561.579683	0.287365
561.793029	0.287353
562.006357	0.287439
562.219667	0.287253
562.432958	0.287515
562.646231	0.288083
562.859486	0.288397
563.072723	0.288327
563.285941	0.288541
563.499141	0.288671
563.712323	0.288876
563.925487	0.288945
564.138632	0.288699
564.351760	0.289009
564.564869	0.289498
564.777960	0.288835
564.991032	0.289494
565.204087	0.289579
565.417123	0.289318
565.630141	0.289241
565.843140	0.289653
566.056122	0.290015
566.269085	0.290896
566.482030	0.290748
566.694957	0.291614
566.907866	0.291703
567.120756	0.291984
567.333628	0.292728
567.546482	0.292722
567.759318	0.292894
567.972135	0.293093
568.184935	0.292442
568.397716	0.292317
568.610478	0.292341
568.823223	0.292631
569.035949	0.292708
569.248657	0.292743
569.461347	0.293322
569.674019	0.293390
569.886672	0.293418
570.099308	0.294198
570.311925	0.294961
570.524523	0.294893
570.737104	0.295551
570.949666	0.295767
571.162210	0.295757
571.374736	0.295968
571.587244	0.296492
571.799733	0.296970
572.012205	0.296946
572.224658	0.297325
572.437092	0.297637
572.649509	0.297330
572.861907	0.297650
573.074287	0.298020
573.286649	0.298096
573.498993	0.298185
573.711318	0.298365
573.923625	0.298792
574.135914	0.298718
574.348185	0.299225
574.560438	0.299170
574.772672	0.299359
574.984888	0.299358
575.197086	0.299696
575.409266	0.299468
575.621427	0.299886
575.833570	0.299814
576.045695	0.300365
576.257802	0.300579
576.469890	0.300772
576.681961	0.301130
576.894013	0.301621
577.106046	0.301877
577.318062	0.302041
577.530059	0.302194
577.742039	0.301976
577.954000	0.301620
578.165942	0.301848
578.377867	0.302096
578.589773	0.301594
578.801661	0.301556
579.013531	0.301568
579.225382	0.301834
579.437216	0.301288
579.649031	0.301916
579.860828	0.302457
580.072606	0.302320
580.284367	0.302896
580.496109	0.303339
580.707833	0.303534
580.919539	0.303700
581.131227	0.303958
581.342896	0.304293
581.554547	0.304732
581.766180	0.304940
581.977795	0.305233
582.189391	0.304875
582.400969	0.305137
582.612529	0.305810
582.824071	0.306262
583.035595	0.306512
583.247100	0.306959
583.458587	0.306666
583.670056	0.307281
583.881506	0.307472
584.092939	0.307647
584.304353	0.307967
584.515749	0.307722
584.727127	0.307677
584.938486	0.307884
585.149828	0.308447
585.361151	0.309173
585.572456	0.309741
585.783742	0.310206
585.995011	0.310711
586.206261	0.310682
586.417493	0.310887
586.628706	0.311242
586.839902	0.311600
587.051079	0.311889
587.262238	0.311944
587.473379	0.311617
587.684502	0.311706
587.895606	0.311952
588.106692	0.312323
588.317760	0.312868
588.528810	0.313064
588.739841	0.313071
588.950855	0.312485
589.161850	0.312653
589.372827	0.312603
589.583785	0.312723
589.794726	0.312813
590.005648	0.313113
590.216552	0.313006
590.427437	0.312856
590.638305	0.313274
590.849154	0.314105
591.059985	0.314439
591.270798	0.314646
591.481592	0.315174
591.692369	0.315416
591.903127	0.315473
592.113867	0.315992
592.324588	0.316735
592.535292	0.316639
592.745977	0.316589
592.956644	0.316584
593.167293	0.316325
593.377923	0.316098
593.588536	0.316304
593.799130	0.316338
594.009706	0.316387
594.220263	0.316020
594.430803	0.316179
594.641324	0.316456
594.851827	0.316809
595.062312	0.317342
595.272778	0.317891
595.483227	0.317777
595.693657	0.318447
595.904069	0.318549
596.114462	0.318865
596.324838	0.319376
596.535195	0.319770
596.745534	0.320151
596.955855	0.320306
597.166157	0.320038
597.376441	0.320203
597.586707	0.319872
597.796955	0.320100
598.007185	0.320413
598.217396	0.320433
598.427589	0.320306
598.637764	0.320077
598.847921	0.319940
599.058060	0.320340
599.268180	0.320686
599.478282	0.320880
599.688366	0.320673
599.898431	0.320530
600.108479	0.320790
600.318508	0.321031
600.528519	0.321274
600.738511	0.321631
600.948486	0.321923
601.158442	0.322334
601.368380	0.322673
601.578300	0.323219
601.788202	0.323609
601.998085	0.323548
602.207950	0.323431
602.417797	0.323483
602.627626	0.323950
602.837436	0.323883
603.047228	0.323729
603.257002	0.324025
603.466758	0.323961
603.676496	0.324110
603.886215	0.324267
604.095916	0.324319
604.305599	0.324426
604.515264	0.324506
604.724910	0.324502
604.934538	0.324762
605.144148	0.324799
605.353740	0.325408
605.563314	0.325494
605.772869	0.325472
605.982406	0.325837
606.191925	0.326228
606.401425	0.326574
606.610908	0.327347
606.820372	0.327646
607.029818	0.327556
607.239246	0.327565
607.448655	0.328107
607.658047	0.328246
607.867420	0.328854
608.076775	0.328650
608.286111	0.328749
608.495430	0.328290
608.704730	0.328374
608.914012	0.328612
609.123275	0.328513
609.332521	0.328417
609.541748	0.328873
609.750957	0.328625
609.960148	0.329013
610.169321	0.328800
610.378475	0.329283
610.587611	0.329345
610.796729	0.329210
611.005829	0.329424
611.214910	0.329708
611.423974	0.329604
611.633019	0.329630
611.842045	0.329772
612.051054	0.330152
612.260044	0.330389
612.469017	0.330967
612.677970	0.331614
612.886906	0.332149
613.095824	0.332374
613.304723	0.332794
613.513604	0.333652
613.722467	0.333904
613.931311	0.333841
614.140138	0.333862
614.348946	0.333936
614.557736	0.333734
614.766507	0.333567
614.975261	0.333613
615.183996	0.333734
615.392713	0.333660
615.601412	0.333400
615.810092	0.333830
616.018754	0.333833
616.227399	0.333469
616.436024	0.334183
616.644632	0.334391
616.853222	0.334376
617.061793	0.334371
617.270346	0.334302
617.478880	0.334502
617.687397	0.334587
617.895895	0.334859
618.104375	0.335219
618.312837	0.335139
618.521281	0.335620
618.729706	0.336030
618.938113	0.336159
619.146502	0.336239
619.354873	0.336636
619.563226	0.336790
619.771560	0.336785
619.979876	0.336822
620.188174	0.336732
620.396453	0.336557
620.604715	0.336277
620.812958	0.336552
621.021183	0.336558
621.229390	0.336719
621.437578	0.336756
621.645748	0.336980
621.853900	0.337105
622.062034	0.337120
622.270150	0.337077
622.478247	0.337716
622.686326	0.337819
622.894387	0.338260
623.102430	0.338420
623.310454	0.338752
623.518461	0.338784
623.726449	0.339143
623.934418	0.339659
624.142370	0.340035
624.350303	0.339741
624.558218	0.340035
624.766115	0.340370
624.973994	0.340662
625.181855	0.340808
625.389697	0.340854
625.597521	0.341078
625.805327	0.341482
626.013114	0.341319
626.220883	0.341202
626.428634	0.341193
626.636367	0.341014
626.844082	0.341253
627.051778	0.341161
627.259457	0.341658
627.467117	0.342191
627.674758	0.342251
627.882382	0.342944
628.089987	0.343449
628.297574	0.343589
628.505143	0.344048
628.712694	0.344095
628.920226	0.344543
629.127740	0.344770
629.335236	0.344162
629.542714	0.344452
629.750174	0.344555
629.957615	0.344764
630.165038	0.345171
630.372443	0.345162
630.579829	0.345287
630.787198	0.345534
630.994548	0.345824
631.201880	0.346559
631.409194	0.346738
631.616489	0.346804
631.823766	0.347126
632.031025	0.347112
632.238266	0.347270
632.445489	0.347671
632.652693	0.347782
632.859879	0.347629
633.067047	0.347625
633.274197	0.347608
633.481329	0.347604
633.688442	0.347543
633.895537	0.347959
634.102614	0.348184
634.309672	0.348419
634.516713	0.348418
634.723735	0.348705
634.930739	0.349008
635.137724	0.348937
635.344692	0.349078
635.551641	0.349451
635.758572	0.349340
635.965485	0.349315
636.172379	0.349101
636.379256	0.349439
636.586114	0.349699
636.792954	0.349542
636.999775	0.349775
637.206579	0.350118
637.413364	0.350218
637.620131	0.350645
637.826880	0.351092
638.033610	0.351288
638.240323	0.351215
638.447017	0.351387
638.653692	0.351555
638.860350	0.352144
639.066990	0.352496
639.273611	0.353124
639.480214	0.353305
639.686798	0.353368
639.893365	0.353891
640.099913	0.354404
640.306443	0.354609
640.512955	0.355231
640.719449	0.355383
640.925924	0.355444
641.132381	0.355097
641.338820	0.355608
641.545241	0.355653
641.751644	0.355506
641.958028	0.355696
642.164394	0.355947
642.370742	0.356111
642.577071	0.355816
642.783383	0.355943
642.989676	0.356374
643.195951	0.356261
643.402207	0.356803
643.608446	0.357239
643.814666	0.357550
644.020868	0.357517
644.227052	0.357433
644.433218	0.357977
644.639365	0.358127
644.845494	0.358314
645.051605	0.358715
645.257698	0.358782
645.463772	0.358959
645.669828	0.359055
645.875866	0.359419
646.081886	0.359608
646.287888	0.360207
646.493871	0.360505
646.699836	0.360752
646.905783	0.360678
647.111712	0.361129
647.317622	0.361389
647.523514	0.361559
647.729388	0.361603
647.935244	0.362185
648.141082	0.362086
648.346901	0.362221
648.552702	0.362628
648.758485	0.363012
648.964250	0.362884
649.169996	0.362672
649.375724	0.362779
649.581434	0.362952
649.787126	0.362920
649.992800	0.362735
650.198455	0.363234
650.404092	0.363123
650.609711	0.363106
650.815311	0.363101
651.020894	0.363630
651.226458	0.363992
651.432004	0.364565
651.637532	0.365060
651.843041	0.365516
652.048532	0.365748
652.254006	0.365890
652.459460	0.366446
652.664897	0.366979
652.870315	0.367397
653.075716	0.367815
653.281097	0.368024
653.486461	0.367998
653.691807	0.368034
653.897134	0.368125
654.102443	0.368427
654.307734	0.368252
654.513006	0.368546
654.718261	0.368614
654.923497	0.368359
655.128715	0.368217
655.333915	0.368405
655.539096	0.368727
655.744259	0.368619
655.949404	0.368706
656.154531	0.369219
656.359640	0.369640
656.564730	0.369478
656.769802	0.369980
656.974856	0.370385
657.179892	0.370572
657.384909	0.370966
657.589908	0.371397
657.794889	0.372004
657.999852	0.371995
658.204797	0.372079
658.409723	0.372681
658.614631	0.372528
658.819521	0.372599
659.024393	0.372857
659.229246	0.372966
659.434081	0.373279
659.638898	0.373289
659.843697	0.373552
660.048478	0.373721
660.253240	0.373866
660.457984	0.374248
660.662710	0.374645
660.867417	0.374977
661.072107	0.375397
661.276778	0.375543
661.481431	0.375784
661.686066	0.376075
661.890682	0.376228
662.095281	0.376269
662.299861	0.376585
662.504422	0.376990
662.708966	0.377374
662.913491	0.377575
663.117999	0.377878
663.322488	0.378197
663.526958	0.378355
663.731411	0.378727
663.935845	0.379238
664.140261	0.379660
664.344659	0.379669
664.549038	0.379644
664.753400	0.379843
664.957743	0.379979
665.162068	0.380125
665.366375	0.380409
665.570663	0.380572
665.774933	0.380710
665.979185	0.380776
666.183419	0.381007
666.387635	0.381346
666.591832	0.381411
666.796011	0.381650
667.000172	0.381786
667.204315	0.382040
667.408439	0.382085
667.612545	0.382078
667.816634	0.382408
668.020703	0.382677
668.224755	0.382957
668.428788	0.383069
668.632803	0.383598
668.836800	0.384044
669.040779	0.384326
669.244739	0.384763
669.448681	0.385361
669.652605	0.385591
669.856511	0.386040
670.060399	0.385986
670.264268	0.386176
670.468119	0.385871
670.671952	0.385912
670.875767	0.385992
671.079563	0.386206
671.283341	0.386285
671.487101	0.386503
671.690843	0.386638
671.894567	0.386974
672.098272	0.387571
672.301959	0.387879
672.505628	0.388338
672.709278	0.388803
672.912911	0.389249
673.116525	0.389492
673.320121	0.389698
673.523699	0.390124
673.727258	0.390548
673.930799	0.390844
674.134322	0.391377
674.337827	0.391825
674.541314	0.392085
674.744782	0.392205
674.948232	0.392725
675.151664	0.392841
675.355078	0.392729
675.558474	0.392655
675.761851	0.392476
675.965210	0.392865
676.168551	0.392921
676.371873	0.393211
676.575178	0.393100
676.778464	0.393362
676.981732	0.393638
677.184981	0.394082
677.388213	0.394531
677.591426	0.395121
677.794621	0.395308
677.997798	0.395450
678.200956	0.395585
678.404097	0.396255
678.607219	0.396599
678.810323	0.396987
679.013408	0.397386
679.216476	0.397772
679.419525	0.398041
679.622556	0.398291
679.825569	0.398774
680.028563	0.399128
680.231540	0.399347
680.434498	0.399580
680.637438	0.399829
680.840359	0.400043
681.043263	0.400306
681.246148	0.400709
681.449015	0.400919
681.651864	0.400890
681.854694	0.400983
682.057506	0.400904
682.260301	0.400893
682.463076	0.401111
682.665834	0.400979
682.868573	0.401332
683.071295	0.401357
683.273998	0.401519
683.476682	0.401788
683.679349	0.402104
683.881997	0.402747
684.084627	0.402951
684.287239	0.403164
684.489833	0.403782
684.692408	0.403751
684.894965	0.404034
685.097504	0.404295
685.300025	0.404395
685.502527	0.404768
685.705012	0.404848
685.907478	0.404870
686.109925	0.405038
686.312355	0.405212
686.514766	0.405280
686.717159	0.405711
686.919534	0.406177
687.121891	0.406705
687.324230	0.406829
687.526550	0.406999
687.728852	0.407268
687.931136	0.407419
688.133401	0.407366
688.335649	0.407735
688.537878	0.407376
688.740089	0.407070
688.942281	0.407166
689.144456	0.407015
689.346612	0.406970
689.548750	0.407002
689.750870	0.407208
689.952971	0.407354
690.155055	0.407374
690.357120	0.407977
690.559167	0.408565
690.761195	0.408510
690.963206	0.408971
691.165198	0.409291
691.367172	0.409923
691.569128	0.410086
691.771065	0.410729
691.972984	0.410669
692.174885	0.410825
692.376768	0.411214
692.578633	0.411517
692.780479	0.411565
692.982308	0.411716
693.184118	0.412005
693.385909	0.412313
693.587683	0.412143
693.789438	0.412638
693.991175	0.412746
694.192894	0.412514
694.394595	0.412728
694.596277	0.412810
694.797941	0.413203
694.999587	0.413118
695.201215	0.412890
695.402824	0.413008
695.604416	0.413125
695.805989	0.413152
696.007543	0.413264
696.209080	0.413326
696.410598	0.413781
696.612099	0.413823
696.813580	0.413793
697.015044	0.414285
697.216490	0.414407
697.417917	0.414683
697.619326	0.414697
697.820717	0.415047
698.022089	0.415324
698.223444	0.415199
698.424780	0.415315
698.626098	0.415546
698.827397	0.415297
699.028679	0.415256
699.229942	0.414983
699.431187	0.415243
699.632414	0.415371
699.833622	0.415339
700.034813	0.415603
700.235985	0.415980
700.437139	0.416166
700.638274	0.416722
700.839392	0.417263
701.040491	0.417779
701.241572	0.417979
701.442635	0.417931
701.643679	0.418108
701.844706	0.418072
702.045714	0.417871
702.246704	0.418119
702.447675	0.418167
702.648629	0.418007
702.849564	0.418353
703.050481	0.418285
703.251380	0.418414
703.452260	0.418658
703.653122	0.418714
703.853966	0.418716
704.054792	0.418552
704.255600	0.418603
704.456389	0.418798
704.657160	0.418697
704.857913	0.418818
705.058648	0.418952
705.259365	0.418989
705.460063	0.419230
705.660743	0.419651
705.861405	0.419820
706.062048	0.419912
706.262674	0.420061
706.463281	0.420186
706.663870	0.420309
706.864441	0.420192
707.064993	0.420483
707.265527	0.420527
707.466043	0.420512
707.666541	0.420724
707.867021	0.420913
708.067482	0.421158
708.267925	0.421103
708.468350	0.421274
708.668757	0.421562
708.869145	0.421400
709.069516	0.421519
709.269868	0.421359
709.470201	0.421337
709.670517	0.421277
709.870814	0.421061
710.071093	0.421262
710.271354	0.421404
710.471597	0.421278
710.671821	0.421045
710.872028	0.420884
711.072216	0.421056
711.272385	0.421071
711.472537	0.420833
711.672670	0.420617
711.872785	0.420430
712.072882	0.420242
712.272961	0.420179
712.473021	0.420055
712.673063	0.419954
712.873087	0.419606
713.073093	0.419446
713.273081	0.419434
713.473050	0.419313
713.673001	0.419181
713.872934	0.419005
714.072849	0.418998
714.272745	0.419172
714.472623	0.419281
714.672483	0.419352
714.872325	0.419148
715.072148	0.419419
715.271954	0.419458
715.471741	0.419345
715.671509	0.419312
715.871260	0.418984
716.070992	0.418851
716.270707	0.418888
716.470403	0.418654
716.670080	0.418600
716.869740	0.418317
717.069381	0.418260
717.269004	0.418197
717.468609	0.418312
717.668195	0.418492
717.867764	0.418269
718.067314	0.417958
718.266846	0.418201
718.466360	0.418082
718.665855	0.418071
718.865332	0.417980
719.064791	0.417687
719.264232	0.417582
719.463655	0.417467
719.663059	0.417402
719.862445	0.417537
720.061813	0.417236
720.261163	0.417222
720.460494	0.417262
720.659807	0.417038
720.859102	0.417526
721.058379	0.417500
721.257638	0.417704
721.456878	0.417749
721.656100	0.417459
721.855304	0.417206
722.054490	0.417178
722.253657	0.416879
722.452806	0.416857
722.651937	0.416497
722.851050	0.416304
723.050145	0.416006
723.249221	0.415851
723.448279	0.415589
723.647319	0.415665
723.846340	0.415442
724.045344	0.415346
724.244329	0.415343
724.443296	0.415144
724.642245	0.414796
724.841175	0.414314
725.040088	0.414183
725.238982	0.414337
725.437857	0.414487
725.636715	0.414382
725.835554	0.414631
726.034376	0.414836
726.233179	0.415132
726.431963	0.415232
726.630730	0.415298
726.829478	0.415383
727.028208	0.415268
727.226920	0.414940
727.425614	0.414751
727.624289	0.414257
727.822946	0.413917
728.021585	0.413052
728.220206	0.412844
728.418808	0.412798
728.617392	0.412321
728.815958	0.411961
729.014506	0.411787
729.213036	0.411649
729.411547	0.411603
729.610040	0.411557
729.808515	0.411493
730.006972	0.411187
730.205410	0.410553
730.403831	0.410534
730.602233	0.410242
730.800616	0.410223
730.998982	0.410074
731.197329	0.409531
731.395658	0.408874
731.593969	0.408962
731.792262	0.408772
731.990536	0.408941
732.188793	0.408573
732.387031	0.408513
732.585250	0.407797
732.783452	0.407447
732.981635	0.407408
733.179800	0.407577
733.377947	0.407314
733.576076	0.407123
733.774186	0.406785
733.972278	0.406620
734.170352	0.406549
734.368408	0.406267
734.566446	0.406439
734.764465	0.406234
734.962466	0.405911
735.160449	0.405486
735.358413	0.405267
735.556360	0.405001
735.754288	0.405070
735.952198	0.404707
736.150090	0.404785
736.347963	0.404219
736.545818	0.403898
736.743655	0.403736
736.941474	0.403806
737.139275	0.403599
737.337057	0.403203
737.534821	0.402805
737.732567	0.402716
737.930295	0.402306
738.128005	0.402329
738.325696	0.402077
738.523369	0.401654
738.721024	0.401328
738.918660	0.401015
739.116279	0.401005
739.313879	0.400753
739.511461	0.400558
739.709024	0.400684
739.906570	0.400331
740.104097	0.400287
740.301606	0.399919
740.499097	0.399357
740.696569	0.399273
740.894024	0.399181
741.091460	0.399019
741.288878	0.398291
741.486277	0.397667
741.683659	0.397189
741.881022	0.396661
742.078367	0.396298
742.275694	0.396218
742.473002	0.395930
742.670293	0.395599
742.867565	0.395188
743.064819	0.395016
743.262054	0.395061
743.459272	0.394871
743.656471	0.394582
743.853652	0.394747
744.050815	0.394587
744.247959	0.393966
744.445085	0.393509
744.642194	0.393425
744.839283	0.393288
745.036355	0.392750
745.233408	0.392625
745.430444	0.392271
745.627461	0.391682
745.824459	0.391094
746.021440	0.390815
746.218402	0.390716
746.415346	0.390361
746.612272	0.389998
746.809180	0.389768
747.006069	0.389379
747.202940	0.389062
747.399793	0.388861
747.596628	0.388920
747.793444	0.388816
747.990243	0.388194
748.187023	0.388051
748.383784	0.387971
748.580528	0.387801
748.777253	0.387851
748.973960	0.387871
749.170649	0.387577
749.367320	0.387398
749.563973	0.387187
749.760607	0.387462
749.957223	0.387153
750.153821	0.386919
750.350400	0.386569
750.546962	0.386049
750.743505	0.385941
750.940030	0.385803
751.136536	0.385396
751.333025	0.385175
751.529495	0.384729
751.725947	0.384438
751.922381	0.384153
752.118796	0.384054
752.315194	0.383832
752.511573	0.383619
752.707934	0.383190
752.904276	0.383178
753.100601	0.383233
753.296907	0.383219
753.493195	0.383248
753.689465	0.383333
753.885716	0.383362
754.081949	0.383457
754.278164	0.383268
754.474361	0.383104
754.670540	0.383045
754.866700	0.382815
755.062843	0.382760
755.258967	0.382276
755.455072	0.381991
755.651160	0.381825
755.847229	0.381475
756.043280	0.381431
756.239313	0.381556
756.435328	0.381253
756.631324	0.380859
756.827302	0.380772
757.023262	0.380691
757.219204	0.380328
757.415127	0.379627
757.611033	0.379297
757.806920	0.378968
758.002788	0.378767
758.198639	0.378409
758.394471	0.378028
758.590286	0.377483
758.786081	0.377038
758.981859	0.376740
759.177619	0.377087
759.373360	0.377064
759.569083	0.376744
759.764788	0.376620
759.960474	0.376466
760.156143	0.376587
760.351793	0.376182
760.547425	0.376245
760.743038	0.375911
760.938634	0.375628
761.134211	0.375551
761.329770	0.375415
761.525311	0.374868
761.720833	0.374702
761.916338	0.374207
762.111824	0.374226
762.307292	0.373922
762.502741	0.374023
762.698173	0.373638
762.893586	0.373322
763.088981	0.373259
763.284358	0.373447
763.479716	0.373087
763.675057	0.373231
763.870379	0.373015
764.065683	0.372901
764.260968	0.372859
764.456236	0.372681
764.651485	0.372474
764.846716	0.372249
765.041929	0.372180
765.237123	0.372413
765.432299	0.372457
765.627457	0.372380
765.822597	0.372354
766.017719	0.372179
766.212822	0.372109
766.407907	0.371968
766.602974	0.371901
766.798023	0.371733
766.993054	0.371273
767.188066	0.370887
767.383060	0.370870
767.578036	0.370974
767.772993	0.370732
767.967933	0.370501
768.162854	0.370688
768.357757	0.370781
768.552642	0.370647
768.747508	0.370655
768.942356	0.370652
769.137186	0.370653
769.331998	0.370458
769.526792	0.370308
769.721567	0.370485
769.916324	0.370060
770.111063	0.369870
770.305784	0.369709
770.500486	0.369593
770.695171	0.369257
770.889837	0.369047
771.084484	0.368755
771.279114	0.368532
771.473725	0.368292
771.668318	0.368267
771.862893	0.367841
772.057450	0.367508
772.251988	0.367414
772.446509	0.367708
772.641011	0.367536
772.835494	0.367394
773.029960	0.367752
773.224407	0.367536
773.418836	0.367531
773.613247	0.367678
773.807640	0.367801
774.002014	0.367783
774.196370	0.367329
774.390708	0.367665
774.585028	0.367689
774.779330	0.367419
774.973613	0.367450
775.167878	0.367069
775.362125	0.366887
775.556354	0.366984
775.750564	0.366812
775.944756	0.366658
776.138930	0.366396
776.333086	0.365888
776.527223	0.365568
776.721343	0.365762
776.915444	0.365802
777.109526	0.365913
777.303591	0.365780
777.497637	0.365627
777.691666	0.365918
777.885676	0.365802
778.079667	0.366175
778.273641	0.366432
778.467596	0.366435
778.661533	0.366939
778.855452	0.367019
779.049352	0.367221
779.243235	0.367625
779.437099	0.367878
779.630945	0.367851
779.824773	0.368042
780.018582	0.368217
780.212373	0.368194
780.406146	0.368018
780.599901	0.367969
780.793638	0.367753
780.987356	0.367689
781.181056	0.367606
781.374738	0.367733
781.568402	0.367909
781.762047	0.368211
781.955674	0.368135
782.149283	0.368271
782.342874	0.368523
782.536447	0.368675
782.730001	0.368656
782.923537	0.368834
783.117055	0.368894
783.310555	0.368734
783.504036	0.368315
783.697499	0.368570
783.890944	0.368497
784.084371	0.368227
784.277780	0.368252
784.471170	0.368606
784.664542	0.368516
784.857896	0.368536
785.051231	0.368716
785.244549	0.368760
785.437848	0.368755
785.631129	0.368867
785.824392	0.369247
786.017636	0.369524
786.210863	0.369390
786.404071	0.369621
786.597260	0.369886
786.790432	0.369768
786.983585	0.370266
787.176721	0.370395
787.369838	0.370667
787.562936	0.370474
787.756017	0.370503
787.949079	0.370665
788.142123	0.370738
788.335149	0.370938
788.528156	0.371171
788.721146	0.371261
788.914117	0.371361
789.107070	0.371165
789.300005	0.371323
789.492921	0.371374
789.685819	0.371488
789.878699	0.371659
790.071561	0.371822
790.264405	0.371918
790.457230	0.371983
790.650037	0.371960
790.842826	0.372228
791.035597	0.372580
791.228349	0.372753
791.421084	0.373288
791.613800	0.373228
791.806497	0.373509
791.999177	0.373960
792.191838	0.374034
792.384481	0.374608
792.577106	0.374858
792.769713	0.374933
792.962301	0.375384
793.154871	0.375289
793.347423	0.375957
793.539957	0.375906
793.732473	0.376037
793.924970	0.376283
794.117449	0.376121
794.309910	0.376175
794.502353	0.376418
794.694777	0.376389
794.887183	0.376498
795.079571	0.376311
795.271941	0.376447
795.464293	0.376482
795.656626	0.376715
795.848941	0.376906
796.041238	0.377293
796.233516	0.377327
796.425777	0.377794
796.618019	0.378223
796.810243	0.378559
797.002449	0.378902
797.194636	0.379544
797.386805	0.379660
797.578956	0.380283
797.771089	0.380868
797.963204	0.381422
798.155300	0.381622
798.347378	0.381789
798.539438	0.381660
798.731480	0.381796
798.923503	0.381741
799.115509	0.382052
799.307496	0.382237
799.499465	0.382107
799.691415	0.382150
799.883348	0.382042
800.075262	0.382446
800.267158	0.383177
800.459035	0.383478
800.650895	0.383724
800.842736	0.384084
801.034559	0.384486
801.226364	0.384888
801.418150	0.385076
801.609919	0.385602
801.801669	0.385427
801.993401	0.385593
802.185114	0.385732
802.376810	0.385827
802.568487	0.385780
802.760146	0.385512
802.951787	0.385867
803.143409	0.386500
803.335014	0.386856
803.526600	0.387473
803.718168	0.387637
803.909717	0.387784
804.101249	0.388081
804.292762	0.388748
804.484257	0.389485
804.675734	0.389614
804.867192	0.389558
805.058632	0.389657
805.250054	0.389541
805.441458	0.389843
805.632844	0.390289
805.824211	0.390662
806.015561	0.390955
806.206891	0.391256
806.398204	0.391890
806.589499	0.392400
806.780775	0.392487
806.972033	0.393278
807.163273	0.393497
807.354495	0.394001
807.545698	0.394406
807.736883	0.394899
807.928050	0.395110
808.119199	0.395258
808.310329	0.395709
808.501441	0.396363
808.692535	0.396729
808.883611	0.397431
809.074669	0.398013
809.265708	0.398467
809.456729	0.398642
809.647732	0.399209
809.838717	0.399745
810.029683	0.400262
810.220632	0.400730
810.411562	0.401213
810.602474	0.401438
810.793367	0.401819
810.984242	0.402217
811.175100	0.402830
811.365938	0.403219
811.556759	0.403628
811.747562	0.404108
811.938346	0.404744
812.129112	0.405180
812.319860	0.405930
812.510589	0.406036
812.701300	0.406527
812.891994	0.406835
813.082668	0.407221
813.273325	0.407396
813.463964	0.407681
813.654584	0.407867
813.845186	0.408240
814.035769	0.408212
814.226335	0.408614
814.416882	0.408938
814.607411	0.409196
814.797922	0.409310
814.988415	0.409732
815.178889	0.410025
815.369345	0.410351
815.559783	0.410427
815.750203	0.410707
815.940605	0.410978
816.130988	0.411376
816.321353	0.411704
816.511700	0.412268
816.702028	0.412467
816.892339	0.412853
817.082631	0.413404
817.272905	0.414154
817.463161	0.415088
817.653398	0.415331
817.843617	0.415612
818.033819	0.416164
818.224001	0.416428
818.414166	0.416969
818.604312	0.417598
818.794440	0.417994
818.984550	0.418225
819.174642	0.418732
819.364716	0.419643
819.554771	0.420231
819.744808	0.420877
819.934827	0.421833
820.124827	0.422520
820.314810	0.422922
820.504774	0.423434
820.694720	0.423611
820.884647	0.423590
821.074557	0.424323
821.264448	0.424814
821.454321	0.425713
821.644176	0.425887
821.834012	0.426521
822.023831	0.427018
822.213631	0.426980
822.403413	0.427850
822.593176	0.428504
822.782922	0.428905
822.972649	0.429343
823.162358	0.429327
823.352049	0.429660
823.541721	0.429706
823.731376	0.430385
823.921012	0.431468
824.110629	0.431893
824.300229	0.432537
824.489811	0.432736
824.679374	0.433630
824.868919	0.434086
825.058445	0.434835
825.247954	0.435482
825.437444	0.435985
825.626916	0.436253
825.816370	0.436876
826.005806	0.437566
826.195223	0.438384
826.384622	0.438462
826.574003	0.439121
826.763366	0.439696
826.952711	0.440301
827.142037	0.440556
827.331345	0.441145
827.520635	0.441875
827.709906	0.442274
827.899160	0.442808
828.088395	0.444023
828.277612	0.444417
828.466810	0.444840
828.655991	0.445184
828.845153	0.445814
829.034297	0.446311
829.223423	0.446739
829.412531	0.447313
829.601620	0.447984
829.790691	0.447889
829.979744	0.448428
830.168779	0.449224
830.357795	0.450067
830.546793	0.450683
830.735773	0.451414
830.924735	0.451805
831.113679	0.452312
831.302604	0.452533
831.491511	0.453074
831.680400	0.453802
831.869271	0.454313
832.058123	0.454846
832.246957	0.455469
832.435773	0.456120
832.624571	0.457269
832.813351	0.457841
833.002112	0.458468
833.190855	0.459114
833.379580	0.459510
833.568287	0.459831
833.756975	0.460083
833.945645	0.460990
834.134297	0.461417
834.322931	0.461499
834.511547	0.462308
834.700144	0.462847
834.888723	0.463496
835.077284	0.464151
835.265826	0.464667
835.454351	0.465651
835.642857	0.465656
835.831345	0.466483
836.019815	0.466855
836.208266	0.466807
836.396699	0.467383
836.585114	0.467944
836.773511	0.468818
836.961890	0.469570
837.150250	0.470247
837.338592	0.470865
837.526916	0.471547
837.715222	0.471991
837.903510	0.472941
838.091779	0.473414
838.280030	0.474010
838.468263	0.474408
838.656477	0.475135
838.844674	0.475991
839.032852	0.476503
839.221012	0.476704
839.409153	0.477296
839.597277	0.477857
839.785382	0.478505
839.973469	0.479587
840.161538	0.480212
840.349589	0.480733
840.537621	0.480673
840.725635	0.481502
840.913631	0.482000
841.101609	0.482756
841.289568	0.483296
841.477509	0.484128
841.665432	0.484783
841.853337	0.485356
842.041224	0.486275
842.229092	0.487319
842.416942	0.487644
842.604774	0.488263
842.792588	0.489253
842.980383	0.490309
843.168160	0.490885
843.355919	0.490782
843.543660	0.491573
843.731382	0.491647
843.919087	0.492038
844.106773	0.492799
844.294441	0.493186
844.482090	0.493382
844.669722	0.493505
844.857335	0.493822
845.044930	0.494273
845.232507	0.494250
845.420065	0.494992
845.607605	0.495445
845.795127	0.496063
845.982631	0.496856
846.170117	0.497776
846.357584	0.498359
846.545033	0.499248
846.732464	0.500197
846.919877	0.500893
847.107272	0.501644
847.294648	0.502402
847.482006	0.502821
847.669346	0.503868
847.856667	0.504264
848.043971	0.504868
848.231256	0.505337
848.418523	0.505795
848.605771	0.506502
848.793002	0.506806
848.980214	0.506964
849.167408	0.507492
849.354584	0.507851
849.541742	0.508906
849.728881	0.509315
849.916002	0.510158
850.103105	0.511057
850.290190	0.511879
850.477256	0.512611
850.664304	0.513641
850.851334	0.514388
851.038346	0.515077
851.225340	0.515394
851.412315	0.516302
851.599272	0.516671
851.786211	0.517331
851.973132	0.517787
852.160034	0.518307
852.346918	0.518919
852.533784	0.519593
852.720632	0.520190
852.907462	0.520867
853.094273	0.521573
853.281066	0.521855
853.467841	0.522374
853.654598	0.522944
853.841336	0.523939
854.028056	0.524213
854.214758	0.524348
854.401442	0.524805
854.588107	0.525183
854.774755	0.525688
854.961384	0.526274
855.147995	0.526088
855.334587	0.526562
855.521162	0.526634
855.707718	0.527251
855.894256	0.528064
856.080775	0.528304
856.267277	0.528945
856.453760	0.529274
856.640225	0.530111
856.826672	0.531513
857.013101	0.532038
857.199511	0.532654
857.385903	0.532863
857.572277	0.533780
857.758633	0.534731
857.944970	0.535227
858.131290	0.535730
858.317591	0.536121
858.503873	0.535871
858.690138	0.536879
858.876384	0.537049
859.062612	0.538229
859.248822	0.538176
859.435014	0.538502
859.621188	0.538839
859.807343	0.539719
859.993480	0.540653
860.179599	0.542345
860.365699	0.542624
860.551781	0.543893
860.737846	0.544075
860.923891	0.545232
861.109919	0.545967
861.295929	0.546437
861.481920	0.546628
861.667893	0.546868
861.853848	0.547035
862.039784	0.547473
862.225702	0.547871
862.411603	0.548336
862.597484	0.548263
862.783348	0.548698
862.969193	0.549441
863.155021	0.550180
863.340830	0.551109
863.526620	0.551712
863.712393	0.552412
863.898147	0.552940
864.083883	0.553569
864.269601	0.554049
864.455301	0.554587
864.640982	0.554955
864.826645	0.555067
865.012290	0.555209
865.197917	0.555559
865.383526	0.555811
865.569116	0.556775
865.754688	0.557283
865.940242	0.557884
866.125777	0.557918
866.311295	0.558589
866.496794	0.559528
866.682275	0.559889
866.867737	0.560134
867.053182	0.560542
867.238608	0.560267
867.424016	0.560309
867.609406	0.561059
867.794778	0.561596
867.980131	0.561756
868.165466	0.561943
868.350783	0.562491
868.536082	0.562601
868.721362	0.563381
868.906625	0.563615
869.091869	0.564299
869.277094	0.564892
869.462302	0.565870
869.647491	0.566569
869.832662	0.566939
870.017815	0.567242
870.202950	0.568233
870.388066	0.568235
870.573165	0.569301
870.758245	0.570190
870.943306	0.570209
871.128350	0.569995
871.313375	0.570115
871.498382	0.570471
871.683371	0.571124
871.868342	0.571618
872.053294	0.572134
872.238229	0.571782
872.423144	0.571854
872.608042	0.572254
872.792922	0.572633
872.977783	0.572849
873.162626	0.573619
873.347451	0.574093
873.532258	0.573651
873.717046	0.573554
873.901816	0.573936
874.086568	0.574049
874.271302	0.574352
874.456017	0.574750
874.640715	0.575184
874.825394	0.574920
875.010055	0.574696
875.194697	0.574885
875.379322	0.575811
875.563928	0.576453
875.748516	0.576563
875.933085	0.576681
876.117637	0.577032
876.302170	0.578143
876.486685	0.579007
876.671182	0.579093
876.855661	0.579564
877.040121	0.579834
877.224563	0.580247
877.408987	0.580886
877.593393	0.581680
877.777780	0.582204
877.962150	0.581695
878.146501	0.581257
878.330833	0.581406
878.515148	0.581597
878.699444	0.582276
878.883722	0.582593
879.067982	0.583071
879.252224	0.583238
879.436447	0.583180
879.620653	0.583696
879.804840	0.584716
879.989008	0.585296
880.173159	0.585908
880.357291	0.586225
880.541405	0.586561
880.725501	0.586498
880.909579	0.586840
881.093638	0.586952
881.277680	0.587219
881.461703	0.586918
881.645707	0.587417
881.829694	0.587695
882.013662	0.587382
882.197612	0.587337
882.381544	0.587660
882.565458	0.587638
882.749353	0.587819
882.933230	0.588654
883.117089	0.589336
883.300930	0.588605
883.484753	0.588944
883.668557	0.588330
883.852343	0.587925
884.036111	0.588032
884.219861	0.587688
884.403592	0.588360
884.587305	0.587140
884.771000	0.586564
884.954677	0.586517
885.138335	0.586210
885.321976	0.586967
885.505598	0.587072
885.689201	0.587106
885.872787	0.587211
886.056354	0.586893
886.239904	0.586993
886.423434	0.587058
886.606947	0.587974
886.790442	0.587767
886.973918	0.587744
887.157376	0.587694
887.340816	0.587659
887.524237	0.587410
887.707641	0.587064
887.891026	0.587258
888.074393	0.587632
888.257741	0.587237
888.441072	0.587022
888.624384	0.586113
888.807678	0.586297
888.990954	0.586409
889.174211	0.586210
889.357451	0.586460
889.540672	0.586475
889.723875	0.585948
889.907059	0.586143
890.090226	0.586108
890.273374	0.586806
890.456504	0.586894
890.639616	0.586712
890.822709	0.587640
891.005785	0.586782
891.188842	0.586312
891.371881	0.586278
891.554901	0.585500
891.737904	0.585567
891.920888	0.585719
892.103854	0.585458
892.286802	0.585489
892.469731	0.584164
892.652643	0.584713
892.835536	0.585139
893.018410	0.585174
893.201267	0.585826
893.384106	0.586775
893.566926	0.586066
893.749728	0.585836
893.932511	0.585268
894.115277	0.586340
894.298024	0.586105
894.480753	0.586489
894.663464	0.585854
894.846157	0.585839
895.028831	0.585166
895.211487	0.585521
895.394125	0.586035
895.576745	0.586535
895.759346	0.586384
895.941930	0.586378
896.124495	0.585399
896.307041	0.586033
896.489570	0.585485
896.672080	0.585485
896.854573	0.585359
897.037046	0.584857
897.219502	0.584184
897.401940	0.583944
897.584359	0.583359
897.766760	0.583598
897.949143	0.584017
898.131507	0.583637
898.313854	0.583266
898.496182	0.582937
898.678492	0.581858
898.860783	0.581847
899.043057	0.581245
899.225312	0.581668
899.407549	0.581010
899.589768	0.579882
899.771968	0.579699
899.954151	0.578654
900.136315	0.578643
900.318461	0.578762
900.500588	0.577707
900.682698	0.577748
900.864789	0.577159
901.046862	0.576871
901.228917	0.576198
901.410953	0.576051
901.592971	0.576655
901.774972	0.575411
901.956953	0.574887
902.138917	0.575269
902.320862	0.574418
902.502790	0.573510
902.684699	0.573467
902.866589	0.573622
903.048462	0.572900
903.230316	0.572372
903.412152	0.572278
903.593970	0.572375
903.775770	0.571950
903.957551	0.571440
904.139314	0.570999
904.321059	0.570158
904.502786	0.569917
904.684494	0.569321
904.866185	0.568525
905.047857	0.567879
905.229510	0.566757
905.411146	0.566088
905.592763	0.565600
905.774363	0.565775
905.955943	0.564778
906.137506	0.563857
906.319051	0.563283
906.500577	0.562774
906.682085	0.563103
906.863575	0.563294
907.045046	0.562878
907.226500	0.562109
907.407935	0.561950
907.589352	0.562255
907.770750	0.561586
907.952131	0.561476
908.133493	0.560962
908.314837	0.559717
908.496163	0.558429
908.677470	0.557533
908.858760	0.557110
909.040031	0.555411
909.221284	0.554398
909.402518	0.553782
909.583735	0.553711
909.764933	0.552959
909.946113	0.552331
910.127275	0.552248
910.308418	0.551293
910.489544	0.551020
910.670651	0.551287
910.851740	0.550587
911.032810	0.550241
911.213863	0.549260
911.394897	0.548543
911.575913	0.547520
911.756911	0.546393
911.937890	0.546687
912.118851	0.546049
912.299794	0.544783
912.480719	0.544348
912.661626	0.543553
912.842514	0.543061
913.023384	0.541840
913.204236	0.541726
913.385070	0.541727
913.565886	0.541003
913.746683	0.540270
913.927462	0.539950
914.108223	0.538997
914.288965	0.538063
914.469690	0.537361
914.650396	0.536564
914.831084	0.534774
915.011754	0.533544
915.192405	0.532525
915.373038	0.530884
915.553653	0.529392
915.734250	0.527520
915.914829	0.526774
916.095389	0.525610
916.275931	0.525362
916.456455	0.525649
916.636961	0.524541
916.817448	0.523167
916.997917	0.522690
917.178368	0.522339
917.358801	0.522653
917.539216	0.521281
917.719612	0.519757
917.899990	0.519146
918.080350	0.518069
918.260692	0.517932
918.441015	0.517221
918.621320	0.516829
918.801607	0.515717
918.981876	0.515533
919.162127	0.515459
919.342359	0.514592
919.522573	0.513785
919.702769	0.512656
919.882947	0.511212
920.063106	0.510962
920.243247	0.509558
920.423370	0.509300
920.603475	0.507116
920.783562	0.506436
920.963630	0.505873
921.143680	0.504328
921.323712	0.503220
921.503725	0.502687
921.683721	0.501272
921.863698	0.499794
922.043657	0.498877
922.223598	0.498399
922.403520	0.497246
922.583424	0.496364
922.763311	0.496031
922.943178	0.494834
923.123028	0.494419
923.302859	0.492583
923.482673	0.492700
923.662467	0.491126
923.842244	0.490121
924.022003	0.489037
924.201743	0.487613
924.381465	0.486264
924.561169	0.485694
924.740854	0.484183
924.920522	0.483572
925.100171	0.481936
925.279802	0.480722
925.459414	0.479863
925.639009	0.478357
925.818585	0.478043
925.998143	0.476224
926.177683	0.474603
926.357205	0.473181
926.536708	0.472595
926.716193	0.471269
926.895660	0.470381
927.075109	0.468072
927.254539	0.466733
927.433951	0.465257
927.613345	0.464709
927.792721	0.463726
927.972079	0.462581
928.151418	0.460950
928.330739	0.460328
928.510042	0.459828
928.689327	0.460147
928.868593	0.460318
929.047841	0.458630
929.227071	0.457611
929.406283	0.456747
929.585476	0.455916
929.764652	0.455210
929.943809	0.454385
930.122948	0.451277
930.302068	0.449125
930.481171	0.445992
930.660255	0.445596
930.839321	0.444307
931.018369	0.443135
931.197398	0.441838
931.376409	0.441060
931.555402	0.439279
931.734377	0.439263
931.913334	0.437897
932.092272	0.436591
932.271192	0.435506
932.450094	0.433641
932.628978	0.432262
932.807844	0.430496
932.986691	0.427584
933.165520	0.427050
933.344331	0.426006
933.523123	0.424824
933.701898	0.425205
933.880654	0.423705
934.059392	0.421989
934.238111	0.420442
934.416813	0.419545
934.595496	0.418628
934.774161	0.416933
934.952808	0.415951
935.131437	0.415408
935.310047	0.413012
935.488639	0.412025
935.667213	0.410961
935.845769	0.410245
936.024306	0.408102
936.202825	0.407035
936.381326	0.406887
936.559809	0.404930
936.738274	0.403123
936.916720	0.402146
937.095148	0.400600
937.273558	0.399359
937.451950	0.397507
937.630323	0.398168
937.808678	0.396082
937.987015	0.392268
938.165334	0.391012
938.343635	0.391094
938.521917	0.390438
938.700181	0.388800
938.878427	0.388403
939.056655	0.387365
939.234864	0.383619
939.413055	0.382613
939.591228	0.383150
939.769383	0.381979
939.947519	0.378841
940.125638	0.376132
940.303738	0.373960
940.481820	0.371880
940.659883	0.368921
940.837929	0.367163
941.015956	0.366341
941.193965	0.364045
941.371955	0.361872
941.549928	0.360401
941.727882	0.359154
941.905818	0.358126
942.083736	0.357382
942.261636	0.356662
942.439517	0.355950
942.617380	0.355110
942.795225	0.352305
942.973052	0.350809
943.150860	0.349252
943.328651	0.347534
943.506423	0.346262
943.684176	0.343406
943.861912	0.341309
944.039629	0.339555
944.217328	0.337679
944.395009	0.337852
944.572672	0.335406
944.750317	0.334376
944.927943	0.332926
945.105551	0.330164
945.283141	0.329839
945.460712	0.329429
945.638265	0.327660
945.815801	0.326041
945.993317	0.323226
946.170816	0.321763
946.348297	0.320096
946.525759	0.317373
946.703203	0.317012
946.880629	0.314253
947.058036	0.312685
947.235425	0.311237
947.412797	0.308280
947.590149	0.306342
947.767484	0.305528
947.944800	0.305301
948.122099	0.304981
948.299379	0.302538
948.476640	0.300782
948.653884	0.300081
948.831109	0.298163
949.008316	0.297618
949.185505	0.295391
949.362676	0.292112
949.539828	0.287056
949.716962	0.285579
949.894078	0.286664
950.071176	0.287198
950.248256	0.285144
950.425317	0.282634
950.602360	0.281038
950.779385	0.280909
950.956391	0.278833
951.133380	0.280420
951.310350	0.278111
951.487302	0.274998
951.664235	0.270155
951.841151	0.268253
952.018048	0.266996
952.194927	0.265875
952.371788	0.264121
952.548631	0.265705
952.725455	0.262327
952.902261	0.262616
953.079049	0.262598
953.255819	0.263454
953.432570	0.262146
953.609303	0.263901
953.786018	0.261088
953.962715	0.261421
954.139394	0.261047
954.316054	0.259634
954.492696	0.255554
954.669320	0.248644
954.845926	0.247417
955.022513	0.247191
955.199083	0.243621
955.375634	0.241148
955.552166	0.240003
955.728681	0.235712
955.905177	0.234734
956.081655	0.233464
956.258115	0.235880
956.434557	0.233752
956.610980	0.230217
956.787385	0.228226
956.963772	0.230883
957.140141	0.228386
957.316492	0.227756
957.492824	0.229919
957.669138	0.230152
957.845434	0.228297
958.021712	0.228473
958.197971	0.228363
958.374212	0.232092
958.550435	0.230476
958.726640	0.229724
958.902826	0.230633
959.078995	0.224476
959.255145	0.226407
959.431277	0.224961
959.607390	0.224024
959.783486	0.224497
959.959563	0.219137
960.135622	0.219546
960.311662	0.217905
960.487685	0.216006
960.663689	0.217454
960.839675	0.216502
961.015643	0.216111
961.191593	0.214803
961.367524	0.212765
961.543437	0.213933
961.719332	0.209303
961.895209	0.211194
962.071067	0.213088
962.246907	0.214243
962.422730	0.212435
962.598533	0.212214
962.774319	0.210729
962.950086	0.211754
963.125835	0.211286
963.301566	0.213478
963.477279	0.211116
963.652973	0.209502
963.828650	0.206499
964.004308	0.204599
964.179947	0.206306
964.355569	0.205738
964.531172	0.204864
964.706757	0.202778
964.882324	0.201014
965.057873	0.199767
965.233403	0.198538
965.408916	0.198754
965.584410	0.200297
965.759885	0.199404
965.935343	0.201081
966.110782	0.201496
966.286203	0.203589
966.461606	0.201917
966.636991	0.202410
966.812357	0.202689
966.987705	0.203504
967.163035	0.201231
967.338347	0.199775
967.513641	0.197670
967.688916	0.195241
967.864173	0.192103
968.039412	0.194882
968.214632	0.193797
968.389835	0.192600
968.565019	0.193579
968.740185	0.192797
968.915333	0.191241
969.090462	0.191535
969.265573	0.193100
969.440667	0.193902
969.615741	0.193241
969.790798	0.194244
969.965836	0.196601
970.140856	0.195780
970.315858	0.196730
970.490842	0.195573
970.665808	0.196330
970.840755	0.196151
971.015684	0.197757
971.190595	0.197089
971.365487	0.197324
971.540362	0.195403
971.715218	0.194543
971.890056	0.197448
972.064875	0.199154
972.239677	0.197728
972.414460	0.195552
972.589225	0.193093
972.763972	0.193561
972.938700	0.194627
973.113411	0.195562
973.288103	0.195749
973.462777	0.190540
973.637432	0.191731
973.812070	0.193414
973.986689	0.193452
974.161290	0.194891
974.335873	0.194803
974.510437	0.192611
974.684984	0.193699
974.859512	0.193476
975.034022	0.196283
975.208513	0.195455
975.382987	0.194683
975.557442	0.195777
975.731879	0.194549
975.906298	0.192853
976.080698	0.195546
976.255080	0.190623
976.429445	0.190377
976.603790	0.188600
976.778118	0.191250
976.952427	0.188744
977.126719	0.191092
977.300992	0.190239
977.475246	0.191038
977.649483	0.191051
977.823701	0.192983
977.997901	0.194099
978.172083	0.195496
978.346247	0.194821
978.520392	0.199681
978.694519	0.196458
978.868628	0.197208
979.042719	0.196087
979.216791	0.195054
979.390845	0.195817
979.564882	0.197243
979.738899	0.195680
979.912899	0.194089
980.086880	0.191388
980.260843	0.192843
980.434788	0.195074
980.608715	0.195258
980.782623	0.193068
980.956514	0.191769
981.130386	0.188695
981.304240	0.189239
981.478075	0.189446
981.651892	0.188902
981.825692	0.190094
981.999472	0.189476
982.173235	0.191708
982.346980	0.193483
982.520706	0.195474
982.694414	0.194235
982.868104	0.193930
983.041775	0.194181
983.215428	0.195551
983.389064	0.194666
983.562680	0.193614
983.736279	0.190609
983.909860	0.189628
984.083422	0.188575
984.256966	0.192917
984.430491	0.193121
984.603999	0.191948
984.777488	0.192781
984.950959	0.189945
985.124412	0.193899
985.297847	0.196107
985.471263	0.197680
985.644661	0.200162
985.818041	0.197551
985.991403	0.198517
986.164747	0.198771
986.338072	0.196925
986.511379	0.199668
986.684668	0.197057
986.857938	0.195941
987.031191	0.193920
987.204425	0.192975
987.377641	0.195179
987.550839	0.196471
987.724018	0.199253
987.897179	0.200116
988.070322	0.197653
988.243447	0.197777
988.416554	0.198180
988.589642	0.198728
988.762712	0.197486
988.935764	0.196137
989.108798	0.194397
989.281813	0.193924
989.454811	0.192321
989.627790	0.190964
989.800751	0.190218
989.973693	0.192137
990.146617	0.192535
990.319524	0.193020
990.492412	0.194552
990.665281	0.194024
990.838133	0.191606
991.010966	0.193211
991.183781	0.197775
991.356578	0.196442
991.529356	0.195594
991.702117	0.196606
991.874859	0.195840
992.047583	0.192829
992.220288	0.195392
992.392976	0.196862
992.565645	0.199637
992.738296	0.198751
992.910929	0.200217
993.083543	0.198590
993.256139	0.198766
993.428718	0.202197
993.601277	0.201255
993.773819	0.199317
993.946342	0.199986
994.118848	0.196208
994.291335	0.194936
994.463803	0.193732
994.636254	0.194125
994.808686	0.195154
994.981100	0.191528
995.153496	0.192844
995.325874	0.193481
995.498233	0.192976
995.670574	0.194042
995.842897	0.195604
996.015202	0.197350
996.187488	0.199674
996.359757	0.194648
996.532007	0.195620
996.704239	0.196517
996.876452	0.194559
997.048648	0.195209
997.220825	0.195472
997.392984	0.196602
997.565124	0.196550
997.737247	0.194358
997.909351	0.197827
998.081437	0.195214
998.253505	0.195072
998.425554	0.195374
998.597586	0.195403
998.769599	0.193641
998.941594	0.192276
999.113571	0.193133
999.285529	0.194279
999.457469	0.191564
999.629391	0.195064
999.801295	0.196543
999.973181	0.197628
1000.145048	0.194380
1000.316897	0.193918
1000.488728	0.193231
1000.660541	0.192181
1000.832335	0.191890
1001.004111	0.193814
1001.175869	0.193259
1001.347609	0.190330
1001.519331	0.189092
1001.691034	0.189426
1001.862719	0.192185
1002.034386	0.191970
1002.206035	0.191966
1002.377665	0.192038
1002.549277	0.192307
1002.720871	0.193718
1002.892447	0.195713
1003.064004	0.199044
1003.235544	0.198396
1003.407065	0.197631
1003.578568	0.198787
1003.750052	0.199303
1003.921519	0.198486
1004.092967	0.196862
1004.264397	0.195522
1004.435809	0.192832
1004.607202	0.190748
1004.778577	0.195309
1004.949934	0.194397
1005.121273	0.194258
1005.292594	0.194258
1005.463896	0.194332
1005.635180	0.197521
1005.806446	0.196411
1005.977694	0.197217
1006.148923	0.196627
1006.320135	0.194359
1006.491328	0.194802
1006.662503	0.193827
1006.833659	0.193917
1007.004798	0.193865
1007.175918	0.191715
1007.347020	0.192925
1007.518103	0.194209
1007.689169	0.194133
1007.860216	0.192560
1008.031245	0.194402
1008.202256	0.194736
1008.373248	0.196849
1008.544223	0.196360
1008.715179	0.197829
1008.886117	0.200356
1009.057036	0.201130
1009.227938	0.201199
1009.398821	0.201633
1009.569686	0.200925
1009.740533	0.201639
1009.911361	0.200529
1010.082172	0.202120
1010.252964	0.202081
1010.423738	0.198826
1010.594493	0.198733
1010.765231	0.200922
1010.935950	0.202114
1011.106651	0.202611
1011.277334	0.204414
1011.447998	0.202631
1011.618645	0.202009
1011.789273	0.200620
1011.959882	0.201365
1012.130474	0.199599
1012.301048	0.198463
1012.471603	0.199075
1012.642140	0.199344
1012.812658	0.198499
1012.983159	0.197415
1013.153641	0.197689
1013.324105	0.197280
1013.494551	0.197613
1013.664979	0.198384
1013.835388	0.199093
1014.005779	0.197738
1014.176152	0.194801
1014.346507	0.194034
1014.516843	0.193481
1014.687162	0.194315
1014.857462	0.194611
1015.027744	0.194457
1015.198007	0.194197
1015.368252	0.192463
1015.538480	0.192758
1015.708689	0.196070
1015.878879	0.194226
1016.049052	0.195660
1016.219206	0.192602
1016.389342	0.192296
1016.559460	0.191257
1016.729559	0.192200
1016.899641	0.194138
1017.069704	0.193560
1017.239749	0.190861
1017.409775	0.191967
1017.579784	0.192564
1017.749774	0.194920
1017.919746	0.195646
1018.089700	0.197219
1018.259635	0.195462
1018.429553	0.194147
1018.599452	0.197913
1018.769333	0.197681
1018.939195	0.197411
1019.109040	0.198428
1019.278866	0.196424
1019.448674	0.198775
1019.618464	0.196583
1019.788235	0.200454
1019.957989	0.200232
1020.127724	0.196858
1020.297441	0.196856
1020.467139	0.196842
1020.636820	0.196838
1020.806482	0.197335
1020.976126	0.196717
1021.145752	0.196828
1021.315359	0.193117
1021.484948	0.193018
1021.654519	0.193394
1021.824072	0.195339
1021.993607	0.193590
1022.163123	0.193282
1022.332621	0.193438
1022.502101	0.193138
1022.671563	0.193155
1022.841007	0.193586
1023.010432	0.194168
1023.179839	0.194038
1023.349228	0.191457
1023.518598	0.193709
1023.687951	0.194083
1023.857285	0.193899
1024.026601	0.192615
1024.195899	0.195006
1024.365178	0.195369
1024.534439	0.195814
1024.703682	0.195681
1024.872907	0.199691
1025.042114	0.198813
1025.211302	0.195732
1025.380472	0.197067
1025.549624	0.197000
1025.718758	0.194581
1025.887873	0.196022
1026.056970	0.196853
1026.226049	0.195908
1026.395110	0.194070
1026.564153	0.193359
1026.733177	0.194375
1026.902183	0.195912
1027.071171	0.197296
1027.240141	0.199153
1027.409092	0.195930
1027.578026	0.195616
1027.746940	0.195294
1027.915837	0.194379
1028.084716	0.196047
1028.253576	0.195715
1028.422418	0.193220
1028.591242	0.191904
1028.760048	0.189417
1028.928835	0.189740
1029.097604	0.187621
1029.266355	0.188287
1029.435088	0.188153
1029.603803	0.188261
1029.772499	0.188828
1029.941177	0.188792
1030.109837	0.188329
1030.278478	0.190723
1030.447102	0.190712
1030.615707	0.191634
1030.784294	0.192720
1030.952863	0.191112
1031.121413	0.191481
1031.289945	0.191878
1031.458460	0.193244
1031.626955	0.193639
1031.795433	0.190919
1031.963892	0.193953
1032.132334	0.192137
1032.300756	0.191627
1032.469161	0.192516
1032.637548	0.189354
1032.805916	0.188835
1032.974266	0.187664
1033.142598	0.188802
1033.310911	0.188547
1033.479207	0.185693
1033.647484	0.188133
1033.815743	0.186621
1033.983983	0.187264
1034.152206	0.189274
1034.320410	0.188033
1034.488596	0.188117
1034.656764	0.187101
1034.824914	0.187888
1034.993045	0.189060
1035.161158	0.187284
1035.329253	0.188156
1035.497330	0.187451
1035.665388	0.186113
1035.833428	0.187603
1036.001450	0.186866
1036.169454	0.187160
1036.337440	0.185927
1036.505407	0.186733
1036.673356	0.187726
1036.841287	0.186296
1037.009200	0.185365
1037.177094	0.187138
1037.344970	0.186324
1037.512828	0.188975
1037.680668	0.187718
1037.848489	0.191515
1038.016293	0.190652
1038.184078	0.191477
1038.351845	0.193356
1038.519593	0.193023
1038.687324	0.194294
1038.855036	0.194953
1039.022730	0.192900
1039.190406	0.193534
1039.358063	0.193567
1039.525702	0.194499
1039.693323	0.192837
1039.860926	0.192843
1040.028511	0.196071
1040.196077	0.194143
1040.363625	0.192970
1040.531155	0.193687
1040.698667	0.193289
1040.866161	0.189410
1041.033636	0.189477
1041.201093	0.189730
1041.368532	0.188921
1041.535952	0.190622
1041.703355	0.192710
1041.870739	0.190595
1042.038105	0.188803
1042.205452	0.190076
1042.372782	0.193100
1042.540093	0.190300
1042.707386	0.191045
1042.874661	0.193103
1043.041918	0.188247
1043.209156	0.184175
1043.376376	0.187394
1043.543578	0.188508
1043.710762	0.186939
1043.877927	0.185679
1044.045074	0.187681
1044.212203	0.188298
1044.379314	0.186704
1044.546407	0.189705
1044.713481	0.190325
1044.880537	0.191224
1045.047575	0.191935
1045.214595	0.193411
1045.381596	0.194279
1045.548579	0.195999
1045.715544	0.195387
1045.882491	0.195556
1046.049420	0.193695
1046.216330	0.193138
1046.383222	0.193220
1046.550096	0.194913
1046.716951	0.194423
1046.883789	0.192898
1047.050608	0.190791
1047.217409	0.187859
1047.384192	0.188024
1047.550956	0.186265
1047.717703	0.189306
1047.884431	0.188115
1048.051140	0.185708
1048.217832	0.186404
1048.384505	0.188888
1048.551161	0.189543
1048.717798	0.191548
1048.884416	0.190985
1049.051017	0.193153
1049.217599	0.191893
1049.384163	0.190068
1049.550709	0.189944
1049.717237	0.188033
1049.883746	0.186684
1050.050237	0.185793
1050.216710	0.188427
1050.383165	0.188737
1050.549601	0.189509
1050.716019	0.189289
1050.882420	0.192788
1051.048801	0.193506
1051.215165	0.194222
1051.381510	0.195648
1051.547837	0.198042
1051.714146	0.194785
1051.880437	0.194079
1052.046709	0.193773
1052.212964	0.194352
1052.379200	0.191792
1052.545417	0.190357
1052.711617	0.188111
1052.877798	0.186170
1053.043961	0.185313
1053.210106	0.188082
1053.376233	0.188028
1053.542341	0.187724
1053.708432	0.186625
1053.874504	0.187483
1054.040557	0.187986
1054.206593	0.190343
1054.372610	0.190979
1054.538609	0.187312
1054.704590	0.185963
1054.870553	0.190222
1055.036497	0.190289
1055.202424	0.191429
1055.368331	0.190587
1055.534221	0.191975
1055.700093	0.190501
1055.865946	0.189629
1056.031781	0.191647
1056.197598	0.191338
1056.363397	0.188651
1056.529177	0.190509
1056.694939	0.189842
1056.860683	0.192082
1057.026409	0.191030
1057.192116	0.190585
1057.357806	0.192228
1057.523477	0.191605
1057.689130	0.192702
1057.854764	0.193803
1058.020381	0.193331
1058.185979	0.193965
1058.351559	0.191536
1058.517120	0.191980
1058.682664	0.195179
1058.848189	0.193675
1059.013696	0.194632
1059.179185	0.192202
1059.344656	0.189835
1059.510108	0.190037
1059.675542	0.189614
1059.840958	0.190215
1060.006356	0.190612
1060.171735	0.187581
1060.337096	0.187617
1060.502439	0.189171
1060.667764	0.191689
1060.833071	0.190887
1060.998359	0.188556
1061.163629	0.187192
1061.328881	0.187447
1061.494115	0.186363
1061.659330	0.189400
1061.824527	0.189670
1061.989706	0.188729
1062.154867	0.186467
1062.320010	0.189096
1062.485134	0.190983
1062.650240	0.190863
1062.815328	0.191168
1062.980398	0.190251
1063.145449	0.189088
1063.310482	0.190630
1063.475497	0.189965
1063.640494	0.189128
1063.805473	0.187205
1063.970433	0.186328
1064.135375	0.189506
1064.300299	0.190877
1064.465204	0.192776
1064.630092	0.193921
1064.794961	0.191255
1064.959812	0.191118
1065.124645	0.193896
1065.289459	0.195139
1065.454256	0.193863
1065.619034	0.192126
1065.783793	0.190184
1065.948535	0.192513
1066.113258	0.189635
1066.277964	0.189628
1066.442651	0.189409
1066.607319	0.189299
1066.771970	0.190073
1066.936602	0.192145
1067.101216	0.191706
1067.265812	0.192336
1067.430389	0.189621
1067.594949	0.191357
1067.759490	0.194953
1067.924013	0.197415
1068.088518	0.194827
1068.253004	0.196188
1068.417472	0.195046
1068.581922	0.197478
1068.746354	0.197141
1068.910768	0.196401
1069.075163	0.195804
1069.239540	0.192373
1069.403899	0.189940
1069.568240	0.192245
1069.732562	0.189918
1069.896866	0.191457
1070.061152	0.190954
1070.225420	0.193594
1070.389670	0.193567
1070.553901	0.194023
1070.718114	0.196094
1070.882309	0.199180
1071.046486	0.201123
1071.210644	0.201536
1071.374784	0.201652
1071.538906	0.203391
1071.703010	0.199953
1071.867096	0.199709
1072.031163	0.199417
1072.195212	0.196805
1072.359243	0.192787
1072.523256	0.191758
1072.687250	0.190058
1072.851226	0.188744
1073.015184	0.184790
1073.179124	0.184469
1073.343045	0.186475
1073.506949	0.185680
1073.670834	0.187959
1073.834701	0.189488
1073.998549	0.187258
1074.162380	0.190044
1074.326192	0.192068
1074.489986	0.192231
1074.653761	0.194511
1074.817519	0.192178
1074.981258	0.195242
1075.144979	0.192876
1075.308682	0.192202
1075.472367	0.195215
1075.636033	0.193059
1075.799681	0.189022
1075.963311	0.191580
1076.126923	0.190949
1076.290516	0.193058
1076.454092	0.191544
1076.617649	0.193805
1076.781187	0.194713
1076.944708	0.194912
1077.108210	0.195461
1077.271695	0.197837
1077.435160	0.196621
1077.598608	0.195763
1077.762038	0.196849
1077.925449	0.198760
1078.088842	0.198624
1078.252217	0.198950
1078.415573	0.200637
1078.578912	0.199605
1078.742232	0.201728
1078.905534	0.201321
1079.068817	0.202036
1079.232083	0.203264
1079.395330	0.200336
1079.558559	0.200948
1079.721770	0.197945
1079.884962	0.195310
1080.048136	0.197246
1080.211293	0.195272
1080.374430	0.197171
1080.537550	0.198334
1080.700651	0.196988
1080.863735	0.199694
1081.026800	0.201063
1081.189846	0.205706
1081.352875	0.206345
1081.515885	0.205528
1081.678877	0.204724
1081.841851	0.204846
1082.004807	0.204357
1082.167744	0.203640
1082.330663	0.202667
1082.493564	0.202620
1082.656447	0.202622
1082.819312	0.197041
1082.982158	0.194866
1083.144986	0.196650
1083.307796	0.198832
1083.470587	0.196395
1083.633361	0.194011
1083.796116	0.193008
1083.958853	0.191545
1084.121571	0.192073
1084.284272	0.195447
1084.446954	0.197720
1084.609618	0.198680
1084.772264	0.193343
1084.934892	0.195435
1085.097501	0.198911
1085.260092	0.198481
1085.422665	0.199258
1085.585220	0.195581
1085.747756	0.194150
1085.910274	0.195901
1086.072774	0.195742
1086.235256	0.199091
1086.397720	0.196458
1086.560165	0.197090
1086.722592	0.196588
1086.885001	0.191966
1087.047392	0.191983
1087.209764	0.194765
1087.372119	0.195049
1087.534455	0.191147
1087.696772	0.187935
1087.859072	0.193378
1088.021353	0.192435
1088.183616	0.190484
1088.345861	0.197094
1088.508088	0.198174
1088.670296	0.195518
1088.832486	0.194901
1088.994658	0.197450
1089.156812	0.201283
1089.318948	0.198973
1089.481065	0.198791
1089.643164	0.201583
1089.805245	0.196209
1089.967308	0.198452
1090.129352	0.201031
1090.291378	0.199592
1090.453386	0.200514
1090.615376	0.198782
1090.777347	0.199075
1090.939301	0.199572
1091.101236	0.199704
1091.263153	0.201066
1091.425051	0.199479
1091.586932	0.200544
1091.748794	0.202966
1091.910638	0.200242
1092.072463	0.199952
1092.234271	0.201089
1092.396060	0.199219
1092.557831	0.198732
1092.719584	0.199569
1092.881319	0.196563
1093.043035	0.195218
1093.204733	0.193225
1093.366413	0.194541
1093.528075	0.192494
1093.689718	0.191321
1093.851343	0.190711
1094.012950	0.186744
1094.174539	0.186014
1094.336110	0.191667
1094.497662	0.194114
1094.659196	0.193123
1094.820712	0.193542
1094.982210	0.196220
1095.143689	0.194899
1095.305151	0.194964
1095.466594	0.197478
1095.628018	0.199997
1095.789425	0.199490
1095.950813	0.194710
1096.112183	0.199290
1096.273535	0.197037
1096.434869	0.198883
1096.596184	0.200193
1096.757482	0.201604
1096.918761	0.209095
1097.080021	0.207391
1097.241264	0.202540
1097.402488	0.208293
1097.563694	0.206887
1097.724882	0.210245
1097.886052	0.209747
1098.047203	0.206415
1098.208336	0.206187
1098.369451	0.200089
1098.530548	0.201159
1098.691627	0.200367
1098.852687	0.201492
1099.013729	0.199041
1099.174753	0.196181
1099.335758	0.193168
1099.496746	0.196340
1099.657715	0.196288
1099.818666	0.198350
1099.979599	0.196185
1100.140513	0.194325
1100.301409	0.186580
1100.462287	0.187043
1100.623147	0.188797
1100.783989	0.188929
1100.944812	0.190492
1101.105617	0.189770
1101.266404	0.192386
1101.427173	0.194018
1101.587923	0.198416
1101.748656	0.201537
1101.909370	0.201500
1102.070066	0.202874
1102.230743	0.201577
1102.391403	0.197147
1102.552044	0.197451
1102.712667	0.196639
1102.873271	0.194446
1103.033858	0.198456
1103.194426	0.197469
1103.354976	0.195709
1103.515508	0.192909
1103.676021	0.193903
1103.836517	0.194803
1103.996994	0.192473
1104.157453	0.190055
1104.317893	0.191823
1104.478316	0.190737
1104.638720	0.193150
1104.799106	0.196131
1104.959474	0.201546
1105.119823	0.206779
1105.280155	0.212236
1105.440468	0.216069
1105.600763	0.215910
1105.761039	0.217047
1105.921298	0.212466
1106.081538	0.214297
1106.241760	0.208327
1106.401964	0.202229
1106.562149	0.195906
1106.722316	0.193513
1106.882465	0.194554
1107.042596	0.196746
1107.202709	0.192212
1107.362803	0.195648
1107.522879	0.188858
1107.682937	0.192653
1107.842977	0.196251
1108.002999	0.201987
1108.163002	0.201161
1108.322987	0.204107
1108.482954	0.205137
1108.642902	0.207547
1108.802833	0.210333
1108.962745	0.211943
1109.122639	0.210611
1109.282515	0.210939
1109.442372	0.213774
1109.602211	0.213140
1109.762032	0.207606
1109.921835	0.203617
1110.081620	0.203061
1110.241386	0.197418
1110.401134	0.196549
1110.560864	0.196851
1110.720576	0.194361
1110.880269	0.190834
1111.039945	0.191963
1111.199602	0.189920
1111.359240	0.191015
1111.518861	0.191426
1111.678463	0.193252
1111.838047	0.198058
1111.997613	0.199832
1112.157161	0.200884
1112.316690	0.199729
1112.476202	0.201383
1112.635695	0.205463
1112.795169	0.209915
1112.954626	0.209838
1113.114064	0.208739
1113.273484	0.210232
1113.432886	0.206190
1113.592270	0.205191
1113.751635	0.204802
1113.910983	0.203879
1114.070312	0.208838
1114.229622	0.202486
1114.388915	0.207351
1114.548189	0.206119
1114.707445	0.204489
1114.866683	0.207822
1115.025903	0.206338
1115.185104	0.202735
1115.344287	0.198469
1115.503452	0.192233
1115.662599	0.196474
1115.821727	0.196261
1115.980838	0.194303
1116.139930	0.193577
1116.299004	0.197338
1116.458059	0.200935
1116.617097	0.203337
1116.776116	0.203851
1116.935117	0.203737
1117.094099	0.201924
1117.253064	0.195501
1117.412010	0.205579
1117.570938	0.201573
1117.729848	0.195305
1117.888740	0.194734
1118.047613	0.196775
1118.206468	0.197970
1118.365305	0.197558
1118.524124	0.197985
1118.682924	0.199020
1118.841707	0.191431
1119.000471	0.196612
1119.159216	0.201130
1119.317944	0.195138
1119.476653	0.190632
1119.635344	0.192376
1119.794017	0.197029
1119.952672	0.202288
1120.111308	0.199534
1120.269927	0.205115
1120.428527	0.200814
1120.587108	0.194963
1120.745672	0.197633
1120.904217	0.201107
1121.062744	0.197423
1121.221253	0.190092
1121.379744	0.187609
1121.538216	0.195633
1121.696671	0.190033
1121.855107	0.190250
1122.013524	0.192378
1122.171924	0.192631
1122.330305	0.190752
1122.488668	0.193285
1122.647013	0.194983
1122.805340	0.193547
1122.963648	0.188355
1123.121938	0.190317
1123.280210	0.198591
1123.438464	0.202508
1123.596700	0.202922
1123.754917	0.203536
1123.913116	0.207025
1124.071297	0.207985
1124.229459	0.204667
1124.387604	0.202372
1124.545730	0.195974
1124.703838	0.189885
1124.861928	0.187906
1125.019999	0.186832
1125.178052	0.189349
1125.336088	0.177821
1125.494104	0.183712
1125.652103	0.190864
1125.810083	0.198395
1125.968045	0.202810
1126.125989	0.205954
1126.283915	0.200496
1126.441823	0.207687
1126.599712	0.201583
1126.757583	0.212418
1126.915436	0.207514
1127.073270	0.197926
1127.231087	0.192502
1127.388885	0.195532
1127.546665	0.191085
1127.704426	0.197249
1127.862170	0.195912
1128.019895	0.203626
1128.177602	0.203761
1128.335291	0.193792
1128.492961	0.196807
1128.650614	0.192302
1128.808248	0.188040
1128.965864	0.187906
1129.123461	0.194103
1129.281041	0.194140
1129.438602	0.193267
1129.596145	0.193500
1129.753670	0.205178
1129.911176	0.205185
1130.068665	0.210827
1130.226135	0.213469
1130.383587	0.205796
1130.541020	0.198925
1130.698436	0.195541
1130.855833	0.198308
1131.013212	0.192630
1131.170573	0.184651
1131.327915	0.181249
1131.485239	0.183460
1131.642545	0.184523
1131.799833	0.188181
1131.957103	0.186532
1132.114354	0.193243
1132.271588	0.193050
1132.428803	0.189753
1132.585999	0.193589
1132.743178	0.193045
1132.900338	0.195727
1133.057480	0.192422
1133.214604	0.201683
1133.371710	0.207871
1133.528797	0.204837
1133.685866	0.198742
1133.842917	0.201949
1133.999950	0.201074
1134.156964	0.205579
1134.313960	0.200522
1134.470938	0.202768
1134.627898	0.202982
1134.784840	0.201260
1134.941763	0.198660
1135.098668	0.203585
1135.255555	0.202353
1135.412424	0.206783
1135.569274	0.202297
1135.726107	0.201236
1135.882921	0.205971
1136.039716	0.202467
1136.196494	0.197821
1136.353253	0.195630
1136.509995	0.185952
1136.666717	0.192769
1136.823422	0.190890
1136.980109	0.198740
1137.136777	0.205568
1137.293427	0.201798
1137.450059	0.202209
1137.606672	0.198578
1137.763267	0.198831
1137.919844	0.203115
1138.076403	0.207307
1138.232944	0.203644
1138.389466	0.200217
1138.545971	0.203568
1138.702457	0.204376
1138.858924	0.195562
1139.015374	0.201058
1139.171805	0.203436
1139.328218	0.206043
1139.484613	0.197295
1139.640990	0.202704
1139.797348	0.203512
1139.953688	0.195545
1140.110010	0.196698
1140.266314	0.203653
1140.422600	0.202643
1140.578867	0.208368
1140.735116	0.210093
1140.891347	0.213518
1141.047559	0.206975
1141.203754	0.204266
1141.359930	0.204185
1141.516088	0.205246
1141.672228	0.206847
1141.828349	0.208652
1141.984452	0.201650
1142.140537	0.193083
1142.296604	0.186015
1142.452653	0.190216
1142.608683	0.197283
1142.764695	0.197955
1142.920689	0.197745
1143.076665	0.194488
1143.232622	0.197264
1143.388562	0.204367
1143.544483	0.209196
1143.700385	0.214429
1143.856270	0.217394
1144.012136	0.209416
1144.167985	0.214012
1144.323814	0.211540
1144.479626	0.222934
1144.635420	0.216990
1144.791195	0.211194
1144.946952	0.208645
1145.102691	0.214225
1145.258411	0.203986
1145.414113	0.206453
1145.569798	0.192018
1145.725463	0.189906
1145.881111	0.178773
1146.036741	0.179950
1146.192352	0.167589
1146.347945	0.166753
1146.503519	0.157198
1146.659076	0.160642
1146.814614	0.155812
1146.970134	0.169837
1147.125636	0.165305
1147.281120	0.172898
1147.436585	0.168203
1147.592032	0.174618
1147.747461	0.179370
1147.902872	0.181925
1148.058265	0.175657
1148.213639	0.182519
1148.368995	0.172202
1148.524333	0.180812
1148.679653	0.173353
1148.834954	0.175472
1148.990237	0.174506
1149.145502	0.170911
1149.300749	0.169444
1149.455977	0.182518
1149.611188	0.177951
1149.766380	0.181979
1149.921553	0.174163
1150.076709	0.175342
1150.231846	0.180547
1150.386966	0.185278
1150.542066	0.178491
1150.697149	0.178503
1150.852214	0.178886
1151.007260	0.184651
1151.162288	0.187647
1151.317298	0.197300
1151.472289	0.197814
1151.627263	0.194552
1151.782218	0.196208
1151.937155	0.211870
1152.092073	0.223671
1152.246974	0.205523
1152.401856	0.204231
1152.556720	0.196681
1152.711566	0.192875
1152.866393	0.186175
1153.021203	0.184554
1153.175994	0.183411
1153.330767	0.177874
1153.485521	0.173942
1153.640258	0.185769
1153.794976	0.174017
1153.949676	0.180046
1154.104358	0.178089
1154.259021	0.181460
1154.413667	0.174242
1154.568294	0.168641
1154.722903	0.167104
1154.877493	0.164397
1155.032066	0.163389
1155.186620	0.167264
1155.341156	0.163539
1155.495674	0.154048
1155.650173	0.151691
1155.804654	0.164064
1155.959118	0.171183
1156.113562	0.166340
1156.267989	0.166061
1156.422397	0.156558
1156.576788	0.157263
1156.731160	0.156596
1156.885513	0.163775
1157.039849	0.173896
1157.194166	0.166938
1157.348465	0.171929
1157.502746	0.173189
1157.657009	0.178810
1157.811253	0.193123
1157.965479	0.196649
1158.119687	0.202740
1158.273877	0.200776
1158.428048	0.191588
1158.582201	0.185543
1158.736337	0.166908
1158.890453	0.169280
1159.044552	0.159556
1159.198632	0.149041
1159.352694	0.149418
1159.506738	0.145046
1159.660764	0.147900
1159.814771	0.147393
1159.968761	0.153966
1160.122732	0.161914
1160.276685	0.162406
1160.430619	0.166232
1160.584535	0.174014
1160.738434	0.172028
1160.892313	0.168928
1161.046175	0.161553
1161.200019	0.156101
1161.353844	0.152994
1161.507651	0.151349
1161.661440	0.132180
1161.815210	0.132054
1161.968962	0.130986
1162.122697	0.135383
1162.276412	0.142255
1162.430110	0.141195
1162.583789	0.147660
1162.737451	0.152743
1162.891094	0.163637
1163.044718	0.172961
1163.198325	0.168252
1163.351913	0.168293
1163.505483	0.173618
1163.659035	0.167772
1163.812569	0.174898
1163.966084	0.170742
1164.119581	0.178090
1164.273060	0.167858
1164.426521	0.169404
1164.579964	0.160416
1164.733388	0.157607
1164.886794	0.153060
1165.040182	0.156665
1165.193551	0.158462
1165.346903	0.154819
1165.500236	0.141821
1165.653551	0.145652
1165.806848	0.160401
1165.960126	0.168563
1166.113386	0.176625
1166.266628	0.157869
1166.419852	0.161103
1166.573058	0.159527
1166.726245	0.175504
1166.879414	0.171745
1167.032565	0.171440
1167.185698	0.168984
1167.338812	0.171453
1167.491909	0.168545
1167.644987	0.178827
1167.798046	0.171538
1167.951088	0.170856
1168.104111	0.168732
1168.257117	0.181071
1168.410103	0.172012
1168.563072	0.173398
1168.716023	0.167813
1168.868955	0.161220
1169.021869	0.160080
1169.174765	0.166329
1169.327642	0.165562
1169.480501	0.154753
1169.633343	0.166986
1169.786165	0.164013
1169.938970	0.154065
1170.091757	0.163866
1170.244525	0.158868
1170.397275	0.149559
1170.550007	0.139829
1170.702720	0.133198
1170.855415	0.124418
1171.008092	0.106056
1171.160751	0.109379
1171.313392	0.109102
1171.466014	0.048056
1171.618619	0.123811
1171.771205	0.123811
1171.923772	0.123811
