sample name	sample
index	1044
start time	 04-19-2021  02:17:01 PM


Wavelength (nm)	Absorbance
494.344910	-0.188642
494.563924	-0.188642
494.782919	-0.188642
495.001897	0.075485
495.220856	-0.054294
495.439797	-0.037312
495.658719	-0.017085
495.877624	0.002904
496.096510	-0.040329
496.315378	-0.053116
496.534227	-0.075906
496.753059	-0.080295
496.971872	-0.037526
497.190667	0.138245
497.409444	0.170935
497.628203	0.176841
497.846943	0.182021
498.065665	0.186316
498.284369	0.188301
498.503055	0.189813
498.721723	0.188479
498.940372	0.188388
499.159003	0.189732
499.377616	0.188893
499.596210	0.188918
499.814787	0.187295
500.033345	0.187102
500.251885	0.186177
500.470406	0.185735
500.688910	0.187338
500.907395	0.186709
501.125862	0.185227
501.344311	0.186547
501.562742	0.186669
501.781154	0.188438
501.999548	0.188543
502.217924	0.189491
502.436282	0.189436
502.654621	0.188681
502.872942	0.190011
503.091245	0.191353
503.309530	0.190485
503.527797	0.190979
503.746045	0.190496
503.964275	0.190463
504.182487	0.189820
504.400681	0.190413
504.618856	0.191159
504.837013	0.190799
505.055152	0.191636
505.273273	0.191828
505.491376	0.191682
505.709460	0.192000
505.927526	0.191524
506.145574	0.191703
506.363604	0.192010
506.581615	0.193529
506.799608	0.194201
507.017583	0.193907
507.235540	0.194250
507.453478	0.194742
507.671399	0.194676
507.889301	0.196369
508.107185	0.196387
508.325050	0.197011
508.542898	0.196743
508.760727	0.196774
508.978538	0.196421
509.196330	0.197313
509.414105	0.197893
509.631861	0.197539
509.849599	0.197898
510.067319	0.199402
510.285021	0.199072
510.502704	0.198435
510.720369	0.198861
510.938016	0.199970
511.155645	0.199749
511.373255	0.198933
511.590848	0.200050
511.808422	0.199892
512.025977	0.200176
512.243515	0.200118
512.461034	0.201839
512.678536	0.201114
512.896018	0.200786
513.113483	0.201057
513.330930	0.202458
513.548358	0.202874
513.765768	0.202194
513.983160	0.201682
514.200533	0.200930
514.417889	0.199937
514.635226	0.200909
514.852545	0.201199
515.069845	0.201781
515.287128	0.201417
515.504392	0.201586
515.721638	0.201971
515.938866	0.201957
516.156075	0.203889
516.373267	0.203886
516.590440	0.204516
516.807594	0.204090
517.024731	0.203848
517.241850	0.204030
517.458950	0.204353
517.676032	0.204693
517.893095	0.205187
518.110141	0.205673
518.327168	0.205991
518.544177	0.206346
518.761168	0.207065
518.978141	0.207637
519.195095	0.207237
519.412031	0.207308
519.628949	0.207319
519.845849	0.207416
520.062731	0.208062
520.279594	0.207965
520.496439	0.207772
520.713266	0.207350
520.930074	0.207009
521.146865	0.208183
521.363637	0.208844
521.580391	0.209515
521.797127	0.210192
522.013844	0.209631
522.230543	0.210781
522.447224	0.210774
522.663887	0.211993
522.880532	0.211785
523.097158	0.211609
523.313766	0.212115
523.530356	0.213433
523.746928	0.213374
523.963481	0.213852
524.180017	0.213831
524.396534	0.214863
524.613032	0.214516
524.829513	0.215958
525.045975	0.217238
525.262420	0.216926
525.478845	0.216083
525.695253	0.215563
525.911643	0.215101
526.128014	0.215737
526.344367	0.216067
526.560702	0.217061
526.777018	0.218250
526.993316	0.218496
527.209597	0.218395
527.425858	0.219275
527.642102	0.220170
527.858328	0.220989
528.074535	0.220841
528.290724	0.220708
528.506894	0.220801
528.723047	0.220103
528.939181	0.219821
529.155297	0.220179
529.371395	0.220211
529.587475	0.221632
529.803536	0.221472
530.019579	0.221834
530.235604	0.222314
530.451611	0.222982
530.667600	0.223076
530.883570	0.223818
531.099522	0.224739
531.315456	0.225131
531.531372	0.224539
531.747269	0.225275
531.963148	0.225223
532.179009	0.225360
532.394852	0.225580
532.610676	0.226175
532.826482	0.225759
533.042271	0.225745
533.258040	0.225588
533.473792	0.226319
533.689525	0.226321
533.905240	0.226939
534.120937	0.226733
534.336616	0.225781
534.552277	0.225777
534.767919	0.226594
534.983543	0.227324
535.199149	0.228258
535.414736	0.228115
535.630306	0.228654
535.845857	0.229022
536.061390	0.229890
536.276904	0.231093
536.492401	0.231559
536.707879	0.232226
536.923339	0.232781
537.138781	0.233056
537.354204	0.233848
537.569610	0.234317
537.784997	0.234975
538.000366	0.235897
538.215716	0.236387
538.431049	0.236863
538.646363	0.236148
538.861659	0.236271
539.076937	0.236297
539.292196	0.235982
539.507438	0.236176
539.722661	0.235999
539.937866	0.236149
540.153052	0.236331
540.368221	0.236119
540.583371	0.237396
540.798503	0.237933
541.013617	0.238235
541.228712	0.239069
541.443789	0.240125
541.658848	0.240938
541.873889	0.241271
542.088912	0.241562
542.303916	0.242652
542.518902	0.242905
542.733870	0.242665
542.948820	0.243037
543.163752	0.243809
543.378665	0.244034
543.593560	0.244601
543.808437	0.245024
544.023295	0.245642
544.238136	0.245557
544.452958	0.245483
544.667762	0.245825
544.882548	0.246151
545.097315	0.245845
545.312064	0.245775
545.526795	0.245548
545.741508	0.245716
545.956203	0.245877
546.170879	0.246172
546.385537	0.246804
546.600177	0.246809
546.814799	0.246688
547.029402	0.246900
547.243988	0.247026
547.458555	0.247327
547.673103	0.247503
547.887634	0.247612
548.102146	0.248033
548.316640	0.248675
548.531116	0.249475
548.745574	0.249861
548.960013	0.250455
549.174435	0.250898
549.388838	0.251160
549.603222	0.251176
549.817589	0.251321
550.031937	0.251416
550.246267	0.251458
550.460579	0.251687
550.674873	0.252397
550.889148	0.252618
551.103405	0.252137
551.317644	0.252644
551.531865	0.253351
551.746068	0.254151
551.960252	0.254354
552.174418	0.254345
552.388566	0.254652
552.602696	0.254561
552.816807	0.254620
553.030900	0.255415
553.244975	0.255164
553.459032	0.255224
553.673070	0.254914
553.887091	0.255176
554.101093	0.255014
554.315077	0.255452
554.529042	0.255833
554.742990	0.256431
554.956919	0.256478
555.170830	0.257300
555.384722	0.257155
555.598597	0.257589
555.812453	0.257954
556.026291	0.258339
556.240111	0.257842
556.453913	0.258390
556.667696	0.258146
556.881461	0.258286
557.095208	0.257987
557.308937	0.258535
557.522647	0.258705
557.736339	0.258933
557.950013	0.258867
558.163669	0.258697
558.377307	0.258737
558.590926	0.258630
558.804527	0.258922
559.018110	0.259243
559.231675	0.259298
559.445221	0.259287
559.658749	0.259269
559.872259	0.259816
560.085751	0.260924
560.299225	0.260618
560.512680	0.260989
560.726117	0.261537
560.939536	0.261173
561.152937	0.261073
561.366319	0.261678
561.579683	0.261506
561.793029	0.261624
562.006357	0.261479
562.219667	0.262083
562.432958	0.261918
562.646231	0.261625
562.859486	0.262390
563.072723	0.262762
563.285941	0.262557
563.499141	0.263046
563.712323	0.263154
563.925487	0.263277
564.138632	0.263283
564.351760	0.263844
564.564869	0.264087
564.777960	0.264495
564.991032	0.264714
565.204087	0.264795
565.417123	0.264920
565.630141	0.265107
565.843140	0.265127
566.056122	0.265493
566.269085	0.265557
566.482030	0.265722
566.694957	0.265430
566.907866	0.265501
567.120756	0.265868
567.333628	0.266069
567.546482	0.266911
567.759318	0.267333
567.972135	0.267319
568.184935	0.267469
568.397716	0.268226
568.610478	0.268618
568.823223	0.268875
569.035949	0.269076
569.248657	0.269475
569.461347	0.268848
569.674019	0.268712
569.886672	0.268922
570.099308	0.269393
570.311925	0.268879
570.524523	0.268730
570.737104	0.268456
570.949666	0.268342
571.162210	0.268307
571.374736	0.268981
571.587244	0.269540
571.799733	0.269602
572.012205	0.269774
572.224658	0.269798
572.437092	0.270093
572.649509	0.270776
572.861907	0.270962
573.074287	0.271462
573.286649	0.271481
573.498993	0.271441
573.711318	0.272011
573.923625	0.272023
574.135914	0.272655
574.348185	0.273091
574.560438	0.272772
574.772672	0.273219
574.984888	0.273188
575.197086	0.273124
575.409266	0.273332
575.621427	0.273094
575.833570	0.273290
576.045695	0.273046
576.257802	0.273412
576.469890	0.273949
576.681961	0.274228
576.894013	0.274478
577.106046	0.274774
577.318062	0.274941
577.530059	0.275125
577.742039	0.275178
577.954000	0.275457
578.165942	0.275302
578.377867	0.275530
578.589773	0.275752
578.801661	0.275813
579.013531	0.275705
579.225382	0.275917
579.437216	0.276209
579.649031	0.276396
579.860828	0.276429
580.072606	0.276327
580.284367	0.276471
580.496109	0.276520
580.707833	0.276378
580.919539	0.276909
581.131227	0.277015
581.342896	0.277432
581.554547	0.277823
581.766180	0.278233
581.977795	0.279012
582.189391	0.279050
582.400969	0.278736
582.612529	0.279174
582.824071	0.279544
583.035595	0.280157
583.247100	0.280282
583.458587	0.280141
583.670056	0.280592
583.881506	0.280327
584.092939	0.280456
584.304353	0.280799
584.515749	0.281039
584.727127	0.281199
584.938486	0.280571
585.149828	0.280750
585.361151	0.281038
585.572456	0.281157
585.783742	0.281967
585.995011	0.282512
586.206261	0.283014
586.417493	0.283149
586.628706	0.283073
586.839902	0.284089
587.051079	0.284416
587.262238	0.284801
587.473379	0.285508
587.684502	0.284928
587.895606	0.285023
588.106692	0.285174
588.317760	0.285464
588.528810	0.285657
588.739841	0.285577
588.950855	0.285147
589.161850	0.285705
589.372827	0.285167
589.583785	0.285394
589.794726	0.285921
590.005648	0.286098
590.216552	0.286641
590.427437	0.287132
590.638305	0.287130
590.849154	0.287819
591.059985	0.287684
591.270798	0.287962
591.481592	0.288735
591.692369	0.288527
591.903127	0.288682
592.113867	0.288412
592.324588	0.288302
592.535292	0.288765
592.745977	0.289116
592.956644	0.289512
593.167293	0.289838
593.377923	0.289771
593.588536	0.289972
593.799130	0.290360
594.009706	0.290868
594.220263	0.291069
594.430803	0.291235
594.641324	0.291341
594.851827	0.291368
595.062312	0.291396
595.272778	0.291467
595.483227	0.291828
595.693657	0.291830
595.904069	0.291781
596.114462	0.292011
596.324838	0.292064
596.535195	0.292069
596.745534	0.292525
596.955855	0.292506
597.166157	0.292866
597.376441	0.293016
597.586707	0.293295
597.796955	0.293582
598.007185	0.294311
598.217396	0.294709
598.427589	0.295042
598.637764	0.295385
598.847921	0.296149
599.058060	0.296438
599.268180	0.296610
599.478282	0.296609
599.688366	0.296524
599.898431	0.295931
600.108479	0.295897
600.318508	0.296037
600.528519	0.295965
600.738511	0.295740
600.948486	0.296024
601.158442	0.296297
601.368380	0.296639
601.578300	0.297398
601.788202	0.297751
601.998085	0.297690
602.207950	0.297924
602.417797	0.298316
602.627626	0.298209
602.837436	0.298153
603.047228	0.298235
603.257002	0.298616
603.466758	0.298346
603.676496	0.298659
603.886215	0.299215
604.095916	0.299041
604.305599	0.298641
604.515264	0.299652
604.724910	0.300071
604.934538	0.300249
605.144148	0.300504
605.353740	0.300871
605.563314	0.300747
605.772869	0.300724
605.982406	0.300793
606.191925	0.301308
606.401425	0.300637
606.610908	0.300468
606.820372	0.300616
607.029818	0.300224
607.239246	0.300244
607.448655	0.300701
607.658047	0.301008
607.867420	0.301146
608.076775	0.301289
608.286111	0.301909
608.495430	0.302193
608.704730	0.302249
608.914012	0.302915
609.123275	0.303112
609.332521	0.303155
609.541748	0.303542
609.750957	0.304034
609.960148	0.304145
610.169321	0.304511
610.378475	0.304628
610.587611	0.304785
610.796729	0.304530
611.005829	0.304669
611.214910	0.304932
611.423974	0.304807
611.633019	0.304717
611.842045	0.304770
612.051054	0.304690
612.260044	0.304541
612.469017	0.304818
612.677970	0.305094
612.886906	0.305162
613.095824	0.305197
613.304723	0.305371
613.513604	0.305584
613.722467	0.305579
613.931311	0.305444
614.140138	0.306005
614.348946	0.306001
614.557736	0.306438
614.766507	0.307041
614.975261	0.307113
615.183996	0.307225
615.392713	0.307535
615.601412	0.307823
615.810092	0.308516
616.018754	0.308443
616.227399	0.308885
616.436024	0.308979
616.644632	0.308901
616.853222	0.309313
617.061793	0.309683
617.270346	0.309659
617.478880	0.309761
617.687397	0.309776
617.895895	0.310298
618.104375	0.310078
618.312837	0.309906
618.521281	0.309947
618.729706	0.310015
618.938113	0.309804
619.146502	0.310154
619.354873	0.310507
619.563226	0.310583
619.771560	0.310500
619.979876	0.311008
620.188174	0.311485
620.396453	0.311362
620.604715	0.311632
620.812958	0.311896
621.021183	0.312001
621.229390	0.311917
621.437578	0.312089
621.645748	0.312329
621.853900	0.312410
622.062034	0.312289
622.270150	0.312733
622.478247	0.313028
622.686326	0.313270
622.894387	0.313269
623.102430	0.313268
623.310454	0.313402
623.518461	0.313287
623.726449	0.313218
623.934418	0.313488
624.142370	0.313480
624.350303	0.313390
624.558218	0.313617
624.766115	0.314087
624.973994	0.314137
625.181855	0.314129
625.389697	0.314753
625.597521	0.314903
625.805327	0.315004
626.013114	0.315306
626.220883	0.315291
626.428634	0.315231
626.636367	0.315046
626.844082	0.315409
627.051778	0.315715
627.259457	0.315733
627.467117	0.316131
627.674758	0.316241
627.882382	0.316479
628.089987	0.317117
628.297574	0.317490
628.505143	0.318257
628.712694	0.318803
628.920226	0.319286
629.127740	0.319346
629.335236	0.319253
629.542714	0.319665
629.750174	0.319893
629.957615	0.319604
630.165038	0.319655
630.372443	0.319552
630.579829	0.319644
630.787198	0.319549
630.994548	0.319851
631.201880	0.320097
631.409194	0.319881
631.616489	0.320030
631.823766	0.320246
632.031025	0.320313
632.238266	0.320311
632.445489	0.320391
632.652693	0.320677
632.859879	0.320776
633.067047	0.320899
633.274197	0.321393
633.481329	0.321468
633.688442	0.321680
633.895537	0.322164
634.102614	0.322344
634.309672	0.322300
634.516713	0.322319
634.723735	0.322301
634.930739	0.322738
635.137724	0.322757
635.344692	0.323269
635.551641	0.323483
635.758572	0.323717
635.965485	0.324029
636.172379	0.324437
636.379256	0.324601
636.586114	0.324901
636.792954	0.324893
636.999775	0.325448
637.206579	0.325342
637.413364	0.325256
637.620131	0.325418
637.826880	0.325666
638.033610	0.325920
638.240323	0.326019
638.447017	0.325957
638.653692	0.326069
638.860350	0.326065
639.066990	0.326164
639.273611	0.326671
639.480214	0.326675
639.686798	0.326650
639.893365	0.326788
640.099913	0.327126
640.306443	0.327352
640.512955	0.327433
640.719449	0.327515
640.925924	0.327693
641.132381	0.327845
641.338820	0.327798
641.545241	0.328214
641.751644	0.328452
641.958028	0.328709
642.164394	0.329267
642.370742	0.329826
642.577071	0.329896
642.783383	0.330145
642.989676	0.330336
643.195951	0.330595
643.402207	0.330479
643.608446	0.330613
643.814666	0.330628
644.020868	0.330667
644.227052	0.330995
644.433218	0.331415
644.639365	0.331583
644.845494	0.331685
645.051605	0.332197
645.257698	0.332382
645.463772	0.332462
645.669828	0.332653
645.875866	0.333052
646.081886	0.332957
646.287888	0.333019
646.493871	0.333276
646.699836	0.333470
646.905783	0.333608
647.111712	0.333910
647.317622	0.334368
647.523514	0.334650
647.729388	0.334723
647.935244	0.335118
648.141082	0.335530
648.346901	0.335855
648.552702	0.336231
648.758485	0.336818
648.964250	0.337010
649.169996	0.337103
649.375724	0.337536
649.581434	0.337852
649.787126	0.337877
649.992800	0.338012
650.198455	0.338156
650.404092	0.337945
650.609711	0.337587
650.815311	0.337715
651.020894	0.337998
651.226458	0.338172
651.432004	0.338277
651.637532	0.338634
651.843041	0.338724
652.048532	0.338734
652.254006	0.339244
652.459460	0.339631
652.664897	0.339800
652.870315	0.340013
653.075716	0.339979
653.281097	0.340189
653.486461	0.340533
653.691807	0.340660
653.897134	0.341002
654.102443	0.341154
654.307734	0.341037
654.513006	0.341308
654.718261	0.341289
654.923497	0.341285
655.128715	0.341463
655.333915	0.341557
655.539096	0.341927
655.744259	0.342239
655.949404	0.342635
656.154531	0.343031
656.359640	0.343356
656.564730	0.343730
656.769802	0.344021
656.974856	0.344153
657.179892	0.344080
657.384909	0.344199
657.589908	0.344379
657.794889	0.344625
657.999852	0.344921
658.204797	0.345243
658.409723	0.345387
658.614631	0.345807
658.819521	0.346135
659.024393	0.346739
659.229246	0.347235
659.434081	0.347399
659.638898	0.347588
659.843697	0.347968
660.048478	0.347957
660.253240	0.348121
660.457984	0.348248
660.662710	0.348470
660.867417	0.348640
661.072107	0.348651
661.276778	0.349138
661.481431	0.349336
661.686066	0.349264
661.890682	0.349563
662.095281	0.349928
662.299861	0.350375
662.504422	0.350564
662.708966	0.350367
662.913491	0.350595
663.117999	0.350553
663.322488	0.350867
663.526958	0.350951
663.731411	0.351175
663.935845	0.351448
664.140261	0.351564
664.344659	0.351881
664.549038	0.352517
664.753400	0.352631
664.957743	0.352744
665.162068	0.352995
665.366375	0.353162
665.570663	0.353421
665.774933	0.353561
665.979185	0.353516
666.183419	0.353774
666.387635	0.354023
666.591832	0.354233
666.796011	0.354339
667.000172	0.354282
667.204315	0.354824
667.408439	0.355150
667.612545	0.355406
667.816634	0.355892
668.020703	0.356050
668.224755	0.356333
668.428788	0.356693
668.632803	0.357270
668.836800	0.357579
669.040779	0.357931
669.244739	0.358067
669.448681	0.358348
669.652605	0.358636
669.856511	0.358801
670.060399	0.358873
670.264268	0.359173
670.468119	0.359310
670.671952	0.359687
670.875767	0.360090
671.079563	0.360424
671.283341	0.360809
671.487101	0.361163
671.690843	0.361609
671.894567	0.361809
672.098272	0.362134
672.301959	0.362477
672.505628	0.362711
672.709278	0.362791
672.912911	0.363196
673.116525	0.363208
673.320121	0.363155
673.523699	0.363117
673.727258	0.363438
673.930799	0.363464
674.134322	0.363748
674.337827	0.364129
674.541314	0.364373
674.744782	0.364363
674.948232	0.364747
675.151664	0.365304
675.355078	0.365644
675.558474	0.365953
675.761851	0.366248
675.965210	0.366536
676.168551	0.366795
676.371873	0.367054
676.575178	0.367384
676.778464	0.367380
676.981732	0.367330
677.184981	0.367671
677.388213	0.367767
677.591426	0.367997
677.794621	0.368045
677.997798	0.368246
678.200956	0.368144
678.404097	0.368321
678.607219	0.368619
678.810323	0.368728
679.013408	0.368569
679.216476	0.368766
679.419525	0.368961
679.622556	0.369189
679.825569	0.369291
680.028563	0.369627
680.231540	0.369847
680.434498	0.370200
680.637438	0.370765
680.840359	0.371052
681.043263	0.371199
681.246148	0.371789
681.449015	0.371759
681.651864	0.371938
681.854694	0.372086
682.057506	0.372200
682.260301	0.372100
682.463076	0.372231
682.665834	0.372385
682.868573	0.372707
683.071295	0.372558
683.273998	0.372971
683.476682	0.373045
683.679349	0.373483
683.881997	0.373894
684.084627	0.374377
684.287239	0.374419
684.489833	0.374949
684.692408	0.375205
684.894965	0.375287
685.097504	0.375555
685.300025	0.375352
685.502527	0.375734
685.705012	0.376113
685.907478	0.376498
686.109925	0.376980
686.312355	0.377339
686.514766	0.377505
686.717159	0.378047
686.919534	0.378253
687.121891	0.379008
687.324230	0.379213
687.526550	0.379219
687.728852	0.379203
687.931136	0.379366
688.133401	0.379179
688.335649	0.378973
688.537878	0.378927
688.740089	0.378919
688.942281	0.379098
689.144456	0.379164
689.346612	0.379186
689.548750	0.379327
689.750870	0.379601
689.952971	0.379907
690.155055	0.380308
690.357120	0.380504
690.559167	0.380830
690.761195	0.380970
690.963206	0.381127
691.165198	0.381521
691.367172	0.381721
691.569128	0.381634
691.771065	0.381953
691.972984	0.382343
692.174885	0.383011
692.376768	0.383374
692.578633	0.383688
692.780479	0.383932
692.982308	0.383932
693.184118	0.384263
693.385909	0.384573
693.587683	0.384673
693.789438	0.384774
693.991175	0.384473
694.192894	0.384516
694.394595	0.384619
694.596277	0.384712
694.797941	0.385150
694.999587	0.385086
695.201215	0.385039
695.402824	0.384936
695.604416	0.385214
695.805989	0.385270
696.007543	0.385444
696.209080	0.385430
696.410598	0.385350
696.612099	0.385334
696.813580	0.385658
697.015044	0.385811
697.216490	0.386289
697.417917	0.386494
697.619326	0.386638
697.820717	0.386833
698.022089	0.386878
698.223444	0.387303
698.424780	0.387338
698.626098	0.387194
698.827397	0.387533
699.028679	0.387696
699.229942	0.387586
699.431187	0.387783
699.632414	0.387759
699.833622	0.388134
700.034813	0.388088
700.235985	0.387874
700.437139	0.388259
700.638274	0.388190
700.839392	0.388327
701.040491	0.388574
701.241572	0.388939
701.442635	0.388803
701.643679	0.388815
701.844706	0.388995
702.045714	0.389315
702.246704	0.389246
702.447675	0.389328
702.648629	0.389322
702.849564	0.389116
703.050481	0.389133
703.251380	0.389457
703.452260	0.389421
703.653122	0.389370
703.853966	0.389651
704.054792	0.389527
704.255600	0.389816
704.456389	0.389929
704.657160	0.390115
704.857913	0.390095
705.058648	0.390361
705.259365	0.390552
705.460063	0.390464
705.660743	0.390378
705.861405	0.390574
706.062048	0.390525
706.262674	0.390572
706.463281	0.390775
706.663870	0.390704
706.864441	0.390493
707.064993	0.390713
707.265527	0.390929
707.466043	0.391026
707.666541	0.391092
707.867021	0.391359
708.067482	0.391162
708.267925	0.391230
708.468350	0.391719
708.668757	0.392093
708.869145	0.392120
709.069516	0.392147
709.269868	0.392408
709.470201	0.392742
709.670517	0.392541
709.870814	0.392684
710.071093	0.392576
710.271354	0.392307
710.471597	0.391952
710.671821	0.391925
710.872028	0.391896
711.072216	0.391614
711.272385	0.391655
711.472537	0.391633
711.672670	0.391642
711.872785	0.392029
712.072882	0.392107
712.272961	0.392309
712.473021	0.392154
712.673063	0.392250
712.873087	0.392372
713.073093	0.392239
713.273081	0.392166
713.473050	0.392357
713.673001	0.392322
713.872934	0.392410
714.072849	0.392492
714.272745	0.392628
714.472623	0.392698
714.672483	0.392732
714.872325	0.392766
715.072148	0.392892
715.271954	0.392807
715.471741	0.392769
715.671509	0.392738
715.871260	0.392611
716.070992	0.392328
716.270707	0.392277
716.470403	0.392162
716.670080	0.392109
716.869740	0.391921
717.069381	0.391722
717.269004	0.391459
717.468609	0.391068
717.668195	0.390946
717.867764	0.391011
718.067314	0.390769
718.266846	0.390718
718.466360	0.390462
718.665855	0.390585
718.865332	0.390533
719.064791	0.390384
719.264232	0.390334
719.463655	0.390320
719.663059	0.390521
719.862445	0.390654
720.061813	0.390439
720.261163	0.390418
720.460494	0.390280
720.659807	0.390323
720.859102	0.390205
721.058379	0.390194
721.257638	0.389880
721.456878	0.389555
721.656100	0.389380
721.855304	0.389374
722.054490	0.388987
722.253657	0.388672
722.452806	0.388409
722.651937	0.388297
722.851050	0.387934
723.050145	0.388210
723.249221	0.387979
723.448279	0.387665
723.647319	0.387352
723.846340	0.387424
724.045344	0.387213
724.244329	0.387089
724.443296	0.386836
724.642245	0.386790
724.841175	0.386252
725.040088	0.386104
725.238982	0.386026
725.437857	0.385962
725.636715	0.385828
725.835554	0.385859
726.034376	0.385591
726.233179	0.385458
726.431963	0.385445
726.630730	0.385530
726.829478	0.385270
727.028208	0.385163
727.226920	0.385044
727.425614	0.384979
727.624289	0.384761
727.822946	0.384793
728.021585	0.384639
728.220206	0.384360
728.418808	0.384119
728.617392	0.384302
728.815958	0.384183
729.014506	0.384111
729.213036	0.383740
729.411547	0.383486
729.610040	0.382986
729.808515	0.382774
730.006972	0.382495
730.205410	0.381887
730.403831	0.381254
730.602233	0.380925
730.800616	0.380638
730.998982	0.380514
731.197329	0.380214
731.395658	0.379996
731.593969	0.379738
731.792262	0.379587
731.990536	0.379728
732.188793	0.379474
732.387031	0.379144
732.585250	0.378905
732.783452	0.378579
732.981635	0.378720
733.179800	0.378739
733.377947	0.378698
733.576076	0.378277
733.774186	0.378047
733.972278	0.378194
734.170352	0.377875
734.368408	0.377598
734.566446	0.377476
734.764465	0.377079
734.962466	0.376812
735.160449	0.376581
735.358413	0.376636
735.556360	0.376592
735.754288	0.376035
735.952198	0.375957
736.150090	0.375800
736.347963	0.375624
736.545818	0.375627
736.743655	0.375370
736.941474	0.375257
737.139275	0.375007
737.337057	0.374553
737.534821	0.374597
737.732567	0.374415
737.930295	0.374071
738.128005	0.373811
738.325696	0.373254
738.523369	0.373170
738.721024	0.372847
738.918660	0.372339
739.116279	0.371945
739.313879	0.371857
739.511461	0.371690
739.709024	0.371639
739.906570	0.371314
740.104097	0.371304
740.301606	0.370863
740.499097	0.370715
740.696569	0.370906
740.894024	0.371007
741.091460	0.370605
741.288878	0.370676
741.486277	0.370480
741.683659	0.370490
741.881022	0.370511
742.078367	0.370341
742.275694	0.370254
742.473002	0.370022
742.670293	0.369829
742.867565	0.369737
743.064819	0.369419
743.262054	0.369110
743.459272	0.368621
743.656471	0.367997
743.853652	0.367671
744.050815	0.367354
744.247959	0.366966
744.445085	0.366787
744.642194	0.366329
744.839283	0.365845
745.036355	0.365861
745.233408	0.365727
745.430444	0.365369
745.627461	0.365463
745.824459	0.364972
746.021440	0.365097
746.218402	0.364689
746.415346	0.364663
746.612272	0.364491
746.809180	0.364099
747.006069	0.363848
747.202940	0.363815
747.399793	0.363441
747.596628	0.363150
747.793444	0.362667
747.990243	0.362539
748.187023	0.362240
748.383784	0.362264
748.580528	0.362042
748.777253	0.361795
748.973960	0.361574
749.170649	0.361443
749.367320	0.361431
749.563973	0.361159
749.760607	0.360899
749.957223	0.360737
750.153821	0.360246
750.350400	0.360084
750.546962	0.360087
750.743505	0.359736
750.940030	0.359407
751.136536	0.359090
751.333025	0.359101
751.529495	0.358662
751.725947	0.358513
751.922381	0.358485
752.118796	0.358325
752.315194	0.358041
752.511573	0.357943
752.707934	0.357389
752.904276	0.357141
753.100601	0.356607
753.296907	0.356654
753.493195	0.356537
753.689465	0.355966
753.885716	0.355766
754.081949	0.355581
754.278164	0.355462
754.474361	0.355666
754.670540	0.355525
754.866700	0.355582
755.062843	0.355213
755.258967	0.354629
755.455072	0.354671
755.651160	0.354245
755.847229	0.353858
756.043280	0.353638
756.239313	0.353095
756.435328	0.352614
756.631324	0.352017
756.827302	0.352051
757.023262	0.351890
757.219204	0.351659
757.415127	0.351421
757.611033	0.351214
757.806920	0.350576
758.002788	0.350522
758.198639	0.350479
758.394471	0.350304
758.590286	0.349758
758.786081	0.349169
758.981859	0.348989
759.177619	0.348755
759.373360	0.348715
759.569083	0.348719
759.764788	0.348551
759.960474	0.348254
760.156143	0.348273
760.351793	0.348199
760.547425	0.348243
760.743038	0.348016
760.938634	0.347861
761.134211	0.347288
761.329770	0.347178
761.525311	0.346778
761.720833	0.347120
761.916338	0.346971
762.111824	0.346844
762.307292	0.346973
762.502741	0.346829
762.698173	0.346819
762.893586	0.346888
763.088981	0.346866
763.284358	0.347036
763.479716	0.346526
763.675057	0.346560
763.870379	0.346088
764.065683	0.345882
764.260968	0.345705
764.456236	0.345259
764.651485	0.345157
764.846716	0.344735
765.041929	0.344621
765.237123	0.344679
765.432299	0.344387
765.627457	0.344598
765.822597	0.344629
766.017719	0.344393
766.212822	0.344506
766.407907	0.344497
766.602974	0.344731
766.798023	0.344945
766.993054	0.344646
767.188066	0.344672
767.383060	0.344714
767.578036	0.344581
767.772993	0.344642
767.967933	0.344721
768.162854	0.344410
768.357757	0.344036
768.552642	0.343339
768.747508	0.343333
768.942356	0.342773
769.137186	0.342530
769.331998	0.342205
769.526792	0.341901
769.721567	0.341563
769.916324	0.341429
770.111063	0.341258
770.305784	0.341420
770.500486	0.340981
770.695171	0.341085
770.889837	0.340854
771.084484	0.340760
771.279114	0.341020
771.473725	0.340761
771.668318	0.340809
771.862893	0.341117
772.057450	0.340833
772.251988	0.340972
772.446509	0.340765
772.641011	0.340681
772.835494	0.340618
773.029960	0.340444
773.224407	0.340581
773.418836	0.340496
773.613247	0.340419
773.807640	0.340685
774.002014	0.340596
774.196370	0.340761
774.390708	0.340964
774.585028	0.340918
774.779330	0.340860
774.973613	0.340814
775.167878	0.340706
775.362125	0.340537
775.556354	0.340175
775.750564	0.340326
775.944756	0.340158
776.138930	0.340109
776.333086	0.340147
776.527223	0.339736
776.721343	0.339731
776.915444	0.339864
777.109526	0.339662
777.303591	0.339761
777.497637	0.339711
777.691666	0.339884
777.885676	0.339670
778.079667	0.339863
778.273641	0.340153
778.467596	0.340095
778.661533	0.340334
778.855452	0.340582
779.049352	0.340676
779.243235	0.340742
779.437099	0.340982
779.630945	0.341169
779.824773	0.341166
780.018582	0.341326
780.212373	0.341587
780.406146	0.341398
780.599901	0.341442
780.793638	0.341671
780.987356	0.341848
781.181056	0.341774
781.374738	0.341955
781.568402	0.341976
781.762047	0.341866
781.955674	0.341700
782.149283	0.341630
782.342874	0.341776
782.536447	0.341612
782.730001	0.341537
782.923537	0.341155
783.117055	0.340882
783.310555	0.340715
783.504036	0.340588
783.697499	0.340658
783.890944	0.340812
784.084371	0.340655
784.277780	0.340905
784.471170	0.340887
784.664542	0.341246
784.857896	0.341468
785.051231	0.341758
785.244549	0.342150
785.437848	0.342315
785.631129	0.342521
785.824392	0.342519
786.017636	0.342461
786.210863	0.342575
786.404071	0.342626
786.597260	0.342720
786.790432	0.342735
786.983585	0.342649
787.176721	0.342560
787.369838	0.342499
787.562936	0.342691
787.756017	0.342780
787.949079	0.342784
788.142123	0.342954
788.335149	0.342876
788.528156	0.342623
788.721146	0.342737
788.914117	0.343059
789.107070	0.343010
789.300005	0.343103
789.492921	0.343363
789.685819	0.343755
789.878699	0.344106
790.071561	0.344323
790.264405	0.344802
790.457230	0.344952
790.650037	0.345062
790.842826	0.345404
791.035597	0.345511
791.228349	0.345526
791.421084	0.345567
791.613800	0.345409
791.806497	0.345410
791.999177	0.345629
792.191838	0.345841
792.384481	0.346160
792.577106	0.346526
792.769713	0.346786
792.962301	0.346920
793.154871	0.346941
793.347423	0.347149
793.539957	0.347418
793.732473	0.347563
793.924970	0.347715
794.117449	0.347783
794.309910	0.347790
794.502353	0.348059
794.694777	0.348490
794.887183	0.348582
795.079571	0.348784
795.271941	0.349248
795.464293	0.349470
795.656626	0.349862
795.848941	0.349911
796.041238	0.350343
796.233516	0.350579
796.425777	0.350363
796.618019	0.350642
796.810243	0.351068
797.002449	0.351045
797.194636	0.351253
797.386805	0.351627
797.578956	0.352037
797.771089	0.352397
797.963204	0.352909
798.155300	0.353462
798.347378	0.353985
798.539438	0.354086
798.731480	0.354586
798.923503	0.354988
799.115509	0.355173
799.307496	0.355281
799.499465	0.355313
799.691415	0.355352
799.883348	0.355420
800.075262	0.355455
800.267158	0.355759
800.459035	0.355714
800.650895	0.355782
800.842736	0.356326
801.034559	0.356631
801.226364	0.356800
801.418150	0.357160
801.609919	0.357668
801.801669	0.358111
801.993401	0.358169
802.185114	0.358613
802.376810	0.359036
802.568487	0.358968
802.760146	0.359049
802.951787	0.359464
803.143409	0.359612
803.335014	0.360016
803.526600	0.360514
803.718168	0.361123
803.909717	0.361509
804.101249	0.361897
804.292762	0.362248
804.484257	0.362620
804.675734	0.362575
804.867192	0.362843
805.058632	0.363032
805.250054	0.363071
805.441458	0.363482
805.632844	0.363782
805.824211	0.364344
806.015561	0.364704
806.206891	0.365331
806.398204	0.365830
806.589499	0.366249
806.780775	0.366455
806.972033	0.366814
807.163273	0.367019
807.354495	0.367183
807.545698	0.367150
807.736883	0.367378
807.928050	0.368196
808.119199	0.368619
808.310329	0.368861
808.501441	0.369590
808.692535	0.369822
808.883611	0.370043
809.074669	0.370740
809.265708	0.371393
809.456729	0.371782
809.647732	0.371743
809.838717	0.372323
810.029683	0.372920
810.220632	0.373304
810.411562	0.373713
810.602474	0.374324
810.793367	0.374578
810.984242	0.374688
811.175100	0.375179
811.365938	0.375446
811.556759	0.375824
811.747562	0.376302
811.938346	0.376486
812.129112	0.377169
812.319860	0.377630
812.510589	0.378311
812.701300	0.378649
812.891994	0.378813
813.082668	0.379410
813.273325	0.379692
813.463964	0.380118
813.654584	0.380214
813.845186	0.380407
814.035769	0.380631
814.226335	0.380741
814.416882	0.381132
814.607411	0.381788
814.797922	0.382089
814.988415	0.382390
815.178889	0.382739
815.369345	0.383562
815.559783	0.383840
815.750203	0.384517
815.940605	0.384981
816.130988	0.385439
816.321353	0.385913
816.511700	0.386317
816.702028	0.386907
816.892339	0.387157
817.082631	0.387536
817.272905	0.388237
817.463161	0.388241
817.653398	0.388666
817.843617	0.389222
818.033819	0.389609
818.224001	0.389958
818.414166	0.390725
818.604312	0.391163
818.794440	0.391632
818.984550	0.391949
819.174642	0.392341
819.364716	0.393076
819.554771	0.393577
819.744808	0.394062
819.934827	0.394562
820.124827	0.394786
820.314810	0.395307
820.504774	0.395782
820.694720	0.396731
820.884647	0.397426
821.074557	0.397795
821.264448	0.398371
821.454321	0.398770
821.644176	0.399674
821.834012	0.400156
822.023831	0.400744
822.213631	0.401177
822.403413	0.401433
822.593176	0.402000
822.782922	0.402453
822.972649	0.402993
823.162358	0.403806
823.352049	0.404332
823.541721	0.404993
823.731376	0.405793
823.921012	0.406457
824.110629	0.406991
824.300229	0.407655
824.489811	0.408284
824.679374	0.408713
824.868919	0.409155
825.058445	0.409761
825.247954	0.410019
825.437444	0.410315
825.626916	0.410773
825.816370	0.411211
826.005806	0.411610
826.195223	0.412263
826.384622	0.412729
826.574003	0.413175
826.763366	0.413442
826.952711	0.414134
827.142037	0.414831
827.331345	0.415501
827.520635	0.416179
827.709906	0.417017
827.899160	0.417535
828.088395	0.418070
828.277612	0.419063
828.466810	0.419347
828.655991	0.419715
828.845153	0.419838
829.034297	0.420301
829.223423	0.420708
829.412531	0.421058
829.601620	0.421817
829.790691	0.422300
829.979744	0.422459
830.168779	0.423359
830.357795	0.424257
830.546793	0.425175
830.735773	0.425596
830.924735	0.426334
831.113679	0.427302
831.302604	0.427179
831.491511	0.427958
831.680400	0.428699
831.869271	0.429048
832.058123	0.429298
832.246957	0.429971
832.435773	0.430752
832.624571	0.431446
832.813351	0.431505
833.002112	0.432114
833.190855	0.432728
833.379580	0.432940
833.568287	0.433782
833.756975	0.434263
833.945645	0.434621
834.134297	0.435316
834.322931	0.435727
834.511547	0.436304
834.700144	0.437458
834.888723	0.437903
835.077284	0.438518
835.265826	0.438896
835.454351	0.439766
835.642857	0.440643
835.831345	0.440904
836.019815	0.441875
836.208266	0.442720
836.396699	0.442968
836.585114	0.443862
836.773511	0.444629
836.961890	0.445369
837.150250	0.445802
837.338592	0.446015
837.526916	0.446534
837.715222	0.446647
837.903510	0.447032
838.091779	0.447670
838.280030	0.447967
838.468263	0.448391
838.656477	0.448550
838.844674	0.449453
839.032852	0.450126
839.221012	0.451016
839.409153	0.451844
839.597277	0.452651
839.785382	0.453051
839.973469	0.454233
840.161538	0.455491
840.349589	0.456499
840.537621	0.456747
840.725635	0.457384
840.913631	0.457804
841.101609	0.458078
841.289568	0.458542
841.477509	0.459702
841.665432	0.460040
841.853337	0.460581
842.041224	0.461214
842.229092	0.462543
842.416942	0.463245
842.604774	0.464264
842.792588	0.465173
842.980383	0.466294
843.168160	0.466840
843.355919	0.467447
843.543660	0.467458
843.731382	0.468102
843.919087	0.468501
844.106773	0.469303
844.294441	0.470013
844.482090	0.470717
844.669722	0.471391
844.857335	0.471824
845.044930	0.472270
845.232507	0.473324
845.420065	0.474449
845.607605	0.474595
845.795127	0.475010
845.982631	0.475195
846.170117	0.475564
846.357584	0.475626
846.545033	0.476505
846.732464	0.476949
846.919877	0.477062
847.107272	0.477023
847.294648	0.477643
847.482006	0.478314
847.669346	0.478999
847.856667	0.479840
848.043971	0.480504
848.231256	0.480667
848.418523	0.481040
848.605771	0.482380
848.793002	0.483133
848.980214	0.483758
849.167408	0.484453
849.354584	0.485088
849.541742	0.485753
849.728881	0.486247
849.916002	0.487182
850.103105	0.488265
850.290190	0.488604
850.477256	0.489307
850.664304	0.490012
850.851334	0.490652
851.038346	0.490920
851.225340	0.491162
851.412315	0.492110
851.599272	0.492763
851.786211	0.493297
851.973132	0.493918
852.160034	0.494371
852.346918	0.495047
852.533784	0.495280
852.720632	0.496299
852.907462	0.497654
853.094273	0.498029
853.281066	0.498345
853.467841	0.498939
853.654598	0.499360
853.841336	0.499829
854.028056	0.500112
854.214758	0.500557
854.401442	0.500592
854.588107	0.500432
854.774755	0.501128
854.961384	0.501501
855.147995	0.501960
855.334587	0.502218
855.521162	0.502882
855.707718	0.504239
855.894256	0.504727
856.080775	0.505887
856.267277	0.506652
856.453760	0.507023
856.640225	0.508057
856.826672	0.508979
857.013101	0.509797
857.199511	0.510537
857.385903	0.511205
857.572277	0.512416
857.758633	0.512718
857.944970	0.513634
858.131290	0.514669
858.317591	0.515537
858.503873	0.515732
858.690138	0.516149
858.876384	0.516738
859.062612	0.516796
859.248822	0.517315
859.435014	0.517980
859.621188	0.518439
859.807343	0.519058
859.993480	0.519155
860.179599	0.520170
860.365699	0.521135
860.551781	0.521382
860.737846	0.522469
860.923891	0.522591
861.109919	0.523238
861.295929	0.523588
861.481920	0.523696
861.667893	0.524778
861.853848	0.524968
862.039784	0.525283
862.225702	0.526306
862.411603	0.526240
862.597484	0.527342
862.783348	0.528049
862.969193	0.528736
863.155021	0.529181
863.340830	0.529231
863.526620	0.529758
863.712393	0.530007
863.898147	0.530461
864.083883	0.530846
864.269601	0.531427
864.455301	0.531835
864.640982	0.532488
864.826645	0.533270
865.012290	0.534170
865.197917	0.534962
865.383526	0.535767
865.569116	0.536416
865.754688	0.537010
865.940242	0.537395
866.125777	0.537607
866.311295	0.537749
866.496794	0.537943
866.682275	0.538014
866.867737	0.538780
867.053182	0.539283
867.238608	0.539322
867.424016	0.539851
867.609406	0.540083
867.794778	0.540733
867.980131	0.540931
868.165466	0.541177
868.350783	0.541143
868.536082	0.540933
868.721362	0.541409
868.906625	0.541832
869.091869	0.542119
869.277094	0.542639
869.462302	0.543026
869.647491	0.543523
869.832662	0.544018
870.017815	0.544861
870.202950	0.545470
870.388066	0.545838
870.573165	0.546909
870.758245	0.547324
870.943306	0.547806
871.128350	0.548389
871.313375	0.548896
871.498382	0.550263
871.683371	0.550409
871.868342	0.550851
872.053294	0.551386
872.238229	0.550807
872.423144	0.551305
872.608042	0.551118
872.792922	0.550984
872.977783	0.551585
873.162626	0.551001
873.347451	0.551649
873.532258	0.551748
873.717046	0.552102
873.901816	0.553126
874.086568	0.553492
874.271302	0.553937
874.456017	0.554695
874.640715	0.554951
874.825394	0.555643
875.010055	0.555837
875.194697	0.555973
875.379322	0.555975
875.563928	0.556389
875.748516	0.556483
875.933085	0.556744
876.117637	0.556932
876.302170	0.557232
876.486685	0.556969
876.671182	0.556830
876.855661	0.557486
877.040121	0.558078
877.224563	0.557619
877.408987	0.558455
877.593393	0.558782
877.777780	0.558940
877.962150	0.559262
878.146501	0.559443
878.330833	0.560265
878.515148	0.560249
878.699444	0.560001
878.883722	0.560580
879.067982	0.560462
879.252224	0.560614
879.436447	0.560642
879.620653	0.560560
879.804840	0.561203
879.989008	0.561349
880.173159	0.561417
880.357291	0.562077
880.541405	0.561854
880.725501	0.561918
880.909579	0.562762
881.093638	0.563599
881.277680	0.563671
881.461703	0.564237
881.645707	0.564583
881.829694	0.565280
882.013662	0.565355
882.197612	0.565887
882.381544	0.566024
882.565458	0.565648
882.749353	0.566053
882.933230	0.566439
883.117089	0.565761
883.300930	0.565999
883.484753	0.566203
883.668557	0.565943
883.852343	0.565868
884.036111	0.565736
884.219861	0.566035
884.403592	0.565649
884.587305	0.566287
884.771000	0.566794
884.954677	0.566697
885.138335	0.566271
885.321976	0.566759
885.505598	0.567367
885.689201	0.567832
885.872787	0.567361
886.056354	0.566961
886.239904	0.566426
886.423434	0.566733
886.606947	0.566646
886.790442	0.567425
886.973918	0.567425
887.157376	0.567577
887.340816	0.566843
887.524237	0.567749
887.707641	0.568124
887.891026	0.568192
888.074393	0.567828
888.257741	0.567988
888.441072	0.567270
888.624384	0.567208
888.807678	0.567140
888.990954	0.568300
889.174211	0.568212
889.357451	0.568085
889.540672	0.568136
889.723875	0.568432
889.907059	0.567672
890.090226	0.568117
890.273374	0.568221
890.456504	0.567794
890.639616	0.567122
890.822709	0.566470
891.005785	0.566474
891.188842	0.566457
891.371881	0.566609
891.554901	0.567457
891.737904	0.566854
891.920888	0.566458
892.103854	0.566489
892.286802	0.566147
892.469731	0.565933
892.652643	0.565984
892.835536	0.565634
893.018410	0.565598
893.201267	0.565531
893.384106	0.565532
893.566926	0.565219
893.749728	0.564285
893.932511	0.565066
894.115277	0.565180
894.298024	0.565224
894.480753	0.565436
894.663464	0.565119
894.846157	0.564952
895.028831	0.564476
895.211487	0.564768
895.394125	0.565013
895.576745	0.564244
895.759346	0.564562
895.941930	0.563876
896.124495	0.563793
896.307041	0.562605
896.489570	0.561834
896.672080	0.561812
896.854573	0.561658
897.037046	0.561806
897.219502	0.561162
897.401940	0.560608
897.584359	0.560923
897.766760	0.560975
897.949143	0.561729
898.131507	0.561791
898.313854	0.561743
898.496182	0.560813
898.678492	0.560070
898.860783	0.559654
899.043057	0.559325
899.225312	0.558427
899.407549	0.557531
899.589768	0.556775
899.771968	0.556477
899.954151	0.556285
900.136315	0.555887
900.318461	0.556272
900.500588	0.557223
900.682698	0.556667
900.864789	0.556736
901.046862	0.556462
901.228917	0.556454
901.410953	0.556200
901.592971	0.555527
901.774972	0.555961
901.956953	0.554677
902.138917	0.553953
902.320862	0.553382
902.502790	0.552943
902.684699	0.552045
902.866589	0.551301
903.048462	0.550623
903.230316	0.550797
903.412152	0.549563
903.593970	0.549637
903.775770	0.549264
903.957551	0.548908
904.139314	0.548434
904.321059	0.547984
904.502786	0.547182
904.684494	0.546033
904.866185	0.544882
905.047857	0.544681
905.229510	0.544390
905.411146	0.544060
905.592763	0.543286
905.774363	0.542903
905.955943	0.542643
906.137506	0.542855
906.319051	0.542989
906.500577	0.542671
906.682085	0.542295
906.863575	0.541712
907.045046	0.540753
907.226500	0.540299
907.407935	0.539244
907.589352	0.538728
907.770750	0.537963
907.952131	0.537456
908.133493	0.536773
908.314837	0.536519
908.496163	0.536080
908.677470	0.534820
908.858760	0.534819
909.040031	0.534507
909.221284	0.533744
909.402518	0.532858
909.583735	0.531981
909.764933	0.531400
909.946113	0.530889
910.127275	0.529827
910.308418	0.529998
910.489544	0.529554
910.670651	0.529100
910.851740	0.527771
911.032810	0.527616
911.213863	0.527029
911.394897	0.526367
911.575913	0.525379
911.756911	0.524194
911.937890	0.523394
912.118851	0.522663
912.299794	0.521109
912.480719	0.521006
912.661626	0.519871
912.842514	0.519427
913.023384	0.518865
913.204236	0.518252
913.385070	0.517969
913.565886	0.516349
913.746683	0.514844
913.927462	0.514538
914.108223	0.513875
914.288965	0.512744
914.469690	0.512351
914.650396	0.511363
914.831084	0.510330
915.011754	0.509531
915.192405	0.509181
915.373038	0.508182
915.553653	0.507799
915.734250	0.507168
915.914829	0.506739
916.095389	0.506173
916.275931	0.505384
916.456455	0.504714
916.636961	0.504833
916.817448	0.505039
916.997917	0.504184
917.178368	0.502996
917.358801	0.502092
917.539216	0.500857
917.719612	0.499016
917.899990	0.498437
918.080350	0.497402
918.260692	0.495630
918.441015	0.494428
918.621320	0.494009
918.801607	0.493515
918.981876	0.492309
919.162127	0.492537
919.342359	0.492140
919.522573	0.490528
919.702769	0.489768
919.882947	0.488458
920.063106	0.486515
920.243247	0.485915
920.423370	0.485025
920.603475	0.484592
920.783562	0.482761
920.963630	0.481923
921.143680	0.481357
921.323712	0.479368
921.503725	0.479180
921.683721	0.478327
921.863698	0.477014
922.043657	0.475617
922.223598	0.475299
922.403520	0.474489
922.583424	0.472955
922.763311	0.472050
922.943178	0.471316
923.123028	0.469325
923.302859	0.468326
923.482673	0.467030
923.662467	0.464864
923.842244	0.462878
924.022003	0.462066
924.201743	0.460953
924.381465	0.459254
924.561169	0.458225
924.740854	0.457411
924.920522	0.456843
925.100171	0.456071
925.279802	0.455526
925.459414	0.454114
925.639009	0.452672
925.818585	0.450943
925.998143	0.449476
926.177683	0.448843
926.357205	0.448325
926.536708	0.447283
926.716193	0.446044
926.895660	0.445722
927.075109	0.444654
927.254539	0.443049
927.433951	0.442205
927.613345	0.441501
927.792721	0.440839
927.972079	0.439567
928.151418	0.438099
928.330739	0.436304
928.510042	0.434797
928.689327	0.433296
928.868593	0.433053
929.047841	0.431672
929.227071	0.430655
929.406283	0.429518
929.585476	0.427626
929.764652	0.427182
929.943809	0.426256
930.122948	0.424261
930.302068	0.423375
930.481171	0.421576
930.660255	0.420908
930.839321	0.419919
931.018369	0.417084
931.197398	0.415830
931.376409	0.414293
931.555402	0.414246
931.734377	0.413354
931.913334	0.411865
932.092272	0.409927
932.271192	0.408688
932.450094	0.407166
932.628978	0.405786
932.807844	0.404859
932.986691	0.402688
933.165520	0.400284
933.344331	0.398664
933.523123	0.396814
933.701898	0.396948
933.880654	0.395102
934.059392	0.394124
934.238111	0.393936
934.416813	0.392015
934.595496	0.390810
934.774161	0.389930
934.952808	0.389156
935.131437	0.388570
935.310047	0.385752
935.488639	0.385447
935.667213	0.383519
935.845769	0.381481
936.024306	0.380285
936.202825	0.378431
936.381326	0.376819
936.559809	0.374603
936.738274	0.373407
936.916720	0.372263
937.095148	0.370097
937.273558	0.369657
937.451950	0.369610
937.630323	0.368650
937.808678	0.368134
937.987015	0.367280
938.165334	0.367528
938.343635	0.365139
938.521917	0.363388
938.700181	0.361401
938.878427	0.359779
939.056655	0.356658
939.234864	0.355181
939.413055	0.353062
939.591228	0.350893
939.769383	0.348493
939.947519	0.348072
940.125638	0.347868
940.303738	0.347701
940.481820	0.346264
940.659883	0.345848
940.837929	0.342769
941.015956	0.341206
941.193965	0.339748
941.371955	0.340354
941.549928	0.337709
941.727882	0.337110
941.905818	0.335652
942.083736	0.334108
942.261636	0.333164
942.439517	0.333010
942.617380	0.332107
942.795225	0.332555
942.973052	0.329171
943.150860	0.329170
943.328651	0.326614
943.506423	0.324945
943.684176	0.322273
943.861912	0.319285
944.039629	0.318125
944.217328	0.316585
944.395009	0.313527
944.572672	0.311262
944.750317	0.310340
944.927943	0.308233
945.105551	0.305758
945.283141	0.304753
945.460712	0.302904
945.638265	0.299843
945.815801	0.298205
945.993317	0.297124
946.170816	0.296738
946.348297	0.294120
946.525759	0.294040
946.703203	0.292685
946.880629	0.291374
947.058036	0.290998
947.235425	0.291356
947.412797	0.288889
947.590149	0.285906
947.767484	0.284069
947.944800	0.283027
948.122099	0.278653
948.299379	0.278692
948.476640	0.277514
948.653884	0.276133
948.831109	0.274665
949.008316	0.274539
949.185505	0.273227
949.362676	0.272721
949.539828	0.270785
949.716962	0.271724
949.894078	0.266306
950.071176	0.264052
950.248256	0.261729
950.425317	0.261290
950.602360	0.258795
950.779385	0.258161
950.956391	0.255060
951.133380	0.255503
951.310350	0.254135
951.487302	0.254946
951.664235	0.254975
951.841151	0.255165
952.018048	0.253927
952.194927	0.253914
952.371788	0.251447
952.548631	0.251391
952.725455	0.246843
952.902261	0.246044
953.079049	0.245631
953.255819	0.242739
953.432570	0.239791
953.609303	0.236710
953.786018	0.235983
953.962715	0.235452
954.139394	0.232951
954.316054	0.232216
954.492696	0.229308
954.669320	0.225375
954.845926	0.227348
955.022513	0.229204
955.199083	0.227215
955.375634	0.225036
955.552166	0.224008
955.728681	0.222042
955.905177	0.221085
956.081655	0.220456
956.258115	0.220695
956.434557	0.217302
956.610980	0.215700
956.787385	0.215529
956.963772	0.215454
957.140141	0.215632
957.316492	0.216168
957.492824	0.218451
957.669138	0.217766
957.845434	0.217015
958.021712	0.214451
958.197971	0.213063
958.374212	0.212145
958.550435	0.211448
958.726640	0.209032
958.902826	0.208371
959.078995	0.204025
959.255145	0.202118
959.431277	0.201723
959.607390	0.203231
959.783486	0.202545
959.959563	0.201784
960.135622	0.199904
960.311662	0.198656
960.487685	0.195841
960.663689	0.195470
960.839675	0.196504
961.015643	0.196583
961.191593	0.193834
961.367524	0.192000
961.543437	0.189718
961.719332	0.189654
961.895209	0.188255
962.071067	0.188615
962.246907	0.185201
962.422730	0.184206
962.598533	0.182938
962.774319	0.182036
962.950086	0.181806
963.125835	0.183421
963.301566	0.180964
963.477279	0.182568
963.652973	0.182162
963.828650	0.184977
964.004308	0.181304
964.179947	0.180958
964.355569	0.183458
964.531172	0.181055
964.706757	0.179312
964.882324	0.181722
965.057873	0.182159
965.233403	0.181652
965.408916	0.181130
965.584410	0.182844
965.759885	0.185886
965.935343	0.184843
966.110782	0.188280
966.286203	0.189828
966.461606	0.189646
966.636991	0.190256
966.812357	0.190630
966.987705	0.191685
967.163035	0.191298
967.338347	0.187509
967.513641	0.190370
967.688916	0.186942
967.864173	0.187498
968.039412	0.183717
968.214632	0.181789
968.389835	0.182844
968.565019	0.180772
968.740185	0.179969
968.915333	0.181564
969.090462	0.178746
969.265573	0.180136
969.440667	0.179063
969.615741	0.182234
969.790798	0.181803
969.965836	0.179809
970.140856	0.181543
970.315858	0.181122
970.490842	0.180429
970.665808	0.179328
970.840755	0.180080
971.015684	0.179181
971.190595	0.176198
971.365487	0.177377
971.540362	0.176089
971.715218	0.174946
971.890056	0.176015
972.064875	0.177382
972.239677	0.178029
972.414460	0.176993
972.589225	0.176269
972.763972	0.176640
972.938700	0.176197
973.113411	0.179086
973.288103	0.178939
973.462777	0.179306
973.637432	0.177309
973.812070	0.177646
973.986689	0.177060
974.161290	0.179060
974.335873	0.180301
974.510437	0.179237
974.684984	0.178902
974.859512	0.178648
975.034022	0.179858
975.208513	0.179429
975.382987	0.177651
975.557442	0.180167
975.731879	0.179680
975.906298	0.180017
976.080698	0.181130
976.255080	0.182899
976.429445	0.184246
976.603790	0.184878
976.778118	0.183325
976.952427	0.186931
977.126719	0.185531
977.300992	0.184443
977.475246	0.181822
977.649483	0.183024
977.823701	0.181032
977.997901	0.180111
978.172083	0.179916
978.346247	0.182149
978.520392	0.179363
978.694519	0.179325
978.868628	0.179141
979.042719	0.181530
979.216791	0.180121
979.390845	0.179021
979.564882	0.179885
979.738899	0.179317
979.912899	0.177785
980.086880	0.177315
980.260843	0.174831
980.434788	0.175358
980.608715	0.175282
980.782623	0.174475
980.956514	0.174055
981.130386	0.170037
981.304240	0.168484
981.478075	0.170495
981.651892	0.171817
981.825692	0.173116
981.999472	0.172289
982.173235	0.173165
982.346980	0.173838
982.520706	0.175134
982.694414	0.175585
982.868104	0.179063
983.041775	0.180075
983.215428	0.178684
983.389064	0.178321
983.562680	0.178708
983.736279	0.176648
983.909860	0.176467
984.083422	0.175164
984.256966	0.175558
984.430491	0.172020
984.603999	0.171051
984.777488	0.171658
984.950959	0.172777
985.124412	0.175415
985.297847	0.176904
985.471263	0.176827
985.644661	0.180077
985.818041	0.181788
985.991403	0.182196
986.164747	0.180557
986.338072	0.180228
986.511379	0.179932
986.684668	0.175282
986.857938	0.174781
987.031191	0.174761
987.204425	0.172358
987.377641	0.173486
987.550839	0.173981
987.724018	0.175785
987.897179	0.175136
988.070322	0.175549
988.243447	0.179023
988.416554	0.178510
988.589642	0.178340
988.762712	0.178342
988.935764	0.179762
989.108798	0.178946
989.281813	0.177233
989.454811	0.179643
989.627790	0.180308
989.800751	0.180665
989.973693	0.182057
990.146617	0.180778
990.319524	0.179761
990.492412	0.176940
990.665281	0.177320
990.838133	0.179598
991.010966	0.177115
991.183781	0.176957
991.356578	0.175776
991.529356	0.175778
991.702117	0.176509
991.874859	0.177959
992.047583	0.177504
992.220288	0.177944
992.392976	0.177364
992.565645	0.178375
992.738296	0.176725
992.910929	0.177127
993.083543	0.177314
993.256139	0.178510
993.428718	0.177608
993.601277	0.179135
993.773819	0.180096
993.946342	0.179239
994.118848	0.178465
994.291335	0.180027
994.463803	0.178993
994.636254	0.178038
994.808686	0.176534
994.981100	0.176401
995.153496	0.176218
995.325874	0.176244
995.498233	0.176444
995.670574	0.177877
995.842897	0.177133
996.015202	0.176603
996.187488	0.174370
996.359757	0.175925
996.532007	0.176512
996.704239	0.176616
996.876452	0.175682
997.048648	0.177787
997.220825	0.178145
997.392984	0.178712
997.565124	0.181152
997.737247	0.182551
997.909351	0.182230
998.081437	0.181595
998.253505	0.180818
998.425554	0.179945
998.597586	0.179962
998.769599	0.178748
998.941594	0.177396
999.113571	0.175306
999.285529	0.177029
999.457469	0.177396
999.629391	0.177876
999.801295	0.177747
999.973181	0.177347
1000.145048	0.174019
1000.316897	0.172396
1000.488728	0.173166
1000.660541	0.173955
1000.832335	0.172652
1001.004111	0.171508
1001.175869	0.172561
1001.347609	0.173985
1001.519331	0.176966
1001.691034	0.178346
1001.862719	0.180587
1002.034386	0.179597
1002.206035	0.180349
1002.377665	0.182180
1002.549277	0.181562
1002.720871	0.180017
1002.892447	0.179639
1003.064004	0.175669
1003.235544	0.172149
1003.407065	0.171708
1003.578568	0.173202
1003.750052	0.172050
1003.921519	0.170139
1004.092967	0.169442
1004.264397	0.171453
1004.435809	0.169786
1004.607202	0.171470
1004.778577	0.177254
1004.949934	0.178481
1005.121273	0.177152
1005.292594	0.177684
1005.463896	0.177535
1005.635180	0.178752
1005.806446	0.177718
1005.977694	0.179590
1006.148923	0.179597
1006.320135	0.177824
1006.491328	0.176570
1006.662503	0.176484
1006.833659	0.175884
1007.004798	0.175727
1007.175918	0.177495
1007.347020	0.178544
1007.518103	0.177219
1007.689169	0.177476
1007.860216	0.177592
1008.031245	0.176691
1008.202256	0.177769
1008.373248	0.178609
1008.544223	0.179143
1008.715179	0.177526
1008.886117	0.175663
1009.057036	0.176421
1009.227938	0.177414
1009.398821	0.177510
1009.569686	0.178150
1009.740533	0.176739
1009.911361	0.175878
1010.082172	0.175866
1010.252964	0.175370
1010.423738	0.176118
1010.594493	0.175165
1010.765231	0.174162
1010.935950	0.172527
1011.106651	0.173249
1011.277334	0.174593
1011.447998	0.175314
1011.618645	0.175242
1011.789273	0.174940
1011.959882	0.174939
1012.130474	0.175804
1012.301048	0.175347
1012.471603	0.175768
1012.642140	0.174900
1012.812658	0.175840
1012.983159	0.174941
1013.153641	0.174390
1013.324105	0.175974
1013.494551	0.176845
1013.664979	0.175785
1013.835388	0.174451
1014.005779	0.172922
1014.176152	0.172971
1014.346507	0.170930
1014.516843	0.169539
1014.687162	0.171066
1014.857462	0.171689
1015.027744	0.169883
1015.198007	0.168475
1015.368252	0.168167
1015.538480	0.167930
1015.708689	0.167618
1015.878879	0.167165
1016.049052	0.168853
1016.219206	0.168716
1016.389342	0.168267
1016.559460	0.167497
1016.729559	0.171237
1016.899641	0.173877
1017.069704	0.173312
1017.239749	0.174076
1017.409775	0.174979
1017.579784	0.175262
1017.749774	0.174824
1017.919746	0.174512
1018.089700	0.177693
1018.259635	0.174507
1018.429553	0.174697
1018.599452	0.177396
1018.769333	0.177632
1018.939195	0.177617
1019.109040	0.177018
1019.278866	0.176396
1019.448674	0.175217
1019.618464	0.175443
1019.788235	0.177684
1019.957989	0.176887
1020.127724	0.175859
1020.297441	0.176610
1020.467139	0.178455
1020.636820	0.178655
1020.806482	0.180350
1020.976126	0.181580
1021.145752	0.181410
1021.315359	0.181489
1021.484948	0.181447
1021.654519	0.182074
1021.824072	0.181602
1021.993607	0.177974
1022.163123	0.179666
1022.332621	0.178045
1022.502101	0.176864
1022.671563	0.173688
1022.841007	0.173429
1023.010432	0.170392
1023.179839	0.171544
1023.349228	0.170593
1023.518598	0.172175
1023.687951	0.172357
1023.857285	0.172218
1024.026601	0.174618
1024.195899	0.177287
1024.365178	0.175636
1024.534439	0.177996
1024.703682	0.176377
1024.872907	0.175438
1025.042114	0.175043
1025.211302	0.174236
1025.380472	0.174315
1025.549624	0.171877
1025.718758	0.170438
1025.887873	0.171244
1026.056970	0.171161
1026.226049	0.171247
1026.395110	0.170039
1026.564153	0.168963
1026.733177	0.168883
1026.902183	0.169836
1027.071171	0.170809
1027.240141	0.171182
1027.409092	0.170964
1027.578026	0.169785
1027.746940	0.169062
1027.915837	0.172313
1028.084716	0.174473
1028.253576	0.174724
1028.422418	0.174511
1028.591242	0.174212
1028.760048	0.173737
1028.928835	0.173581
1029.097604	0.173780
1029.266355	0.175704
1029.435088	0.174056
1029.603803	0.174545
1029.772499	0.173937
1029.941177	0.174182
1030.109837	0.173800
1030.278478	0.174139
1030.447102	0.175064
1030.615707	0.176706
1030.784294	0.173782
1030.952863	0.174394
1031.121413	0.171017
1031.289945	0.170377
1031.458460	0.171322
1031.626955	0.171389
1031.795433	0.170706
1031.963892	0.169977
1032.132334	0.169522
1032.300756	0.171797
1032.469161	0.173170
1032.637548	0.174652
1032.805916	0.175055
1032.974266	0.172855
1033.142598	0.173858
1033.310911	0.174682
1033.479207	0.176648
1033.647484	0.175719
1033.815743	0.175619
1033.983983	0.172545
1034.152206	0.174776
1034.320410	0.174367
1034.488596	0.174546
1034.656764	0.172234
1034.824914	0.172223
1034.993045	0.171151
1035.161158	0.172193
1035.329253	0.172014
1035.497330	0.173959
1035.665388	0.172440
1035.833428	0.172030
1036.001450	0.170993
1036.169454	0.171626
1036.337440	0.170607
1036.505407	0.169836
1036.673356	0.169023
1036.841287	0.166575
1037.009200	0.166503
1037.177094	0.165305
1037.344970	0.165503
1037.512828	0.168215
1037.680668	0.169007
1037.848489	0.170161
1038.016293	0.169235
1038.184078	0.169760
1038.351845	0.173517
1038.519593	0.172821
1038.687324	0.174516
1038.855036	0.175360
1039.022730	0.172411
1039.190406	0.173838
1039.358063	0.172715
1039.525702	0.175603
1039.693323	0.176556
1039.860926	0.174476
1040.028511	0.175484
1040.196077	0.175683
1040.363625	0.173599
1040.531155	0.175213
1040.698667	0.176180
1040.866161	0.177440
1041.033636	0.175598
1041.201093	0.174885
1041.368532	0.173970
1041.535952	0.173021
1041.703355	0.172219
1041.870739	0.174067
1042.038105	0.173833
1042.205452	0.170676
1042.372782	0.170962
1042.540093	0.171008
1042.707386	0.170770
1042.874661	0.173768
1043.041918	0.174025
1043.209156	0.173986
1043.376376	0.173043
1043.543578	0.171365
1043.710762	0.173942
1043.877927	0.172732
1044.045074	0.172872
1044.212203	0.173520
1044.379314	0.173097
1044.546407	0.172194
1044.713481	0.173997
1044.880537	0.173263
1045.047575	0.173300
1045.214595	0.170181
1045.381596	0.170623
1045.548579	0.171510
1045.715544	0.170169
1045.882491	0.169574
1046.049420	0.170023
1046.216330	0.167500
1046.383222	0.170035
1046.550096	0.170773
1046.716951	0.172800
1046.883789	0.173603
1047.050608	0.170574
1047.217409	0.170559
1047.384192	0.170030
1047.550956	0.170319
1047.717703	0.170919
1047.884431	0.170085
1048.051140	0.171094
1048.217832	0.169940
1048.384505	0.168391
1048.551161	0.170094
1048.717798	0.170701
1048.884416	0.169449
1049.051017	0.170783
1049.217599	0.171934
1049.384163	0.171862
1049.550709	0.170809
1049.717237	0.170547
1049.883746	0.172039
1050.050237	0.170930
1050.216710	0.173728
1050.383165	0.175134
1050.549601	0.172838
1050.716019	0.171756
1050.882420	0.172400
1051.048801	0.173566
1051.215165	0.174934
1051.381510	0.173830
1051.547837	0.173415
1051.714146	0.171871
1051.880437	0.171554
1052.046709	0.173000
1052.212964	0.173155
1052.379200	0.174609
1052.545417	0.174818
1052.711617	0.174443
1052.877798	0.172522
1053.043961	0.173492
1053.210106	0.174147
1053.376233	0.175326
1053.542341	0.173486
1053.708432	0.174002
1053.874504	0.171082
1054.040557	0.171221
1054.206593	0.171531
1054.372610	0.173125
1054.538609	0.172273
1054.704590	0.170848
1054.870553	0.170446
1055.036497	0.172124
1055.202424	0.170616
1055.368331	0.171241
1055.534221	0.172067
1055.700093	0.170014
1055.865946	0.172260
1056.031781	0.173177
1056.197598	0.170873
1056.363397	0.170323
1056.529177	0.169567
1056.694939	0.171359
1056.860683	0.170755
1057.026409	0.171087
1057.192116	0.172282
1057.357806	0.170805
1057.523477	0.172898
1057.689130	0.174277
1057.854764	0.176682
1058.020381	0.178459
1058.185979	0.176694
1058.351559	0.178763
1058.517120	0.177470
1058.682664	0.178323
1058.848189	0.177345
1059.013696	0.177083
1059.179185	0.178541
1059.344656	0.175883
1059.510108	0.174558
1059.675542	0.173956
1059.840958	0.173632
1060.006356	0.172404
1060.171735	0.172134
1060.337096	0.173886
1060.502439	0.172313
1060.667764	0.172544
1060.833071	0.173497
1060.998359	0.173256
1061.163629	0.175989
1061.328881	0.173432
1061.494115	0.172422
1061.659330	0.170776
1061.824527	0.171310
1061.989706	0.171296
1062.154867	0.170643
1062.320010	0.170266
1062.485134	0.172461
1062.650240	0.171048
1062.815328	0.170775
1062.980398	0.171767
1063.145449	0.171920
1063.310482	0.172444
1063.475497	0.172035
1063.640494	0.171921
1063.805473	0.169891
1063.970433	0.166126
1064.135375	0.170486
1064.300299	0.172363
1064.465204	0.172616
1064.630092	0.176156
1064.794961	0.172915
1064.959812	0.175022
1065.124645	0.175736
1065.289459	0.178843
1065.454256	0.180319
1065.619034	0.176557
1065.783793	0.175489
1065.948535	0.177828
1066.113258	0.176420
1066.277964	0.178495
1066.442651	0.179405
1066.607319	0.178360
1066.771970	0.175868
1066.936602	0.175221
1067.101216	0.175463
1067.265812	0.174566
1067.430389	0.171523
1067.594949	0.171066
1067.759490	0.170676
1067.924013	0.170843
1068.088518	0.171442
1068.253004	0.172517
1068.417472	0.174076
1068.581922	0.172341
1068.746354	0.175091
1068.910768	0.177163
1069.075163	0.176822
1069.239540	0.177171
1069.403899	0.177072
1069.568240	0.177043
1069.732562	0.177481
1069.896866	0.175546
1070.061152	0.177396
1070.225420	0.177101
1070.389670	0.174827
1070.553901	0.176809
1070.718114	0.175139
1070.882309	0.173721
1071.046486	0.172524
1071.210644	0.171701
1071.374784	0.174398
1071.538906	0.172828
1071.703010	0.172245
1071.867096	0.175658
1072.031163	0.174899
1072.195212	0.179109
1072.359243	0.178569
1072.523256	0.181395
1072.687250	0.184746
1072.851226	0.184851
1073.015184	0.186849
1073.179124	0.186907
1073.343045	0.187918
1073.506949	0.188751
1073.670834	0.185637
1073.834701	0.188593
1073.998549	0.187225
1074.162380	0.187099
1074.326192	0.186759
1074.489986	0.184263
1074.653761	0.185742
1074.817519	0.182173
1074.981258	0.181257
1075.144979	0.181927
1075.308682	0.180487
1075.472367	0.181359
1075.636033	0.180977
1075.799681	0.182096
1075.963311	0.185108
1076.126923	0.183583
1076.290516	0.184918
1076.454092	0.184628
1076.617649	0.186121
1076.781187	0.183974
1076.944708	0.186150
1077.108210	0.182429
1077.271695	0.179343
1077.435160	0.181150
1077.598608	0.181965
1077.762038	0.181367
1077.925449	0.180047
1078.088842	0.179680
1078.252217	0.183470
1078.415573	0.180661
1078.578912	0.183423
1078.742232	0.187526
1078.905534	0.184775
1079.068817	0.185442
1079.232083	0.188254
1079.395330	0.191834
1079.558559	0.192787
1079.721770	0.188546
1079.884962	0.188060
1080.048136	0.187875
1080.211293	0.187252
1080.374430	0.189390
1080.537550	0.187503
1080.700651	0.185117
1080.863735	0.182280
1081.026800	0.179363
1081.189846	0.182200
1081.352875	0.183503
1081.515885	0.181835
1081.678877	0.181400
1081.841851	0.181732
1082.004807	0.182947
1082.167744	0.183932
1082.330663	0.184913
1082.493564	0.187567
1082.656447	0.188824
1082.819312	0.193569
1082.982158	0.194711
1083.144986	0.195214
1083.307796	0.193940
1083.470587	0.192114
1083.633361	0.190003
1083.796116	0.189741
1083.958853	0.188595
1084.121571	0.190607
1084.284272	0.186827
1084.446954	0.185635
1084.609618	0.184867
1084.772264	0.183922
1084.934892	0.184733
1085.097501	0.185812
1085.260092	0.187985
1085.422665	0.187676
1085.585220	0.180786
1085.747756	0.180414
1085.910274	0.182875
1086.072774	0.180581
1086.235256	0.177500
1086.397720	0.177902
1086.560165	0.180356
1086.722592	0.176220
1086.885001	0.175968
1087.047392	0.176597
1087.209764	0.173812
1087.372119	0.173864
1087.534455	0.174674
1087.696772	0.179907
1087.859072	0.182543
1088.021353	0.181241
1088.183616	0.187022
1088.345861	0.188616
1088.508088	0.191269
1088.670296	0.191642
1088.832486	0.189696
1088.994658	0.191855
1089.156812	0.191423
1089.318948	0.192485
1089.481065	0.191451
1089.643164	0.187525
1089.805245	0.186456
1089.967308	0.188365
1090.129352	0.187509
1090.291378	0.191181
1090.453386	0.189337
1090.615376	0.186678
1090.777347	0.185067
1090.939301	0.185192
1091.101236	0.184115
1091.263153	0.181897
1091.425051	0.179957
1091.586932	0.180926
1091.748794	0.178788
1091.910638	0.181541
1092.072463	0.182534
1092.234271	0.183387
1092.396060	0.185207
1092.557831	0.187448
1092.719584	0.191179
1092.881319	0.194682
1093.043035	0.197703
1093.204733	0.194142
1093.366413	0.190373
1093.528075	0.193275
1093.689718	0.190612
1093.851343	0.192916
1094.012950	0.196045
1094.174539	0.193929
1094.336110	0.192196
1094.497662	0.191501
1094.659196	0.191203
1094.820712	0.194280
1094.982210	0.194620
1095.143689	0.196148
1095.305151	0.193612
1095.466594	0.189962
1095.628018	0.191132
1095.789425	0.188470
1095.950813	0.189245
1096.112183	0.194279
1096.273535	0.194249
1096.434869	0.191068
1096.596184	0.188463
1096.757482	0.184389
1096.918761	0.186631
1097.080021	0.189011
1097.241264	0.190909
1097.402488	0.191649
1097.563694	0.193040
1097.724882	0.191208
1097.886052	0.192091
1098.047203	0.195611
1098.208336	0.197229
1098.369451	0.198668
1098.530548	0.193518
1098.691627	0.192560
1098.852687	0.196428
1099.013729	0.199224
1099.174753	0.203845
1099.335758	0.204790
1099.496746	0.203921
1099.657715	0.205070
1099.818666	0.202755
1099.979599	0.206375
1100.140513	0.208796
1100.301409	0.203222
1100.462287	0.197329
1100.623147	0.192788
1100.783989	0.188019
1100.944812	0.190559
1101.105617	0.192689
1101.266404	0.191235
1101.427173	0.193664
1101.587923	0.196232
1101.748656	0.199015
1101.909370	0.201127
1102.070066	0.200546
1102.230743	0.202169
1102.391403	0.201747
1102.552044	0.202177
1102.712667	0.201555
1102.873271	0.201440
1103.033858	0.195242
1103.194426	0.191149
1103.354976	0.191530
1103.515508	0.194359
1103.676021	0.200999
1103.836517	0.199304
1103.996994	0.196075
1104.157453	0.195007
1104.317893	0.194347
1104.478316	0.201106
1104.638720	0.205457
1104.799106	0.206934
1104.959474	0.204157
1105.119823	0.204247
1105.280155	0.204341
1105.440468	0.205103
1105.600763	0.210681
1105.761039	0.208564
1105.921298	0.204638
1106.081538	0.204931
1106.241760	0.200134
1106.401964	0.203287
1106.562149	0.199139
1106.722316	0.197208
1106.882465	0.197915
1107.042596	0.200952
1107.202709	0.202625
1107.362803	0.206392
1107.522879	0.208504
1107.682937	0.215171
1107.842977	0.210421
1108.002999	0.210628
1108.163002	0.214123
1108.322987	0.220166
1108.482954	0.213671
1108.642902	0.214731
1108.802833	0.208467
1108.962745	0.200913
1109.122639	0.193701
1109.282515	0.202995
1109.442372	0.202507
1109.602211	0.202470
1109.762032	0.193644
1109.921835	0.194886
1110.081620	0.194654
1110.241386	0.196509
1110.401134	0.198020
1110.560864	0.201305
1110.720576	0.200982
1110.880269	0.201730
1111.039945	0.206214
1111.199602	0.214339
1111.359240	0.215166
1111.518861	0.210164
1111.678463	0.213360
1111.838047	0.212512
1111.997613	0.210303
1112.157161	0.210471
1112.316690	0.207129
1112.476202	0.204735
1112.635695	0.203722
1112.795169	0.204623
1112.954626	0.208007
1113.114064	0.206171
1113.273484	0.213101
1113.432886	0.218438
1113.592270	0.211698
1113.751635	0.217337
1113.910983	0.213908
1114.070312	0.209555
1114.229622	0.211178
1114.388915	0.212987
1114.548189	0.211283
1114.707445	0.209467
1114.866683	0.204728
1115.025903	0.205852
1115.185104	0.204153
1115.344287	0.204194
1115.503452	0.212301
1115.662599	0.206020
1115.821727	0.203948
1115.980838	0.205946
1116.139930	0.206422
1116.299004	0.213712
1116.458059	0.212337
1116.617097	0.216108
1116.776116	0.215915
1116.935117	0.216182
1117.094099	0.219852
1117.253064	0.222888
1117.412010	0.222479
1117.570938	0.220146
1117.729848	0.210351
1117.888740	0.210592
1118.047613	0.208727
1118.206468	0.208497
1118.365305	0.211632
1118.524124	0.214283
1118.682924	0.220119
1118.841707	0.223840
1119.000471	0.224535
1119.159216	0.235008
1119.317944	0.241574
1119.476653	0.241420
1119.635344	0.246918
1119.794017	0.233187
1119.952672	0.231707
1120.111308	0.219368
1120.269927	0.211498
1120.428527	0.207300
1120.587108	0.203545
1120.745672	0.201967
1120.904217	0.200887
1121.062744	0.200584
1121.221253	0.207279
1121.379744	0.200895
1121.538216	0.206310
1121.696671	0.206607
1121.855107	0.216556
1122.013524	0.211862
1122.171924	0.214933
1122.330305	0.208681
1122.488668	0.213077
1122.647013	0.212169
1122.805340	0.217190
1122.963648	0.213397
1123.121938	0.212416
1123.280210	0.204599
1123.438464	0.213705
1123.596700	0.211635
1123.754917	0.220304
1123.913116	0.209703
1124.071297	0.212321
1124.229459	0.211475
1124.387604	0.212386
1124.545730	0.221640
1124.703838	0.220458
1124.861928	0.211594
1125.019999	0.212869
1125.178052	0.220399
1125.336088	0.230111
1125.494104	0.217158
1125.652103	0.223405
1125.810083	0.224515
1125.968045	0.224677
1126.125989	0.227102
1126.283915	0.232577
1126.441823	0.237942
1126.599712	0.224624
1126.757583	0.215720
1126.915436	0.223189
1127.073270	0.217507
1127.231087	0.225951
1127.388885	0.216734
1127.546665	0.219215
1127.704426	0.222777
1127.862170	0.215684
1128.019895	0.222399
1128.177602	0.225459
1128.335291	0.226270
1128.492961	0.224752
1128.650614	0.217237
1128.808248	0.223673
1128.965864	0.221363
1129.123461	0.214752
1129.281041	0.218398
1129.438602	0.216066
1129.596145	0.220962
1129.753670	0.218690
1129.911176	0.218590
1130.068665	0.219470
1130.226135	0.209691
1130.383587	0.212063
1130.541020	0.214913
1130.698436	0.211059
1130.855833	0.199503
1131.013212	0.194452
1131.170573	0.191834
1131.327915	0.186930
1131.485239	0.182708
1131.642545	0.193425
1131.799833	0.190395
1131.957103	0.184382
1132.114354	0.185955
1132.271588	0.203117
1132.428803	0.204492
1132.585999	0.212932
1132.743178	0.216387
1132.900338	0.216087
1133.057480	0.218213
1133.214604	0.217169
1133.371710	0.219585
1133.528797	0.222945
1133.685866	0.214526
1133.842917	0.214796
1133.999950	0.204462
1134.156964	0.210331
1134.313960	0.217750
1134.470938	0.216942
1134.627898	0.223189
1134.784840	0.230249
1134.941763	0.228144
1135.098668	0.228087
1135.255555	0.225538
1135.412424	0.240804
1135.569274	0.232500
1135.726107	0.215312
1135.882921	0.206864
1136.039716	0.203575
1136.196494	0.202471
1136.353253	0.203511
1136.509995	0.203229
1136.666717	0.209877
1136.823422	0.204044
1136.980109	0.202319
1137.136777	0.217932
1137.293427	0.217312
1137.450059	0.213087
1137.606672	0.203619
1137.763267	0.197876
1137.919844	0.196033
1138.076403	0.192500
1138.232944	0.188247
1138.389466	0.201224
1138.545971	0.194441
1138.702457	0.204717
1138.858924	0.211337
1139.015374	0.226856
1139.171805	0.218977
1139.328218	0.213413
1139.484613	0.211778
1139.640990	0.217792
1139.797348	0.214541
1139.953688	0.219909
1140.110010	0.221622
1140.266314	0.218223
1140.422600	0.209253
1140.578867	0.217627
1140.735116	0.228501
1140.891347	0.221682
1141.047559	0.226332
1141.203754	0.228225
1141.359930	0.228524
1141.516088	0.222528
1141.672228	0.226702
1141.828349	0.236554
1141.984452	0.226774
1142.140537	0.226302
1142.296604	0.226228
1142.452653	0.215699
1142.608683	0.208553
1142.764695	0.211912
1142.920689	0.219110
1143.076665	0.209082
1143.232622	0.203415
1143.388562	0.206094
1143.544483	0.212119
1143.700385	0.217313
1143.856270	0.218541
1144.012136	0.222551
1144.167985	0.215150
1144.323814	0.214495
1144.479626	0.220009
1144.635420	0.213752
1144.791195	0.215807
1144.946952	0.204098
1145.102691	0.194908
1145.258411	0.197094
1145.414113	0.194213
1145.569798	0.200330
1145.725463	0.186502
1145.881111	0.193769
1146.036741	0.204807
1146.192352	0.213428
1146.347945	0.222424
1146.503519	0.239097
1146.659076	0.235472
1146.814614	0.244055
1146.970134	0.233888
1147.125636	0.241615
1147.281120	0.237099
1147.436585	0.219332
1147.592032	0.216890
1147.747461	0.215107
1147.902872	0.212031
1148.058265	0.211156
1148.213639	0.192681
1148.368995	0.198596
1148.524333	0.197988
1148.679653	0.196197
1148.834954	0.206867
1148.990237	0.205711
1149.145502	0.204137
1149.300749	0.202630
1149.455977	0.212049
1149.611188	0.224800
1149.766380	0.230615
1149.921553	0.229357
1150.076709	0.217673
1150.231846	0.219156
1150.386966	0.229955
1150.542066	0.229524
1150.697149	0.231798
1150.852214	0.235550
1151.007260	0.220386
1151.162288	0.212273
1151.317298	0.217438
1151.472289	0.220355
1151.627263	0.216279
1151.782218	0.214822
1151.937155	0.213371
1152.092073	0.205192
1152.246974	0.188601
1152.401856	0.210270
1152.556720	0.215028
1152.711566	0.206480
1152.866393	0.214942
1153.021203	0.213322
1153.175994	0.207811
1153.330767	0.202897
1153.485521	0.199387
1153.640258	0.206453
1153.794976	0.196145
1153.949676	0.200897
1154.104358	0.206622
1154.259021	0.195777
1154.413667	0.192842
1154.568294	0.189956
1154.722903	0.199123
1154.877493	0.205661
1155.032066	0.200621
1155.186620	0.205397
1155.341156	0.201869
1155.495674	0.200654
1155.650173	0.213871
1155.804654	0.219106
1155.959118	0.217140
1156.113562	0.216445
1156.267989	0.228658
1156.422397	0.235501
1156.576788	0.231122
1156.731160	0.229261
1156.885513	0.213838
1157.039849	0.222765
1157.194166	0.218737
1157.348465	0.212194
1157.502746	0.223940
1157.657009	0.207979
1157.811253	0.209397
1157.965479	0.224198
1158.119687	0.216761
1158.273877	0.227563
1158.428048	0.215578
1158.582201	0.223797
1158.736337	0.225679
1158.890453	0.215184
1159.044552	0.223046
1159.198632	0.214471
1159.352694	0.200781
1159.506738	0.208023
1159.660764	0.202676
1159.814771	0.196992
1159.968761	0.192155
1160.122732	0.196954
1160.276685	0.184838
1160.430619	0.186270
1160.584535	0.194268
1160.738434	0.213762
1160.892313	0.205992
1161.046175	0.213290
1161.200019	0.218120
1161.353844	0.217625
1161.507651	0.218454
1161.661440	0.229694
1161.815210	0.233455
1161.968962	0.234281
1162.122697	0.208802
1162.276412	0.211996
1162.430110	0.224582
1162.583789	0.224765
1162.737451	0.230596
1162.891094	0.218119
1163.044718	0.208553
1163.198325	0.205643
1163.351913	0.194413
1163.505483	0.203705
1163.659035	0.201793
1163.812569	0.206292
1163.966084	0.205466
1164.119581	0.212416
1164.273060	0.195879
1164.426521	0.198047
1164.579964	0.185750
1164.733388	0.191439
1164.886794	0.166949
1165.040182	0.163114
1165.193551	0.142785
1165.346903	0.145793
1165.500236	0.146597
1165.653551	0.179812
1165.806848	0.187158
1165.960126	0.192654
1166.113386	0.192342
1166.266628	0.231471
1166.419852	0.236915
1166.573058	0.236214
1166.726245	0.252433
1166.879414	0.222652
1167.032565	0.227883
1167.185698	0.242592
1167.338812	0.261564
1167.491909	0.267748
1167.644987	0.244428
1167.798046	0.239805
1167.951088	0.265071
1168.104111	0.245005
1168.257117	0.252472
1168.410103	0.238331
1168.563072	0.212424
1168.716023	0.203686
1168.868955	0.204387
1169.021869	0.195375
1169.174765	0.209526
1169.327642	0.179568
1169.480501	0.158487
1169.633343	0.146504
1169.786165	0.137579
1169.938970	0.143916
1170.091757	0.115622
1170.244525	0.110234
1170.397275	0.127917
1170.550007	0.118896
1170.702720	0.121921
1170.855415	0.151539
1171.008092	0.181873
1171.160751	0.201720
1171.313392	0.212645
1171.466014	0.316840
1171.618619	0.321154
1171.771205	0.321154
1171.923772	0.321154
