sample name	sample
index	1419
start time	 05-10-2021  12:03:16 PM


Wavelength (nm)	Absorbance
494.344910	-0.078672
494.563924	-0.078672
494.782919	-0.078672
495.001897	-0.015648
495.220856	-0.035755
495.439797	-0.021873
495.658719	-0.019753
495.877624	-0.004819
496.096510	-0.000834
496.315378	0.001803
496.534227	0.000852
496.753059	-0.004116
496.971872	0.012484
497.190667	0.046338
497.409444	0.064770
497.628203	0.072791
497.846943	0.074896
498.065665	0.075199
498.284369	0.076125
498.503055	0.076667
498.721723	0.077498
498.940372	0.077180
499.159003	0.076992
499.377616	0.076469
499.596210	0.076008
499.814787	0.076194
500.033345	0.076494
500.251885	0.076495
500.470406	0.076051
500.688910	0.075468
500.907395	0.075282
501.125862	0.075902
501.344311	0.074195
501.562742	0.074573
501.781154	0.074820
501.999548	0.074818
502.217924	0.075658
502.436282	0.076467
502.654621	0.076999
502.872942	0.076654
503.091245	0.075465
503.309530	0.077295
503.527797	0.077542
503.746045	0.077375
503.964275	0.078122
504.182487	0.077306
504.400681	0.076538
504.618856	0.075908
504.837013	0.077254
505.055152	0.078268
505.273273	0.077662
505.491376	0.078200
505.709460	0.078323
505.927526	0.078326
506.145574	0.078381
506.363604	0.077867
506.581615	0.077870
506.799608	0.077403
507.017583	0.077947
507.235540	0.077591
507.453478	0.076579
507.671399	0.075282
507.889301	0.074562
508.107185	0.075511
508.325050	0.077139
508.542898	0.077867
508.760727	0.077609
508.978538	0.077981
509.196330	0.078185
509.414105	0.078428
509.631861	0.079296
509.849599	0.080221
510.067319	0.080238
510.285021	0.079199
510.502704	0.079065
510.720369	0.079415
510.938016	0.079102
511.155645	0.079687
511.373255	0.079412
511.590848	0.079578
511.808422	0.079415
512.025977	0.078902
512.243515	0.078902
512.461034	0.078838
512.678536	0.078853
512.896018	0.078356
513.113483	0.078427
513.330930	0.078545
513.548358	0.078343
513.765768	0.078214
513.983160	0.078768
514.200533	0.079619
514.417889	0.079595
514.635226	0.079594
514.852545	0.079915
515.069845	0.080012
515.287128	0.081151
515.504392	0.080809
515.721638	0.080734
515.938866	0.080450
516.156075	0.079970
516.373267	0.080003
516.590440	0.079969
516.807594	0.079827
517.024731	0.079753
517.241850	0.079138
517.458950	0.079933
517.676032	0.079666
517.893095	0.078698
518.110141	0.079494
518.327168	0.079449
518.544177	0.079846
518.761168	0.080326
518.978141	0.080279
519.195095	0.080797
519.412031	0.080136
519.628949	0.079829
519.845849	0.081519
520.062731	0.080925
520.279594	0.081013
520.496439	0.080675
520.713266	0.081170
520.930074	0.081866
521.146865	0.081067
521.363637	0.081548
521.580391	0.082340
521.797127	0.081983
522.013844	0.082667
522.230543	0.082456
522.447224	0.082858
522.663887	0.082943
522.880532	0.083138
523.097158	0.083205
523.313766	0.083520
523.530356	0.084159
523.746928	0.084159
523.963481	0.084134
524.180017	0.085112
524.396534	0.084687
524.613032	0.083339
524.829513	0.083320
525.045975	0.083435
525.262420	0.083414
525.478845	0.083156
525.695253	0.083281
525.911643	0.083229
526.128014	0.082594
526.344367	0.083152
526.560702	0.083679
526.777018	0.083163
526.993316	0.083631
527.209597	0.084001
527.425858	0.084069
527.642102	0.084127
527.858328	0.083947
528.074535	0.084228
528.290724	0.084172
528.506894	0.084774
528.723047	0.085213
528.939181	0.085331
529.155297	0.085407
529.371395	0.085578
529.587475	0.086295
529.803536	0.087089
530.019579	0.087389
530.235604	0.088102
530.451611	0.088554
530.667600	0.088864
530.883570	0.089047
531.099522	0.088584
531.315456	0.088731
531.531372	0.088353
531.747269	0.087903
531.963148	0.088215
532.179009	0.087536
532.394852	0.087144
532.610676	0.086653
532.826482	0.086607
533.042271	0.087571
533.258040	0.087364
533.473792	0.087487
533.689525	0.088005
533.905240	0.087996
534.120937	0.088941
534.336616	0.089283
534.552277	0.090111
534.767919	0.090380
534.983543	0.090336
535.199149	0.090646
535.414736	0.091034
535.630306	0.090671
535.845857	0.090952
536.061390	0.090742
536.276904	0.090652
536.492401	0.090418
536.707879	0.090306
536.923339	0.090376
537.138781	0.090506
537.354204	0.090277
537.569610	0.090879
537.784997	0.090926
538.000366	0.091336
538.215716	0.091343
538.431049	0.091626
538.646363	0.091532
538.861659	0.091526
539.076937	0.091986
539.292196	0.092268
539.507438	0.091945
539.722661	0.092150
539.937866	0.092205
540.153052	0.092696
540.368221	0.092622
540.583371	0.092961
540.798503	0.092739
541.013617	0.092426
541.228712	0.092490
541.443789	0.092326
541.658848	0.092149
541.873889	0.091928
542.088912	0.092042
542.303916	0.092046
542.518902	0.092522
542.733870	0.093190
542.948820	0.093338
543.163752	0.093235
543.378665	0.093600
543.593560	0.093845
543.808437	0.093913
544.023295	0.094196
544.238136	0.094532
544.452958	0.094087
544.667762	0.093907
544.882548	0.094061
545.097315	0.094240
545.312064	0.094399
545.526795	0.094226
545.741508	0.094469
545.956203	0.093908
546.170879	0.094238
546.385537	0.094291
546.600177	0.094490
546.814799	0.095059
547.029402	0.095141
547.243988	0.095084
547.458555	0.095353
547.673103	0.095654
547.887634	0.096270
548.102146	0.096430
548.316640	0.097203
548.531116	0.097259
548.745574	0.097090
548.960013	0.097106
549.174435	0.097228
549.388838	0.097075
549.603222	0.097217
549.817589	0.097207
550.031937	0.096934
550.246267	0.096549
550.460579	0.096588
550.674873	0.096439
550.889148	0.096587
551.103405	0.096855
551.317644	0.097184
551.531865	0.096665
551.746068	0.096705
551.960252	0.096797
552.174418	0.096981
552.388566	0.097364
552.602696	0.097099
552.816807	0.097083
553.030900	0.097106
553.244975	0.097212
553.459032	0.097513
553.673070	0.097646
553.887091	0.097699
554.101093	0.098432
554.315077	0.098068
554.529042	0.098038
554.742990	0.098310
554.956919	0.098630
555.170830	0.098953
555.384722	0.099207
555.598597	0.099210
555.812453	0.099269
556.026291	0.098970
556.240111	0.099371
556.453913	0.099777
556.667696	0.100008
556.881461	0.099805
557.095208	0.099739
557.308937	0.099308
557.522647	0.099109
557.736339	0.099368
557.950013	0.099521
558.163669	0.099277
558.377307	0.099695
558.590926	0.099303
558.804527	0.099359
559.018110	0.099386
559.231675	0.099427
559.445221	0.099479
559.658749	0.099591
559.872259	0.098987
560.085751	0.099120
560.299225	0.098854
560.512680	0.098875
560.726117	0.099090
560.939536	0.099268
561.152937	0.099703
561.366319	0.099799
561.579683	0.099406
561.793029	0.099614
562.006357	0.099405
562.219667	0.099520
562.432958	0.099692
562.646231	0.099706
562.859486	0.099833
563.072723	0.100051
563.285941	0.100652
563.499141	0.101114
563.712323	0.101267
563.925487	0.101830
564.138632	0.102196
564.351760	0.102519
564.564869	0.102509
564.777960	0.102553
564.991032	0.102116
565.204087	0.102230
565.417123	0.102139
565.630141	0.102273
565.843140	0.102244
566.056122	0.102449
566.269085	0.102453
566.482030	0.102660
566.694957	0.102438
566.907866	0.103090
567.120756	0.102925
567.333628	0.103116
567.546482	0.102984
567.759318	0.103010
567.972135	0.102644
568.184935	0.102580
568.397716	0.103061
568.610478	0.103013
568.823223	0.102820
569.035949	0.103048
569.248657	0.103018
569.461347	0.103137
569.674019	0.103626
569.886672	0.103866
570.099308	0.103959
570.311925	0.103482
570.524523	0.103947
570.737104	0.104324
570.949666	0.104172
571.162210	0.104545
571.374736	0.104677
571.587244	0.104534
571.799733	0.104167
572.012205	0.104544
572.224658	0.104216
572.437092	0.104412
572.649509	0.103714
572.861907	0.103906
573.074287	0.103460
573.286649	0.103634
573.498993	0.103373
573.711318	0.103701
573.923625	0.103660
574.135914	0.104819
574.348185	0.104729
574.560438	0.105580
574.772672	0.105466
574.984888	0.105729
575.197086	0.105904
575.409266	0.106333
575.621427	0.106699
575.833570	0.106723
576.045695	0.106160
576.257802	0.106476
576.469890	0.106300
576.681961	0.106699
576.894013	0.107211
577.106046	0.107433
577.318062	0.107639
577.530059	0.107516
577.742039	0.107581
577.954000	0.107533
578.165942	0.107004
578.377867	0.107049
578.589773	0.106820
578.801661	0.106588
579.013531	0.106673
579.225382	0.106717
579.437216	0.107252
579.649031	0.107711
579.860828	0.108049
580.072606	0.108410
580.284367	0.108752
580.496109	0.108910
580.707833	0.109198
580.919539	0.109356
581.131227	0.109319
581.342896	0.109168
581.554547	0.109014
581.766180	0.109454
581.977795	0.109715
582.189391	0.109604
582.400969	0.109680
582.612529	0.109591
582.824071	0.109764
583.035595	0.109918
583.247100	0.110110
583.458587	0.110217
583.670056	0.110173
583.881506	0.110563
584.092939	0.110990
584.304353	0.111214
584.515749	0.111664
584.727127	0.111975
584.938486	0.111847
585.149828	0.111827
585.361151	0.112198
585.572456	0.112295
585.783742	0.112312
585.995011	0.112500
586.206261	0.112911
586.417493	0.112685
586.628706	0.112341
586.839902	0.113261
587.051079	0.113279
587.262238	0.113193
587.473379	0.113378
587.684502	0.113310
587.895606	0.113377
588.106692	0.113100
588.317760	0.113216
588.528810	0.113521
588.739841	0.112921
588.950855	0.113183
589.161850	0.113102
589.372827	0.113162
589.583785	0.113143
589.794726	0.113106
590.005648	0.113342
590.216552	0.113586
590.427437	0.113489
590.638305	0.113887
590.849154	0.113714
591.059985	0.113763
591.270798	0.113686
591.481592	0.114019
591.692369	0.114000
591.903127	0.114064
592.113867	0.114398
592.324588	0.114508
592.535292	0.114533
592.745977	0.114791
592.956644	0.114812
593.167293	0.114811
593.377923	0.114577
593.588536	0.114777
593.799130	0.114839
594.009706	0.114875
594.220263	0.115228
594.430803	0.115041
594.641324	0.114988
594.851827	0.115287
595.062312	0.115518
595.272778	0.116081
595.483227	0.116056
595.693657	0.116180
595.904069	0.116116
596.114462	0.116022
596.324838	0.116225
596.535195	0.116267
596.745534	0.116271
596.955855	0.116508
597.166157	0.116346
597.376441	0.116225
597.586707	0.116463
597.796955	0.116685
598.007185	0.116968
598.217396	0.116752
598.427589	0.116803
598.637764	0.117156
598.847921	0.117066
599.058060	0.117147
599.268180	0.117589
599.478282	0.117607
599.688366	0.117283
599.898431	0.117241
600.108479	0.117609
600.318508	0.117986
600.528519	0.117915
600.738511	0.118207
600.948486	0.118362
601.158442	0.118121
601.368380	0.118268
601.578300	0.118675
601.788202	0.118614
601.998085	0.118547
602.207950	0.118456
602.417797	0.118116
602.627626	0.118096
602.837436	0.118105
603.047228	0.118477
603.257002	0.118346
603.466758	0.118175
603.676496	0.118429
603.886215	0.118508
604.095916	0.118855
604.305599	0.119487
604.515264	0.119444
604.724910	0.119570
604.934538	0.119718
605.144148	0.119964
605.353740	0.120401
605.563314	0.120449
605.772869	0.120706
605.982406	0.120656
606.191925	0.120619
606.401425	0.121002
606.610908	0.121087
606.820372	0.121003
607.029818	0.120930
607.239246	0.121033
607.448655	0.120855
607.658047	0.120949
607.867420	0.121009
608.076775	0.121181
608.286111	0.120952
608.495430	0.121242
608.704730	0.121556
608.914012	0.121700
609.123275	0.121552
609.332521	0.121919
609.541748	0.121915
609.750957	0.121770
609.960148	0.121825
610.169321	0.122127
610.378475	0.122177
610.587611	0.122298
610.796729	0.122251
611.005829	0.122402
611.214910	0.122466
611.423974	0.122750
611.633019	0.123156
611.842045	0.123160
612.051054	0.123264
612.260044	0.123233
612.469017	0.123137
612.677970	0.123343
612.886906	0.123194
613.095824	0.123036
613.304723	0.123090
613.513604	0.122998
613.722467	0.122930
613.931311	0.122763
614.140138	0.122698
614.348946	0.122722
614.557736	0.122809
614.766507	0.123062
614.975261	0.123175
615.183996	0.123109
615.392713	0.123271
615.601412	0.123663
615.810092	0.123953
616.018754	0.123776
616.227399	0.123922
616.436024	0.124108
616.644632	0.124023
616.853222	0.123985
617.061793	0.124199
617.270346	0.124150
617.478880	0.124091
617.687397	0.124174
617.895895	0.124325
618.104375	0.124334
618.312837	0.124118
618.521281	0.124281
618.729706	0.124714
618.938113	0.124590
619.146502	0.124898
619.354873	0.124910
619.563226	0.124859
619.771560	0.125128
619.979876	0.125232
620.188174	0.125268
620.396453	0.125285
620.604715	0.125206
620.812958	0.125456
621.021183	0.125474
621.229390	0.125477
621.437578	0.125642
621.645748	0.125740
621.853900	0.125795
622.062034	0.125839
622.270150	0.125902
622.478247	0.125771
622.686326	0.125810
622.894387	0.125844
623.102430	0.126247
623.310454	0.126313
623.518461	0.126377
623.726449	0.126355
623.934418	0.126734
624.142370	0.127210
624.350303	0.127553
624.558218	0.127578
624.766115	0.127701
624.973994	0.127541
625.181855	0.127511
625.389697	0.127646
625.597521	0.127632
625.805327	0.127820
626.013114	0.127562
626.220883	0.127650
626.428634	0.127700
626.636367	0.127659
626.844082	0.127664
627.051778	0.127652
627.259457	0.127394
627.467117	0.127680
627.674758	0.127285
627.882382	0.127304
628.089987	0.127257
628.297574	0.127338
628.505143	0.127420
628.712694	0.127474
628.920226	0.127744
629.127740	0.127923
629.335236	0.127934
629.542714	0.128310
629.750174	0.128331
629.957615	0.128282
630.165038	0.128208
630.372443	0.128132
630.579829	0.128171
630.787198	0.128022
630.994548	0.128302
631.201880	0.128296
631.409194	0.128102
631.616489	0.128181
631.823766	0.128230
632.031025	0.128298
632.238266	0.128568
632.445489	0.128713
632.652693	0.128903
632.859879	0.129009
633.067047	0.128895
633.274197	0.129234
633.481329	0.129190
633.688442	0.129361
633.895537	0.129745
634.102614	0.129805
634.309672	0.129875
634.516713	0.129728
634.723735	0.129531
634.930739	0.129816
635.137724	0.129995
635.344692	0.130171
635.551641	0.130065
635.758572	0.130123
635.965485	0.130353
636.172379	0.130451
636.379256	0.130607
636.586114	0.131016
636.792954	0.130926
636.999775	0.130931
637.206579	0.131083
637.413364	0.131490
637.620131	0.131573
637.826880	0.131499
638.033610	0.131628
638.240323	0.132112
638.447017	0.132233
638.653692	0.132537
638.860350	0.132501
639.066990	0.132840
639.273611	0.133050
639.480214	0.133324
639.686798	0.133538
639.893365	0.133737
640.099913	0.133692
640.306443	0.133913
640.512955	0.133889
640.719449	0.134048
640.925924	0.134014
641.132381	0.134028
641.338820	0.134037
641.545241	0.133973
641.751644	0.133918
641.958028	0.134059
642.164394	0.133802
642.370742	0.134095
642.577071	0.134105
642.783383	0.134159
642.989676	0.134152
643.195951	0.134024
643.402207	0.134252
643.608446	0.134435
643.814666	0.134346
644.020868	0.134674
644.227052	0.134506
644.433218	0.134616
644.639365	0.134710
644.845494	0.135153
645.051605	0.135463
645.257698	0.135530
645.463772	0.135567
645.669828	0.135758
645.875866	0.135714
646.081886	0.136060
646.287888	0.136142
646.493871	0.136230
646.699836	0.136011
646.905783	0.135979
647.111712	0.136099
647.317622	0.136283
647.523514	0.136390
647.729388	0.136468
647.935244	0.136421
648.141082	0.136632
648.346901	0.136801
648.552702	0.137075
648.758485	0.137097
648.964250	0.136987
649.169996	0.136813
649.375724	0.136660
649.581434	0.136752
649.787126	0.136763
649.992800	0.136705
650.198455	0.136531
650.404092	0.136435
650.609711	0.136496
650.815311	0.136573
651.020894	0.136721
651.226458	0.136877
651.432004	0.136882
651.637532	0.136858
651.843041	0.136960
652.048532	0.137071
652.254006	0.136878
652.459460	0.136917
652.664897	0.137046
652.870315	0.137253
653.075716	0.137581
653.281097	0.137700
653.486461	0.138140
653.691807	0.138397
653.897134	0.138839
654.102443	0.139272
654.307734	0.139571
654.513006	0.139789
654.718261	0.139882
654.923497	0.140001
655.128715	0.140143
655.333915	0.140444
655.539096	0.140639
655.744259	0.140579
655.949404	0.140602
656.154531	0.140672
656.359640	0.140881
656.564730	0.140928
656.769802	0.140810
656.974856	0.140933
657.179892	0.140940
657.384909	0.140878
657.589908	0.141038
657.794889	0.141136
657.999852	0.141135
658.204797	0.141092
658.409723	0.141246
658.614631	0.141650
658.819521	0.141555
659.024393	0.141488
659.229246	0.141822
659.434081	0.141886
659.638898	0.142019
659.843697	0.142202
660.048478	0.142368
660.253240	0.142519
660.457984	0.142553
660.662710	0.142807
660.867417	0.142721
661.072107	0.142520
661.276778	0.142495
661.481431	0.142375
661.686066	0.142400
661.890682	0.142344
662.095281	0.142492
662.299861	0.142261
662.504422	0.142386
662.708966	0.142745
662.913491	0.142896
663.117999	0.143063
663.322488	0.143247
663.526958	0.143334
663.731411	0.143592
663.935845	0.143633
664.140261	0.143790
664.344659	0.143876
664.549038	0.144087
664.753400	0.144222
664.957743	0.144211
665.162068	0.144392
665.366375	0.144377
665.570663	0.144413
665.774933	0.144467
665.979185	0.144565
666.183419	0.144539
666.387635	0.144459
666.591832	0.144520
666.796011	0.144816
667.000172	0.144973
667.204315	0.145112
667.408439	0.145057
667.612545	0.145328
667.816634	0.145417
668.020703	0.145393
668.224755	0.145480
668.428788	0.145679
668.632803	0.145506
668.836800	0.145476
669.040779	0.145599
669.244739	0.145795
669.448681	0.145640
669.652605	0.145791
669.856511	0.146205
670.060399	0.146171
670.264268	0.146139
670.468119	0.146347
670.671952	0.146594
670.875767	0.147017
671.079563	0.147213
671.283341	0.147427
671.487101	0.147655
671.690843	0.147781
671.894567	0.147874
672.098272	0.148206
672.301959	0.148401
672.505628	0.148543
672.709278	0.148497
672.912911	0.148508
673.116525	0.148624
673.320121	0.148768
673.523699	0.148722
673.727258	0.148841
673.930799	0.148704
674.134322	0.148825
674.337827	0.148810
674.541314	0.148821
674.744782	0.148920
674.948232	0.148974
675.151664	0.148834
675.355078	0.148701
675.558474	0.148987
675.761851	0.149113
675.965210	0.148986
676.168551	0.149119
676.371873	0.149042
676.575178	0.149061
676.778464	0.149086
676.981732	0.149509
677.184981	0.149882
677.388213	0.149868
677.591426	0.149805
677.794621	0.150090
677.997798	0.150042
678.200956	0.150382
678.404097	0.150490
678.607219	0.150533
678.810323	0.150445
679.013408	0.150414
679.216476	0.150543
679.419525	0.150901
679.622556	0.151027
679.825569	0.151271
680.028563	0.151331
680.231540	0.151564
680.434498	0.151670
680.637438	0.151656
680.840359	0.151985
681.043263	0.152204
681.246148	0.152178
681.449015	0.152340
681.651864	0.152406
681.854694	0.152533
682.057506	0.152571
682.260301	0.152745
682.463076	0.152826
682.665834	0.152844
682.868573	0.152809
683.071295	0.152907
683.273998	0.152983
683.476682	0.153131
683.679349	0.153235
683.881997	0.153414
684.084627	0.153643
684.287239	0.153867
684.489833	0.153917
684.692408	0.153913
684.894965	0.154128
685.097504	0.154342
685.300025	0.154559
685.502527	0.154540
685.705012	0.154556
685.907478	0.154674
686.109925	0.154814
686.312355	0.154832
686.514766	0.154883
686.717159	0.154940
686.919534	0.154617
687.121891	0.154503
687.324230	0.154566
687.526550	0.154499
687.728852	0.154215
687.931136	0.154003
688.133401	0.154081
688.335649	0.154297
688.537878	0.154112
688.740089	0.154165
688.942281	0.154288
689.144456	0.154173
689.346612	0.154337
689.548750	0.154500
689.750870	0.154899
689.952971	0.154833
690.155055	0.155085
690.357120	0.155062
690.559167	0.155352
690.761195	0.155267
690.963206	0.155505
691.165198	0.155706
691.367172	0.155834
691.569128	0.155660
691.771065	0.155902
691.972984	0.155708
692.174885	0.156197
692.376768	0.156287
692.578633	0.156345
692.780479	0.156451
692.982308	0.156310
693.184118	0.156553
693.385909	0.156548
693.587683	0.156616
693.789438	0.156876
693.991175	0.156844
694.192894	0.156923
694.394595	0.157079
694.596277	0.157180
694.797941	0.157404
694.999587	0.157418
695.201215	0.157658
695.402824	0.157805
695.604416	0.157695
695.805989	0.157823
696.007543	0.157942
696.209080	0.158011
696.410598	0.158052
696.612099	0.158113
696.813580	0.158084
697.015044	0.158379
697.216490	0.158522
697.417917	0.158766
697.619326	0.158793
697.820717	0.158760
698.022089	0.158838
698.223444	0.159052
698.424780	0.159255
698.626098	0.159462
698.827397	0.159539
699.028679	0.159611
699.229942	0.159813
699.431187	0.159910
699.632414	0.160293
699.833622	0.160385
700.034813	0.160204
700.235985	0.160140
700.437139	0.160189
700.638274	0.160129
700.839392	0.160262
701.040491	0.160186
701.241572	0.160254
701.442635	0.160151
701.643679	0.160337
701.844706	0.160816
702.045714	0.160925
702.246704	0.161053
702.447675	0.161023
702.648629	0.160808
702.849564	0.160855
703.050481	0.160990
703.251380	0.160817
703.452260	0.160802
703.653122	0.160695
703.853966	0.160782
704.054792	0.160859
704.255600	0.160938
704.456389	0.161226
704.657160	0.161029
704.857913	0.160837
705.058648	0.161047
705.259365	0.160977
705.460063	0.160914
705.660743	0.160967
705.861405	0.160746
706.062048	0.160727
706.262674	0.160682
706.463281	0.160980
706.663870	0.161169
706.864441	0.161041
707.064993	0.161237
707.265527	0.161232
707.466043	0.161098
707.666541	0.161121
707.867021	0.161188
708.067482	0.160968
708.267925	0.160713
708.468350	0.160728
708.668757	0.160836
708.869145	0.160805
709.069516	0.160819
709.269868	0.160964
709.470201	0.160951
709.670517	0.160925
709.870814	0.160876
710.071093	0.161310
710.271354	0.161219
710.471597	0.161201
710.671821	0.161108
710.872028	0.160999
711.072216	0.160911
711.272385	0.161148
711.472537	0.161258
711.672670	0.161581
711.872785	0.161440
712.072882	0.161639
712.272961	0.161899
712.473021	0.162334
712.673063	0.162667
712.873087	0.162866
713.073093	0.163048
713.273081	0.163217
713.473050	0.163307
713.673001	0.163345
713.872934	0.163612
714.072849	0.163735
714.272745	0.163776
714.472623	0.163776
714.672483	0.163952
714.872325	0.163818
715.072148	0.164147
715.271954	0.164199
715.471741	0.164154
715.671509	0.163954
715.871260	0.163804
716.070992	0.163673
716.270707	0.163535
716.470403	0.163512
716.670080	0.163489
716.869740	0.163047
717.069381	0.163071
717.269004	0.163231
717.468609	0.163199
717.668195	0.163134
717.867764	0.162987
718.067314	0.162989
718.266846	0.162716
718.466360	0.162673
718.665855	0.162797
718.865332	0.162631
719.064791	0.162230
719.264232	0.162028
719.463655	0.161661
719.663059	0.161690
719.862445	0.161555
720.061813	0.161558
720.261163	0.161478
720.460494	0.161206
720.659807	0.161221
720.859102	0.161243
721.058379	0.161364
721.257638	0.161721
721.456878	0.161526
721.656100	0.161662
721.855304	0.161630
722.054490	0.161582
722.253657	0.161681
722.452806	0.161603
722.651937	0.161778
722.851050	0.161600
723.050145	0.161586
723.249221	0.161438
723.448279	0.161179
723.647319	0.161173
723.846340	0.161008
724.045344	0.160697
724.244329	0.160296
724.443296	0.159951
724.642245	0.159848
724.841175	0.159379
725.040088	0.159222
725.238982	0.159206
725.437857	0.158997
725.636715	0.159027
725.835554	0.159014
726.034376	0.159114
726.233179	0.159065
726.431963	0.158928
726.630730	0.158796
726.829478	0.158948
727.028208	0.158900
727.226920	0.158552
727.425614	0.158501
727.624289	0.158340
727.822946	0.158316
728.021585	0.158062
728.220206	0.158013
728.418808	0.158108
728.617392	0.157995
728.815958	0.157979
729.014506	0.158297
729.213036	0.158140
729.411547	0.158121
729.610040	0.158171
729.808515	0.158546
730.006972	0.158413
730.205410	0.158364
730.403831	0.158064
730.602233	0.157836
730.800616	0.157812
730.998982	0.157683
731.197329	0.157644
731.395658	0.157504
731.593969	0.157200
731.792262	0.157330
731.990536	0.157337
732.188793	0.157466
732.387031	0.157452
732.585250	0.157236
732.783452	0.157237
732.981635	0.157246
733.179800	0.157030
733.377947	0.157103
733.576076	0.157124
733.774186	0.156972
733.972278	0.156930
734.170352	0.156801
734.368408	0.156637
734.566446	0.156660
734.764465	0.156434
734.962466	0.156330
735.160449	0.156138
735.358413	0.155935
735.556360	0.155700
735.754288	0.155442
735.952198	0.155351
736.150090	0.155277
736.347963	0.154903
736.545818	0.155016
736.743655	0.154826
736.941474	0.154687
737.139275	0.154483
737.337057	0.154362
737.534821	0.154242
737.732567	0.154047
737.930295	0.153858
738.128005	0.153794
738.325696	0.153509
738.523369	0.153726
738.721024	0.153606
738.918660	0.153571
739.116279	0.153606
739.313879	0.153638
739.511461	0.153615
739.709024	0.153730
739.906570	0.153737
740.104097	0.153763
740.301606	0.153596
740.499097	0.153663
740.696569	0.153409
740.894024	0.153431
741.091460	0.153354
741.288878	0.153271
741.486277	0.153054
741.683659	0.153007
741.881022	0.152937
742.078367	0.152713
742.275694	0.152583
742.473002	0.152455
742.670293	0.152275
742.867565	0.152234
743.064819	0.152119
743.262054	0.152020
743.459272	0.152057
743.656471	0.151827
743.853652	0.151843
744.050815	0.151759
744.247959	0.151842
744.445085	0.151958
744.642194	0.151785
744.839283	0.151762
745.036355	0.151831
745.233408	0.151862
745.430444	0.151812
745.627461	0.151632
745.824459	0.151510
746.021440	0.151227
746.218402	0.151128
746.415346	0.151104
746.612272	0.151116
746.809180	0.151137
747.006069	0.151014
747.202940	0.150894
747.399793	0.150929
747.596628	0.150993
747.793444	0.151171
747.990243	0.151268
748.187023	0.151113
748.383784	0.151014
748.580528	0.150732
748.777253	0.150625
748.973960	0.150641
749.170649	0.150720
749.367320	0.150668
749.563973	0.150696
749.760607	0.150455
749.957223	0.150352
750.153821	0.150174
750.350400	0.150155
750.546962	0.150051
750.743505	0.150107
750.940030	0.149839
751.136536	0.149795
751.333025	0.149743
751.529495	0.149596
751.725947	0.149693
751.922381	0.149658
752.118796	0.149490
752.315194	0.149311
752.511573	0.149169
752.707934	0.148938
752.904276	0.148762
753.100601	0.148554
753.296907	0.148320
753.493195	0.148180
753.689465	0.148189
753.885716	0.147998
754.081949	0.147840
754.278164	0.147473
754.474361	0.147659
754.670540	0.147744
754.866700	0.147708
755.062843	0.147734
755.258967	0.147739
755.455072	0.147700
755.651160	0.147703
755.847229	0.147586
756.043280	0.147929
756.239313	0.147871
756.435328	0.147744
756.631324	0.147597
756.827302	0.147551
757.023262	0.147376
757.219204	0.147242
757.415127	0.147444
757.611033	0.147686
757.806920	0.147443
758.002788	0.147400
758.198639	0.147114
758.394471	0.146893
758.590286	0.146743
758.786081	0.146782
758.981859	0.146696
759.177619	0.146583
759.373360	0.146331
759.569083	0.146265
759.764788	0.146049
759.960474	0.145935
760.156143	0.146077
760.351793	0.146033
760.547425	0.145787
760.743038	0.145696
760.938634	0.145388
761.134211	0.145376
761.329770	0.145200
761.525311	0.145266
761.720833	0.145234
761.916338	0.145129
762.111824	0.145160
762.307292	0.145086
762.502741	0.145165
762.698173	0.145361
762.893586	0.145373
763.088981	0.145469
763.284358	0.145292
763.479716	0.145115
763.675057	0.145000
763.870379	0.144806
764.065683	0.144794
764.260968	0.144783
764.456236	0.144494
764.651485	0.144495
764.846716	0.144425
765.041929	0.144420
765.237123	0.144544
765.432299	0.144539
765.627457	0.144657
765.822597	0.144636
766.017719	0.144488
766.212822	0.144602
766.407907	0.144441
766.602974	0.144376
766.798023	0.144350
766.993054	0.144432
767.188066	0.144458
767.383060	0.144460
767.578036	0.144791
767.772993	0.144807
767.967933	0.144536
768.162854	0.144198
768.357757	0.144010
768.552642	0.144034
768.747508	0.143774
768.942356	0.143682
769.137186	0.143486
769.331998	0.142985
769.526792	0.142525
769.721567	0.142373
769.916324	0.142394
770.111063	0.142190
770.305784	0.141979
770.500486	0.141812
770.695171	0.141742
770.889837	0.141609
771.084484	0.141540
771.279114	0.141640
771.473725	0.141730
771.668318	0.141777
771.862893	0.142022
772.057450	0.142148
772.251988	0.142275
772.446509	0.142192
772.641011	0.142208
772.835494	0.142333
773.029960	0.142481
773.224407	0.142634
773.418836	0.142540
773.613247	0.142514
773.807640	0.142350
774.002014	0.142395
774.196370	0.142623
774.390708	0.142671
774.585028	0.142513
774.779330	0.142419
774.973613	0.142330
775.167878	0.142394
775.362125	0.142505
775.556354	0.142496
775.750564	0.142476
775.944756	0.142204
776.138930	0.142327
776.333086	0.142285
776.527223	0.142167
776.721343	0.142193
776.915444	0.142127
777.109526	0.141869
777.303591	0.141763
777.497637	0.141455
777.691666	0.141234
777.885676	0.141012
778.079667	0.141004
778.273641	0.141188
778.467596	0.141139
778.661533	0.141142
778.855452	0.141370
779.049352	0.141361
779.243235	0.141720
779.437099	0.142086
779.630945	0.142052
779.824773	0.142528
780.018582	0.142483
780.212373	0.142548
780.406146	0.142648
780.599901	0.142545
780.793638	0.142696
780.987356	0.142515
781.181056	0.142525
781.374738	0.142496
781.568402	0.142335
781.762047	0.142480
781.955674	0.142601
782.149283	0.142565
782.342874	0.142629
782.536447	0.142581
782.730001	0.142757
782.923537	0.142752
783.117055	0.143021
783.310555	0.142992
783.504036	0.143073
783.697499	0.143106
783.890944	0.143184
784.084371	0.143123
784.277780	0.143151
784.471170	0.143236
784.664542	0.143428
784.857896	0.143487
785.051231	0.143428
785.244549	0.143495
785.437848	0.143424
785.631129	0.143568
785.824392	0.143835
786.017636	0.144163
786.210863	0.144405
786.404071	0.144449
786.597260	0.144635
786.790432	0.144796
786.983585	0.144765
787.176721	0.144844
787.369838	0.145129
787.562936	0.145129
787.756017	0.145167
787.949079	0.145057
788.142123	0.145092
788.335149	0.144999
788.528156	0.145207
788.721146	0.145448
788.914117	0.145570
789.107070	0.145657
789.300005	0.145782
789.492921	0.145742
789.685819	0.145785
789.878699	0.145674
790.071561	0.145709
790.264405	0.145638
790.457230	0.145467
790.650037	0.145598
790.842826	0.145229
791.035597	0.145355
791.228349	0.145228
791.421084	0.145145
791.613800	0.145190
791.806497	0.145224
791.999177	0.145009
792.191838	0.145035
792.384481	0.144948
792.577106	0.145338
792.769713	0.145141
792.962301	0.145360
793.154871	0.145480
793.347423	0.145754
793.539957	0.145912
793.732473	0.146389
793.924970	0.146619
794.117449	0.146753
794.309910	0.146790
794.502353	0.147049
794.694777	0.147398
794.887183	0.147571
795.079571	0.147497
795.271941	0.147768
795.464293	0.147941
795.656626	0.147680
795.848941	0.147663
796.041238	0.147728
796.233516	0.147860
796.425777	0.147725
796.618019	0.148084
796.810243	0.148302
797.002449	0.148473
797.194636	0.148316
797.386805	0.148837
797.578956	0.149260
797.771089	0.149222
797.963204	0.149331
798.155300	0.149499
798.347378	0.149356
798.539438	0.149427
798.731480	0.149148
798.923503	0.149332
799.115509	0.149192
799.307496	0.149047
799.499465	0.149173
799.691415	0.149203
799.883348	0.149355
800.075262	0.149491
800.267158	0.149624
800.459035	0.149856
800.650895	0.150025
800.842736	0.150203
801.034559	0.150325
801.226364	0.150679
801.418150	0.150918
801.609919	0.151036
801.801669	0.151173
801.993401	0.151174
802.185114	0.151307
802.376810	0.151396
802.568487	0.151708
802.760146	0.151985
802.951787	0.152001
803.143409	0.152092
803.335014	0.152071
803.526600	0.152322
803.718168	0.152625
803.909717	0.152785
804.101249	0.152840
804.292762	0.153015
804.484257	0.153096
804.675734	0.153454
804.867192	0.153699
805.058632	0.154182
805.250054	0.154457
805.441458	0.154670
805.632844	0.154922
805.824211	0.155280
806.015561	0.155443
806.206891	0.155767
806.398204	0.155792
806.589499	0.155813
806.780775	0.155861
806.972033	0.155947
807.163273	0.156205
807.354495	0.156308
807.545698	0.156542
807.736883	0.156906
807.928050	0.157096
808.119199	0.157372
808.310329	0.157469
808.501441	0.157712
808.692535	0.157828
808.883611	0.157888
809.074669	0.158043
809.265708	0.158065
809.456729	0.158047
809.647732	0.158212
809.838717	0.158314
810.029683	0.158853
810.220632	0.159178
810.411562	0.159490
810.602474	0.159958
810.793367	0.160234
810.984242	0.160548
811.175100	0.160927
811.365938	0.161306
811.556759	0.161633
811.747562	0.161684
811.938346	0.161665
812.129112	0.161531
812.319860	0.161372
812.510589	0.161550
812.701300	0.161699
812.891994	0.161644
813.082668	0.161406
813.273325	0.161566
813.463964	0.161616
813.654584	0.161991
813.845186	0.162653
814.035769	0.162889
814.226335	0.163410
814.416882	0.163809
814.607411	0.164181
814.797922	0.164638
814.988415	0.164866
815.178889	0.165280
815.369345	0.165558
815.559783	0.165484
815.750203	0.165613
815.940605	0.165747
816.130988	0.165727
816.321353	0.166011
816.511700	0.166330
816.702028	0.166379
816.892339	0.166289
817.082631	0.166235
817.272905	0.166575
817.463161	0.166825
817.653398	0.166841
817.843617	0.167021
818.033819	0.167084
818.224001	0.167202
818.414166	0.167419
818.604312	0.167737
818.794440	0.167835
818.984550	0.167886
819.174642	0.168110
819.364716	0.168374
819.554771	0.168633
819.744808	0.168719
819.934827	0.168876
820.124827	0.168937
820.314810	0.169013
820.504774	0.169481
820.694720	0.169826
820.884647	0.170237
821.074557	0.170276
821.264448	0.170308
821.454321	0.170376
821.644176	0.170316
821.834012	0.170795
822.023831	0.171069
822.213631	0.170861
822.403413	0.171108
822.593176	0.170977
822.782922	0.171135
822.972649	0.171629
823.162358	0.172063
823.352049	0.172521
823.541721	0.172623
823.731376	0.172971
823.921012	0.173536
824.110629	0.173580
824.300229	0.174023
824.489811	0.174264
824.679374	0.174572
824.868919	0.174819
825.058445	0.175014
825.247954	0.175327
825.437444	0.175539
825.626916	0.175647
825.816370	0.175924
826.005806	0.176003
826.195223	0.176384
826.384622	0.176626
826.574003	0.177149
826.763366	0.177633
826.952711	0.177932
827.142037	0.178184
827.331345	0.178617
827.520635	0.179065
827.709906	0.179467
827.899160	0.179646
828.088395	0.179652
828.277612	0.179620
828.466810	0.179668
828.655991	0.179703
828.845153	0.179733
829.034297	0.179796
829.223423	0.179783
829.412531	0.180045
829.601620	0.180321
829.790691	0.180669
829.979744	0.180832
830.168779	0.181324
830.357795	0.181439
830.546793	0.181833
830.735773	0.182055
830.924735	0.182484
831.113679	0.182744
831.302604	0.183262
831.491511	0.183249
831.680400	0.183658
831.869271	0.183470
832.058123	0.183860
832.246957	0.184180
832.435773	0.184274
832.624571	0.184437
832.813351	0.184656
833.002112	0.184727
833.190855	0.185185
833.379580	0.185288
833.568287	0.185750
833.756975	0.185904
833.945645	0.186294
834.134297	0.186695
834.322931	0.186833
834.511547	0.187228
834.700144	0.187434
834.888723	0.187787
835.077284	0.188357
835.265826	0.188391
835.454351	0.188856
835.642857	0.189089
835.831345	0.189206
836.019815	0.189688
836.208266	0.189795
836.396699	0.190402
836.585114	0.190461
836.773511	0.190543
836.961890	0.191027
837.150250	0.191283
837.338592	0.191440
837.526916	0.192136
837.715222	0.192214
837.903510	0.192620
838.091779	0.192936
838.280030	0.193471
838.468263	0.193852
838.656477	0.194483
838.844674	0.194957
839.032852	0.195491
839.221012	0.195495
839.409153	0.195836
839.597277	0.196353
839.785382	0.196417
839.973469	0.196566
840.161538	0.197234
840.349589	0.197263
840.537621	0.197392
840.725635	0.197727
840.913631	0.198328
841.101609	0.198789
841.289568	0.198820
841.477509	0.199145
841.665432	0.199666
841.853337	0.199473
842.041224	0.199515
842.229092	0.199480
842.416942	0.199461
842.604774	0.199630
842.792588	0.199790
842.980383	0.200003
843.168160	0.200226
843.355919	0.200114
843.543660	0.200233
843.731382	0.200759
843.919087	0.201463
844.106773	0.202249
844.294441	0.202436
844.482090	0.202937
844.669722	0.203179
844.857335	0.203387
845.044930	0.203896
845.232507	0.204044
845.420065	0.204279
845.607605	0.204628
845.795127	0.204664
845.982631	0.205301
846.170117	0.205474
846.357584	0.205738
846.545033	0.206021
846.732464	0.206356
846.919877	0.207170
847.107272	0.207415
847.294648	0.207860
847.482006	0.208083
847.669346	0.208372
847.856667	0.208802
848.043971	0.209314
848.231256	0.209462
848.418523	0.209709
848.605771	0.209718
848.793002	0.210218
848.980214	0.210397
849.167408	0.210402
849.354584	0.210678
849.541742	0.210767
849.728881	0.210900
849.916002	0.211551
850.103105	0.212157
850.290190	0.212488
850.477256	0.212789
850.664304	0.213043
850.851334	0.213641
851.038346	0.213619
851.225340	0.214012
851.412315	0.214509
851.599272	0.214719
851.786211	0.214874
851.973132	0.215264
852.160034	0.215456
852.346918	0.215753
852.533784	0.215865
852.720632	0.216260
852.907462	0.216685
853.094273	0.217064
853.281066	0.217229
853.467841	0.217368
853.654598	0.217719
853.841336	0.217929
854.028056	0.218141
854.214758	0.218533
854.401442	0.218737
854.588107	0.218808
854.774755	0.218680
854.961384	0.219079
855.147995	0.219352
855.334587	0.219312
855.521162	0.219870
855.707718	0.220264
855.894256	0.220641
856.080775	0.220953
856.267277	0.221227
856.453760	0.221661
856.640225	0.221980
856.826672	0.222361
857.013101	0.222892
857.199511	0.223144
857.385903	0.223270
857.572277	0.223521
857.758633	0.223790
857.944970	0.223980
858.131290	0.224174
858.317591	0.224374
858.503873	0.224387
858.690138	0.224726
858.876384	0.224386
859.062612	0.224753
859.248822	0.224956
859.435014	0.224988
859.621188	0.225215
859.807343	0.225356
859.993480	0.225869
860.179599	0.226145
860.365699	0.226257
860.551781	0.226898
860.737846	0.227170
860.923891	0.227327
861.109919	0.227987
861.295929	0.228291
861.481920	0.228612
861.667893	0.228437
861.853848	0.228969
862.039784	0.229179
862.225702	0.229196
862.411603	0.229973
862.597484	0.230407
862.783348	0.230719
862.969193	0.231106
863.155021	0.231656
863.340830	0.232025
863.526620	0.232498
863.712393	0.233098
863.898147	0.233294
864.083883	0.232910
864.269601	0.233209
864.455301	0.233270
864.640982	0.233578
864.826645	0.234062
865.012290	0.234133
865.197917	0.234056
865.383526	0.234125
865.569116	0.235074
865.754688	0.235066
865.940242	0.235000
866.125777	0.235133
866.311295	0.235132
866.496794	0.234977
866.682275	0.235337
866.867737	0.235779
867.053182	0.235728
867.238608	0.235490
867.424016	0.235854
867.609406	0.236098
867.794778	0.236243
867.980131	0.236743
868.165466	0.236924
868.350783	0.237265
868.536082	0.237221
868.721362	0.237319
868.906625	0.237628
869.091869	0.238223
869.277094	0.238541
869.462302	0.238733
869.647491	0.238729
869.832662	0.238853
870.017815	0.238918
870.202950	0.239317
870.388066	0.239661
870.573165	0.240071
870.758245	0.239995
870.943306	0.240413
871.128350	0.241012
871.313375	0.241422
871.498382	0.242008
871.683371	0.242262
871.868342	0.242575
872.053294	0.243356
872.238229	0.243731
872.423144	0.244096
872.608042	0.244182
872.792922	0.244319
872.977783	0.244667
873.162626	0.244607
873.347451	0.244753
873.532258	0.244900
873.717046	0.244771
873.901816	0.244618
874.086568	0.245058
874.271302	0.245490
874.456017	0.245671
874.640715	0.245446
874.825394	0.245867
875.010055	0.246091
875.194697	0.246202
875.379322	0.246636
875.563928	0.246949
875.748516	0.246894
875.933085	0.247267
876.117637	0.247261
876.302170	0.247814
876.486685	0.247855
876.671182	0.248301
876.855661	0.248668
877.040121	0.248694
877.224563	0.249179
877.408987	0.249233
877.593393	0.249114
877.777780	0.249222
877.962150	0.249037
878.146501	0.249253
878.330833	0.249022
878.515148	0.248837
878.699444	0.248906
878.883722	0.248318
879.067982	0.248183
879.252224	0.248132
879.436447	0.248167
879.620653	0.248232
879.804840	0.247962
879.989008	0.248345
880.173159	0.248168
880.357291	0.248008
880.541405	0.248519
880.725501	0.249075
880.909579	0.249277
881.093638	0.249169
881.277680	0.249231
881.461703	0.249743
881.645707	0.249675
881.829694	0.249983
882.013662	0.250459
882.197612	0.250433
882.381544	0.250237
882.565458	0.249849
882.749353	0.250404
882.933230	0.250471
883.117089	0.250284
883.300930	0.250185
883.484753	0.250324
883.668557	0.250232
883.852343	0.250229
884.036111	0.250484
884.219861	0.251184
884.403592	0.250906
884.587305	0.251324
884.771000	0.251820
884.954677	0.251848
885.138335	0.251784
885.321976	0.251477
885.505598	0.251544
885.689201	0.251239
885.872787	0.250969
886.056354	0.251573
886.239904	0.251691
886.423434	0.251320
886.606947	0.251534
886.790442	0.251809
886.973918	0.252155
887.157376	0.252187
887.340816	0.252379
887.524237	0.252397
887.707641	0.252248
887.891026	0.251897
888.074393	0.252246
888.257741	0.252527
888.441072	0.252828
888.624384	0.252763
888.807678	0.252842
888.990954	0.253029
889.174211	0.253013
889.357451	0.252836
889.540672	0.252746
889.723875	0.252830
889.907059	0.252671
890.090226	0.252160
890.273374	0.252403
890.456504	0.252357
890.639616	0.252484
890.822709	0.252739
891.005785	0.252765
891.188842	0.253248
891.371881	0.253190
891.554901	0.253403
891.737904	0.253765
891.920888	0.253969
892.103854	0.253733
892.286802	0.253556
892.469731	0.253303
892.652643	0.252983
892.835536	0.252605
893.018410	0.252567
893.201267	0.252247
893.384106	0.251891
893.566926	0.251285
893.749728	0.251565
893.932511	0.251640
894.115277	0.251382
894.298024	0.251626
894.480753	0.251582
894.663464	0.251163
894.846157	0.251285
895.028831	0.251255
895.211487	0.251300
895.394125	0.251077
895.576745	0.251150
895.759346	0.250968
895.941930	0.251382
896.124495	0.251432
896.307041	0.251850
896.489570	0.251778
896.672080	0.251867
896.854573	0.251993
897.037046	0.252240
897.219502	0.251936
897.401940	0.252130
897.584359	0.251491
897.766760	0.251363
897.949143	0.250732
898.131507	0.250388
898.313854	0.249975
898.496182	0.249437
898.678492	0.248807
898.860783	0.248253
899.043057	0.247787
899.225312	0.247290
899.407549	0.246679
899.589768	0.246459
899.771968	0.246557
899.954151	0.246346
900.136315	0.246349
900.318461	0.246463
900.500588	0.246724
900.682698	0.247200
900.864789	0.247362
901.046862	0.247562
901.228917	0.247647
901.410953	0.247115
901.592971	0.246825
901.774972	0.246622
901.956953	0.246320
902.138917	0.245811
902.320862	0.245723
902.502790	0.245459
902.684699	0.245337
902.866589	0.245192
903.048462	0.245388
903.230316	0.245571
903.412152	0.245291
903.593970	0.245028
903.775770	0.244632
903.957551	0.244243
904.139314	0.244219
904.321059	0.244483
904.502786	0.243553
904.684494	0.242994
904.866185	0.242726
905.047857	0.242201
905.229510	0.242033
905.411146	0.242332
905.592763	0.241499
905.774363	0.240590
905.955943	0.239766
906.137506	0.240005
906.319051	0.239984
906.500577	0.239599
906.682085	0.239804
906.863575	0.239706
907.045046	0.239343
907.226500	0.239231
907.407935	0.239654
907.589352	0.239403
907.770750	0.238756
907.952131	0.238217
908.133493	0.237802
908.314837	0.237389
908.496163	0.236632
908.677470	0.236663
908.858760	0.236964
909.040031	0.236491
909.221284	0.235852
909.402518	0.235627
909.583735	0.235856
909.764933	0.235645
909.946113	0.235221
910.127275	0.235058
910.308418	0.233956
910.489544	0.232637
910.670651	0.232372
910.851740	0.232525
911.032810	0.232458
911.213863	0.231583
911.394897	0.231125
911.575913	0.230535
911.756911	0.230542
911.937890	0.230229
912.118851	0.230420
912.299794	0.230115
912.480719	0.229304
912.661626	0.228977
912.842514	0.228940
913.023384	0.228390
913.204236	0.228082
913.385070	0.227550
913.565886	0.226964
913.746683	0.226894
913.927462	0.227100
914.108223	0.226943
914.288965	0.226496
914.469690	0.226201
914.650396	0.225933
914.831084	0.225920
915.011754	0.225730
915.192405	0.225962
915.373038	0.224948
915.553653	0.223441
915.734250	0.222764
915.914829	0.223099
916.095389	0.222080
916.275931	0.221689
916.456455	0.221264
916.636961	0.220436
916.817448	0.219591
916.997917	0.219258
917.178368	0.219297
917.358801	0.219238
917.539216	0.217750
917.719612	0.217801
917.899990	0.217822
918.080350	0.217748
918.260692	0.216884
918.441015	0.216644
918.621320	0.216556
918.801607	0.215757
918.981876	0.215134
919.162127	0.215184
919.342359	0.214881
919.522573	0.214263
919.702769	0.213119
919.882947	0.212904
920.063106	0.212229
920.243247	0.211453
920.423370	0.211360
920.603475	0.211133
920.783562	0.210086
920.963630	0.209280
921.143680	0.208379
921.323712	0.207855
921.503725	0.207723
921.683721	0.207593
921.863698	0.207515
922.043657	0.206842
922.223598	0.206018
922.403520	0.205713
922.583424	0.205311
922.763311	0.204941
922.943178	0.204557
923.123028	0.203562
923.302859	0.203114
923.482673	0.201995
923.662467	0.202136
923.842244	0.201601
924.022003	0.201183
924.201743	0.200243
924.381465	0.199863
924.561169	0.199703
924.740854	0.199180
924.920522	0.198656
925.100171	0.198925
925.279802	0.197741
925.459414	0.197497
925.639009	0.196943
925.818585	0.197006
925.998143	0.196492
926.177683	0.196294
926.357205	0.196127
926.536708	0.195232
926.716193	0.193883
926.895660	0.193332
927.075109	0.192635
927.254539	0.191935
927.433951	0.190683
927.613345	0.190527
927.792721	0.188598
927.972079	0.188082
928.151418	0.187684
928.330739	0.187237
928.510042	0.186410
928.689327	0.185641
928.868593	0.185357
929.047841	0.184863
929.227071	0.183737
929.406283	0.183809
929.585476	0.182895
929.764652	0.182400
929.943809	0.182214
930.122948	0.182177
930.302068	0.181785
930.481171	0.180538
930.660255	0.180038
930.839321	0.179057
931.018369	0.178403
931.197398	0.177156
931.376409	0.176407
931.555402	0.175577
931.734377	0.174688
931.913334	0.173651
932.092272	0.173152
932.271192	0.172804
932.450094	0.172292
932.628978	0.171995
932.807844	0.171842
932.986691	0.170852
933.165520	0.170016
933.344331	0.168487
933.523123	0.168063
933.701898	0.167518
933.880654	0.166778
934.059392	0.166327
934.238111	0.165002
934.416813	0.164349
934.595496	0.164049
934.774161	0.163312
934.952808	0.163227
935.131437	0.162689
935.310047	0.162258
935.488639	0.160725
935.667213	0.159937
935.845769	0.159831
936.024306	0.159252
936.202825	0.158091
936.381326	0.157576
936.559809	0.156717
936.738274	0.155617
936.916720	0.154281
937.095148	0.153607
937.273558	0.152697
937.451950	0.152136
937.630323	0.151389
937.808678	0.150788
937.987015	0.149233
938.165334	0.148787
938.343635	0.148518
938.521917	0.148611
938.700181	0.147748
938.878427	0.147503
939.056655	0.146822
939.234864	0.145722
939.413055	0.144463
939.591228	0.144768
939.769383	0.143307
939.947519	0.142161
940.125638	0.141078
940.303738	0.141198
940.481820	0.140459
940.659883	0.139624
940.837929	0.139810
941.015956	0.139448
941.193965	0.137831
941.371955	0.137788
941.549928	0.136928
941.727882	0.136460
941.905818	0.135164
942.083736	0.133623
942.261636	0.132609
942.439517	0.131503
942.617380	0.130656
942.795225	0.130070
942.973052	0.129367
943.150860	0.129272
943.328651	0.128663
943.506423	0.128310
943.684176	0.127264
943.861912	0.126117
944.039629	0.125256
944.217328	0.124814
944.395009	0.124338
944.572672	0.123473
944.750317	0.123186
944.927943	0.121920
945.105551	0.121013
945.283141	0.121172
945.460712	0.120271
945.638265	0.119720
945.815801	0.117948
945.993317	0.116624
946.170816	0.116629
946.348297	0.114791
946.525759	0.114098
946.703203	0.113469
946.880629	0.112700
947.058036	0.112362
947.235425	0.112491
947.412797	0.112371
947.590149	0.112272
947.767484	0.111208
947.944800	0.111831
948.122099	0.110606
948.299379	0.109987
948.476640	0.109399
948.653884	0.107114
948.831109	0.104390
949.008316	0.104630
949.185505	0.105149
949.362676	0.105052
949.539828	0.102858
949.716962	0.103111
949.894078	0.102610
950.071176	0.102553
950.248256	0.103069
950.425317	0.103211
950.602360	0.101046
950.779385	0.098917
950.956391	0.097351
951.133380	0.096997
951.310350	0.096836
951.487302	0.096069
951.664235	0.094656
951.841151	0.094557
952.018048	0.095866
952.194927	0.097032
952.371788	0.096769
952.548631	0.095499
952.725455	0.095051
952.902261	0.093946
953.079049	0.092607
953.255819	0.092522
953.432570	0.091496
953.609303	0.089286
953.786018	0.088900
953.962715	0.090685
954.139394	0.090878
954.316054	0.090673
954.492696	0.089312
954.669320	0.089977
954.845926	0.089173
955.022513	0.088965
955.199083	0.088513
955.375634	0.087586
955.552166	0.085613
955.728681	0.085227
955.905177	0.086548
956.081655	0.087630
956.258115	0.086673
956.434557	0.085515
956.610980	0.086448
956.787385	0.086429
956.963772	0.085238
957.140141	0.084859
957.316492	0.084818
957.492824	0.083881
957.669138	0.082840
957.845434	0.081903
958.021712	0.081120
958.197971	0.077661
958.374212	0.077241
958.550435	0.078388
958.726640	0.078120
958.902826	0.077401
959.078995	0.075244
959.255145	0.074639
959.431277	0.074852
959.607390	0.074976
959.783486	0.077399
959.959563	0.078353
960.135622	0.076164
960.311662	0.075797
960.487685	0.075498
960.663689	0.076543
960.839675	0.076021
961.015643	0.076519
961.191593	0.077205
961.367524	0.076160
961.543437	0.073782
961.719332	0.075231
961.895209	0.074919
962.071067	0.075254
962.246907	0.075539
962.422730	0.077967
962.598533	0.077339
962.774319	0.076625
962.950086	0.078814
963.125835	0.078583
963.301566	0.078324
963.477279	0.079062
963.652973	0.079552
963.828650	0.077430
964.004308	0.074023
964.179947	0.074109
964.355569	0.075297
964.531172	0.072309
964.706757	0.073414
964.882324	0.073701
965.057873	0.073590
965.233403	0.072133
965.408916	0.072760
965.584410	0.074052
965.759885	0.073312
965.935343	0.072221
966.110782	0.072912
966.286203	0.072741
966.461606	0.072144
966.636991	0.072645
966.812357	0.073643
966.987705	0.072567
967.163035	0.073861
967.338347	0.075094
967.513641	0.073085
967.688916	0.072189
967.864173	0.072177
968.039412	0.073755
968.214632	0.072233
968.389835	0.072614
968.565019	0.072476
968.740185	0.070781
968.915333	0.072139
969.090462	0.072586
969.265573	0.074485
969.440667	0.072633
969.615741	0.069215
969.790798	0.067851
969.965836	0.065922
970.140856	0.065412
970.315858	0.067109
970.490842	0.064726
970.665808	0.066721
970.840755	0.066605
971.015684	0.067909
971.190595	0.069327
971.365487	0.071232
971.540362	0.073322
971.715218	0.074948
971.890056	0.073838
972.064875	0.072739
972.239677	0.072109
972.414460	0.071538
972.589225	0.071732
972.763972	0.071332
972.938700	0.069571
973.113411	0.067777
973.288103	0.066113
973.462777	0.063483
973.637432	0.065392
973.812070	0.066170
973.986689	0.065461
974.161290	0.063727
974.335873	0.064716
974.510437	0.065515
974.684984	0.065732
974.859512	0.066989
975.034022	0.069450
975.208513	0.067020
975.382987	0.067440
975.557442	0.065783
975.731879	0.068115
975.906298	0.068123
976.080698	0.068718
976.255080	0.070837
976.429445	0.071278
976.603790	0.071470
976.778118	0.073656
976.952427	0.071955
977.126719	0.074305
977.300992	0.072855
977.475246	0.072453
977.649483	0.071751
977.823701	0.070867
977.997901	0.070901
978.172083	0.069702
978.346247	0.068940
978.520392	0.068713
978.694519	0.068973
978.868628	0.068064
979.042719	0.067737
979.216791	0.066313
979.390845	0.065227
979.564882	0.064934
979.738899	0.064847
979.912899	0.065679
980.086880	0.064925
980.260843	0.065005
980.434788	0.066275
980.608715	0.066739
980.782623	0.068657
980.956514	0.069901
981.130386	0.070957
981.304240	0.071930
981.478075	0.071046
981.651892	0.073985
981.825692	0.074861
981.999472	0.072907
982.173235	0.072571
982.346980	0.071340
982.520706	0.069795
982.694414	0.069782
982.868104	0.069407
983.041775	0.069562
983.215428	0.068954
983.389064	0.068139
983.562680	0.071877
983.736279	0.071877
983.909860	0.073542
984.083422	0.072720
984.256966	0.071933
984.430491	0.073947
984.603999	0.075340
984.777488	0.073925
984.950959	0.073225
985.124412	0.071175
985.297847	0.071564
985.471263	0.070860
985.644661	0.072067
985.818041	0.072388
985.991403	0.069528
986.164747	0.067938
986.338072	0.069268
986.511379	0.070080
986.684668	0.071790
986.857938	0.071128
987.031191	0.072990
987.204425	0.072869
987.377641	0.074571
987.550839	0.077173
987.724018	0.077172
987.897179	0.076299
988.070322	0.075884
988.243447	0.073996
988.416554	0.074429
988.589642	0.072950
988.762712	0.073120
988.935764	0.071615
989.108798	0.069859
989.281813	0.070138
989.454811	0.070226
989.627790	0.069225
989.800751	0.070234
989.973693	0.071485
990.146617	0.068956
990.319524	0.068974
990.492412	0.067708
990.665281	0.067930
990.838133	0.068576
991.010966	0.067294
991.183781	0.068586
991.356578	0.068108
991.529356	0.067106
991.702117	0.068876
991.874859	0.068345
992.047583	0.067929
992.220288	0.068283
992.392976	0.068762
992.565645	0.070851
992.738296	0.069855
992.910929	0.068949
993.083543	0.068760
993.256139	0.069309
993.428718	0.071776
993.601277	0.073189
993.773819	0.073466
993.946342	0.073309
994.118848	0.072376
994.291335	0.073214
994.463803	0.076334
994.636254	0.075531
994.808686	0.075985
994.981100	0.075326
995.153496	0.074541
995.325874	0.073888
995.498233	0.072721
995.670574	0.072501
995.842897	0.071808
996.015202	0.069096
996.187488	0.070489
996.359757	0.069205
996.532007	0.069607
996.704239	0.069846
996.876452	0.069893
997.048648	0.070917
997.220825	0.071484
997.392984	0.071751
997.565124	0.073260
997.737247	0.072274
997.909351	0.074255
998.081437	0.072349
998.253505	0.074089
998.425554	0.075115
998.597586	0.074061
998.769599	0.075177
998.941594	0.075017
999.113571	0.074556
999.285529	0.076534
999.457469	0.075093
999.629391	0.073446
999.801295	0.071658
999.973181	0.070894
1000.145048	0.070770
1000.316897	0.069931
1000.488728	0.070285
1000.660541	0.070613
1000.832335	0.069240
1001.004111	0.068523
1001.175869	0.068900
1001.347609	0.068120
1001.519331	0.068549
1001.691034	0.070100
1001.862719	0.070683
1002.034386	0.070562
1002.206035	0.069764
1002.377665	0.068795
1002.549277	0.069404
1002.720871	0.070288
1002.892447	0.071298
1003.064004	0.069894
1003.235544	0.068403
1003.407065	0.069082
1003.578568	0.069292
1003.750052	0.069518
1003.921519	0.069158
1004.092967	0.069519
1004.264397	0.071049
1004.435809	0.069472
1004.607202	0.072328
1004.778577	0.073332
1004.949934	0.072188
1005.121273	0.072630
1005.292594	0.071846
1005.463896	0.074007
1005.635180	0.072198
1005.806446	0.070970
1005.977694	0.072631
1006.148923	0.070498
1006.320135	0.068641
1006.491328	0.068154
1006.662503	0.066267
1006.833659	0.065532
1007.004798	0.065129
1007.175918	0.067184
1007.347020	0.066822
1007.518103	0.065031
1007.689169	0.065326
1007.860216	0.065886
1008.031245	0.066117
1008.202256	0.067877
1008.373248	0.069885
1008.544223	0.069837
1008.715179	0.070875
1008.886117	0.070776
1009.057036	0.072162
1009.227938	0.072822
1009.398821	0.072252
1009.569686	0.073767
1009.740533	0.071792
1009.911361	0.070382
1010.082172	0.068376
1010.252964	0.066221
1010.423738	0.066086
1010.594493	0.065788
1010.765231	0.064968
1010.935950	0.063731
1011.106651	0.062212
1011.277334	0.064353
1011.447998	0.063826
1011.618645	0.064825
1011.789273	0.065811
1011.959882	0.066316
1012.130474	0.066808
1012.301048	0.066633
1012.471603	0.070404
1012.642140	0.067699
1012.812658	0.066519
1012.983159	0.068204
1013.153641	0.068556
1013.324105	0.069994
1013.494551	0.069975
1013.664979	0.070187
1013.835388	0.070270
1014.005779	0.067086
1014.176152	0.070412
1014.346507	0.068799
1014.516843	0.068238
1014.687162	0.067485
1014.857462	0.066335
1015.027744	0.066750
1015.198007	0.065246
1015.368252	0.064648
1015.538480	0.067338
1015.708689	0.067722
1015.878879	0.070806
1016.049052	0.070203
1016.219206	0.069223
1016.389342	0.069681
1016.559460	0.068191
1016.729559	0.068669
1016.899641	0.068303
1017.069704	0.068053
1017.239749	0.065966
1017.409775	0.064363
1017.579784	0.064815
1017.749774	0.066778
1017.919746	0.064590
1018.089700	0.065204
1018.259635	0.065541
1018.429553	0.066039
1018.599452	0.065659
1018.769333	0.067633
1018.939195	0.068734
1019.109040	0.069379
1019.278866	0.067870
1019.448674	0.067037
1019.618464	0.068277
1019.788235	0.068129
1019.957989	0.070121
1020.127724	0.068753
1020.297441	0.068368
1020.467139	0.067737
1020.636820	0.066291
1020.806482	0.066112
1020.976126	0.068209
1021.145752	0.068179
1021.315359	0.068313
1021.484948	0.066129
1021.654519	0.066742
1021.824072	0.066734
1021.993607	0.066676
1022.163123	0.067619
1022.332621	0.067725
1022.502101	0.068390
1022.671563	0.067187
1022.841007	0.067263
1023.010432	0.068240
1023.179839	0.068013
1023.349228	0.066474
1023.518598	0.066403
1023.687951	0.066343
1023.857285	0.067111
1024.026601	0.064815
1024.195899	0.065122
1024.365178	0.063984
1024.534439	0.063276
1024.703682	0.064230
1024.872907	0.064345
1025.042114	0.064332
1025.211302	0.064385
1025.380472	0.063778
1025.549624	0.064657
1025.718758	0.064535
1025.887873	0.065376
1026.056970	0.066393
1026.226049	0.065693
1026.395110	0.067575
1026.564153	0.067872
1026.733177	0.067498
1026.902183	0.068748
1027.071171	0.070013
1027.240141	0.070020
1027.409092	0.070427
1027.578026	0.068968
1027.746940	0.069557
1027.915837	0.067195
1028.084716	0.066210
1028.253576	0.066544
1028.422418	0.066577
1028.591242	0.063901
1028.760048	0.064810
1028.928835	0.066690
1029.097604	0.068342
1029.266355	0.068679
1029.435088	0.069411
1029.603803	0.069200
1029.772499	0.069199
1029.941177	0.069155
1030.109837	0.070275
1030.278478	0.070849
1030.447102	0.068759
1030.615707	0.067071
1030.784294	0.065474
1030.952863	0.065645
1031.121413	0.067688
1031.289945	0.068080
1031.458460	0.066827
1031.626955	0.066216
1031.795433	0.065241
1031.963892	0.065585
1032.132334	0.067844
1032.300756	0.067926
1032.469161	0.067716
1032.637548	0.066377
1032.805916	0.065793
1032.974266	0.065420
1033.142598	0.066949
1033.310911	0.065590
1033.479207	0.065168
1033.647484	0.063875
1033.815743	0.064646
1033.983983	0.064284
1034.152206	0.065552
1034.320410	0.065689
1034.488596	0.067826
1034.656764	0.067593
1034.824914	0.068892
1034.993045	0.068640
1035.161158	0.068658
1035.329253	0.068230
1035.497330	0.068545
1035.665388	0.067769
1035.833428	0.065482
1036.001450	0.065826
1036.169454	0.067239
1036.337440	0.066359
1036.505407	0.066830
1036.673356	0.066816
1036.841287	0.065933
1037.009200	0.065854
1037.177094	0.065635
1037.344970	0.069335
1037.512828	0.067814
1037.680668	0.065276
1037.848489	0.066718
1038.016293	0.067463
1038.184078	0.065869
1038.351845	0.067994
1038.519593	0.067952
1038.687324	0.067780
1038.855036	0.065792
1039.022730	0.065176
1039.190406	0.066782
1039.358063	0.064845
1039.525702	0.063150
1039.693323	0.063598
1039.860926	0.062439
1040.028511	0.063952
1040.196077	0.064027
1040.363625	0.064237
1040.531155	0.065689
1040.698667	0.065277
1040.866161	0.067617
1041.033636	0.068282
1041.201093	0.069437
1041.368532	0.068651
1041.535952	0.065957
1041.703355	0.065290
1041.870739	0.066673
1042.038105	0.067089
1042.205452	0.065860
1042.372782	0.064531
1042.540093	0.064044
1042.707386	0.063617
1042.874661	0.063291
1043.041918	0.064597
1043.209156	0.065029
1043.376376	0.064908
1043.543578	0.064608
1043.710762	0.063718
1043.877927	0.062754
1044.045074	0.063417
1044.212203	0.063166
1044.379314	0.062571
1044.546407	0.061795
1044.713481	0.059951
1044.880537	0.059027
1045.047575	0.058245
1045.214595	0.060973
1045.381596	0.061464
1045.548579	0.061105
1045.715544	0.061323
1045.882491	0.063954
1046.049420	0.065325
1046.216330	0.066342
1046.383222	0.066304
1046.550096	0.065262
1046.716951	0.062884
1046.883789	0.063290
1047.050608	0.063196
1047.217409	0.062744
1047.384192	0.061056
1047.550956	0.061326
1047.717703	0.062796
1047.884431	0.062609
1048.051140	0.062909
1048.217832	0.063578
1048.384505	0.061701
1048.551161	0.061817
1048.717798	0.062099
1048.884416	0.062558
1049.051017	0.061910
1049.217599	0.061662
1049.384163	0.061263
1049.550709	0.063475
1049.717237	0.064914
1049.883746	0.067184
1050.050237	0.067537
1050.216710	0.067979
1050.383165	0.067599
1050.549601	0.066366
1050.716019	0.066017
1050.882420	0.066002
1051.048801	0.065281
1051.215165	0.063972
1051.381510	0.062929
1051.547837	0.061847
1051.714146	0.061076
1051.880437	0.062135
1052.046709	0.063249
1052.212964	0.061960
1052.379200	0.062804
1052.545417	0.061818
1052.711617	0.062026
1052.877798	0.062379
1053.043961	0.064407
1053.210106	0.063600
1053.376233	0.061488
1053.542341	0.060013
1053.708432	0.060489
1053.874504	0.058528
1054.040557	0.058916
1054.206593	0.059281
1054.372610	0.061169
1054.538609	0.059012
1054.704590	0.060079
1054.870553	0.062572
1055.036497	0.061407
1055.202424	0.062748
1055.368331	0.063217
1055.534221	0.063367
1055.700093	0.065171
1055.865946	0.063004
1056.031781	0.063754
1056.197598	0.063302
1056.363397	0.063260
1056.529177	0.067409
1056.694939	0.066517
1056.860683	0.067903
1057.026409	0.066203
1057.192116	0.063948
1057.357806	0.064573
1057.523477	0.064691
1057.689130	0.065299
1057.854764	0.064927
1058.020381	0.063538
1058.185979	0.062745
1058.351559	0.061967
1058.517120	0.063000
1058.682664	0.063286
1058.848189	0.062948
1059.013696	0.063160
1059.179185	0.062438
1059.344656	0.062376
1059.510108	0.062412
1059.675542	0.063647
1059.840958	0.062396
1060.006356	0.061348
1060.171735	0.061014
1060.337096	0.061821
1060.502439	0.061691
1060.667764	0.061580
1060.833071	0.061664
1060.998359	0.062579
1061.163629	0.063280
1061.328881	0.065657
1061.494115	0.068053
1061.659330	0.067484
1061.824527	0.067703
1061.989706	0.067156
1062.154867	0.066539
1062.320010	0.065422
1062.485134	0.064906
1062.650240	0.063749
1062.815328	0.063076
1062.980398	0.063393
1063.145449	0.064234
1063.310482	0.065529
1063.475497	0.065593
1063.640494	0.069955
1063.805473	0.070655
1063.970433	0.069469
1064.135375	0.070934
1064.300299	0.072239
1064.465204	0.070465
1064.630092	0.070805
1064.794961	0.068433
1064.959812	0.066476
1065.124645	0.064275
1065.289459	0.063764
1065.454256	0.063992
1065.619034	0.062390
1065.783793	0.061320
1065.948535	0.062557
1066.113258	0.061126
1066.277964	0.061547
1066.442651	0.063409
1066.607319	0.062664
1066.771970	0.063239
1066.936602	0.063359
1067.101216	0.063262
1067.265812	0.063834
1067.430389	0.066038
1067.594949	0.068151
1067.759490	0.067276
1067.924013	0.068383
1068.088518	0.067373
1068.253004	0.064924
1068.417472	0.064802
1068.581922	0.067015
1068.746354	0.067447
1068.910768	0.064566
1069.075163	0.063863
1069.239540	0.064169
1069.403899	0.064846
1069.568240	0.066661
1069.732562	0.069055
1069.896866	0.070596
1070.061152	0.067973
1070.225420	0.068570
1070.389670	0.070286
1070.553901	0.070108
1070.718114	0.070782
1070.882309	0.070299
1071.046486	0.071925
1071.210644	0.071866
1071.374784	0.070288
1071.538906	0.070567
1071.703010	0.069676
1071.867096	0.067837
1072.031163	0.068764
1072.195212	0.067018
1072.359243	0.066009
1072.523256	0.065082
1072.687250	0.065207
1072.851226	0.064900
1073.015184	0.066316
1073.179124	0.064265
1073.343045	0.063375
1073.506949	0.060349
1073.670834	0.061768
1073.834701	0.061815
1073.998549	0.062490
1074.162380	0.060453
1074.326192	0.062261
1074.489986	0.060015
1074.653761	0.062403
1074.817519	0.062332
1074.981258	0.065234
1075.144979	0.066600
1075.308682	0.066693
1075.472367	0.062423
1075.636033	0.065328
1075.799681	0.063791
1075.963311	0.065108
1076.126923	0.063777
1076.290516	0.066022
1076.454092	0.064380
1076.617649	0.063102
1076.781187	0.065015
1076.944708	0.067468
1077.108210	0.066945
1077.271695	0.069805
1077.435160	0.071032
1077.598608	0.072805
1077.762038	0.070263
1077.925449	0.072513
1078.088842	0.072601
1078.252217	0.073219
1078.415573	0.073982
1078.578912	0.074285
1078.742232	0.070935
1078.905534	0.073049
1079.068817	0.071058
1079.232083	0.073642
1079.395330	0.073274
1079.558559	0.073899
1079.721770	0.074002
1079.884962	0.074728
1080.048136	0.072270
1080.211293	0.074289
1080.374430	0.072272
1080.537550	0.074109
1080.700651	0.073669
1080.863735	0.072706
1081.026800	0.072126
1081.189846	0.069745
1081.352875	0.067663
1081.515885	0.070142
1081.678877	0.068725
1081.841851	0.068274
1082.004807	0.064730
1082.167744	0.065221
1082.330663	0.064622
1082.493564	0.065296
1082.656447	0.064410
1082.819312	0.066709
1082.982158	0.067770
1083.144986	0.068546
1083.307796	0.067726
1083.470587	0.068519
1083.633361	0.065832
1083.796116	0.066146
1083.958853	0.066927
1084.121571	0.067478
1084.284272	0.068747
1084.446954	0.067783
1084.609618	0.067325
1084.772264	0.067346
1084.934892	0.065411
1085.097501	0.065624
1085.260092	0.065230
1085.422665	0.064186
1085.585220	0.063367
1085.747756	0.058440
1085.910274	0.055988
1086.072774	0.053767
1086.235256	0.052811
1086.397720	0.054549
1086.560165	0.053412
1086.722592	0.055037
1086.885001	0.054344
1087.047392	0.055279
1087.209764	0.057111
1087.372119	0.058815
1087.534455	0.061902
1087.696772	0.061209
1087.859072	0.062354
1088.021353	0.062952
1088.183616	0.061480
1088.345861	0.061184
1088.508088	0.061013
1088.670296	0.061474
1088.832486	0.061232
1088.994658	0.060701
1089.156812	0.061189
1089.318948	0.060823
1089.481065	0.061300
1089.643164	0.063400
1089.805245	0.063247
1089.967308	0.065573
1090.129352	0.064222
1090.291378	0.065689
1090.453386	0.067273
1090.615376	0.069499
1090.777347	0.071817
1090.939301	0.073615
1091.101236	0.073563
1091.263153	0.075294
1091.425051	0.075628
1091.586932	0.077456
1091.748794	0.077294
1091.910638	0.075253
1092.072463	0.073097
1092.234271	0.071970
1092.396060	0.071179
1092.557831	0.069484
1092.719584	0.066115
1092.881319	0.062894
1093.043035	0.062306
1093.204733	0.059858
1093.366413	0.059968
1093.528075	0.059277
1093.689718	0.056406
1093.851343	0.055760
1094.012950	0.056352
1094.174539	0.058252
1094.336110	0.060247
1094.497662	0.058723
1094.659196	0.058768
1094.820712	0.058705
1094.982210	0.059210
1095.143689	0.058811
1095.305151	0.059476
1095.466594	0.058692
1095.628018	0.058914
1095.789425	0.057913
1095.950813	0.055968
1096.112183	0.056886
1096.273535	0.055769
1096.434869	0.059174
1096.596184	0.060037
1096.757482	0.059411
1096.918761	0.062107
1097.080021	0.061994
1097.241264	0.060272
1097.402488	0.062724
1097.563694	0.063603
1097.724882	0.064256
1097.886052	0.061903
1098.047203	0.063694
1098.208336	0.064581
1098.369451	0.064518
1098.530548	0.066612
1098.691627	0.068537
1098.852687	0.068729
1099.013729	0.066927
1099.174753	0.068226
1099.335758	0.067846
1099.496746	0.069221
1099.657715	0.070880
1099.818666	0.069092
1099.979599	0.067112
1100.140513	0.064781
1100.301409	0.065630
1100.462287	0.067927
1100.623147	0.067159
1100.783989	0.066550
1100.944812	0.065834
1101.105617	0.064318
1101.266404	0.061466
1101.427173	0.062164
1101.587923	0.063526
1101.748656	0.061608
1101.909370	0.060575
1102.070066	0.060418
1102.230743	0.064221
1102.391403	0.062351
1102.552044	0.062832
1102.712667	0.066267
1102.873271	0.066458
1103.033858	0.070213
1103.194426	0.072184
1103.354976	0.074288
1103.515508	0.072905
1103.676021	0.072623
1103.836517	0.075649
1103.996994	0.074864
1104.157453	0.074626
1104.317893	0.076891
1104.478316	0.074652
1104.638720	0.075596
1104.799106	0.072408
1104.959474	0.073887
1105.119823	0.071879
1105.280155	0.072039
1105.440468	0.071241
1105.600763	0.070562
1105.761039	0.067993
1105.921298	0.069647
1106.081538	0.069010
1106.241760	0.071928
1106.401964	0.071384
1106.562149	0.070403
1106.722316	0.065981
1106.882465	0.070038
1107.042596	0.070209
1107.202709	0.071862
1107.362803	0.068783
1107.522879	0.069116
1107.682937	0.067008
1107.842977	0.068373
1108.002999	0.069244
1108.163002	0.072466
1108.322987	0.069343
1108.482954	0.071837
1108.642902	0.070048
1108.802833	0.068856
1108.962745	0.065787
1109.122639	0.066098
1109.282515	0.065439
1109.442372	0.067606
1109.602211	0.065696
1109.762032	0.063637
1109.921835	0.059346
1110.081620	0.059958
1110.241386	0.062285
1110.401134	0.061941
1110.560864	0.060461
1110.720576	0.060425
1110.880269	0.058825
1111.039945	0.059929
1111.199602	0.060827
1111.359240	0.059779
1111.518861	0.059600
1111.678463	0.061036
1111.838047	0.065820
1111.997613	0.067636
1112.157161	0.068473
1112.316690	0.067329
1112.476202	0.065121
1112.635695	0.067733
1112.795169	0.069783
1112.954626	0.067339
1113.114064	0.065476
1113.273484	0.064742
1113.432886	0.066539
1113.592270	0.063769
1113.751635	0.066300
1113.910983	0.070523
1114.070312	0.066101
1114.229622	0.066205
1114.388915	0.070115
1114.548189	0.067612
1114.707445	0.068123
1114.866683	0.068116
1115.025903	0.070755
1115.185104	0.069084
1115.344287	0.068826
1115.503452	0.075931
1115.662599	0.077928
1115.821727	0.075264
1115.980838	0.081904
1116.139930	0.078526
1116.299004	0.074711
1116.458059	0.073249
1116.617097	0.071739
1116.776116	0.069621
1116.935117	0.067012
1117.094099	0.068069
1117.253064	0.068038
1117.412010	0.062984
1117.570938	0.062424
1117.729848	0.064630
1117.888740	0.064757
1118.047613	0.067937
1118.206468	0.065975
1118.365305	0.065125
1118.524124	0.061930
1118.682924	0.063738
1118.841707	0.063301
1119.000471	0.065963
1119.159216	0.066915
1119.317944	0.066053
1119.476653	0.062547
1119.635344	0.060796
1119.794017	0.062517
1119.952672	0.062253
1120.111308	0.058909
1120.269927	0.061307
1120.428527	0.060983
1120.587108	0.060897
1120.745672	0.064111
1120.904217	0.064211
1121.062744	0.068335
1121.221253	0.065914
1121.379744	0.068823
1121.538216	0.073908
1121.696671	0.071031
1121.855107	0.070039
1122.013524	0.068862
1122.171924	0.065740
1122.330305	0.067605
1122.488668	0.067394
1122.647013	0.068137
1122.805340	0.063503
1122.963648	0.062316
1123.121938	0.066329
1123.280210	0.064038
1123.438464	0.065509
1123.596700	0.065590
1123.754917	0.064285
1123.913116	0.066226
1124.071297	0.065707
1124.229459	0.069485
1124.387604	0.067269
1124.545730	0.066077
1124.703838	0.072227
1124.861928	0.069870
1125.019999	0.070419
1125.178052	0.070831
1125.336088	0.068060
1125.494104	0.066584
1125.652103	0.067223
1125.810083	0.067662
1125.968045	0.065748
1126.125989	0.059062
1126.283915	0.058238
1126.441823	0.061699
1126.599712	0.063151
1126.757583	0.064917
1126.915436	0.071754
1127.073270	0.069201
1127.231087	0.068413
1127.388885	0.068424
1127.546665	0.075419
1127.704426	0.075753
1127.862170	0.069230
1128.019895	0.066591
1128.177602	0.065168
1128.335291	0.059755
1128.492961	0.059045
1128.650614	0.057658
1128.808248	0.060537
1128.965864	0.055256
1129.123461	0.056965
1129.281041	0.061368
1129.438602	0.061659
1129.596145	0.064091
1129.753670	0.062763
1129.911176	0.059913
1130.068665	0.059103
1130.226135	0.057293
1130.383587	0.055911
1130.541020	0.055113
1130.698436	0.056057
1130.855833	0.060005
1131.013212	0.058801
1131.170573	0.056163
1131.327915	0.058091
1131.485239	0.059231
1131.642545	0.057280
1131.799833	0.054997
1131.957103	0.053088
1132.114354	0.053892
1132.271588	0.048069
1132.428803	0.052683
1132.585999	0.054002
1132.743178	0.056769
1132.900338	0.057881
1133.057480	0.055900
1133.214604	0.061584
1133.371710	0.062771
1133.528797	0.060317
1133.685866	0.058540
1133.842917	0.051988
1133.999950	0.053518
1134.156964	0.054237
1134.313960	0.053170
1134.470938	0.057280
1134.627898	0.054186
1134.784840	0.054245
1134.941763	0.053124
1135.098668	0.060080
1135.255555	0.067208
1135.412424	0.060866
1135.569274	0.059725
1135.726107	0.058092
1135.882921	0.055168
1136.039716	0.057264
1136.196494	0.060356
1136.353253	0.065640
1136.509995	0.056516
1136.666717	0.052514
1136.823422	0.058508
1136.980109	0.054306
1137.136777	0.055634
1137.293427	0.052837
1137.450059	0.052942
1137.606672	0.047106
1137.763267	0.045854
1137.919844	0.053306
1138.076403	0.055333
1138.232944	0.054056
1138.389466	0.061295
1138.545971	0.058781
1138.702457	0.062469
1138.858924	0.062439
1139.015374	0.065288
1139.171805	0.059891
1139.328218	0.054189
1139.484613	0.048589
1139.640990	0.049681
1139.797348	0.045339
1139.953688	0.044396
1140.110010	0.044317
1140.266314	0.040280
1140.422600	0.043423
1140.578867	0.046773
1140.735116	0.053860
1140.891347	0.054064
1141.047559	0.058458
1141.203754	0.059632
1141.359930	0.065199
1141.516088	0.066027
1141.672228	0.072722
1141.828349	0.065339
1141.984452	0.060261
1142.140537	0.058763
1142.296604	0.057630
1142.452653	0.057819
1142.608683	0.054732
1142.764695	0.056431
1142.920689	0.061884
1143.076665	0.060406
1143.232622	0.062449
1143.388562	0.068100
1143.544483	0.066828
1143.700385	0.068653
1143.856270	0.065700
1144.012136	0.062881
1144.167985	0.059470
1144.323814	0.052495
1144.479626	0.046753
1144.635420	0.047790
1144.791195	0.043941
1144.946952	0.045869
1145.102691	0.048641
1145.258411	0.048819
1145.414113	0.054389
1145.569798	0.056663
1145.725463	0.058225
1145.881111	0.063710
1146.036741	0.062603
1146.192352	0.062730
1146.347945	0.061685
1146.503519	0.058449
1146.659076	0.054961
1146.814614	0.061353
1146.970134	0.065447
1147.125636	0.069181
1147.281120	0.069090
1147.436585	0.068985
1147.592032	0.072093
1147.747461	0.065372
1147.902872	0.058735
1148.058265	0.058491
1148.213639	0.052090
1148.368995	0.046906
1148.524333	0.045636
1148.679653	0.049994
1148.834954	0.052315
1148.990237	0.046203
1149.145502	0.054575
1149.300749	0.060296
1149.455977	0.063063
1149.611188	0.062135
1149.766380	0.059535
1149.921553	0.057512
1150.076709	0.050800
1150.231846	0.050477
1150.386966	0.052973
1150.542066	0.046230
1150.697149	0.048177
1150.852214	0.041963
1151.007260	0.048859
1151.162288	0.051404
1151.317298	0.052100
1151.472289	0.051187
1151.627263	0.055415
1151.782218	0.049115
1151.937155	0.059295
1152.092073	0.061776
1152.246974	0.070113
1152.401856	0.061623
1152.556720	0.066196
1152.711566	0.064735
1152.866393	0.069714
1153.021203	0.064965
1153.175994	0.075089
1153.330767	0.066956
1153.485521	0.061790
1153.640258	0.059188
1153.794976	0.060911
1153.949676	0.051169
1154.104358	0.047691
1154.259021	0.042422
1154.413667	0.035817
1154.568294	0.028914
1154.722903	0.029539
1154.877493	0.033784
1155.032066	0.033442
1155.186620	0.038237
1155.341156	0.041218
1155.495674	0.046207
1155.650173	0.048094
1155.804654	0.055533
1155.959118	0.060886
1156.113562	0.065940
1156.267989	0.062175
1156.422397	0.058659
1156.576788	0.055671
1156.731160	0.055679
1156.885513	0.055035
1157.039849	0.051934
1157.194166	0.059201
1157.348465	0.057264
1157.502746	0.056236
1157.657009	0.060934
1157.811253	0.058633
1157.965479	0.050709
1158.119687	0.044536
1158.273877	0.041688
1158.428048	0.050109
1158.582201	0.041842
1158.736337	0.045404
1158.890453	0.042772
1159.044552	0.036784
1159.198632	0.045271
1159.352694	0.051403
1159.506738	0.060146
1159.660764	0.060331
1159.814771	0.060717
1159.968761	0.066931
1160.122732	0.059612
1160.276685	0.057533
1160.430619	0.052123
1160.584535	0.047900
1160.738434	0.047415
1160.892313	0.045698
1161.046175	0.044670
1161.200019	0.039841
1161.353844	0.037282
1161.507651	0.038522
1161.661440	0.040210
1161.815210	0.042433
1161.968962	0.045524
1162.122697	0.037243
1162.276412	0.038540
1162.430110	0.041427
1162.583789	0.041052
1162.737451	0.044081
1162.891094	0.045563
1163.044718	0.050173
1163.198325	0.057193
1163.351913	0.056284
1163.505483	0.059490
1163.659035	0.061035
1163.812569	0.064930
1163.966084	0.066310
1164.119581	0.062754
1164.273060	0.060692
1164.426521	0.051978
1164.579964	0.062532
1164.733388	0.064389
1164.886794	0.066212
1165.040182	0.063531
1165.193551	0.058767
1165.346903	0.058516
1165.500236	0.054892
1165.653551	0.056599
1165.806848	0.056725
1165.960126	0.043814
1166.113386	0.036661
1166.266628	0.037062
1166.419852	0.032939
1166.573058	0.027970
1166.726245	0.030611
1166.879414	0.027721
1167.032565	0.026167
1167.185698	0.029737
1167.338812	0.031928
1167.491909	0.032605
1167.644987	0.032062
1167.798046	0.033224
1167.951088	0.029871
1168.104111	0.027815
1168.257117	0.031386
1168.410103	0.039325
1168.563072	0.036064
1168.716023	0.035062
1168.868955	0.035108
1169.021869	0.034667
1169.174765	0.036470
1169.327642	0.041297
1169.480501	0.039828
1169.633343	0.034936
1169.786165	0.030864
1169.938970	0.035164
1170.091757	0.035705
1170.244525	0.035579
1170.397275	0.035546
1170.550007	0.042101
1170.702720	0.044810
1170.855415	0.045276
1171.008092	0.053652
1171.160751	0.057487
1171.313392	0.057852
1171.466014	0.063649
1171.618619	0.078036
1171.771205	0.078036
1171.923772	0.078036
