sample name	sample
index	104
start time	 02-15-2021  11:20:38 AM
880	0.423140
Peak Time (s)	92.537
Peak Height 	0.4231
calc peak height	90,93
Baseline Time (s)	9.036
Baseline Value 	-1.9264E-4
subtract baseline	10,4
Abs	0.338982
Peak Time (s)	90.036
Peak Height 	0.339
calc peak height	90,93
Baseline Time (s)	11.037
Baseline Value 	0.00983
subtract baseline	10,3
PK_550	0.155454
Peak Time (s)	91.036
Peak Height 	0.1555
calc peak height	90,93
Baseline Time (s)	10.037
Baseline Value 	5.0341E-4
subtract baseline	10,2
PK_880	0.313118
Peak Time (s)	92.537
Peak Height 	0.3131
calc peak height	90,93
Baseline Time (s)	9.036
Baseline Value 	0.002404
subtract baseline	10,1


Time (s)	A880-A510	A880-A775	A880-A975	A880	I510	I775	I975	I880	
0.036000	-0.003519	-0.000721	-0.011025	0.002201	4098.661141	14727.503525	3190.411433	8525.375134
0.536500	-0.001580	0.000070	0.001018	0.001796	4104.751523	14759.775125	3198.264509	8530.571771
1.037000	-0.006492	-0.002984	-0.011884	-0.000459	4097.848915	14738.195240	3191.534063	8559.610980
1.537000	-0.002253	0.000568	-0.003561	-0.001126	4110.629647	14852.588713	3197.206121	8568.225588
2.040500	-0.003658	-0.000522	-0.010857	-0.001500	4107.930661	14833.090551	3192.828142	8573.064149
2.535000	-0.003395	-0.002137	-0.003537	-0.003077	4112.749615	14832.045359	3198.468045	8593.505469
3.035000	-0.000258	0.001491	-0.008698	-0.003165	4121.247424	14933.567158	3195.238174	8594.648082
3.535500	-0.002458	-0.000041	0.008861	-0.000862	4109.402044	14828.821673	3205.066788	8564.816340
4.035500	-0.004314	0.001357	0.005544	0.000306	4101.515418	14835.082075	3202.140895	8549.740952
4.536000	-0.001151	-0.000598	-0.006559	-0.001478	4114.444869	14830.449748	3195.524800	8572.782382
5.036500	-0.002614	-0.000419	-0.000687	-0.001102	4109.622011	14825.081057	3199.028680	8567.913712
5.536500	0.005253	0.000765	-0.003710	0.000172	4127.008549	14822.620102	3196.284771	8551.462857
6.036500	-0.001501	-0.000505	-0.005173	-0.001526	4113.652011	14834.253554	3196.434358	8573.399907
6.537000	-0.001695	-0.000799	-0.005410	-0.000962	4111.662382	14810.943877	3195.925485	8566.103311
7.039500	0.003026	-0.000471	0.008943	-0.001427	4125.341162	14832.486335	3205.491143	8572.116037
7.535000	-0.002520	0.001254	-0.006020	0.000980	4104.428491	14813.950783	3194.310730	8541.054658
8.035500	-0.001877	-0.001267	-0.005523	-0.001856	4113.531553	14822.534628	3196.421810	8577.676592
8.535500	-0.004077	-0.000840	0.000773	-0.000859	4105.163194	14807.044545	3199.810960	8564.772782
9.035500	0.000000	-0.000203	-0.010158	0.000000	4113.585409	14801.011579	3192.326103	8553.684430
9.536500	0.002904	0.001401	0.008271	0.000868	4118.945781	14820.992869	3203.550014	8542.506442
10.036500	0.002863	0.000000	0.011402	0.000377	4120.132918	14796.293631	3205.921573	8548.825208
10.537000	-0.005308	0.000823	-0.005470	-0.000303	4100.514452	14837.127726	3195.470181	8557.595936
11.037000	0.000120	0.000144	0.000000	0.000213	4113.339305	14804.643575	3198.626050	8550.935333
11.539500	-0.001525	-0.001513	-0.011121	-0.002165	4115.268112	14824.221994	3193.079687	8581.670126
12.035000	-0.001497	-0.001009	0.006380	-0.001888	4114.612363	14830.385386	3204.113954	8578.082708
12.535000	0.006258	0.001367	0.012967	0.000782	4128.060899	14822.418941	3206.685296	8543.610340
13.035500	-0.000053	0.002608	-0.005069	-0.000262	4114.134633	14884.668345	3195.697678	8557.064471
13.535500	-0.000345	0.000993	0.013881	-0.000929	4115.119590	14858.803651	3208.421081	8565.676887
14.036000	-0.004582	-0.000503	0.003319	0.000454	4100.433818	14780.552930	3200.605341	8547.826893
14.536500	-0.005411	0.001416	-0.019279	0.002453	4093.115240	14778.420578	3185.173334	8522.141223
15.040000	-0.001788	0.000502	0.014542	-0.000931	4111.338016	14845.476663	3208.861736	8565.705673
15.536500	-0.002666	0.002017	-0.006065	0.001966	4101.484192	14807.890132	3193.661134	8528.387798
16.037500	-0.000047	-0.000643	-0.020878	-0.001739	4118.040322	14836.310777	3186.759084	8576.158964
16.537500	-0.001610	0.000980	-0.007237	-0.000195	4109.875180	14838.440180	3194.284358	8556.198509
17.035000	0.002709	0.000329	-0.012400	-0.003261	4129.375510	14904.359776	3192.964889	8595.897209
17.537000	-0.005193	0.000039	0.003560	0.000549	4098.601307	14792.687197	3200.699862	8546.608446
18.035500	-0.003618	0.000482	0.000931	0.000878	4101.837215	14795.764672	3198.796449	8542.372249
18.535500	-0.001778	0.000132	0.010784	0.000276	4108.202803	14802.603839	3205.581893	8550.127187
19.036000	-0.003015	-0.001079	0.004529	-0.001180	4108.776682	14809.271160	3202.447214	8568.926165
19.536500	-0.004236	0.001187	-0.007267	0.001355	4098.993512	14801.951137	3193.289230	8536.234900
20.036500	-0.000461	0.000345	-0.007827	0.000924	4109.952109	14790.827912	3193.208463	8541.780294
20.537000	-0.000373	0.000959	-0.006371	-0.000038	4112.705839	14833.623630	3194.732003	8554.175980
21.039500	-0.002152	-0.000081	-0.007176	-0.000583	4109.472106	14820.140067	3194.567611	8561.208529
21.537500	-0.002341	0.000662	-0.004182	0.001316	4104.021217	14788.785502	3195.260414	8536.744467
22.035500	0.001127	0.000691	0.010351	0.001229	4113.316676	14791.906100	3204.672266	8537.852275
22.535500	-0.001721	-0.000214	-0.004353	0.000589	4107.533614	14784.761108	3195.612779	8546.097046
23.035500	0.001659	0.000884	-0.007510	0.001158	4114.903478	14799.084179	3193.260828	8538.774519
23.536000	-0.000438	-0.000470	0.006551	-0.000121	4112.750653	14797.032321	3203.073072	8555.239031
24.036000	-0.004483	-0.000725	0.003816	0.000017	4101.825752	14786.411725	3201.208804	8553.467490
24.536500	-0.001560	0.000276	-0.002676	0.000683	4107.708174	14795.470237	3196.617530	8544.885549
25.037000	-0.002666	0.001041	0.003520	0.000737	4104.680227	14814.775954	3200.552666	8544.184430
25.540000	-0.000142	0.001527	0.011408	0.002019	4107.923694	14793.172594	3204.847778	8527.707132
26.037500	-0.002546	0.001083	-0.009557	0.001126	4103.981987	14805.353499	3191.997406	8539.188036
26.535000	0.002352	0.000003	0.004856	0.000055	4119.636116	14805.111523	3201.857729	8552.975795
27.035000	0.005194	0.000125	0.003232	-0.001488	4131.272251	14850.369697	3201.805278	8572.906073
27.536000	-0.000334	-0.000526	0.020137	-0.003148	4121.000777	14877.892478	3214.098096	8594.426087
28.035500	-0.000516	-0.000761	0.006448	-0.001243	4115.495045	14819.614423	3203.737541	8569.734463
28.538500	0.001472	0.002957	-0.007073	-0.000342	4118.360933	14896.390804	3194.480681	8558.095666
29.036500	0.000081	0.001397	0.017500	-0.000266	4114.498279	14851.748601	3210.388804	8557.117110
29.537000	0.001219	0.000839	0.009355	0.003364	4107.965098	14738.189949	3202.630541	8510.475596
30.037000	0.000992	0.000898	0.004993	-0.001657	4120.564056	14876.057363	3203.058871	8575.095913
30.540000	0.000725	-0.001131	0.008459	-0.000210	4116.045455	14781.571095	3204.376396	8556.399088
31.037500	-0.000161	0.000279	-0.000285	0.000336	4112.280729	14804.960789	3198.364659	8549.349814
31.534500	-0.002586	-0.000045	0.013831	0.002342	4100.713963	14741.901633	3206.226308	8523.561449
32.038000	-0.003169	0.000599	0.006154	-0.001268	4108.603209	14857.297487	3203.562184	8570.066012
32.538000	0.001480	0.001276	-0.005852	-0.001485	4121.399009	14881.667664	3195.977023	8572.862126
33.035500	-0.000796	0.000629	-0.002164	-0.001329	4114.985348	14859.779884	3198.227396	8570.845128
33.536000	-0.001274	-0.000560	-0.012181	0.001857	4105.390572	14741.103013	3189.906467	8529.783690
34.036500	-0.001387	0.001022	-0.008790	0.001845	4105.127670	14784.197560	3192.027151	8529.942423
34.537000	-0.006964	-0.000326	0.003411	0.000152	4095.045579	14793.549337	3200.859812	8551.719236
35.037500	0.000098	-0.001192	0.001763	-0.000398	4114.887964	14784.993855	3200.151689	8558.818805
35.537500	-0.005373	-0.000874	-0.001346	0.001576	4095.480225	14740.218405	3196.895894	8533.402026
36.035000	-0.000463	0.000402	0.008412	0.001449	4108.576528	14778.145186	3203.262854	8535.034623
36.535500	-0.001545	-0.000358	0.004498	-0.001173	4112.609542	14828.650504	3202.422048	8568.831893
37.035000	0.001455	0.002507	-0.005532	0.002822	4110.000578	14797.984842	3193.458580	8517.414835
37.536500	0.002310	-0.000677	0.002292	0.002395	4113.361490	14723.430059	3198.696299	8522.879072
38.036000	0.002685	0.001814	-0.001741	0.002044	4115.269249	14800.283931	3196.346224	8527.383075
38.537000	0.002512	-0.000531	-0.000265	0.000923	4117.765512	14767.120619	3198.001620	8541.790101
39.036500	-0.000854	0.002033	0.008965	0.002557	4104.661254	14792.313146	3202.901313	8520.803568
39.537000	0.001929	-0.001552	-0.012332	-0.000405	4119.731870	14775.424310	3191.220376	8558.907302
40.040000	-0.003669	-0.000713	0.002391	0.000164	4103.561718	14782.740415	3200.193759	8551.565674
40.534500	0.001245	0.000374	-0.000972	0.001867	4111.952904	14766.084711	3196.948482	8529.660419
41.035000	-0.000079	-0.000077	-0.000276	0.000645	4111.687185	14786.964487	3198.173069	8545.379200
41.535500	-0.000073	0.000050	0.014064	0.000686	4111.595187	14789.289980	3207.472757	8544.848789
42.036000	-0.004251	0.001437	0.007064	0.002378	4096.306927	14781.020273	3201.783193	8523.104886
42.536000	-0.001742	0.000348	-0.000498	0.000886	4106.703206	14791.929171	3197.876752	8542.269286
43.036500	-0.004428	0.000919	0.003131	0.001311	4098.610942	14795.879975	3199.932231	8536.804087
43.536500	0.002709	-0.000987	-0.001994	-0.000707	4122.591186	14798.908030	3197.938360	8562.804488
44.036000	0.001494	-0.000542	-0.006019	-0.002368	4123.773975	14856.171820	3196.431656	8584.307385
44.540000	0.001496	0.000271	-0.002428	-0.001889	4122.510848	14865.290245	3198.417178	8578.098051
45.034500	0.000402	0.001190	-0.003804	-0.001555	4118.739600	14881.252872	3197.324827	8573.778443
45.535000	-0.000785	-0.000600	0.006780	0.004108	4100.804233	14679.438782	3200.481075	8500.953363
46.035000	0.002059	0.000651	0.004352	-0.000423	4120.124667	14835.692370	3201.840893	8559.142503
46.535500	-0.000043	0.000596	-0.012141	-0.001438	4117.254727	14861.834013	3191.984478	8572.253323
47.036000	0.000039	-0.000688	0.018236	-0.002345	4119.864976	14851.588328	3212.274779	8584.011060
47.536000	0.001724	-0.001598	0.009344	0.001228	4114.887914	14730.078666	3204.014476	8537.867528
48.036500	-0.001797	0.000175	0.004594	-0.001494	4112.788450	14851.900360	3202.693199	8572.978570
48.536500	-0.002062	0.001431	0.001395	-0.000622	4109.810899	14862.378390	3200.058821	8561.717133
49.036500	0.002894	-0.000433	-0.001033	-0.001896	4126.237876	14846.291799	3199.316890	8578.193767
49.537000	-0.000037	0.000183	0.001661	0.003754	4103.672294	14710.021313	3197.424150	8505.487565
50.035000	0.004134	0.001739	-0.008426	-0.005457	4139.057985	15003.458669	3196.866217	8624.506144
50.535000	0.008621	0.000582	0.018484	0.001675	4131.976519	14776.888359	3209.749949	8532.124983
51.035000	-0.078476	-0.038964	0.025379	0.156270	3637.263425	10538.902731	3126.313568	6861.176401
51.535500	-0.055182	-0.030292	0.012226	0.036330	3896.852022	13130.320945	3183.730785	8104.239847
52.035500	-0.014494	-0.017552	0.029616	-0.081224	4303.044490	16667.610395	3279.712958	9705.486652
52.536000	-0.005571	-0.013830	0.012229	-0.121052	4461.065763	18107.132138	3298.770942	10354.015240
53.036000	-0.006281	-0.011680	0.003833	-0.065149	4279.181689	16350.752363	3246.693539	9460.131214
53.537000	-0.001950	-0.009828	-0.001755	-0.059431	4275.016705	16232.615913	3238.306492	9375.020002
54.039500	0.022209	-0.004248	0.021244	-0.079930	4416.040384	17050.287534	3271.803455	9685.399260
54.537500	0.022103	-0.003265	0.017305	-0.067392	4374.629579	16681.921252	3258.718511	9493.814569
55.034500	0.036913	-0.002871	0.059072	-0.018814	4269.768391	15247.245851	3253.453593	8801.644010
55.535000	0.044655	-0.002822	0.047869	0.019897	4180.503821	14205.797690	3217.285225	8302.881481
56.035500	0.062774	0.004778	0.080415	0.042552	4167.958175	13824.677527	3224.126494	8030.967828
56.535500	0.084573	0.012800	0.072782	0.084065	4114.919140	13022.780903	3191.622043	7568.057077
57.036000	0.103141	0.021313	0.112251	0.117498	4076.491470	12465.011344	3195.418935	7226.121224
57.538500	0.121000	0.032408	0.129630	0.160838	4013.600390	11789.144355	3179.456796	6820.278508
58.036500	0.144554	0.044420	0.153397	0.180785	4022.279923	11630.375282	3181.746313	6646.679295
58.537000	0.175919	0.059536	0.171232	0.215951	4013.136395	11241.903454	3171.520164	6359.388904
59.037500	0.191687	0.072623	0.200692	0.244317	3983.391865	10957.672286	3172.153011	6144.012149
59.534500	0.202876	0.090118	0.211002	0.281413	3924.872890	10607.410358	3157.091634	5882.771522
60.034500	0.215484	0.095816	0.246361	0.301761	3908.055586	10355.722411	3165.417521	5748.669979
60.535500	0.237888	0.104820	0.232302	0.318782	3919.718896	10221.549963	3148.491272	5641.224833
61.035500	0.239255	0.109214	0.282189	0.348607	3859.664306	9811.981286	3159.277920	5462.814615
61.535500	0.255030	0.120597	0.256325	0.358151	3872.479129	9840.803704	3140.570581	5408.265050
62.036000	0.257290	0.126282	0.274550	0.344992	3904.994239	10143.267272	3157.074730	5483.793807
62.536500	0.260188	0.130284	0.268624	0.336211	3930.401152	10356.036861	3158.635829	5535.483216
63.036500	0.264228	0.129180	0.260945	0.335678	3940.536653	10346.406762	3154.747118	5538.654857
63.539500	0.261267	0.136189	0.275716	0.342081	3919.894049	10356.632635	3159.307218	5500.811712
64.040000	0.273097	0.137020	0.277059	0.340049	3950.611531	10405.153461	3161.171934	5512.761482
64.537000	0.269027	0.137293	0.279430	0.339104	3943.599533	10425.884866	3163.017267	5518.336144
65.035500	0.278905	0.139656	0.268382	0.343007	3957.048365	10399.678165	3154.805353	5495.388718
65.535000	0.277006	0.139390	0.281942	0.352244	3932.133017	10239.968217	3157.150763	5441.886319
66.035500	0.283112	0.142068	0.300081	0.351432	3947.535707	10298.213057	3167.713425	5446.542830
66.535500	0.283131	0.141609	0.296963	0.352758	3944.606428	10268.349970	3165.194981	5438.940553
67.036000	0.277407	0.140310	0.301811	0.355222	3926.457320	10205.829202	3166.543009	5424.878763
67.536500	0.280174	0.142452	0.277718	0.364394	3912.496863	10090.448710	3148.388352	5373.220456
68.037000	0.281548	0.143914	0.293041	0.361658	3921.430454	10159.116354	3158.071063	5388.515073
68.537000	0.285165	0.145386	0.291650	0.364912	3922.224399	10129.891395	3155.541947	5370.335516
69.034500	0.283412	0.148434	0.286536	0.367960	3911.787851	10129.879987	3151.163074	5353.431405
69.535000	0.279292	0.143515	0.275253	0.372544	3893.156418	9976.003912	3142.881959	5328.229464
70.038000	0.284962	0.145677	0.298360	0.370331	3910.013100	10046.438793	3156.242254	5340.362546
70.535500	0.285144	0.147830	0.298570	0.373658	3903.252047	10027.469956	3154.555684	5322.144724
71.036000	0.290140	0.149650	0.297945	0.375482	3910.072390	10027.408505	3153.238607	5312.216764
71.536000	0.291127	0.148237	0.294107	0.382080	3898.040098	9899.326719	3147.708098	5276.644195
72.036500	0.292451	0.147544	0.307864	0.379174	3907.097013	9934.477985	3156.601919	5292.247106
72.537000	0.289978	0.149731	0.306492	0.380539	3898.877818	9947.578653	3155.117748	5284.905539
73.034000	0.294658	0.149852	0.296212	0.382232	3905.267912	9922.540503	3148.733213	5275.832048
73.536500	0.290527	0.152488	0.302058	0.391075	3877.823147	9824.594652	3147.162112	5229.013295
74.037500	0.294045	0.148839	0.313302	0.384732	3898.608641	9866.936850	3156.536627	5262.499683
74.534500	0.294192	0.151092	0.319174	0.388605	3890.699534	9841.449192	3157.626276	5241.998652
75.035000	0.293938	0.151391	0.304254	0.387413	3892.684419	9864.901710	3150.243066	5248.288601
75.536000	0.294699	0.150906	0.325167	0.390130	3888.551748	9814.630164	3160.080185	5233.973952
76.036000	0.294482	0.151354	0.297430	0.389523	3889.374152	9831.147293	3145.561713	5237.165627
76.536000	0.296444	0.151646	0.293640	0.390670	3891.096135	9817.760777	3143.015848	5231.141200
77.036500	0.294394	0.150393	0.309234	0.391046	3885.980088	9792.289177	3150.956680	5229.165925
77.539000	0.292101	0.150364	0.294818	0.396076	3870.711641	9713.880948	3140.858791	5202.959682
78.037000	0.294652	0.153322	0.309924	0.396018	3876.122558	9760.524160	3148.694292	5203.259856
78.537000	0.302228	0.154156	0.314054	0.397780	3888.295763	9746.121145	3149.942617	5194.145756
79.035000	0.290542	0.150902	0.323163	0.396542	3866.533810	9714.981383	3155.478686	5200.542944
79.534500	0.292845	0.154367	0.322111	0.402617	3858.807218	9674.872940	3151.651583	5169.325239
80.034500	0.294464	0.151364	0.317259	0.397647	3872.351260	9705.085523	3151.714844	5194.836228
80.536000	0.297696	0.151335	0.321451	0.398977	3876.299243	9684.197086	3153.244167	5187.980101
81.035500	0.300299	0.151731	0.307521	0.400596	3878.348557	9665.452499	3145.052616	5179.662086
81.536000	0.296792	0.153504	0.307878	0.405283	3861.424828	9621.011201	3142.824035	5155.764470
82.039000	0.300851	0.150190	0.316583	0.401758	3877.077278	9624.223223	3149.178291	5173.715296
82.537000	0.299861	0.150709	0.330742	0.402592	3873.288390	9619.433992	3156.308596	5169.455728
83.037000	0.294859	0.151387	0.327207	0.403429	3861.261731	9617.008688	3153.944474	5165.183588
83.536500	0.296905	0.150380	0.301368	0.405499	3861.214496	9570.452250	3139.404898	5154.669356
84.035000	0.293959	0.152546	0.323285	0.405708	3854.781911	9600.030789	3150.633010	5153.607840
84.535500	0.296990	0.150875	0.329703	0.405534	3861.315191	9577.379729	3154.154775	5154.489322
85.036000	0.297094	0.151368	0.315956	0.406700	3859.145616	9567.229479	3146.262176	5148.587655
85.536000	0.296627	0.151500	0.320230	0.411196	3849.074099	9501.774407	3146.146843	5125.974903
86.036000	0.301805	0.154447	0.316500	0.412749	3856.418764	9522.601687	3143.416378	5118.217650
86.536000	0.302773	0.153728	0.305482	0.413095	3857.685300	9506.678025	3137.654981	5116.494783
87.039500	0.297018	0.152330	0.331290	0.411572	3849.105177	9508.554814	3151.770892	5124.096007
87.537000	0.295262	0.151031	0.329369	0.416172	3836.372915	9421.018602	3148.321631	5101.221192
88.037500	0.297571	0.149646	0.319808	0.412500	3848.349326	9454.814291	3145.251039	5119.461935
88.534500	0.300088	0.152429	0.331955	0.415838	3846.694835	9446.596844	3149.859974	5102.875778
89.035500	0.303919	0.150633	0.341871	0.415573	3854.977321	9423.985444	3155.304535	5104.188496
89.535500	0.301451	0.150428	0.302382	0.418358	3844.369673	9380.040036	3133.510146	5090.436626
90.036000	0.308815	0.151819	0.338982	0.417552	3860.918886	9412.288364	3152.684805	5094.404201
90.536500	0.308440	0.153959	0.325981	0.419524	3856.133183	9414.760635	3144.810831	5084.704583
91.036000	0.309792	0.155454	0.326299	0.422159	3853.528518	9398.004661	3143.616454	5071.811513
91.536500	0.304748	0.152039	0.317873	0.422861	3841.951673	9337.826726	3138.972213	5068.387165
92.037000	0.306055	0.153019	0.325339	0.421471	3847.366987	9372.405856	3143.476557	5075.170948
92.537000	0.313118	0.154862	0.325247	0.423140	3858.297125	9374.942636	3142.573919	5067.031943
93.034500	0.304225	0.150479	0.332311	0.419722	3847.205866	9360.852935	3148.003073	5083.735926
93.535000	0.305284	0.151946	0.323780	0.423136	3842.474463	9332.467813	3141.826497	5067.049510
94.038000	0.303370	0.150008	0.328314	0.421127	3842.665872	9333.512675	3145.188605	5076.853358
94.535500	0.302596	0.152073	0.311317	0.423557	3836.272665	9328.209299	3135.351951	5065.003335
95.036000	0.304398	0.151455	0.318742	0.423878	3839.222004	9314.581668	3138.898125	5063.443715
95.536500	0.306959	0.154461	0.303199	0.427353	3837.399623	9307.780313	3129.533456	5046.621304
96.035500	0.311915	0.155865	0.320758	0.429497	3843.016277	9297.091601	3137.092693	5036.314357
