sample name	sample
index	1510
start time	 05-18-2021  02:57:47 PM
880	0.178918
Peak Time (s)	91.035
Peak Height 	0.1789
calc peak height	90,93
Baseline Time (s)	9.535
Baseline Value 	-0.002886
subtract baseline	10,4
Abs	0.122400
Peak Time (s)	92.035
Peak Height 	0.1224
calc peak height	90,93
Baseline Time (s)	10.035
Baseline Value 	-4.438E-4
subtract baseline	10,3
PK_550	0.075355
Peak Time (s)	91.035
Peak Height 	0.07535
calc peak height	90,93
Baseline Time (s)	9.535
Baseline Value 	3.4167E-4
subtract baseline	10,2
PK_880	0.120917
Peak Time (s)	90.038
Peak Height 	0.1209
calc peak height	90,93
Baseline Time (s)	11.042
Baseline Value 	2.7195E-4
subtract baseline	10,1


Time (s)	A880-A510	A880-A775	A880-A975	A880	I510	I775	I975	I880	
0.038000	-0.002764	-0.001175	-0.002187	0.001824	6583.501771	44044.217034	3996.876610	22879.864117
0.535500	-0.000534	-0.000473	-0.005009	0.007558	6554.875650	43572.006684	3977.355748	22619.349996
1.036000	-0.000972	-0.000315	0.001801	0.005756	6565.999815	43755.323034	3997.007057	22700.867535
1.536500	-0.001402	-0.000484	0.001130	0.001594	6596.585030	44131.220736	4005.083946	22890.373507
2.036000	0.000746	0.000502	0.000632	0.001735	6613.143235	44211.269620	4003.601290	22883.954451
2.536500	-0.005551	-0.001056	-0.000962	0.005697	6529.292547	43691.417558	3990.793884	22703.507535
3.037000	-0.001744	-0.000130	-0.006453	0.004055	6573.587372	43932.540903	3982.019526	22778.117745
3.537500	0.000965	-0.000153	0.006980	0.000688	6623.629833	44248.453353	4020.901766	22931.908897
4.034500	0.002223	-0.000152	0.002704	0.001191	6629.900754	44200.847640	4009.687545	22908.850741
4.535000	-0.002340	-0.000044	0.001243	0.004586	6564.375759	43890.635322	3998.417140	22753.955478
5.035500	-0.000134	-0.000492	-0.000638	-0.000087	6620.947300	44289.852918	4004.882976	22967.474248
5.535500	0.000384	-0.000216	-0.000998	0.000261	6622.357714	44283.020434	4003.238923	22951.482483
6.036000	-0.000090	-0.000265	-0.000448	0.000168	6619.194782	44287.205432	4004.729860	22955.746443
6.539000	-0.000472	-0.000157	0.001380	0.000258	6615.279163	44288.789250	4008.773718	22951.593480
7.036500	-0.001034	-0.000039	-0.000787	0.003465	6584.231732	43996.616943	3996.323050	22804.959019
7.537000	0.004386	0.000444	0.002011	0.000876	6650.542914	44287.205377	4008.803842	22923.265350
8.037000	0.001149	0.000154	0.003674	0.001066	6622.019513	44241.665493	4012.244685	22914.561009
8.537500	-0.000854	-0.000179	-0.001936	0.000249	6612.202103	44287.567452	4001.092314	22952.007661
9.035000	-0.000529	0.000136	-0.004590	0.003739	6586.128571	43987.272363	3986.976404	22792.476311
9.535000	0.000846	0.000000	0.001288	0.000000	6628.355554	44328.288698	4009.162078	22963.459023
10.035000	-0.000037	0.000034	0.000000	-0.000228	6622.923787	44353.221085	4006.693520	22973.952984
10.536000	0.000178	-0.000508	0.001702	-0.000346	6625.681322	44312.918294	4010.936628	22979.354288
11.041500	0.000000	-0.000357	-0.003436	0.002609	6599.770344	44047.330784	3992.200972	22843.992458
11.536000	0.001259	0.000319	0.001003	-0.000594	6636.726977	44415.166019	4009.881992	22990.751177
12.036500	0.000824	0.000015	0.004020	-0.000142	6629.351876	44343.177880	4015.887722	22969.978338
12.537000	-0.000335	0.000487	0.001853	-0.000253	6620.653864	44398.685163	4011.070896	22975.089006
13.037000	-0.001049	-0.000325	-0.001123	0.004505	6575.589847	43871.747015	3993.158763	22757.622793
13.538000	-0.000120	-0.000240	0.001538	-0.000138	6621.482937	44318.579498	4010.066145	22969.790185
14.034500	0.000510	-0.000267	0.000727	0.002138	6607.863201	44100.288580	4002.884818	22865.496196
14.535000	-0.002021	0.000287	-0.005020	0.002609	6583.163125	44108.271102	3988.575752	22844.011225
15.035500	-0.003660	-0.000890	-0.004643	0.004562	6553.815592	43813.388191	3984.979830	22755.029061
15.536500	0.001446	0.000627	0.005246	0.000892	6625.930390	44303.147276	4016.339411	22922.550094
16.036000	-0.001042	0.000285	0.006313	0.000550	6608.153673	44303.056620	4019.651185	22938.194729
16.536500	-0.003148	-0.000316	-0.004314	0.004829	6555.817474	43842.222218	3985.121224	22742.911049
17.038000	-0.002405	0.000292	-0.003254	0.003589	6571.991034	44016.185949	3990.372921	22799.316467
17.537000	0.002422	0.000447	0.004164	0.001240	6631.143624	44252.977665	4012.985497	22906.603329
18.037500	-0.000819	0.000954	0.001947	0.002121	6597.041762	44217.500268	4005.757211	22866.285240
18.537500	-0.000065	0.000056	0.002876	0.001836	6605.608545	44159.430570	4008.583626	22879.304378
19.035000	-0.003037	-0.000424	0.000797	0.002355	6576.917205	44065.039297	4002.545294	22855.591486
19.535500	-0.000056	-0.000730	-0.000850	0.000795	6614.288227	44183.575854	4002.344392	22926.973993
20.035500	-0.000334	0.000762	0.004153	0.002311	6599.476512	44181.398184	4010.455779	22857.624967
20.539000	0.000403	-0.000138	0.000811	0.001296	6613.939453	44192.243324	4005.035042	22904.039437
21.037000	-0.001198	0.001265	-0.001453	0.003427	6583.199737	44123.320081	3994.876818	22806.706165
21.536500	0.001158	0.000631	0.006561	0.002256	6612.246324	44174.127727	4016.223476	22860.133632
22.037000	0.000933	-0.000759	-0.002046	0.000557	6624.449668	44203.393648	4000.127603	22937.885466
22.537000	0.001847	-0.000165	0.002412	0.001239	6626.369928	44195.074924	4008.892424	22906.618910
23.034500	-0.000423	-0.000373	0.002930	0.001029	6609.316600	44195.285954	4010.592972	22916.253073
23.535000	-0.000316	0.000283	0.002310	0.001879	6603.188223	44176.908442	4007.165797	22877.356866
24.035500	-0.000660	-0.000014	0.001426	0.001612	6602.548038	44174.102935	4005.730771	22889.572792
24.535500	-0.000527	0.000234	0.002614	0.001309	6606.142502	44226.268703	4009.202117	22903.428381
25.036000	-0.000349	0.000251	-0.003194	0.002778	6595.511977	44088.807052	3992.370321	22836.296987
25.536000	-0.000787	0.000336	0.001765	0.001791	6600.031813	44190.261211	4006.102675	22881.388360
26.036500	0.000192	0.000295	-0.002811	0.001706	6608.806952	44194.377708	3995.712891	22885.261364
26.536500	-0.000699	-0.000916	0.001003	0.001126	6606.241023	44134.726041	4005.877656	22911.832365
27.036500	-0.000942	0.000078	-0.002633	0.000207	6611.817656	44316.043340	3999.579740	22953.950897
27.537500	0.003067	0.000420	0.005141	-0.002098	6664.396797	44568.236937	4023.135459	23060.023857
28.035000	0.002777	0.000338	0.001682	0.000655	6638.970021	44298.195776	4008.552900	22933.404025
28.534500	-0.000974	-0.000564	0.003570	0.002387	6593.576500	44048.799355	4008.916919	22854.130743
29.035500	-0.002805	-0.000339	0.000217	0.004770	6559.092167	43845.624269	3995.629353	22745.599924
29.536000	-0.002083	-0.000456	0.007364	-0.000561	6608.734519	44338.263037	4024.760266	22989.224376
30.038500	-0.001193	-0.000677	0.009863	0.000037	6611.144565	44260.470523	4029.272357	22961.740067
30.536000	-0.000066	-0.000404	0.000681	0.002963	6596.314766	44009.552064	4000.868570	22827.848635
31.036500	-0.000541	0.000779	-0.003284	0.002642	6595.044079	44151.622420	3992.473931	22842.487402
31.536500	0.001932	0.000792	0.003072	0.000890	6629.978424	44318.968764	4011.247681	22922.611425
32.037000	0.001550	0.000159	0.001769	0.000210	6632.456159	44323.408701	4009.794012	22953.815955
32.537000	0.000359	0.000370	0.001146	0.001788	6609.512554	44193.759851	4004.672004	22881.531848
33.036500	0.003285	0.001182	0.005564	0.001489	6636.250481	44299.117608	4015.683428	22895.188453
33.535000	0.002228	0.000129	0.003292	-0.000884	6647.219800	44424.718078	4015.919877	23004.108211
34.035000	0.000104	0.000173	-0.005003	0.001845	6606.924193	44169.659611	3990.360304	22878.887218
34.536000	0.001247	0.000787	0.004409	0.002666	6609.589730	44150.151542	4010.224374	22841.411115
35.035500	-0.002107	0.000248	-0.000650	0.001748	6589.517299	44186.022857	4000.602376	22883.350131
35.536000	0.000376	-0.000089	-0.000665	0.001765	6609.843788	44152.446218	4000.527169	22882.576668
36.036500	0.000916	-0.000118	0.000019	0.001571	6615.906502	44167.995353	4002.558601	22891.420252
36.537000	-0.003350	-0.000955	-0.000466	0.000739	6587.599906	44167.659480	4003.363413	22929.557919
37.037500	-0.000769	-0.000032	0.001952	0.001966	6598.739733	44138.916146	4006.130251	22873.393141
37.535000	-0.000078	0.000019	0.000872	0.001880	6605.141388	44151.842899	4003.821575	22877.317250
38.035000	-0.001214	0.000460	-0.003266	0.001717	6597.119086	44209.004260	3994.642332	22884.777635
38.535500	-0.000864	0.000361	0.000289	0.002064	6597.142308	44166.742500	4002.041086	22868.878132
39.035500	-0.001133	-0.000103	0.003524	0.002104	6594.600490	44119.003558	4009.468466	22867.050310
39.538500	0.001057	-0.000049	0.002866	0.001574	6617.049863	44174.312299	4009.170048	22891.294276
40.036000	0.000618	-0.000714	0.000195	0.000799	6619.832102	44184.713277	4004.759002	22926.803010
40.536500	-0.000574	0.000182	0.000441	0.001532	6603.918579	44200.246354	4003.627885	22893.232791
41.039000	0.000945	0.000294	0.002510	0.001444	6617.198088	44219.201330	4008.644632	22897.265607
41.536500	0.000745	0.000389	0.001823	0.001696	6613.459598	44204.209041	4006.458277	22885.717866
42.037500	0.000514	0.000398	0.001642	0.001631	6612.093404	44211.278757	4006.189828	22888.715522
42.534500	-0.001640	-0.000801	-0.001595	0.000550	6603.222809	44200.092233	4001.185407	22938.207392
43.035500	-0.001439	-0.000019	0.003494	0.001965	6593.224317	44140.098247	4009.724142	22873.400183
43.535500	-0.000570	0.000161	-0.002912	0.001209	6606.612327	44228.801747	3996.624412	22908.011013
44.038500	0.001680	-0.000018	0.006560	-0.000829	6642.186709	44405.375427	4023.492111	23001.549131
44.536000	0.001015	-0.000156	-0.000206	-0.000615	6634.868824	44371.875748	4007.113364	22991.704522
45.036500	-0.002998	-0.000132	-0.000760	0.005068	6555.092553	43837.032147	3992.699173	22732.072218
45.536500	0.000022	0.000199	0.002001	-0.000083	6622.197532	44355.064824	4011.019650	22967.259142
46.037000	-0.000928	0.000200	-0.000117	-0.000448	6617.350562	44389.869377	4006.932137	22984.025150
46.537500	0.002590	0.000050	0.003265	-0.000175	6644.321402	44349.629373	4014.192200	22971.487694
47.037500	-0.004160	-0.000041	0.003515	0.005789	6539.796833	43777.909970	4000.886971	22699.348433
47.535000	-0.001753	-0.000189	-0.002022	0.001855	6591.550012	44134.476777	3997.185339	22878.447260
48.038500	0.000408	0.000930	0.002143	0.002097	6607.358049	44217.541632	4006.267737	22867.371419
48.535500	0.000181	-0.000400	-0.003323	0.000030	6622.590428	44287.487599	3998.395881	22962.098807
49.036000	-0.000139	0.000249	0.002739	-0.000149	6621.416137	44366.112151	4012.899549	22970.294611
49.536000	0.002440	0.000441	0.000157	-0.001297	6652.444052	44493.790204	4009.550214	23023.132162
50.039500	0.001828	0.000005	0.009593	-0.002651	6658.652471	44581.458620	4035.039606	23085.577259
50.539500	0.000052	-0.000901	0.005643	0.007920	6556.700057	43498.360678	4000.880516	22603.012758
51.037000	-0.005396	-0.006445	0.010068	0.029398	6344.168909	41058.662274	3962.195495	21658.016087
51.537000	-0.005402	-0.019995	-0.013065	0.310999	4758.783357	22315.292819	3475.097850	12764.490013
52.037500	-0.015812	-0.027826	-0.015730	-0.080563	7200.136397	49657.235899	4168.767255	27028.788613
52.535000	-0.021619	-0.078765	-0.015076	-0.250146	9114.247448	64297.542892	4731.500344	38498.420128
53.035500	-0.015080	-0.063226	-0.009551	-0.228827	8910.387582	63487.941446	4669.526264	36798.786631
53.538500	-0.010486	-0.068538	0.001385	-0.237380	9091.386305	63940.643856	4746.328354	37470.682661
54.036000	-0.006386	-0.055987	0.002114	-0.219103	8896.422135	63143.057768	4677.018023	36050.789947
54.536500	-0.003479	-0.043783	0.005831	-0.201638	8702.770796	62419.556556	4624.646265	34748.810165
55.036500	-0.010552	-0.033872	0.002749	-0.179377	8331.694497	60755.068499	4532.337856	33163.293569
55.539000	-0.002033	-0.039946	0.009643	-0.196121	8649.756614	62190.421102	4618.267066	34348.275955
56.037500	0.003536	-0.021310	0.014440	-0.146400	8105.672222	58105.532412	4458.861723	30959.042649
56.537500	0.010866	-0.008419	0.022182	-0.074153	7399.769567	51073.041541	4256.979820	26676.992631
57.035000	0.008825	-0.002166	0.022575	-0.022956	6894.644333	46352.166629	4117.795218	24046.094208
57.538000	0.024411	0.005404	0.033543	0.007869	6761.089780	44094.612380	4067.665863	22605.301229
58.035500	0.032298	0.012369	0.040773	0.021242	6714.149379	43493.556396	4052.618601	22011.361456
58.536500	0.042910	0.016778	0.044252	0.030835	6722.828862	43013.742847	4037.850770	21596.435175
59.036000	0.047810	0.022424	0.047654	0.061836	6506.926674	40747.605742	3973.713245	20316.500944
59.537500	0.060776	0.029011	0.055831	0.115216	6197.209250	36897.431750	3877.087416	18315.790619
60.036500	0.055242	0.029403	0.060640	0.108902	6202.922398	37424.111224	3899.941243	18539.846535
60.537000	0.068735	0.033635	0.062600	0.107568	6313.414025	37867.406853	3906.820382	18587.572699
61.037500	0.068383	0.035806	0.065663	0.083866	6495.248097	40004.373511	3964.705005	19460.901130
61.537500	0.072328	0.038809	0.076800	0.124467	6214.081396	36940.105611	3901.177329	17993.378959
62.038000	0.073470	0.045401	0.074074	0.154650	6007.573385	35148.487576	3835.137821	16987.964717
62.535000	0.077706	0.049931	0.082405	0.168247	5943.893944	34485.346435	3825.026177	16557.365671
63.038500	0.080721	0.050737	0.084949	0.166153	5978.481639	34695.961407	3833.925558	16622.814984
63.536500	0.084863	0.054172	0.086529	0.164694	6016.861976	35054.513512	3839.806178	16668.579049
64.036000	0.083772	0.054716	0.090121	0.163157	6019.943829	35208.308727	3849.830066	16717.002361
64.537000	0.085569	0.053781	0.083053	0.161742	6042.202485	35243.877330	3838.791443	16761.704069
65.036500	0.088683	0.056252	0.092762	0.161067	6068.667578	35477.850978	3859.178365	16783.068985
65.537000	0.090428	0.057209	0.092811	0.159850	6089.522392	35640.579844	3861.698082	16821.690765
66.037500	0.092109	0.058683	0.090346	0.160925	6093.808970	35670.516668	3854.673797	16787.582016
66.535000	0.092439	0.059193	0.085379	0.161845	6089.635982	35639.750334	3843.114802	16758.436622
67.035000	0.094216	0.059018	0.089994	0.161686	6103.345889	35638.550637	3852.475788	16763.469470
67.536000	0.093600	0.060043	0.093539	0.162006	6096.710383	35691.438669	3858.856657	16753.332331
68.036000	0.096791	0.062174	0.094807	0.164211	6103.700098	35685.920252	3856.997638	16683.773797
68.536000	0.097782	0.062695	0.095442	0.165660	6100.450158	35616.249457	3855.386430	16638.268487
69.036000	0.097165	0.062736	0.097583	0.166851	6087.659150	35530.137651	3857.268274	16600.970340
69.536000	0.098392	0.062454	0.097969	0.169158	6080.047037	35337.113236	3853.467989	16529.003974
70.037000	0.099823	0.062812	0.100537	0.171387	6074.426677	35198.319264	3854.135763	16459.824724
70.537000	0.101793	0.064565	0.105948	0.173133	6076.009180	35198.934997	3861.408306	16405.918615
71.034500	0.099878	0.065116	0.096869	0.174508	6052.954801	35137.982374	3840.831292	16363.600375
71.534500	0.103747	0.065907	0.102283	0.176057	6069.187750	35081.995552	3848.380839	16316.076142
72.035000	0.102870	0.065968	0.100413	0.177545	6052.633893	34976.948325	3841.816953	16270.586833
72.538500	0.102335	0.066504	0.105791	0.178202	6044.326406	34968.042268	3851.057735	16250.545916
73.035500	0.106236	0.067918	0.103748	0.179426	6063.024639	34982.018826	3844.653662	16213.322733
73.538500	0.107670	0.069172	0.110062	0.179672	6071.348481	35056.146404	3856.589448	16205.838342
74.036500	0.106716	0.069270	0.107628	0.180243	6060.663903	35021.386694	3850.657584	16188.519813
74.536500	0.108853	0.069523	0.107132	0.180886	6071.129157	34992.650977	3848.419001	16169.026002
75.037000	0.107205	0.069775	0.111569	0.182622	6047.459050	34883.683855	3853.734786	16116.551009
75.537500	0.110129	0.070829	0.108848	0.180746	6081.092322	35099.224014	3852.069474	16173.277506
76.034500	0.110292	0.071835	0.106706	0.180356	6084.992773	35202.385699	3848.625171	16185.098322
76.535500	0.110890	0.072069	0.111877	0.180060	6091.309446	35241.597321	3859.422473	16194.074983
77.037500	0.109455	0.071713	0.109015	0.184433	6050.528155	34893.028270	3845.160504	16062.068855
77.535500	0.111745	0.072902	0.114977	0.179275	6102.923891	35361.779697	3867.179084	16217.916738
78.036000	0.113199	0.072784	0.109872	0.178375	6119.663475	35419.909271	3858.786098	16245.270588
78.539000	0.113757	0.074310	0.110977	0.178834	6120.377921	35499.647478	3860.070417	16231.323280
79.036500	0.111766	0.075010	0.105200	0.183694	6071.870481	35190.325371	3839.168907	16084.284963
79.536500	0.114221	0.075695	0.112611	0.178475	6126.251943	35630.150686	3864.044181	16242.243062
80.037000	0.116108	0.075232	0.112712	0.177978	6143.345489	35632.722201	3865.239987	16257.384927
80.534500	0.114965	0.075923	0.110884	0.178212	6133.454263	35667.007189	3861.123245	16250.244207
81.034500	0.115542	0.076024	0.109070	0.182885	6104.240972	35325.438567	3848.299693	16108.621544
81.534500	0.116120	0.075476	0.114827	0.177830	6144.494483	35662.088226	3869.778294	16261.890282
82.035500	0.117161	0.076734	0.115166	0.178695	6145.760920	35691.692309	3868.722987	16235.556017
82.536000	0.117919	0.075552	0.103940	0.177588	6159.199130	35685.984467	3848.626823	16269.263377
83.036000	0.114943	0.076406	0.111891	0.182602	6102.001485	35374.933155	3854.411958	16117.170368
83.536000	0.118069	0.075617	0.115571	0.177108	6163.753156	35726.918263	3872.732212	16283.919802
84.037000	0.120162	0.076827	0.115225	0.177724	6174.467774	35771.689612	3870.794165	16265.130570
84.540000	0.118328	0.077538	0.106648	0.178141	6158.161898	35793.835041	3852.868055	16252.407093
85.034500	0.118946	0.077658	0.115639	0.178096	6162.952146	35806.311168	3870.878908	16253.783073
85.535000	0.118306	0.076652	0.111227	0.177874	6159.936205	35747.238502	3862.480448	16260.556209
86.035500	0.116271	0.075505	0.113422	0.176819	6152.857357	35740.289765	3868.987150	16292.755175
86.538000	0.119830	0.076023	0.116847	0.177148	6176.236004	35754.503905	3875.230291	16282.695069
87.036000	0.120382	0.077060	0.121255	0.177943	6174.468812	35772.784664	3882.575699	16258.452370
87.539000	0.119202	0.075416	0.114662	0.177166	6171.544968	35707.532693	3870.783871	16282.163964
88.036500	0.116720	0.075563	0.114119	0.181128	6125.152210	35421.894423	3861.759087	16161.697969
88.537000	0.118370	0.075719	0.117563	0.177734	6161.411739	35687.612159	3875.494832	16264.823805
89.037000	0.121587	0.075511	0.114593	0.178278	6180.794576	35631.133768	3868.409008	16248.235334
89.537500	0.119662	0.074311	0.112172	0.177308	6173.859161	35613.873720	3865.500552	16277.830791
90.037500	0.120917	0.075109	0.117038	0.178449	6174.682652	35588.125775	3872.987130	16243.029279
90.535000	0.119678	0.074529	0.116394	0.178191	6167.570107	35564.044651	3872.208535	16250.901738
91.035000	0.119758	0.075355	0.114715	0.178918	6162.882876	35571.456905	3867.369847	16228.767239
91.535500	0.120219	0.074073	0.115406	0.178027	6172.678052	35542.205358	3870.547130	16255.886340
92.035500	0.117688	0.073513	0.122400	0.178456	6151.273718	35468.261529	3883.866250	16242.814471
92.536000	0.119553	0.073645	0.116707	0.178580	6163.847971	35468.913755	3872.055934	16239.041458
93.036500	0.116751	0.073566	0.116991	0.178490	6144.286374	35469.715580	3872.811705	16241.795039
93.594000	0.120077	0.073456	0.116775	0.179021	6164.449964	35421.963162	3871.304244	16225.639125
94.037000	0.117349	0.073434	0.109387	0.178811	6146.278968	35435.915221	3856.958426	16232.020580
94.537500	0.119914	0.072813	0.120955	0.178379	6167.915917	35421.871333	3881.074332	16245.165754
95.034500	0.117743	0.072512	0.114015	0.177966	6155.200355	35430.140711	3867.873384	16257.738136
95.535000	0.118511	0.073573	0.118403	0.179198	6151.857034	35417.466755	3874.231411	16220.243053
96.038000	0.118932	0.072888	0.119919	0.179224	6154.704888	35364.507292	3877.250310	16219.461197
