sample name	sample
index	627
start time	 03-19-2021  02:51:09 PM


Wavelength (nm)	Absorbance
494.344910	-0.277943
494.563924	-0.277943
494.782919	-0.277943
495.001897	-0.450642
495.220856	-0.213394
495.439797	-0.132897
495.658719	-0.127057
495.877624	-0.077374
496.096510	0.174575
496.315378	0.142958
496.534227	0.161295
496.753059	0.072098
496.971872	0.023341
497.190667	0.051876
497.409444	0.055382
497.628203	0.058243
497.846943	0.060206
498.065665	0.061855
498.284369	0.062267
498.503055	0.062900
498.721723	0.063923
498.940372	0.064915
499.159003	0.065545
499.377616	0.066172
499.596210	0.065759
499.814787	0.065312
500.033345	0.063287
500.251885	0.064482
500.470406	0.064226
500.688910	0.063279
500.907395	0.063571
501.125862	0.063675
501.344311	0.062365
501.562742	0.061877
501.781154	0.063290
501.999548	0.064420
502.217924	0.064199
502.436282	0.064615
502.654621	0.065592
502.872942	0.064401
503.091245	0.064545
503.309530	0.066485
503.527797	0.068224
503.746045	0.067314
503.964275	0.067928
504.182487	0.068491
504.400681	0.068764
504.618856	0.068758
504.837013	0.069126
505.055152	0.068626
505.273273	0.068158
505.491376	0.067897
505.709460	0.068439
505.927526	0.067988
506.145574	0.067646
506.363604	0.067995
506.581615	0.068623
506.799608	0.068645
507.017583	0.069780
507.235540	0.070148
507.453478	0.070420
507.671399	0.070076
507.889301	0.071054
508.107185	0.071615
508.325050	0.072033
508.542898	0.071197
508.760727	0.071855
508.978538	0.071576
509.196330	0.071678
509.414105	0.072110
509.631861	0.072682
509.849599	0.072365
510.067319	0.071839
510.285021	0.071879
510.502704	0.072786
510.720369	0.073236
510.938016	0.073552
511.155645	0.073273
511.373255	0.073613
511.590848	0.073460
511.808422	0.074253
512.025977	0.074945
512.243515	0.074980
512.461034	0.075659
512.678536	0.075554
512.896018	0.075760
513.113483	0.076626
513.330930	0.076239
513.548358	0.076537
513.765768	0.075863
513.983160	0.075252
514.200533	0.075155
514.417889	0.073839
514.635226	0.073711
514.852545	0.073700
515.069845	0.073989
515.287128	0.074711
515.504392	0.074451
515.721638	0.074682
515.938866	0.074610
516.156075	0.074332
516.373267	0.074896
516.590440	0.075556
516.807594	0.075924
517.024731	0.076347
517.241850	0.076281
517.458950	0.076485
517.676032	0.076618
517.893095	0.077338
518.110141	0.078129
518.327168	0.078489
518.544177	0.078732
518.761168	0.078964
518.978141	0.078067
519.195095	0.078669
519.412031	0.079642
519.628949	0.080368
519.845849	0.080058
520.062731	0.080120
520.279594	0.080215
520.496439	0.080158
520.713266	0.080167
520.930074	0.081151
521.146865	0.080759
521.363637	0.080916
521.580391	0.081232
521.797127	0.081826
522.013844	0.082502
522.230543	0.083334
522.447224	0.084295
522.663887	0.085007
522.880532	0.085090
523.097158	0.085339
523.313766	0.085120
523.530356	0.084808
523.746928	0.085002
523.963481	0.084643
524.180017	0.084201
524.396534	0.083892
524.613032	0.083519
524.829513	0.083705
525.045975	0.084008
525.262420	0.083638
525.478845	0.084375
525.695253	0.084521
525.911643	0.084844
526.128014	0.085303
526.344367	0.085639
526.560702	0.085784
526.777018	0.085752
526.993316	0.085732
527.209597	0.086367
527.425858	0.085985
527.642102	0.086666
527.858328	0.087038
528.074535	0.087410
528.290724	0.087792
528.506894	0.088264
528.723047	0.088501
528.939181	0.089255
529.155297	0.089631
529.371395	0.090555
529.587475	0.090310
529.803536	0.090206
530.019579	0.089957
530.235604	0.089725
530.451611	0.089502
530.667600	0.089825
530.883570	0.089845
531.099522	0.090407
531.315456	0.090240
531.531372	0.091187
531.747269	0.091839
531.963148	0.092051
532.179009	0.093075
532.394852	0.093658
532.610676	0.094113
532.826482	0.094360
533.042271	0.094072
533.258040	0.094006
533.473792	0.094025
533.689525	0.094223
533.905240	0.094815
534.120937	0.095023
534.336616	0.095590
534.552277	0.095970
534.767919	0.096485
534.983543	0.097269
535.199149	0.097740
535.414736	0.098041
535.630306	0.098009
535.845857	0.098279
536.061390	0.098281
536.276904	0.098324
536.492401	0.098024
536.707879	0.097886
536.923339	0.097650
537.138781	0.097953
537.354204	0.097924
537.569610	0.098424
537.784997	0.098035
538.000366	0.098209
538.215716	0.098547
538.431049	0.099254
538.646363	0.099333
538.861659	0.099473
539.076937	0.099721
539.292196	0.100305
539.507438	0.100608
539.722661	0.101588
539.937866	0.101891
540.153052	0.101843
540.368221	0.101718
540.583371	0.102478
540.798503	0.103391
541.013617	0.102944
541.228712	0.102789
541.443789	0.103003
541.658848	0.103086
541.873889	0.103095
542.088912	0.103546
542.303916	0.103869
542.518902	0.103763
542.733870	0.103617
542.948820	0.104627
543.163752	0.104822
543.378665	0.104697
543.593560	0.105142
543.808437	0.105438
544.023295	0.105638
544.238136	0.105889
544.452958	0.106181
544.667762	0.106887
544.882548	0.107360
545.097315	0.107817
545.312064	0.108586
545.526795	0.108419
545.741508	0.108755
545.956203	0.109229
546.170879	0.109885
546.385537	0.110031
546.600177	0.110305
546.814799	0.110327
547.029402	0.110808
547.243988	0.111047
547.458555	0.111992
547.673103	0.112167
547.887634	0.112422
548.102146	0.113038
548.316640	0.113467
548.531116	0.113424
548.745574	0.113609
548.960013	0.113747
549.174435	0.114089
549.388838	0.114240
549.603222	0.114552
549.817589	0.114952
550.031937	0.114893
550.246267	0.115378
550.460579	0.115793
550.674873	0.116433
550.889148	0.116514
551.103405	0.116776
551.317644	0.116871
551.531865	0.117772
551.746068	0.118240
551.960252	0.118372
552.174418	0.118493
552.388566	0.118715
552.602696	0.119099
552.816807	0.119643
553.030900	0.119819
553.244975	0.120298
553.459032	0.120060
553.673070	0.119991
553.887091	0.120283
554.101093	0.120512
554.315077	0.120688
554.529042	0.120783
554.742990	0.121135
554.956919	0.121606
555.170830	0.121950
555.384722	0.122482
555.598597	0.122718
555.812453	0.122945
556.026291	0.123567
556.240111	0.124285
556.453913	0.124420
556.667696	0.124541
556.881461	0.124431
557.095208	0.124676
557.308937	0.124828
557.522647	0.125244
557.736339	0.125461
557.950013	0.125683
558.163669	0.125915
558.377307	0.126395
558.590926	0.126913
558.804527	0.127377
559.018110	0.127787
559.231675	0.128200
559.445221	0.128590
559.658749	0.129184
559.872259	0.129487
560.085751	0.129779
560.299225	0.130682
560.512680	0.130651
560.726117	0.131038
560.939536	0.131493
561.152937	0.131883
561.366319	0.131892
561.579683	0.132140
561.793029	0.132486
562.006357	0.132725
562.219667	0.131807
562.432958	0.132172
562.646231	0.132506
562.859486	0.132430
563.072723	0.132418
563.285941	0.132544
563.499141	0.132341
563.712323	0.132349
563.925487	0.132237
564.138632	0.133109
564.351760	0.133415
564.564869	0.133468
564.777960	0.133381
564.991032	0.133539
565.204087	0.133993
565.417123	0.134559
565.630141	0.134805
565.843140	0.135375
566.056122	0.135584
566.269085	0.135879
566.482030	0.135951
566.694957	0.136445
566.907866	0.136850
567.120756	0.137273
567.333628	0.137535
567.546482	0.137547
567.759318	0.137684
567.972135	0.137637
568.184935	0.137758
568.397716	0.138024
568.610478	0.138278
568.823223	0.138306
569.035949	0.138464
569.248657	0.138733
569.461347	0.139116
569.674019	0.139438
569.886672	0.139816
570.099308	0.139926
570.311925	0.140289
570.524523	0.140532
570.737104	0.140602
570.949666	0.141035
571.162210	0.141208
571.374736	0.141438
571.587244	0.141598
571.799733	0.141578
572.012205	0.141821
572.224658	0.141766
572.437092	0.141749
572.649509	0.141897
572.861907	0.142157
573.074287	0.142150
573.286649	0.141995
573.498993	0.142012
573.711318	0.142482
573.923625	0.142304
574.135914	0.142526
574.348185	0.142784
574.560438	0.143180
574.772672	0.142427
574.984888	0.142572
575.197086	0.142937
575.409266	0.142911
575.621427	0.142664
575.833570	0.143585
576.045695	0.143780
576.257802	0.143880
576.469890	0.143947
576.681961	0.144765
576.894013	0.145129
577.106046	0.145415
577.318062	0.145801
577.530059	0.146219
577.742039	0.145974
577.954000	0.146063
578.165942	0.146134
578.377867	0.146487
578.589773	0.146501
578.801661	0.146351
579.013531	0.146240
579.225382	0.146316
579.437216	0.146256
579.649031	0.146261
579.860828	0.146433
580.072606	0.146708
580.284367	0.146646
580.496109	0.146641
580.707833	0.146811
580.919539	0.146880
581.131227	0.146962
581.342896	0.147244
581.554547	0.147525
581.766180	0.147955
581.977795	0.148359
582.189391	0.148273
582.400969	0.148470
582.612529	0.148764
582.824071	0.149055
583.035595	0.148971
583.247100	0.149363
583.458587	0.149081
583.670056	0.148811
583.881506	0.148624
584.092939	0.148999
584.304353	0.149309
584.515749	0.149503
584.727127	0.149520
584.938486	0.150094
585.149828	0.149920
585.361151	0.150275
585.572456	0.150349
585.783742	0.150274
585.995011	0.150304
586.206261	0.150127
586.417493	0.149829
586.628706	0.149974
586.839902	0.149620
587.051079	0.149942
587.262238	0.149897
587.473379	0.150102
587.684502	0.150347
587.895606	0.150308
588.106692	0.150593
588.317760	0.150642
588.528810	0.150889
588.739841	0.151226
588.950855	0.150875
589.161850	0.151340
589.372827	0.151329
589.583785	0.151359
589.794726	0.151388
590.005648	0.151188
590.216552	0.151296
590.427437	0.151207
590.638305	0.151126
590.849154	0.151305
591.059985	0.151417
591.270798	0.151680
591.481592	0.151727
591.692369	0.151873
591.903127	0.152373
592.113867	0.152659
592.324588	0.153021
592.535292	0.152868
592.745977	0.152855
592.956644	0.152566
593.167293	0.152644
593.377923	0.152831
593.588536	0.152958
593.799130	0.152709
594.009706	0.152670
594.220263	0.152677
594.430803	0.152969
594.641324	0.153226
594.851827	0.153653
595.062312	0.153601
595.272778	0.153609
595.483227	0.154142
595.693657	0.154108
595.904069	0.154244
596.114462	0.154327
596.324838	0.154450
596.535195	0.154588
596.745534	0.154597
596.955855	0.154919
597.166157	0.154943
597.376441	0.154352
597.586707	0.154448
597.796955	0.154463
598.007185	0.154462
598.217396	0.154460
598.427589	0.154448
598.637764	0.154553
598.847921	0.154250
599.058060	0.154470
599.268180	0.154951
599.478282	0.155207
599.688366	0.155452
599.898431	0.155525
600.108479	0.155738
600.318508	0.155995
600.528519	0.155982
600.738511	0.156424
600.948486	0.156460
601.158442	0.156268
601.368380	0.156314
601.578300	0.156369
601.788202	0.156476
601.998085	0.156645
602.207950	0.156374
602.417797	0.156401
602.627626	0.156500
602.837436	0.156903
603.047228	0.156978
603.257002	0.157284
603.466758	0.157188
603.676496	0.157352
603.886215	0.157452
604.095916	0.157942
604.305599	0.158377
604.515264	0.158555
604.724910	0.158387
604.934538	0.158563
605.144148	0.158193
605.353740	0.158412
605.563314	0.158396
605.772869	0.158347
605.982406	0.158244
606.191925	0.158218
606.401425	0.158156
606.610908	0.158259
606.820372	0.158570
607.029818	0.158899
607.239246	0.158859
607.448655	0.158992
607.658047	0.159286
607.867420	0.159614
608.076775	0.159555
608.286111	0.159734
608.495430	0.159555
608.704730	0.159674
608.914012	0.160052
609.123275	0.160517
609.332521	0.160486
609.541748	0.160258
609.750957	0.160337
609.960148	0.160792
610.169321	0.161010
610.378475	0.161614
610.587611	0.161547
610.796729	0.161670
611.005829	0.161918
611.214910	0.162330
611.423974	0.162653
611.633019	0.162526
611.842045	0.162499
612.051054	0.162423
612.260044	0.162563
612.469017	0.162648
612.677970	0.162536
612.886906	0.162470
613.095824	0.162408
613.304723	0.162595
613.513604	0.162712
613.722467	0.162597
613.931311	0.162722
614.140138	0.162711
614.348946	0.162769
614.557736	0.162852
614.766507	0.162879
614.975261	0.162898
615.183996	0.162960
615.392713	0.163110
615.601412	0.163128
615.810092	0.163146
616.018754	0.163227
616.227399	0.163245
616.436024	0.163071
616.644632	0.163142
616.853222	0.163147
617.061793	0.163301
617.270346	0.163426
617.478880	0.163596
617.687397	0.163645
617.895895	0.163436
618.104375	0.163629
618.312837	0.164024
618.521281	0.164134
618.729706	0.164649
618.938113	0.164633
619.146502	0.164631
619.354873	0.164552
619.563226	0.164734
619.771560	0.164615
619.979876	0.164674
620.188174	0.164653
620.396453	0.164769
620.604715	0.164892
620.812958	0.164807
621.021183	0.164793
621.229390	0.165180
621.437578	0.165523
621.645748	0.166010
621.853900	0.166138
622.062034	0.166354
622.270150	0.166391
622.478247	0.166260
622.686326	0.166520
622.894387	0.166648
623.102430	0.166681
623.310454	0.166469
623.518461	0.166709
623.726449	0.167019
623.934418	0.167097
624.142370	0.167197
624.350303	0.167066
624.558218	0.167091
624.766115	0.167244
624.973994	0.167263
625.181855	0.167422
625.389697	0.167217
625.597521	0.167005
625.805327	0.166926
626.013114	0.166785
626.220883	0.167152
626.428634	0.167434
626.636367	0.167678
626.844082	0.167812
627.051778	0.167913
627.259457	0.168345
627.467117	0.168584
627.674758	0.168951
627.882382	0.169492
628.089987	0.169573
628.297574	0.169410
628.505143	0.169381
628.712694	0.169616
628.920226	0.169700
629.127740	0.169722
629.335236	0.169830
629.542714	0.169954
629.750174	0.169954
629.957615	0.170099
630.165038	0.170342
630.372443	0.170600
630.579829	0.170789
630.787198	0.171084
630.994548	0.171173
631.201880	0.171349
631.409194	0.171219
631.616489	0.171014
631.823766	0.171042
632.031025	0.171250
632.238266	0.171454
632.445489	0.171161
632.652693	0.170958
632.859879	0.170930
633.067047	0.170967
633.274197	0.171000
633.481329	0.171282
633.688442	0.171378
633.895537	0.171260
634.102614	0.171272
634.309672	0.171450
634.516713	0.171639
634.723735	0.171455
634.930739	0.171658
635.137724	0.171915
635.344692	0.171883
635.551641	0.171913
635.758572	0.172142
635.965485	0.171995
636.172379	0.172140
636.379256	0.172465
636.586114	0.172670
636.792954	0.172688
636.999775	0.172828
637.206579	0.173096
637.413364	0.173234
637.620131	0.173314
637.826880	0.173466
638.033610	0.173234
638.240323	0.173120
638.447017	0.173230
638.653692	0.173423
638.860350	0.173425
639.066990	0.173314
639.273611	0.173691
639.480214	0.173873
639.686798	0.174246
639.893365	0.174619
640.099913	0.174673
640.306443	0.174884
640.512955	0.175043
640.719449	0.175085
640.925924	0.175184
641.132381	0.174990
641.338820	0.175154
641.545241	0.175070
641.751644	0.175124
641.958028	0.175285
642.164394	0.175496
642.370742	0.175580
642.577071	0.175703
642.783383	0.176048
642.989676	0.176179
643.195951	0.176317
643.402207	0.176521
643.608446	0.176783
643.814666	0.176751
644.020868	0.176796
644.227052	0.176724
644.433218	0.177063
644.639365	0.177442
644.845494	0.177607
645.051605	0.177669
645.257698	0.177676
645.463772	0.177887
645.669828	0.178097
645.875866	0.178194
646.081886	0.178462
646.287888	0.178687
646.493871	0.178517
646.699836	0.178615
646.905783	0.178740
647.111712	0.179094
647.317622	0.179214
647.523514	0.179541
647.729388	0.179569
647.935244	0.179349
648.141082	0.179251
648.346901	0.179265
648.552702	0.179359
648.758485	0.179183
648.964250	0.179159
649.169996	0.179106
649.375724	0.179142
649.581434	0.179326
649.787126	0.179491
649.992800	0.179521
650.198455	0.179642
650.404092	0.179530
650.609711	0.179759
650.815311	0.179854
651.020894	0.180157
651.226458	0.180301
651.432004	0.180468
651.637532	0.180975
651.843041	0.181055
652.048532	0.181161
652.254006	0.181419
652.459460	0.181668
652.664897	0.181682
652.870315	0.181734
653.075716	0.181671
653.281097	0.181852
653.486461	0.182012
653.691807	0.182240
653.897134	0.182579
654.102443	0.182832
654.307734	0.182950
654.513006	0.183201
654.718261	0.183241
654.923497	0.183444
655.128715	0.183599
655.333915	0.183511
655.539096	0.183754
655.744259	0.183860
655.949404	0.183990
656.154531	0.184438
656.359640	0.184684
656.564730	0.184995
656.769802	0.185224
656.974856	0.185446
657.179892	0.185711
657.384909	0.185754
657.589908	0.185926
657.794889	0.185882
657.999852	0.185672
658.204797	0.185725
658.409723	0.185620
658.614631	0.185709
658.819521	0.185800
659.024393	0.185704
659.229246	0.185765
659.434081	0.185632
659.638898	0.185910
659.843697	0.185948
660.048478	0.185590
660.253240	0.185617
660.457984	0.185500
660.662710	0.185219
660.867417	0.185308
661.072107	0.185363
661.276778	0.185599
661.481431	0.185553
661.686066	0.185684
661.890682	0.186183
662.095281	0.186524
662.299861	0.186647
662.504422	0.186968
662.708966	0.187365
662.913491	0.187366
663.117999	0.187291
663.322488	0.187425
663.526958	0.187601
663.731411	0.187741
663.935845	0.187840
664.140261	0.188144
664.344659	0.188268
664.549038	0.188123
664.753400	0.188364
664.957743	0.188692
665.162068	0.189220
665.366375	0.189124
665.570663	0.189101
665.774933	0.189377
665.979185	0.189622
666.183419	0.189809
666.387635	0.189916
666.591832	0.190062
666.796011	0.190095
667.000172	0.189935
667.204315	0.190232
667.408439	0.190457
667.612545	0.190444
667.816634	0.190446
668.020703	0.190634
668.224755	0.190853
668.428788	0.191061
668.632803	0.191316
668.836800	0.191401
669.040779	0.191230
669.244739	0.190985
669.448681	0.191063
669.652605	0.191203
669.856511	0.191039
670.060399	0.191256
670.264268	0.191231
670.468119	0.191079
670.671952	0.191192
670.875767	0.191584
671.079563	0.192134
671.283341	0.192079
671.487101	0.192038
671.690843	0.192405
671.894567	0.192100
672.098272	0.192068
672.301959	0.192228
672.505628	0.192067
672.709278	0.192158
672.912911	0.192062
673.116525	0.192089
673.320121	0.192178
673.523699	0.192193
673.727258	0.192495
673.930799	0.192604
674.134322	0.192826
674.337827	0.193264
674.541314	0.193514
674.744782	0.193698
674.948232	0.193957
675.151664	0.194233
675.355078	0.194454
675.558474	0.194715
675.761851	0.194840
675.965210	0.195099
676.168551	0.195143
676.371873	0.195369
676.575178	0.195522
676.778464	0.195706
676.981732	0.195886
677.184981	0.196070
677.388213	0.196087
677.591426	0.196526
677.794621	0.196561
677.997798	0.196683
678.200956	0.196479
678.404097	0.196653
678.607219	0.196906
678.810323	0.197017
679.013408	0.197005
679.216476	0.197280
679.419525	0.197203
679.622556	0.197504
679.825569	0.197811
680.028563	0.198017
680.231540	0.198199
680.434498	0.198280
680.637438	0.198200
680.840359	0.198328
681.043263	0.198516
681.246148	0.198797
681.449015	0.198749
681.651864	0.198596
681.854694	0.198597
682.057506	0.198566
682.260301	0.198459
682.463076	0.198585
682.665834	0.198635
682.868573	0.198561
683.071295	0.198603
683.273998	0.198952
683.476682	0.199147
683.679349	0.199036
683.881997	0.199224
684.084627	0.199453
684.287239	0.199493
684.489833	0.199595
684.692408	0.199540
684.894965	0.199462
685.097504	0.199128
685.300025	0.199241
685.502527	0.199365
685.705012	0.199321
685.907478	0.199349
686.109925	0.199645
686.312355	0.199886
686.514766	0.200079
686.717159	0.200445
686.919534	0.200767
687.121891	0.200983
687.324230	0.201357
687.526550	0.201609
687.728852	0.201682
687.931136	0.201734
688.133401	0.201721
688.335649	0.201896
688.537878	0.201933
688.740089	0.201943
688.942281	0.201932
689.144456	0.201878
689.346612	0.201829
689.548750	0.201848
689.750870	0.201899
689.952971	0.201853
690.155055	0.202014
690.357120	0.201971
690.559167	0.201964
690.761195	0.201916
690.963206	0.201954
691.165198	0.201900
691.367172	0.201999
691.569128	0.201827
691.771065	0.202011
691.972984	0.201933
692.174885	0.202063
692.376768	0.202075
692.578633	0.202273
692.780479	0.202495
692.982308	0.202508
693.184118	0.202417
693.385909	0.202530
693.587683	0.202523
693.789438	0.202624
693.991175	0.202565
694.192894	0.202769
694.394595	0.202701
694.596277	0.202659
694.797941	0.202987
694.999587	0.203367
695.201215	0.203629
695.402824	0.203932
695.604416	0.203984
695.805989	0.204371
696.007543	0.204560
696.209080	0.204656
696.410598	0.204912
696.612099	0.205054
696.813580	0.205013
697.015044	0.204992
697.216490	0.205058
697.417917	0.205242
697.619326	0.205358
697.820717	0.205346
698.022089	0.205574
698.223444	0.205925
698.424780	0.205842
698.626098	0.206031
698.827397	0.206280
699.028679	0.206193
699.229942	0.206051
699.431187	0.205898
699.632414	0.205853
699.833622	0.205712
700.034813	0.205450
700.235985	0.205413
700.437139	0.205403
700.638274	0.205233
700.839392	0.205480
701.040491	0.205704
701.241572	0.205864
701.442635	0.205892
701.643679	0.206082
701.844706	0.205945
702.045714	0.205814
702.246704	0.205846
702.447675	0.205909
702.648629	0.205765
702.849564	0.205702
703.050481	0.205549
703.251380	0.205553
703.452260	0.205622
703.653122	0.205973
703.853966	0.206293
704.054792	0.206401
704.255600	0.206547
704.456389	0.206357
704.657160	0.206624
704.857913	0.206803
705.058648	0.207006
705.259365	0.206906
705.460063	0.206777
705.660743	0.206885
705.861405	0.206988
706.062048	0.207018
706.262674	0.207306
706.463281	0.207130
706.663870	0.207059
706.864441	0.207007
707.064993	0.207058
707.265527	0.207107
707.466043	0.207137
707.666541	0.207025
707.867021	0.207011
708.067482	0.206935
708.267925	0.206968
708.468350	0.207159
708.668757	0.207274
708.869145	0.207507
709.069516	0.207813
709.269868	0.207764
709.470201	0.207716
709.670517	0.207869
709.870814	0.207784
710.071093	0.207739
710.271354	0.207727
710.471597	0.207458
710.671821	0.207501
710.872028	0.207216
711.072216	0.207362
711.272385	0.207535
711.472537	0.207592
711.672670	0.207671
711.872785	0.207774
712.072882	0.207729
712.272961	0.207820
712.473021	0.207763
712.673063	0.207844
712.873087	0.207758
713.073093	0.207748
713.273081	0.207631
713.473050	0.207597
713.673001	0.207697
713.872934	0.207792
714.072849	0.208060
714.272745	0.207837
714.472623	0.207815
714.672483	0.208044
714.872325	0.208015
715.072148	0.208121
715.271954	0.208454
715.471741	0.208457
715.671509	0.208309
715.871260	0.208197
716.070992	0.208330
716.270707	0.208174
716.470403	0.208010
716.670080	0.208187
716.869740	0.208045
717.069381	0.207879
717.269004	0.207785
717.468609	0.207634
717.668195	0.207521
717.867764	0.207062
718.067314	0.206991
718.266846	0.206956
718.466360	0.206494
718.665855	0.206543
718.865332	0.206326
719.064791	0.206148
719.264232	0.206064
719.463655	0.206056
719.663059	0.206275
719.862445	0.206256
720.061813	0.206181
720.261163	0.206324
720.460494	0.206256
720.659807	0.206171
720.859102	0.206418
721.058379	0.206498
721.257638	0.206586
721.456878	0.206793
721.656100	0.206928
721.855304	0.206915
722.054490	0.206892
722.253657	0.206793
722.452806	0.206675
722.651937	0.206221
722.851050	0.205937
723.050145	0.205728
723.249221	0.205513
723.448279	0.205371
723.647319	0.204939
723.846340	0.204797
724.045344	0.204558
724.244329	0.204518
724.443296	0.204563
724.642245	0.204537
724.841175	0.204432
725.040088	0.204181
725.238982	0.204209
725.437857	0.204229
725.636715	0.204255
725.835554	0.204566
726.034376	0.204719
726.233179	0.204740
726.431963	0.204630
726.630730	0.204384
726.829478	0.204412
727.028208	0.204298
727.226920	0.204465
727.425614	0.204279
727.624289	0.203921
727.822946	0.203822
728.021585	0.203618
728.220206	0.203781
728.418808	0.204025
728.617392	0.204069
728.815958	0.204033
729.014506	0.203970
729.213036	0.204032
729.411547	0.203980
729.610040	0.203917
729.808515	0.204011
730.006972	0.203970
730.205410	0.203782
730.403831	0.203545
730.602233	0.203549
730.800616	0.203645
730.998982	0.203692
731.197329	0.203854
731.395658	0.203693
731.593969	0.203759
731.792262	0.203729
731.990536	0.203934
732.188793	0.204156
732.387031	0.204292
732.585250	0.204189
732.783452	0.203954
732.981635	0.203797
733.179800	0.203761
733.377947	0.203399
733.576076	0.203190
733.774186	0.202996
733.972278	0.202639
734.170352	0.202178
734.368408	0.201891
734.566446	0.201940
734.764465	0.201795
734.962466	0.201849
735.160449	0.201810
735.358413	0.201862
735.556360	0.201596
735.754288	0.201728
735.952198	0.201718
736.150090	0.201596
736.347963	0.201591
736.545818	0.201548
736.743655	0.201449
736.941474	0.201167
737.139275	0.201048
737.337057	0.201041
737.534821	0.200746
737.732567	0.200380
737.930295	0.200289
738.128005	0.200289
738.325696	0.200163
738.523369	0.200061
738.721024	0.200261
738.918660	0.199875
739.116279	0.199506
739.313879	0.199285
739.511461	0.199328
739.709024	0.199243
739.906570	0.198890
740.104097	0.198795
740.301606	0.198476
740.499097	0.198174
740.696569	0.198277
740.894024	0.198478
741.091460	0.198655
741.288878	0.198476
741.486277	0.198481
741.683659	0.198361
741.881022	0.198238
742.078367	0.198152
742.275694	0.198104
742.473002	0.197925
742.670293	0.197677
742.867565	0.197502
743.064819	0.197517
743.262054	0.197204
743.459272	0.197114
743.656471	0.196967
743.853652	0.196859
744.050815	0.196799
744.247959	0.196644
744.445085	0.196551
744.642194	0.196675
744.839283	0.196541
745.036355	0.196492
745.233408	0.196422
745.430444	0.196260
745.627461	0.196404
745.824459	0.196282
746.021440	0.196302
746.218402	0.196094
746.415346	0.195819
746.612272	0.195645
746.809180	0.195555
747.006069	0.195454
747.202940	0.195660
747.399793	0.195570
747.596628	0.195551
747.793444	0.195584
747.990243	0.195709
748.187023	0.195562
748.383784	0.195560
748.580528	0.195523
748.777253	0.195351
748.973960	0.194966
749.170649	0.194780
749.367320	0.194712
749.563973	0.194383
749.760607	0.194268
749.957223	0.194154
750.153821	0.194158
750.350400	0.194038
750.546962	0.193939
750.743505	0.193951
750.940030	0.193766
751.136536	0.193681
751.333025	0.194026
751.529495	0.193878
751.725947	0.194005
751.922381	0.193932
752.118796	0.193821
752.315194	0.193728
752.511573	0.193470
752.707934	0.193595
752.904276	0.193451
753.100601	0.192960
753.296907	0.192861
753.493195	0.192589
753.689465	0.192374
753.885716	0.192223
754.081949	0.192103
754.278164	0.192046
754.474361	0.191573
754.670540	0.191520
754.866700	0.191547
755.062843	0.191335
755.258967	0.191148
755.455072	0.191165
755.651160	0.191251
755.847229	0.191077
756.043280	0.190919
756.239313	0.191091
756.435328	0.190978
756.631324	0.190893
756.827302	0.190967
757.023262	0.191032
757.219204	0.191028
757.415127	0.190793
757.611033	0.190842
757.806920	0.190958
758.002788	0.191000
758.198639	0.190995
758.394471	0.191009
758.590286	0.191036
758.786081	0.190983
758.981859	0.190858
759.177619	0.190673
759.373360	0.190651
759.569083	0.190222
759.764788	0.189799
759.960474	0.189397
760.156143	0.189268
760.351793	0.189063
760.547425	0.188877
760.743038	0.188433
760.938634	0.188474
761.134211	0.188247
761.329770	0.188386
761.525311	0.188044
761.720833	0.188179
761.916338	0.187918
762.111824	0.187666
762.307292	0.187728
762.502741	0.188094
762.698173	0.188001
762.893586	0.188247
763.088981	0.188163
763.284358	0.188785
763.479716	0.188829
763.675057	0.188947
763.870379	0.188974
764.065683	0.189026
764.260968	0.188949
764.456236	0.189194
764.651485	0.189098
764.846716	0.189204
765.041929	0.189106
765.237123	0.189195
765.432299	0.189147
765.627457	0.189380
765.822597	0.189396
766.017719	0.189567
766.212822	0.189529
766.407907	0.189551
766.602974	0.189761
766.798023	0.189554
766.993054	0.189462
767.188066	0.189349
767.383060	0.189309
767.578036	0.189005
767.772993	0.188757
767.967933	0.188778
768.162854	0.188708
768.357757	0.188209
768.552642	0.188146
768.747508	0.188095
768.942356	0.187930
769.137186	0.187906
769.331998	0.188100
769.526792	0.187882
769.721567	0.187531
769.916324	0.187272
770.111063	0.187421
770.305784	0.187373
770.500486	0.187174
770.695171	0.187173
770.889837	0.186920
771.084484	0.186786
771.279114	0.186880
771.473725	0.186725
771.668318	0.186676
771.862893	0.186448
772.057450	0.186296
772.251988	0.186292
772.446509	0.186461
772.641011	0.186493
772.835494	0.186567
773.029960	0.186414
773.224407	0.186505
773.418836	0.186778
773.613247	0.187002
773.807640	0.187312
774.002014	0.187388
774.196370	0.187488
774.390708	0.187634
774.585028	0.187687
774.779330	0.187642
774.973613	0.187732
775.167878	0.187561
775.362125	0.187495
775.556354	0.187238
775.750564	0.187310
775.944756	0.187056
776.138930	0.186919
776.333086	0.186687
776.527223	0.186955
776.721343	0.187404
776.915444	0.187380
777.109526	0.187470
777.303591	0.187457
777.497637	0.187475
777.691666	0.187733
777.885676	0.187790
778.079667	0.187701
778.273641	0.187658
778.467596	0.187065
778.661533	0.187183
778.855452	0.186982
779.049352	0.187187
779.243235	0.186954
779.437099	0.186713
779.630945	0.186508
779.824773	0.186591
780.018582	0.186404
780.212373	0.186328
780.406146	0.186265
780.599901	0.186245
780.793638	0.186027
780.987356	0.186198
781.181056	0.186445
781.374738	0.186744
781.568402	0.186593
781.762047	0.186695
781.955674	0.186931
782.149283	0.186858
782.342874	0.186956
782.536447	0.186713
782.730001	0.186662
782.923537	0.186365
783.117055	0.186382
783.310555	0.186652
783.504036	0.186581
783.697499	0.186800
783.890944	0.186719
784.084371	0.186675
784.277780	0.187133
784.471170	0.186982
784.664542	0.187205
784.857896	0.187141
785.051231	0.187109
785.244549	0.187271
785.437848	0.187147
785.631129	0.187266
785.824392	0.187315
786.017636	0.187263
786.210863	0.187420
786.404071	0.187579
786.597260	0.187530
786.790432	0.187495
786.983585	0.187448
787.176721	0.187386
787.369838	0.187662
787.562936	0.187757
787.756017	0.187984
787.949079	0.187898
788.142123	0.187650
788.335149	0.187751
788.528156	0.187886
788.721146	0.187929
788.914117	0.187856
789.107070	0.187461
789.300005	0.187923
789.492921	0.187838
789.685819	0.188011
789.878699	0.188137
790.071561	0.188086
790.264405	0.188172
790.457230	0.188189
790.650037	0.188526
790.842826	0.188915
791.035597	0.188596
791.228349	0.188584
791.421084	0.188435
791.613800	0.188565
791.806497	0.188898
791.999177	0.188902
792.191838	0.189027
792.384481	0.189165
792.577106	0.189161
792.769713	0.189241
792.962301	0.189282
793.154871	0.189676
793.347423	0.189763
793.539957	0.189897
793.732473	0.189925
793.924970	0.189990
794.117449	0.190020
794.309910	0.189988
794.502353	0.190120
794.694777	0.190473
794.887183	0.190372
795.079571	0.190464
795.271941	0.190138
795.464293	0.190336
795.656626	0.190491
795.848941	0.190504
796.041238	0.190648
796.233516	0.190851
796.425777	0.190951
796.618019	0.191358
796.810243	0.191352
797.002449	0.191574
797.194636	0.191672
797.386805	0.191936
797.578956	0.192212
797.771089	0.192245
797.963204	0.192269
798.155300	0.192013
798.347378	0.191995
798.539438	0.192121
798.731480	0.192200
798.923503	0.192250
799.115509	0.192157
799.307496	0.192000
799.499465	0.192342
799.691415	0.192406
799.883348	0.192782
800.075262	0.192917
800.267158	0.193341
800.459035	0.193391
800.650895	0.193683
800.842736	0.193613
801.034559	0.193822
801.226364	0.193778
801.418150	0.193889
801.609919	0.194125
801.801669	0.194212
801.993401	0.194120
802.185114	0.194718
802.376810	0.194844
802.568487	0.195317
802.760146	0.195569
802.951787	0.195709
803.143409	0.195744
803.335014	0.195941
803.526600	0.196113
803.718168	0.196270
803.909717	0.196181
804.101249	0.196182
804.292762	0.196401
804.484257	0.196541
804.675734	0.197010
804.867192	0.197168
805.058632	0.197151
805.250054	0.197196
805.441458	0.197391
805.632844	0.197659
805.824211	0.197797
806.015561	0.197718
806.206891	0.197549
806.398204	0.197107
806.589499	0.197492
806.780775	0.197550
806.972033	0.197755
807.163273	0.197878
807.354495	0.197802
807.545698	0.197879
807.736883	0.198027
807.928050	0.198342
808.119199	0.198635
808.310329	0.198641
808.501441	0.198920
808.692535	0.199101
808.883611	0.199541
809.074669	0.199615
809.265708	0.200026
809.456729	0.200165
809.647732	0.200472
809.838717	0.200781
810.029683	0.201262
810.220632	0.201287
810.411562	0.201608
810.602474	0.201517
810.793367	0.201867
810.984242	0.201854
811.175100	0.202195
811.365938	0.202398
811.556759	0.202568
811.747562	0.202538
811.938346	0.202690
812.129112	0.202696
812.319860	0.202913
812.510589	0.202983
812.701300	0.203086
812.891994	0.203219
813.082668	0.203235
813.273325	0.203426
813.463964	0.203523
813.654584	0.203903
813.845186	0.203981
814.035769	0.203998
814.226335	0.203894
814.416882	0.204126
814.607411	0.204000
814.797922	0.204081
814.988415	0.204204
815.178889	0.204260
815.369345	0.204243
815.559783	0.204446
815.750203	0.204582
815.940605	0.204955
816.130988	0.205199
816.321353	0.205482
816.511700	0.205847
816.702028	0.206162
816.892339	0.206523
817.082631	0.206705
817.272905	0.206872
817.463161	0.207086
817.653398	0.207450
817.843617	0.207682
818.033819	0.208131
818.224001	0.208285
818.414166	0.208395
818.604312	0.208651
818.794440	0.209042
818.984550	0.209131
819.174642	0.209177
819.364716	0.209265
819.554771	0.209213
819.744808	0.209468
819.934827	0.209640
820.124827	0.209789
820.314810	0.209906
820.504774	0.209927
820.694720	0.210440
820.884647	0.210790
821.074557	0.211232
821.264448	0.211577
821.454321	0.211676
821.644176	0.211953
821.834012	0.212479
822.023831	0.212643
822.213631	0.212980
822.403413	0.213057
822.593176	0.213413
822.782922	0.213681
822.972649	0.213853
823.162358	0.214166
823.352049	0.214532
823.541721	0.214484
823.731376	0.214796
823.921012	0.215000
824.110629	0.215490
824.300229	0.215766
824.489811	0.216030
824.679374	0.216665
824.868919	0.216968
825.058445	0.217296
825.247954	0.217651
825.437444	0.218039
825.626916	0.218665
825.816370	0.218709
826.005806	0.218948
826.195223	0.219224
826.384622	0.219231
826.574003	0.219451
826.763366	0.219606
826.952711	0.219878
827.142037	0.220003
827.331345	0.219967
827.520635	0.219988
827.709906	0.220172
827.899160	0.220212
828.088395	0.220406
828.277612	0.220632
828.466810	0.220466
828.655991	0.220729
828.845153	0.220746
829.034297	0.220809
829.223423	0.221306
829.412531	0.221510
829.601620	0.221517
829.790691	0.221793
829.979744	0.221663
830.168779	0.221961
830.357795	0.222007
830.546793	0.222581
830.735773	0.222869
830.924735	0.222876
831.113679	0.223022
831.302604	0.223327
831.491511	0.223611
831.680400	0.224122
831.869271	0.224648
832.058123	0.224744
832.246957	0.224909
832.435773	0.225125
832.624571	0.225585
832.813351	0.225996
833.002112	0.226065
833.190855	0.226319
833.379580	0.226411
833.568287	0.226315
833.756975	0.226644
833.945645	0.226848
834.134297	0.227003
834.322931	0.227162
834.511547	0.227510
834.700144	0.227965
834.888723	0.227876
835.077284	0.228215
835.265826	0.228290
835.454351	0.228838
835.642857	0.229105
835.831345	0.229672
836.019815	0.230015
836.208266	0.230065
836.396699	0.230415
836.585114	0.230940
836.773511	0.231099
836.961890	0.231442
837.150250	0.231699
837.338592	0.231918
837.526916	0.231703
837.715222	0.231801
837.903510	0.232249
838.091779	0.232481
838.280030	0.232402
838.468263	0.232866
838.656477	0.233478
838.844674	0.233875
839.032852	0.233864
839.221012	0.234348
839.409153	0.234790
839.597277	0.234785
839.785382	0.235035
839.973469	0.235729
840.161538	0.236086
840.349589	0.236235
840.537621	0.236207
840.725635	0.236472
840.913631	0.236841
841.101609	0.237106
841.289568	0.237596
841.477509	0.237793
841.665432	0.237908
841.853337	0.237912
842.041224	0.238418
842.229092	0.238547
842.416942	0.238873
842.604774	0.238898
842.792588	0.239126
842.980383	0.239561
843.168160	0.240106
843.355919	0.240561
843.543660	0.240875
843.731382	0.241098
843.919087	0.241687
844.106773	0.242101
844.294441	0.242804
844.482090	0.243086
844.669722	0.243199
844.857335	0.243280
845.044930	0.243428
845.232507	0.243884
845.420065	0.244059
845.607605	0.244245
845.795127	0.244595
845.982631	0.245013
846.170117	0.245197
846.357584	0.245586
846.545033	0.246010
846.732464	0.246215
846.919877	0.246229
847.107272	0.246360
847.294648	0.246563
847.482006	0.246580
847.669346	0.246407
847.856667	0.246795
848.043971	0.246640
848.231256	0.246822
848.418523	0.247136
848.605771	0.247130
848.793002	0.247429
848.980214	0.247659
849.167408	0.248284
849.354584	0.248716
849.541742	0.248726
849.728881	0.249335
849.916002	0.249522
850.103105	0.249554
850.290190	0.250275
850.477256	0.250575
850.664304	0.250836
850.851334	0.250530
851.038346	0.250496
851.225340	0.250867
851.412315	0.250913
851.599272	0.251092
851.786211	0.251468
851.973132	0.251637
852.160034	0.251899
852.346918	0.252067
852.533784	0.252972
852.720632	0.253323
852.907462	0.253607
853.094273	0.254058
853.281066	0.254432
853.467841	0.254802
853.654598	0.254943
853.841336	0.255279
854.028056	0.255640
854.214758	0.256003
854.401442	0.256467
854.588107	0.256875
854.774755	0.257088
854.961384	0.257261
855.147995	0.257554
855.334587	0.258074
855.521162	0.258739
855.707718	0.259195
855.894256	0.259284
856.080775	0.259319
856.267277	0.259633
856.453760	0.259938
856.640225	0.260174
856.826672	0.260480
857.013101	0.260813
857.199511	0.260639
857.385903	0.260520
857.572277	0.260610
857.758633	0.260906
857.944970	0.260910
858.131290	0.261007
858.317591	0.261225
858.503873	0.261197
858.690138	0.261207
858.876384	0.261434
859.062612	0.261755
859.248822	0.261741
859.435014	0.261862
859.621188	0.262189
859.807343	0.262026
859.993480	0.262297
860.179599	0.262689
860.365699	0.262756
860.551781	0.262973
860.737846	0.263157
860.923891	0.263486
861.109919	0.264044
861.295929	0.264088
861.481920	0.264543
861.667893	0.265053
861.853848	0.265113
862.039784	0.265247
862.225702	0.265548
862.411603	0.266079
862.597484	0.266308
862.783348	0.266320
862.969193	0.266966
863.155021	0.267367
863.340830	0.267302
863.526620	0.267486
863.712393	0.267676
863.898147	0.267677
864.083883	0.267697
864.269601	0.268085
864.455301	0.268269
864.640982	0.268365
864.826645	0.268371
865.012290	0.268676
865.197917	0.268883
865.383526	0.269305
865.569116	0.269464
865.754688	0.269801
865.940242	0.269748
866.125777	0.270066
866.311295	0.269952
866.496794	0.270475
866.682275	0.270991
866.867737	0.271341
867.053182	0.271660
867.238608	0.271848
867.424016	0.272185
867.609406	0.272593
867.794778	0.272569
867.980131	0.273056
868.165466	0.273034
868.350783	0.272953
868.536082	0.272984
868.721362	0.272829
868.906625	0.272815
869.091869	0.272722
869.277094	0.273016
869.462302	0.273574
869.647491	0.273634
869.832662	0.273867
870.017815	0.273867
870.202950	0.273866
870.388066	0.274227
870.573165	0.274621
870.758245	0.274875
870.943306	0.274857
871.128350	0.274478
871.313375	0.274298
871.498382	0.274545
871.683371	0.274753
871.868342	0.275278
872.053294	0.275349
872.238229	0.275616
872.423144	0.275351
872.608042	0.275420
872.792922	0.275797
872.977783	0.275845
873.162626	0.275698
873.347451	0.275890
873.532258	0.276026
873.717046	0.276231
873.901816	0.276457
874.086568	0.276920
874.271302	0.276983
874.456017	0.277066
874.640715	0.277518
874.825394	0.277592
875.010055	0.277400
875.194697	0.277444
875.379322	0.277611
875.563928	0.277583
875.748516	0.277550
875.933085	0.277853
876.117637	0.278269
876.302170	0.278703
876.486685	0.279369
876.671182	0.279933
876.855661	0.280048
877.040121	0.279980
877.224563	0.279852
877.408987	0.280294
877.593393	0.280307
877.777780	0.280477
877.962150	0.280070
878.146501	0.280103
878.330833	0.280165
878.515148	0.280149
878.699444	0.280491
878.883722	0.280919
879.067982	0.280806
879.252224	0.280896
879.436447	0.280816
879.620653	0.280971
879.804840	0.280937
879.989008	0.280793
880.173159	0.280972
880.357291	0.281092
880.541405	0.281211
880.725501	0.281378
880.909579	0.281191
881.093638	0.281139
881.277680	0.281626
881.461703	0.281315
881.645707	0.281264
881.829694	0.281594
882.013662	0.281606
882.197612	0.281172
882.381544	0.281198
882.565458	0.281188
882.749353	0.281512
882.933230	0.281181
883.117089	0.281495
883.300930	0.281864
883.484753	0.281561
883.668557	0.281615
883.852343	0.282568
884.036111	0.282602
884.219861	0.282849
884.403592	0.282658
884.587305	0.282946
884.771000	0.283167
884.954677	0.283170
885.138335	0.283514
885.321976	0.283309
885.505598	0.283122
885.689201	0.283187
885.872787	0.283312
886.056354	0.283196
886.239904	0.283284
886.423434	0.282990
886.606947	0.282783
886.790442	0.282296
886.973918	0.282695
887.157376	0.282271
887.340816	0.282150
887.524237	0.281645
887.707641	0.281559
887.891026	0.281249
888.074393	0.281096
888.257741	0.281413
888.441072	0.281479
888.624384	0.280746
888.807678	0.280443
888.990954	0.280018
889.174211	0.280215
889.357451	0.280055
889.540672	0.279918
889.723875	0.280050
889.907059	0.279473
890.090226	0.279803
890.273374	0.280313
890.456504	0.280328
890.639616	0.280357
890.822709	0.280705
891.005785	0.280875
891.188842	0.280766
891.371881	0.280451
891.554901	0.280820
891.737904	0.280427
891.920888	0.280323
892.103854	0.280284
892.286802	0.280135
892.469731	0.279600
892.652643	0.279528
892.835536	0.279439
893.018410	0.279319
893.201267	0.279269
893.384106	0.279360
893.566926	0.279289
893.749728	0.279137
893.932511	0.279134
894.115277	0.279048
894.298024	0.278433
894.480753	0.278459
894.663464	0.278379
894.846157	0.278067
895.028831	0.277657
895.211487	0.277476
895.394125	0.277982
895.576745	0.278060
895.759346	0.278126
895.941930	0.278204
896.124495	0.278163
896.307041	0.278530
896.489570	0.278249
896.672080	0.278422
896.854573	0.278386
897.037046	0.278181
897.219502	0.278045
897.401940	0.278349
897.584359	0.278292
897.766760	0.278766
897.949143	0.278662
898.131507	0.278719
898.313854	0.278364
898.496182	0.278048
898.678492	0.277623
898.860783	0.277859
899.043057	0.277414
899.225312	0.277637
899.407549	0.277227
899.589768	0.276855
899.771968	0.276882
899.954151	0.277021
900.136315	0.276769
900.318461	0.276909
900.500588	0.276458
900.682698	0.276608
900.864789	0.276932
901.046862	0.276770
901.228917	0.276437
901.410953	0.276063
901.592971	0.276116
901.774972	0.276757
901.956953	0.276668
902.138917	0.276441
902.320862	0.275844
902.502790	0.274826
902.684699	0.274180
902.866589	0.274387
903.048462	0.274080
903.230316	0.273676
903.412152	0.273226
903.593970	0.272751
903.775770	0.272848
903.957551	0.272616
904.139314	0.273019
904.321059	0.272903
904.502786	0.272593
904.684494	0.272529
904.866185	0.271677
905.047857	0.271010
905.229510	0.270926
905.411146	0.270523
905.592763	0.270619
905.774363	0.269975
905.955943	0.270132
906.137506	0.270117
906.319051	0.269905
906.500577	0.270244
906.682085	0.270032
906.863575	0.269466
907.045046	0.269095
907.226500	0.268615
907.407935	0.268661
907.589352	0.267975
907.770750	0.267658
907.952131	0.267495
908.133493	0.267327
908.314837	0.266881
908.496163	0.266744
908.677470	0.266239
908.858760	0.266438
909.040031	0.266024
909.221284	0.266091
909.402518	0.265744
909.583735	0.265892
909.764933	0.265276
909.946113	0.265722
910.127275	0.265558
910.308418	0.265574
910.489544	0.264884
910.670651	0.264684
910.851740	0.264331
911.032810	0.264158
911.213863	0.263378
911.394897	0.263323
911.575913	0.262842
911.756911	0.262387
911.937890	0.262024
912.118851	0.261333
912.299794	0.261100
912.480719	0.260876
912.661626	0.260415
912.842514	0.260080
913.023384	0.259504
913.204236	0.258829
913.385070	0.259319
913.565886	0.259160
913.746683	0.259651
913.927462	0.259723
914.108223	0.259184
914.288965	0.258892
914.469690	0.258472
914.650396	0.258655
914.831084	0.258465
915.011754	0.257442
915.192405	0.256932
915.373038	0.256492
915.553653	0.255702
915.734250	0.255155
915.914829	0.254606
916.095389	0.254468
916.275931	0.253723
916.456455	0.253210
916.636961	0.253417
916.817448	0.253006
916.997917	0.252163
917.178368	0.251728
917.358801	0.251771
917.539216	0.251329
917.719612	0.251020
917.899990	0.250819
918.080350	0.250854
918.260692	0.250191
918.441015	0.250297
918.621320	0.250133
918.801607	0.249945
918.981876	0.249236
919.162127	0.249122
919.342359	0.248509
919.522573	0.248425
919.702769	0.247733
919.882947	0.247154
920.063106	0.246325
920.243247	0.246150
920.423370	0.245557
920.603475	0.245549
920.783562	0.245128
920.963630	0.245049
921.143680	0.243871
921.323712	0.244132
921.503725	0.243770
921.683721	0.243476
921.863698	0.243059
922.043657	0.243320
922.223598	0.242749
922.403520	0.242531
922.583424	0.241935
922.763311	0.242180
922.943178	0.241478
923.123028	0.240847
923.302859	0.240901
923.482673	0.240506
923.662467	0.239649
923.842244	0.239209
924.022003	0.238249
924.201743	0.237732
924.381465	0.237211
924.561169	0.236751
924.740854	0.236773
924.920522	0.236139
925.100171	0.235769
925.279802	0.235428
925.459414	0.235907
925.639009	0.235661
925.818585	0.235153
925.998143	0.235085
926.177683	0.234098
926.357205	0.233338
926.536708	0.232990
926.716193	0.232125
926.895660	0.231137
927.075109	0.229448
927.254539	0.228755
927.433951	0.228699
927.613345	0.227755
927.792721	0.227436
927.972079	0.226580
928.151418	0.225732
928.330739	0.225498
928.510042	0.224915
928.689327	0.224632
928.868593	0.224107
929.047841	0.223653
929.227071	0.223280
929.406283	0.222600
929.585476	0.222845
929.764652	0.221941
929.943809	0.221468
930.122948	0.221130
930.302068	0.220993
930.481171	0.221065
930.660255	0.220329
930.839321	0.219471
931.018369	0.219570
931.197398	0.219063
931.376409	0.219516
931.555402	0.218145
931.734377	0.217201
931.913334	0.216734
932.092272	0.216203
932.271192	0.215713
932.450094	0.215254
932.628978	0.213749
932.807844	0.212417
932.986691	0.212121
933.165520	0.213265
933.344331	0.213250
933.523123	0.212761
933.701898	0.212406
933.880654	0.211402
934.059392	0.211444
934.238111	0.211274
934.416813	0.211137
934.595496	0.209525
934.774161	0.208493
934.952808	0.207949
935.131437	0.207068
935.310047	0.206576
935.488639	0.206021
935.667213	0.204929
935.845769	0.204649
936.024306	0.204322
936.202825	0.203978
936.381326	0.202681
936.559809	0.202174
936.738274	0.201404
936.916720	0.200425
937.095148	0.200121
937.273558	0.200307
937.451950	0.200223
937.630323	0.199187
937.808678	0.198422
937.987015	0.197924
938.165334	0.197496
938.343635	0.197020
938.521917	0.196567
938.700181	0.195949
938.878427	0.194872
939.056655	0.194215
939.234864	0.193987
939.413055	0.193455
939.591228	0.193162
939.769383	0.192497
939.947519	0.191829
940.125638	0.190443
940.303738	0.189535
940.481820	0.188374
940.659883	0.188027
940.837929	0.187543
941.015956	0.186857
941.193965	0.186138
941.371955	0.185676
941.549928	0.184220
941.727882	0.184773
941.905818	0.184380
942.083736	0.183684
942.261636	0.181947
942.439517	0.181556
942.617380	0.181469
942.795225	0.181355
942.973052	0.179824
943.150860	0.180965
943.328651	0.180319
943.506423	0.179488
943.684176	0.179011
943.861912	0.179661
944.039629	0.178054
944.217328	0.177089
944.395009	0.175955
944.572672	0.175851
944.750317	0.174877
944.927943	0.173023
945.105551	0.172315
945.283141	0.171925
945.460712	0.169117
945.638265	0.168059
945.815801	0.167072
945.993317	0.165901
946.170816	0.164486
946.348297	0.163149
946.525759	0.162850
946.703203	0.162164
946.880629	0.161187
947.058036	0.161661
947.235425	0.162496
947.412797	0.162885
947.590149	0.162528
947.767484	0.162379
947.944800	0.160217
948.122099	0.159128
948.299379	0.158962
948.476640	0.158201
948.653884	0.157168
948.831109	0.156051
949.008316	0.153449
949.185505	0.153183
949.362676	0.152318
949.539828	0.153312
949.716962	0.152129
949.894078	0.152303
950.071176	0.152238
950.248256	0.151056
950.425317	0.148224
950.602360	0.147169
950.779385	0.144994
950.956391	0.143329
951.133380	0.140434
951.310350	0.140058
951.487302	0.136934
951.664235	0.135060
951.841151	0.135923
952.018048	0.135870
952.194927	0.137573
952.371788	0.138013
952.548631	0.138588
952.725455	0.139495
952.902261	0.138849
953.079049	0.139643
953.255819	0.139220
953.432570	0.137152
953.609303	0.137136
953.786018	0.136685
953.962715	0.134594
954.139394	0.133456
954.316054	0.133358
954.492696	0.133355
954.669320	0.132557
954.845926	0.133197
955.022513	0.133215
955.199083	0.133265
955.375634	0.130725
955.552166	0.130838
955.728681	0.129815
955.905177	0.128769
956.081655	0.128671
956.258115	0.127162
956.434557	0.124880
956.610980	0.123375
956.787385	0.122082
956.963772	0.123111
957.140141	0.121791
957.316492	0.121296
957.492824	0.120447
957.669138	0.119746
957.845434	0.120662
958.021712	0.120890
958.197971	0.120691
958.374212	0.120203
958.550435	0.118770
958.726640	0.117837
958.902826	0.118357
959.078995	0.117091
959.255145	0.114384
959.431277	0.113411
959.607390	0.113801
959.783486	0.114361
959.959563	0.114411
960.135622	0.111348
960.311662	0.111881
960.487685	0.113417
960.663689	0.114363
960.839675	0.114587
961.015643	0.113568
961.191593	0.110789
961.367524	0.108772
961.543437	0.107219
961.719332	0.108680
961.895209	0.109700
962.071067	0.104784
962.246907	0.104052
962.422730	0.103412
962.598533	0.104037
962.774319	0.104943
962.950086	0.104556
963.125835	0.105043
963.301566	0.103145
963.477279	0.101136
963.652973	0.103638
963.828650	0.104997
964.004308	0.102870
964.179947	0.103112
964.355569	0.102845
964.531172	0.103466
964.706757	0.103334
964.882324	0.103417
965.057873	0.104198
965.233403	0.103081
965.408916	0.102102
965.584410	0.105638
965.759885	0.104664
965.935343	0.104725
966.110782	0.102786
966.286203	0.100175
966.461606	0.101605
966.636991	0.099680
966.812357	0.098100
966.987705	0.096679
967.163035	0.094942
967.338347	0.094330
967.513641	0.094854
967.688916	0.096787
967.864173	0.097641
968.039412	0.097005
968.214632	0.098459
968.389835	0.098610
968.565019	0.098688
968.740185	0.097542
968.915333	0.097104
969.090462	0.095991
969.265573	0.096510
969.440667	0.097567
969.615741	0.096210
969.790798	0.096636
969.965836	0.097082
970.140856	0.096126
970.315858	0.098543
970.490842	0.098426
970.665808	0.098734
970.840755	0.096066
971.015684	0.095466
971.190595	0.095263
971.365487	0.096218
971.540362	0.097088
971.715218	0.100472
971.890056	0.099188
972.064875	0.099758
972.239677	0.099326
972.414460	0.101247
972.589225	0.101130
972.763972	0.104034
972.938700	0.100300
973.113411	0.100599
973.288103	0.100448
973.462777	0.101783
973.637432	0.102754
973.812070	0.102779
973.986689	0.103503
974.161290	0.102094
974.335873	0.099345
974.510437	0.099655
974.684984	0.098685
974.859512	0.096121
975.034022	0.094331
975.208513	0.092305
975.382987	0.090609
975.557442	0.089646
975.731879	0.092647
975.906298	0.095142
976.080698	0.095246
976.255080	0.094255
976.429445	0.093723
976.603790	0.094514
976.778118	0.096794
976.952427	0.099092
977.126719	0.099320
977.300992	0.098706
977.475246	0.095831
977.649483	0.098183
977.823701	0.098183
977.997901	0.099139
978.172083	0.099527
978.346247	0.098869
978.520392	0.099237
978.694519	0.097735
978.868628	0.097521
979.042719	0.100516
979.216791	0.100095
979.390845	0.101645
979.564882	0.099138
979.738899	0.098277
979.912899	0.095528
980.086880	0.094053
980.260843	0.095793
980.434788	0.095516
980.608715	0.093576
980.782623	0.094323
980.956514	0.094011
981.130386	0.096429
981.304240	0.095876
981.478075	0.096683
981.651892	0.096721
981.825692	0.095499
981.999472	0.093650
982.173235	0.094075
982.346980	0.093498
982.520706	0.092810
982.694414	0.091956
982.868104	0.092229
983.041775	0.093549
983.215428	0.092956
983.389064	0.094343
983.562680	0.095884
983.736279	0.096290
983.909860	0.095551
984.083422	0.095733
984.256966	0.096767
984.430491	0.096598
984.603999	0.097477
984.777488	0.098950
984.950959	0.099446
985.124412	0.100426
985.297847	0.100393
985.471263	0.101046
985.644661	0.102169
985.818041	0.101486
985.991403	0.104754
986.164747	0.104293
986.338072	0.103363
986.511379	0.100574
986.684668	0.099268
986.857938	0.097579
987.031191	0.096499
987.204425	0.096818
987.377641	0.097204
987.550839	0.094182
987.724018	0.093696
987.897179	0.094344
988.070322	0.094344
988.243447	0.094926
988.416554	0.097088
988.589642	0.097703
988.762712	0.095685
988.935764	0.093959
989.108798	0.095895
989.281813	0.096158
989.454811	0.095720
989.627790	0.097299
989.800751	0.096979
989.973693	0.096891
990.146617	0.096630
990.319524	0.097543
990.492412	0.097401
990.665281	0.096733
990.838133	0.097173
991.010966	0.096498
991.183781	0.096421
991.356578	0.098241
991.529356	0.096280
991.702117	0.096211
991.874859	0.096361
992.047583	0.098143
992.220288	0.097390
992.392976	0.096565
992.565645	0.096311
992.738296	0.095562
992.910929	0.094763
993.083543	0.097180
993.256139	0.097410
993.428718	0.096780
993.601277	0.096788
993.773819	0.095893
993.946342	0.095303
994.118848	0.095473
994.291335	0.094540
994.463803	0.093604
994.636254	0.093619
994.808686	0.094582
994.981100	0.095964
995.153496	0.096735
995.325874	0.096555
995.498233	0.095965
995.670574	0.097725
995.842897	0.099473
996.015202	0.100063
996.187488	0.099021
996.359757	0.097975
996.532007	0.098016
996.704239	0.095834
996.876452	0.096438
997.048648	0.096020
997.220825	0.093080
997.392984	0.093405
997.565124	0.092700
997.737247	0.091933
997.909351	0.092655
998.081437	0.092733
998.253505	0.092890
998.425554	0.094552
998.597586	0.094718
998.769599	0.097501
998.941594	0.096234
999.113571	0.096543
999.285529	0.097564
999.457469	0.096504
999.629391	0.094950
999.801295	0.094539
999.973181	0.093706
1000.145048	0.095111
1000.316897	0.095412
1000.488728	0.095936
1000.660541	0.095384
1000.832335	0.095006
1001.004111	0.094221
1001.175869	0.095054
1001.347609	0.096171
1001.519331	0.094988
1001.691034	0.095707
1001.862719	0.094288
1002.034386	0.094777
1002.206035	0.095142
1002.377665	0.095541
1002.549277	0.096768
1002.720871	0.096057
1002.892447	0.095498
1003.064004	0.096709
1003.235544	0.095497
1003.407065	0.096062
1003.578568	0.095213
1003.750052	0.094621
1003.921519	0.094608
1004.092967	0.095672
1004.264397	0.094996
1004.435809	0.095696
1004.607202	0.093826
1004.778577	0.094401
1004.949934	0.095655
1005.121273	0.095680
1005.292594	0.095478
1005.463896	0.094322
1005.635180	0.092779
1005.806446	0.093486
1005.977694	0.093923
1006.148923	0.095549
1006.320135	0.095206
1006.491328	0.095977
1006.662503	0.096237
1006.833659	0.097968
1007.004798	0.098509
1007.175918	0.098845
1007.347020	0.097735
1007.518103	0.096157
1007.689169	0.096187
1007.860216	0.096345
1008.031245	0.094238
1008.202256	0.094512
1008.373248	0.092266
1008.544223	0.094102
1008.715179	0.094829
1008.886117	0.095694
1009.057036	0.097362
1009.227938	0.096514
1009.398821	0.095620
1009.569686	0.096794
1009.740533	0.095703
1009.911361	0.094308
1010.082172	0.093426
1010.252964	0.092090
1010.423738	0.092638
1010.594493	0.091107
1010.765231	0.092075
1010.935950	0.092090
1011.106651	0.090623
1011.277334	0.092927
1011.447998	0.095787
1011.618645	0.093352
1011.789273	0.095514
1011.959882	0.096769
1012.130474	0.099207
1012.301048	0.098959
1012.471603	0.100121
1012.642140	0.102053
1012.812658	0.102064
1012.983159	0.102638
1013.153641	0.103271
1013.324105	0.102526
1013.494551	0.101821
1013.664979	0.099780
1013.835388	0.100000
1014.005779	0.099875
1014.176152	0.099531
1014.346507	0.097243
1014.516843	0.097128
1014.687162	0.097198
1014.857462	0.096163
1015.027744	0.095849
1015.198007	0.096133
1015.368252	0.095550
1015.538480	0.095557
1015.708689	0.096182
1015.878879	0.096982
1016.049052	0.097154
1016.219206	0.097780
1016.389342	0.099911
1016.559460	0.099834
1016.729559	0.100029
1016.899641	0.099750
1017.069704	0.099488
1017.239749	0.097488
1017.409775	0.096062
1017.579784	0.096639
1017.749774	0.097043
1017.919746	0.095445
1018.089700	0.096056
1018.259635	0.095974
1018.429553	0.097854
1018.599452	0.098880
1018.769333	0.098734
1018.939195	0.101288
1019.109040	0.100404
1019.278866	0.102223
1019.448674	0.101837
1019.618464	0.102190
1019.788235	0.103614
1019.957989	0.101232
1020.127724	0.100940
1020.297441	0.101218
1020.467139	0.101431
1020.636820	0.101273
1020.806482	0.100980
1020.976126	0.101329
1021.145752	0.100523
1021.315359	0.098489
1021.484948	0.101213
1021.654519	0.101509
1021.824072	0.102500
1021.993607	0.101518
1022.163123	0.101751
1022.332621	0.099898
1022.502101	0.101421
1022.671563	0.101318
1022.841007	0.103750
1023.010432	0.102159
1023.179839	0.102382
1023.349228	0.100245
1023.518598	0.101570
1023.687951	0.100962
1023.857285	0.101970
1024.026601	0.100364
1024.195899	0.100572
1024.365178	0.099800
1024.534439	0.100862
1024.703682	0.100471
1024.872907	0.102889
1025.042114	0.101349
1025.211302	0.100525
1025.380472	0.100276
1025.549624	0.099244
1025.718758	0.099092
1025.887873	0.098685
1026.056970	0.096641
1026.226049	0.096949
1026.395110	0.096134
1026.564153	0.097047
1026.733177	0.097786
1026.902183	0.096543
1027.071171	0.097374
1027.240141	0.097115
1027.409092	0.096060
1027.578026	0.097858
1027.746940	0.096975
1027.915837	0.096484
1028.084716	0.095675
1028.253576	0.095465
1028.422418	0.096181
1028.591242	0.095966
1028.760048	0.097472
1028.928835	0.099045
1029.097604	0.097612
1029.266355	0.097816
1029.435088	0.097933
1029.603803	0.097535
1029.772499	0.097746
1029.941177	0.098190
1030.109837	0.097500
1030.278478	0.095286
1030.447102	0.094884
1030.615707	0.095539
1030.784294	0.094197
1030.952863	0.095037
1031.121413	0.094645
1031.289945	0.094832
1031.458460	0.094172
1031.626955	0.095428
1031.795433	0.097271
1031.963892	0.094610
1032.132334	0.095838
1032.300756	0.097674
1032.469161	0.097369
1032.637548	0.099000
1032.805916	0.099779
1032.974266	0.101062
1033.142598	0.100743
1033.310911	0.099653
1033.479207	0.102445
1033.647484	0.101189
1033.815743	0.100505
1033.983983	0.100038
1034.152206	0.097908
1034.320410	0.096938
1034.488596	0.096803
1034.656764	0.097543
1034.824914	0.097133
1034.993045	0.095687
1035.161158	0.096292
1035.329253	0.096665
1035.497330	0.096951
1035.665388	0.097818
1035.833428	0.097004
1036.001450	0.097849
1036.169454	0.096864
1036.337440	0.097466
1036.505407	0.099319
1036.673356	0.100421
1036.841287	0.099812
1037.009200	0.099521
1037.177094	0.100361
1037.344970	0.100973
1037.512828	0.099357
1037.680668	0.101500
1037.848489	0.101779
1038.016293	0.100699
1038.184078	0.100715
1038.351845	0.099989
1038.519593	0.100730
1038.687324	0.101904
1038.855036	0.103210
1039.022730	0.102624
1039.190406	0.099740
1039.358063	0.100959
1039.525702	0.102045
1039.693323	0.099442
1039.860926	0.101824
1040.028511	0.101808
1040.196077	0.099471
1040.363625	0.097868
1040.531155	0.099174
1040.698667	0.100409
1040.866161	0.099150
1041.033636	0.098661
1041.201093	0.100558
1041.368532	0.099555
1041.535952	0.100160
1041.703355	0.099776
1041.870739	0.102176
1042.038105	0.101349
1042.205452	0.101127
1042.372782	0.101306
1042.540093	0.102662
1042.707386	0.102906
1042.874661	0.102798
1043.041918	0.101501
1043.209156	0.102445
1043.376376	0.101202
1043.543578	0.101705
1043.710762	0.102857
1043.877927	0.103166
1044.045074	0.101358
1044.212203	0.102005
1044.379314	0.102638
1044.546407	0.103176
1044.713481	0.104592
1044.880537	0.104698
1045.047575	0.103565
1045.214595	0.101950
1045.381596	0.102672
1045.548579	0.102782
1045.715544	0.101738
1045.882491	0.103086
1046.049420	0.102396
1046.216330	0.102649
1046.383222	0.103206
1046.550096	0.104125
1046.716951	0.105155
1046.883789	0.103776
1047.050608	0.105267
1047.217409	0.105544
1047.384192	0.103379
1047.550956	0.104725
1047.717703	0.103096
1047.884431	0.101721
1048.051140	0.102334
1048.217832	0.102160
1048.384505	0.102622
1048.551161	0.102645
1048.717798	0.101188
1048.884416	0.102139
1049.051017	0.100953
1049.217599	0.102584
1049.384163	0.102758
1049.550709	0.102344
1049.717237	0.102103
1049.883746	0.103072
1050.050237	0.104293
1050.216710	0.104281
1050.383165	0.103856
1050.549601	0.106147
1050.716019	0.106020
1050.882420	0.105547
1051.048801	0.106217
1051.215165	0.108054
1051.381510	0.107450
1051.547837	0.105914
1051.714146	0.106746
1051.880437	0.107766
1052.046709	0.108074
1052.212964	0.107041
1052.379200	0.108996
1052.545417	0.107993
1052.711617	0.108176
1052.877798	0.107623
1053.043961	0.107708
1053.210106	0.109939
1053.376233	0.108937
1053.542341	0.107127
1053.708432	0.107060
1053.874504	0.106940
1054.040557	0.108444
1054.206593	0.107577
1054.372610	0.107231
1054.538609	0.105451
1054.704590	0.102920
1054.870553	0.103338
1055.036497	0.103339
1055.202424	0.104022
1055.368331	0.104107
1055.534221	0.103728
1055.700093	0.102774
1055.865946	0.104300
1056.031781	0.106429
1056.197598	0.108477
1056.363397	0.108113
1056.529177	0.107960
1056.694939	0.108915
1056.860683	0.110660
1057.026409	0.109266
1057.192116	0.111384
1057.357806	0.111085
1057.523477	0.112362
1057.689130	0.111370
1057.854764	0.112281
1058.020381	0.112399
1058.185979	0.111914
1058.351559	0.109355
1058.517120	0.113504
1058.682664	0.115036
1058.848189	0.115164
1059.013696	0.113067
1059.179185	0.113034
1059.344656	0.112368
1059.510108	0.112682
1059.675542	0.113061
1059.840958	0.113702
1060.006356	0.110310
1060.171735	0.107509
1060.337096	0.107056
1060.502439	0.107622
1060.667764	0.106779
1060.833071	0.106114
1060.998359	0.106766
1061.163629	0.106318
1061.328881	0.108133
1061.494115	0.108705
1061.659330	0.109974
1061.824527	0.111332
1061.989706	0.111760
1062.154867	0.114263
1062.320010	0.113876
1062.485134	0.115457
1062.650240	0.116856
1062.815328	0.114296
1062.980398	0.116421
1063.145449	0.115534
1063.310482	0.114109
1063.475497	0.113613
1063.640494	0.112805
1063.805473	0.114686
1063.970433	0.112953
1064.135375	0.111066
1064.300299	0.113331
1064.465204	0.111014
1064.630092	0.111756
1064.794961	0.113193
1064.959812	0.113674
1065.124645	0.114513
1065.289459	0.114164
1065.454256	0.114516
1065.619034	0.115622
1065.783793	0.115529
1065.948535	0.114733
1066.113258	0.115692
1066.277964	0.115403
1066.442651	0.114799
1066.607319	0.114237
1066.771970	0.113877
1066.936602	0.114541
1067.101216	0.114804
1067.265812	0.114571
1067.430389	0.115497
1067.594949	0.114921
1067.759490	0.114696
1067.924013	0.117184
1068.088518	0.117657
1068.253004	0.120363
1068.417472	0.120296
1068.581922	0.121018
1068.746354	0.122213
1068.910768	0.123700
1069.075163	0.122956
1069.239540	0.122304
1069.403899	0.119534
1069.568240	0.118494
1069.732562	0.116458
1069.896866	0.115965
1070.061152	0.114693
1070.225420	0.113231
1070.389670	0.112841
1070.553901	0.112698
1070.718114	0.114109
1070.882309	0.113677
1071.046486	0.114898
1071.210644	0.115833
1071.374784	0.116633
1071.538906	0.117364
1071.703010	0.118368
1071.867096	0.118839
1072.031163	0.119174
1072.195212	0.119211
1072.359243	0.124161
1072.523256	0.122915
1072.687250	0.121274
1072.851226	0.120754
1073.015184	0.121468
1073.179124	0.120521
1073.343045	0.120681
1073.506949	0.121736
1073.670834	0.119734
1073.834701	0.117707
1073.998549	0.118153
1074.162380	0.120351
1074.326192	0.121446
1074.489986	0.121463
1074.653761	0.121911
1074.817519	0.122262
1074.981258	0.124490
1075.144979	0.128234
1075.308682	0.127744
1075.472367	0.130367
1075.636033	0.130208
1075.799681	0.130320
1075.963311	0.130236
1076.126923	0.130313
1076.290516	0.129616
1076.454092	0.126982
1076.617649	0.125902
1076.781187	0.125417
1076.944708	0.126145
1077.108210	0.126763
1077.271695	0.126612
1077.435160	0.128130
1077.598608	0.129562
1077.762038	0.132442
1077.925449	0.133052
1078.088842	0.134077
1078.252217	0.134672
1078.415573	0.132767
1078.578912	0.131450
1078.742232	0.130651
1078.905534	0.130405
1079.068817	0.130955
1079.232083	0.129414
1079.395330	0.130942
1079.558559	0.129545
1079.721770	0.129731
1079.884962	0.130392
1080.048136	0.129253
1080.211293	0.128952
1080.374430	0.130153
1080.537550	0.129473
1080.700651	0.130694
1080.863735	0.128788
1081.026800	0.127729
1081.189846	0.127397
1081.352875	0.125704
1081.515885	0.126779
1081.678877	0.128452
1081.841851	0.125366
1082.004807	0.127317
1082.167744	0.126190
1082.330663	0.125246
1082.493564	0.127967
1082.656447	0.126914
1082.819312	0.127507
1082.982158	0.129457
1083.144986	0.129149
1083.307796	0.130973
1083.470587	0.128915
1083.633361	0.129101
1083.796116	0.129439
1083.958853	0.127647
1084.121571	0.128801
1084.284272	0.129436
1084.446954	0.128346
1084.609618	0.125297
1084.772264	0.125693
1084.934892	0.124374
1085.097501	0.123910
1085.260092	0.126047
1085.422665	0.127025
1085.585220	0.130583
1085.747756	0.131675
1085.910274	0.135678
1086.072774	0.140944
1086.235256	0.139986
1086.397720	0.141209
1086.560165	0.141613
1086.722592	0.141887
1086.885001	0.143976
1087.047392	0.139547
1087.209764	0.140213
1087.372119	0.137506
1087.534455	0.135955
1087.696772	0.133646
1087.859072	0.135970
1088.021353	0.134484
1088.183616	0.134476
1088.345861	0.133877
1088.508088	0.136818
1088.670296	0.132876
1088.832486	0.133007
1088.994658	0.131938
1089.156812	0.134158
1089.318948	0.132152
1089.481065	0.133290
1089.643164	0.133152
1089.805245	0.133196
1089.967308	0.132133
1090.129352	0.135163
1090.291378	0.137743
1090.453386	0.136726
1090.615376	0.135724
1090.777347	0.133472
1090.939301	0.135626
1091.101236	0.134004
1091.263153	0.134906
1091.425051	0.135159
1091.586932	0.132133
1091.748794	0.130457
1091.910638	0.132175
1092.072463	0.132884
1092.234271	0.133326
1092.396060	0.132474
1092.557831	0.132655
1092.719584	0.131001
1092.881319	0.133393
1093.043035	0.136210
1093.204733	0.137719
1093.366413	0.139618
1093.528075	0.139607
1093.689718	0.143898
1093.851343	0.145315
1094.012950	0.147600
1094.174539	0.148700
1094.336110	0.148554
1094.497662	0.150838
1094.659196	0.147629
1094.820712	0.146569
1094.982210	0.147522
1095.143689	0.147175
1095.305151	0.144019
1095.466594	0.142930
1095.628018	0.141892
1095.789425	0.141149
1095.950813	0.139733
1096.112183	0.141803
1096.273535	0.138893
1096.434869	0.140058
1096.596184	0.137249
1096.757482	0.136626
1096.918761	0.137588
1097.080021	0.135182
1097.241264	0.133189
1097.402488	0.133521
1097.563694	0.134505
1097.724882	0.135386
1097.886052	0.136490
1098.047203	0.136832
1098.208336	0.138534
1098.369451	0.139064
1098.530548	0.138712
1098.691627	0.138159
1098.852687	0.139366
1099.013729	0.134460
1099.174753	0.138517
1099.335758	0.137893
1099.496746	0.138287
1099.657715	0.137073
1099.818666	0.134945
1099.979599	0.140973
1100.140513	0.143197
1100.301409	0.142116
1100.462287	0.147414
1100.623147	0.144010
1100.783989	0.142326
1100.944812	0.142863
1101.105617	0.145679
1101.266404	0.145204
1101.427173	0.142495
1101.587923	0.140567
1101.748656	0.139479
1101.909370	0.134396
1102.070066	0.137040
1102.230743	0.139145
1102.391403	0.139509
1102.552044	0.137225
1102.712667	0.139145
1102.873271	0.136908
1103.033858	0.142238
1103.194426	0.140353
1103.354976	0.142880
1103.515508	0.136547
1103.676021	0.135227
1103.836517	0.135676
1103.996994	0.136520
1104.157453	0.138994
1104.317893	0.139952
1104.478316	0.136525
1104.638720	0.138662
1104.799106	0.137227
1104.959474	0.141779
1105.119823	0.139902
1105.280155	0.137238
1105.440468	0.138999
1105.600763	0.139648
1105.761039	0.142403
1105.921298	0.141279
1106.081538	0.139687
1106.241760	0.142199
1106.401964	0.142529
1106.562149	0.144059
1106.722316	0.144783
1106.882465	0.143117
1107.042596	0.140060
1107.202709	0.136014
1107.362803	0.137234
1107.522879	0.142455
1107.682937	0.143016
1107.842977	0.142542
1108.002999	0.144379
1108.163002	0.143169
1108.322987	0.145225
1108.482954	0.147784
1108.642902	0.149641
1108.802833	0.149505
1108.962745	0.148215
1109.122639	0.146697
1109.282515	0.148298
1109.442372	0.148809
1109.602211	0.148850
1109.762032	0.147524
1109.921835	0.145912
1110.081620	0.149929
1110.241386	0.148625
1110.401134	0.144789
1110.560864	0.145526
1110.720576	0.147038
1110.880269	0.149082
1111.039945	0.148594
1111.199602	0.148854
1111.359240	0.148026
1111.518861	0.145792
1111.678463	0.148271
1111.838047	0.149315
1111.997613	0.148079
1112.157161	0.146212
1112.316690	0.141167
1112.476202	0.143018
1112.635695	0.140706
1112.795169	0.140709
1112.954626	0.137218
1113.114064	0.136521
1113.273484	0.141185
1113.432886	0.141895
1113.592270	0.141994
1113.751635	0.142337
1113.910983	0.143446
1114.070312	0.145666
1114.229622	0.144979
1114.388915	0.147389
1114.548189	0.140917
1114.707445	0.139525
1114.866683	0.140099
1115.025903	0.142769
1115.185104	0.143668
1115.344287	0.139083
1115.503452	0.140755
1115.662599	0.140470
1115.821727	0.141589
1115.980838	0.143261
1116.139930	0.141511
1116.299004	0.142142
1116.458059	0.142650
1116.617097	0.144182
1116.776116	0.151070
1116.935117	0.150672
1117.094099	0.150548
1117.253064	0.152214
1117.412010	0.155420
1117.570938	0.155280
1117.729848	0.153383
1117.888740	0.151366
1118.047613	0.146980
1118.206468	0.150950
1118.365305	0.152056
1118.524124	0.151915
1118.682924	0.148637
1118.841707	0.153750
1119.000471	0.154490
1119.159216	0.153784
1119.317944	0.150849
1119.476653	0.153601
1119.635344	0.150003
1119.794017	0.145968
1119.952672	0.144225
1120.111308	0.145054
1120.269927	0.144150
1120.428527	0.143754
1120.587108	0.140064
1120.745672	0.142502
1120.904217	0.141881
1121.062744	0.143169
1121.221253	0.145838
1121.379744	0.144357
1121.538216	0.140123
1121.696671	0.140127
1121.855107	0.138233
1122.013524	0.139473
1122.171924	0.135371
1122.330305	0.132180
1122.488668	0.126640
1122.647013	0.122631
1122.805340	0.127192
1122.963648	0.133620
1123.121938	0.131151
1123.280210	0.132746
1123.438464	0.131577
1123.596700	0.134701
1123.754917	0.136716
1123.913116	0.139518
1124.071297	0.140352
1124.229459	0.137686
1124.387604	0.131894
1124.545730	0.131095
1124.703838	0.132270
1124.861928	0.136772
1125.019999	0.137552
1125.178052	0.140602
1125.336088	0.138407
1125.494104	0.140308
1125.652103	0.137257
1125.810083	0.139950
1125.968045	0.142240
1126.125989	0.138818
1126.283915	0.140163
1126.441823	0.138490
1126.599712	0.142599
1126.757583	0.148706
1126.915436	0.151778
1127.073270	0.152265
1127.231087	0.153625
1127.388885	0.156723
1127.546665	0.162982
1127.704426	0.164495
1127.862170	0.169422
1128.019895	0.163459
1128.177602	0.157868
1128.335291	0.155210
1128.492961	0.167807
1128.650614	0.165351
1128.808248	0.161310
1128.965864	0.162204
1129.123461	0.164851
1129.281041	0.162608
1129.438602	0.159212
1129.596145	0.155855
1129.753670	0.152707
1129.911176	0.149935
1130.068665	0.156805
1130.226135	0.158167
1130.383587	0.152650
1130.541020	0.148608
1130.698436	0.150796
1130.855833	0.154234
1131.013212	0.158689
1131.170573	0.167596
1131.327915	0.162571
1131.485239	0.157251
1131.642545	0.156287
1131.799833	0.163597
1131.957103	0.164287
1132.114354	0.160258
1132.271588	0.163100
1132.428803	0.165690
1132.585999	0.162596
1132.743178	0.165148
1132.900338	0.164456
1133.057480	0.166554
1133.214604	0.152027
1133.371710	0.152161
1133.528797	0.154986
1133.685866	0.154115
1133.842917	0.150872
1133.999950	0.142025
1134.156964	0.144355
1134.313960	0.146452
1134.470938	0.141445
1134.627898	0.154505
1134.784840	0.148675
1134.941763	0.148357
1135.098668	0.147658
1135.255555	0.152209
1135.412424	0.162283
1135.569274	0.163159
1135.726107	0.157820
1135.882921	0.158353
1136.039716	0.149215
1136.196494	0.151083
1136.353253	0.149415
1136.509995	0.148965
1136.666717	0.147339
1136.823422	0.145268
1136.980109	0.148616
1137.136777	0.152767
1137.293427	0.152236
1137.450059	0.159682
1137.606672	0.158539
1137.763267	0.159155
1137.919844	0.160970
1138.076403	0.159977
1138.232944	0.166217
1138.389466	0.158523
1138.545971	0.163746
1138.702457	0.166665
1138.858924	0.165194
1139.015374	0.172496
1139.171805	0.163415
1139.328218	0.158975
1139.484613	0.159485
1139.640990	0.152240
1139.797348	0.155943
1139.953688	0.148435
1140.110010	0.152757
1140.266314	0.146852
1140.422600	0.143056
1140.578867	0.150421
1140.735116	0.157831
1140.891347	0.154460
1141.047559	0.157845
1141.203754	0.153971
1141.359930	0.160112
1141.516088	0.159180
1141.672228	0.163718
1141.828349	0.161416
1141.984452	0.161707
1142.140537	0.159596
1142.296604	0.161887
1142.452653	0.158249
1142.608683	0.160354
1142.764695	0.157184
1142.920689	0.152303
1143.076665	0.152151
1143.232622	0.157250
1143.388562	0.156662
1143.544483	0.157674
1143.700385	0.154482
1143.856270	0.155543
1144.012136	0.149242
1144.167985	0.150544
1144.323814	0.145445
1144.479626	0.148779
1144.635420	0.156876
1144.791195	0.155514
1144.946952	0.158340
1145.102691	0.155183
1145.258411	0.159117
1145.414113	0.166000
1145.569798	0.162315
1145.725463	0.163629
1145.881111	0.157042
1146.036741	0.150384
1146.192352	0.150909
1146.347945	0.149927
1146.503519	0.157610
1146.659076	0.162781
1146.814614	0.157532
1146.970134	0.163215
1147.125636	0.174884
1147.281120	0.176643
1147.436585	0.185466
1147.592032	0.185127
1147.747461	0.173088
1147.902872	0.176120
1148.058265	0.161302
1148.213639	0.173694
1148.368995	0.168719
1148.524333	0.171512
1148.679653	0.178252
1148.834954	0.166303
1148.990237	0.170631
1149.145502	0.178137
1149.300749	0.181346
1149.455977	0.183156
1149.611188	0.173181
1149.766380	0.172350
1149.921553	0.158390
1150.076709	0.155653
1150.231846	0.161048
1150.386966	0.161735
1150.542066	0.159703
1150.697149	0.158248
1150.852214	0.164762
1151.007260	0.173764
1151.162288	0.178672
1151.317298	0.182439
1151.472289	0.183875
1151.627263	0.181261
1151.782218	0.184437
1151.937155	0.191123
1152.092073	0.179159
1152.246974	0.180253
1152.401856	0.168491
1152.556720	0.168376
1152.711566	0.166179
1152.866393	0.161013
1153.021203	0.158589
1153.175994	0.157935
1153.330767	0.154412
1153.485521	0.162814
1153.640258	0.158839
1153.794976	0.161941
1153.949676	0.166022
1154.104358	0.164571
1154.259021	0.172605
1154.413667	0.171628
1154.568294	0.163165
1154.722903	0.168059
1154.877493	0.164791
1155.032066	0.162129
1155.186620	0.168671
1155.341156	0.161918
1155.495674	0.166057
1155.650173	0.160062
1155.804654	0.164423
1155.959118	0.166556
1156.113562	0.160105
1156.267989	0.156305
1156.422397	0.158653
1156.576788	0.153177
1156.731160	0.157601
1156.885513	0.164023
1157.039849	0.165941
1157.194166	0.161144
1157.348465	0.169865
1157.502746	0.161588
1157.657009	0.175428
1157.811253	0.174749
1157.965479	0.173165
1158.119687	0.168645
1158.273877	0.169060
1158.428048	0.175585
1158.582201	0.176620
1158.736337	0.178836
1158.890453	0.187365
1159.044552	0.184816
1159.198632	0.192025
1159.352694	0.198991
1159.506738	0.201875
1159.660764	0.193096
1159.814771	0.187504
1159.968761	0.193851
1160.122732	0.180263
1160.276685	0.177174
1160.430619	0.160731
1160.584535	0.158512
1160.738434	0.151809
1160.892313	0.153496
1161.046175	0.160909
1161.200019	0.157874
1161.353844	0.152485
1161.507651	0.156530
1161.661440	0.161273
1161.815210	0.168603
1161.968962	0.159768
1162.122697	0.158144
1162.276412	0.148759
1162.430110	0.145714
1162.583789	0.149333
1162.737451	0.148661
1162.891094	0.154549
1163.044718	0.153782
1163.198325	0.149642
1163.351913	0.156658
1163.505483	0.163532
1163.659035	0.184595
1163.812569	0.194943
1163.966084	0.185987
1164.119581	0.199029
1164.273060	0.189963
1164.426521	0.193851
1164.579964	0.197918
1164.733388	0.197074
1164.886794	0.193780
1165.040182	0.186246
1165.193551	0.176676
1165.346903	0.183742
1165.500236	0.173385
1165.653551	0.173955
1165.806848	0.180646
1165.960126	0.190057
1166.113386	0.189092
1166.266628	0.197827
1166.419852	0.187353
1166.573058	0.178767
1166.726245	0.176753
1166.879414	0.176020
1167.032565	0.184698
1167.185698	0.175070
1167.338812	0.171817
1167.491909	0.175827
1167.644987	0.162246
1167.798046	0.167344
1167.951088	0.166354
1168.104111	0.167704
1168.257117	0.177764
1168.410103	0.177578
1168.563072	0.180306
1168.716023	0.183335
1168.868955	0.186884
1169.021869	0.176289
1169.174765	0.179955
1169.327642	0.163988
1169.480501	0.158917
1169.633343	0.142229
1169.786165	0.141331
1169.938970	0.132746
1170.091757	0.124591
1170.244525	0.100349
1170.397275	0.112007
1170.550007	0.101420
1170.702720	0.113937
1170.855415	0.115662
1171.008092	0.116082
1171.160751	0.106022
1171.313392	0.105146
1171.466014	0.143786
1171.618619	0.112473
1171.771205	0.112473
1171.923772	0.112473
