sample name	sample
index	1173
start time	 04-26-2021  11:03:46 AM
880	0.428269
Peak Time (s)	92.035
Peak Height 	0.4283
calc peak height	90,93
Baseline Time (s)	9.037
Baseline Value 	-0.00376
subtract baseline	10,4
Abs	0.315045
Peak Time (s)	92.535
Peak Height 	0.315
calc peak height	90,93
Baseline Time (s)	9.037
Baseline Value 	0.002793
subtract baseline	10,3
PK_550	0.174950
Peak Time (s)	91.037
Peak Height 	0.1749
calc peak height	90,93
Baseline Time (s)	10.037
Baseline Value 	3.1911E-4
subtract baseline	10,2
PK_880	0.298223
Peak Time (s)	91.037
Peak Height 	0.2982
calc peak height	90,93
Baseline Time (s)	9.537
Baseline Value 	-5.8684E-4
subtract baseline	10,1


Time (s)	A880-A510	A880-A775	A880-A975	A880	I510	I775	I975	I880	
0.037000	0.001136	0.000107	-0.004241	0.003464	6156.340406	43860.194368	3824.792294	22648.127830
0.537500	-0.002823	-0.001236	-0.004191	0.006850	6100.821907	43416.249462	3817.068510	22494.248937
1.038000	-0.000483	-0.000513	-0.003481	0.004170	6138.668238	43735.184199	3824.917765	22615.949501
1.535500	0.001998	-0.000164	0.002597	0.001694	6176.463678	44001.890565	3845.002206	22729.023574
2.035500	-0.000477	-0.000240	-0.001742	0.001662	6157.778291	43997.661201	3834.840298	22730.498095
2.536000	-0.001108	-0.000837	-0.002056	0.002110	6149.565074	43898.903106	3833.053715	22710.011232
3.035500	0.002290	-0.000136	0.000382	-0.000708	6197.192994	44232.757604	3845.444583	22839.392466
3.536500	0.001369	-0.000224	-0.001254	0.000271	6182.567302	44131.235494	3839.261397	22794.353793
4.037000	-0.001395	-0.000185	0.000740	0.000499	6159.654972	44113.242945	3843.434634	22783.870303
4.537000	0.000703	-0.000544	-0.003187	0.000907	6172.570391	44040.442526	3833.220362	22765.127278
5.037500	-0.001123	-0.000235	-0.003967	0.000662	6160.481230	44093.024606	3831.968198	22776.360586
5.535000	0.002123	-0.000469	-0.004150	0.000156	6189.245645	44118.794523	3832.724037	22799.609782
6.035000	0.001079	0.000574	-0.003020	0.000953	6175.103513	44142.266799	3833.506386	22763.026052
6.535500	0.000871	0.000195	-0.003644	0.000697	6175.471062	44130.562906	3832.642668	22774.768117
7.035500	-0.000358	-0.000048	-0.001765	-0.000115	6172.272359	44184.561207	3838.966800	22812.076697
7.536000	0.002281	-0.000305	-0.002451	0.000327	6189.146531	44118.143029	3836.310715	22791.748031
8.036000	0.000721	0.000136	0.002420	0.000055	6179.247400	44185.936101	3848.474602	22804.268066
8.536500	-0.000879	-0.000085	-0.000597	-0.000066	6167.912953	44176.473563	3841.606515	22809.836716
9.037000	0.001583	-0.000362	0.000000	0.000000	6186.295960	44143.831977	3842.863326	22806.803172
9.537000	0.000000	0.000076	0.000777	0.000290	6171.915383	44157.856144	3844.016459	22793.467591
10.037000	0.001003	0.000000	-0.001217	0.000215	6180.179688	44157.793156	3839.480631	22796.907641
10.538000	-0.001517	0.000564	0.003684	0.000546	6158.364325	44179.959294	3850.315804	22781.714337
11.035000	-0.000989	0.000102	-0.003558	-0.000260	6168.548741	44212.704463	3835.089141	22818.745816
11.535500	0.000396	-0.000151	0.001510	-0.000327	6179.681008	44194.992050	3847.219219	22821.840996
12.035500	0.000783	0.000595	-0.001265	0.000113	6179.280158	44224.181725	3839.607978	22801.618266
12.536000	0.002848	0.000011	-0.003243	0.000093	6195.322538	44170.471964	3834.999956	22802.531726
13.036000	-0.003106	0.000431	-0.005594	0.005835	6106.308419	43667.394332	3816.173531	22540.243872
13.537000	0.001347	-0.000026	-0.000606	-0.000094	6185.198944	44184.727816	3841.651511	22811.118090
14.036500	-0.000991	0.000265	-0.004618	0.003108	6142.872601	43908.713034	3824.743751	22664.391465
14.538000	-0.001843	0.000520	-0.002038	0.003154	6136.054679	43928.490068	3830.651654	22662.270479
15.034500	-0.004025	0.000165	-0.000830	0.006232	6096.440613	43605.117865	3826.289599	22522.234748
15.535000	0.001952	0.000909	-0.000691	0.001010	6181.367763	44168.657852	3838.847336	22760.427746
16.035500	0.000455	-0.000107	0.000963	0.000023	6177.447796	44165.916102	3845.090633	22805.749270
16.535500	0.000333	0.000554	-0.000778	0.000616	6171.974970	44172.355583	3839.569816	22778.507860
17.035500	-0.000934	0.001056	0.002422	0.003999	6136.539870	43899.194154	3839.136975	22623.709160
17.536000	0.001697	0.000290	-0.002742	0.001013	6179.385052	44109.568688	3834.016619	22760.272984
18.036500	0.000925	-0.000186	0.000041	0.001456	6170.075264	44022.403780	3839.521583	22739.963237
18.536000	0.000299	0.001138	-0.002765	0.002500	6157.313011	44048.950894	3830.480584	22692.166440
19.037000	-0.000161	-0.000746	-0.002005	0.002721	6152.121517	43849.722418	3831.742129	22682.048676
19.537500	-0.000300	-0.001367	0.000186	0.001241	6162.352377	43930.912223	3840.371857	22749.823969
20.037500	0.000337	-0.000182	-0.002030	0.001766	6163.199584	43993.386280	3833.920601	22725.748275
20.535500	-0.000084	0.000951	-0.004278	0.002517	6154.260953	44029.577739	3826.910586	22691.378602
21.035500	-0.000839	0.000337	-0.000819	0.004437	6133.941578	43790.040794	3830.501240	22603.772321
21.536000	-0.001275	0.000342	-0.003932	0.002296	6146.876415	43992.724660	3828.231484	22701.464393
22.036000	0.000970	-0.000030	0.000253	0.002172	6164.933919	43969.271391	3838.332834	22707.141964
22.536500	-0.003172	-0.000103	-0.003192	0.002413	6131.597098	43939.554607	3829.685221	22696.110405
23.037000	0.000258	-0.000179	-0.002191	0.002157	6159.610159	43956.584380	3832.626366	22707.831352
23.536000	0.002019	0.000561	-0.000901	0.002514	6170.347406	43992.873508	3834.813548	22691.500277
24.037000	0.002199	0.000849	0.001659	0.003207	6166.426401	43954.642606	3839.209101	22659.869773
24.537500	0.001038	0.001011	0.001241	0.002933	6159.645486	43995.777819	3838.867253	22672.349717
25.035000	-0.000365	-0.000338	-0.006060	0.002003	6156.036989	43956.147487	3823.959371	22714.893168
25.535500	0.000904	-0.000344	-0.001623	0.001981	6165.893629	43957.652259	3834.371619	22715.900060
26.036000	0.000001	0.000501	-0.001658	0.003689	6145.992794	43876.168348	3830.289287	22637.873377
26.536000	0.001314	0.000326	0.003105	0.002098	6168.133018	44010.008439	3845.250067	22710.546339
27.036500	0.000206	0.000578	-0.003596	0.005663	6132.569209	43697.329307	3821.185923	22548.022571
27.536500	0.002320	0.000690	0.005790	-0.000278	6194.103533	44270.406062	3857.320345	22819.571918
28.037000	-0.001175	0.000272	-0.006281	0.004124	6133.772849	43813.440157	3818.535174	22618.037820
28.539500	0.001881	0.000616	0.001245	0.000939	6181.371024	44147.592277	3843.587905	22763.675915
29.037000	0.000345	0.000447	0.000088	0.000383	6173.845623	44184.266954	3842.163466	22789.175051
29.537500	0.000115	0.000496	-0.000610	0.000329	6172.496476	44194.135073	3840.642561	22791.664072
30.035000	-0.002153	0.000985	-0.001749	0.004628	6122.563899	43833.214957	3827.883697	22595.090479
30.535500	-0.002609	-0.000835	-0.003019	0.001919	6139.607591	43917.041792	3831.243618	22718.721080
31.035500	-0.002191	0.000351	-0.002502	0.005354	6116.802379	43705.010435	3824.441494	22562.057469
31.536500	0.003711	0.000692	0.003596	0.000691	6197.363947	44178.307323	3849.759748	22775.031867
32.040500	-0.001665	0.000021	-0.002043	0.004068	6130.485803	43795.058415	3828.504443	22620.596626
32.536500	-0.001226	-0.000248	0.004501	0.000099	6163.998568	44145.226720	3853.332896	22802.247163
33.037000	-0.001800	0.000423	-0.000436	0.006571	6110.593960	43597.518128	3826.417704	22506.874408
33.537000	0.000632	0.000714	-0.001883	-0.001208	6188.265233	44361.466237	3841.266301	22862.419277
34.037500	-0.000068	-0.000089	-0.003851	0.003974	6143.301120	43793.614471	3824.513775	22624.870545
34.535000	0.000671	0.000352	-0.001298	0.002901	6157.091414	43936.454719	3832.976408	22673.829653
35.035500	-0.001931	-0.000081	0.000039	0.003013	6136.453801	43884.983622	3835.849627	22668.691581
35.535500	-0.001225	0.000678	-0.005209	0.002978	6142.083202	43960.084338	3823.673795	22670.320688
36.035500	0.001027	0.000109	0.000038	0.003635	6154.204429	43844.174008	3834.386646	22640.306238
36.536500	-0.001572	-0.000037	0.000988	0.002544	6142.737073	43933.478702	3839.186637	22690.127160
37.036500	-0.001362	0.000196	-0.003410	0.003754	6135.149072	43841.134674	3826.049776	22634.880533
37.536500	0.000548	-0.000126	-0.004339	0.002353	6160.332115	43943.076757	3827.150408	22698.879505
38.037000	0.001571	-0.000045	0.004930	0.002159	6169.637703	43969.136002	3849.440587	22707.754647
38.535000	-0.000204	-0.000052	-0.002749	0.002431	6154.002744	43942.771097	3830.679747	22695.322591
39.037500	-0.000752	0.000280	-0.000710	0.002293	6150.885515	43987.244988	3835.783286	22701.634170
39.535000	-0.000310	-0.000324	0.001399	0.002728	6150.939519	43888.987599	3839.725566	22681.752138
40.035500	-0.001055	0.000871	0.002443	0.002594	6146.282031	44014.692128	3842.505401	22687.849421
40.536000	0.000999	-0.000076	-0.001327	0.002211	6164.859016	43961.266219	3834.524064	22705.363748
41.036000	-0.000251	0.000704	-0.003152	0.003816	6143.110107	43883.278091	3826.506888	22632.047422
41.536000	-0.001957	0.000260	0.002653	0.002477	6140.322581	43967.830908	3843.278815	22693.189424
42.036000	-0.000084	0.000489	0.000870	0.002817	6151.972897	43957.435240	3838.266940	22677.662950
42.536500	-0.002766	0.000027	-0.000029	0.002442	6134.461504	43949.219422	3837.033642	22694.816545
43.037000	-0.000283	-0.000163	-0.004045	0.002839	6150.292268	43893.661015	3826.703814	22676.669897
43.540000	-0.000461	0.000600	-0.002205	0.002940	6148.167062	43956.193685	3830.759016	22672.021597
44.040000	0.002656	0.001169	0.006130	-0.001672	6207.470990	44449.354326	3861.490123	22883.832081
44.535500	-0.000777	-0.000125	-0.000665	0.000207	6166.600961	44146.684122	3840.802666	22797.284910
45.035500	-0.004163	-0.000415	-0.006261	0.005836	6098.367246	43587.810594	3814.634138	22540.174476
45.535500	0.001701	0.000155	0.000666	0.000750	6181.440493	44121.763417	3842.666556	22772.359231
46.036000	-0.002655	0.000163	-0.001435	0.006999	6100.956051	43532.979011	3823.098424	22487.468522
46.536500	0.000929	0.001492	-0.001946	0.001595	6169.030374	44168.414668	3834.516628	22733.559403
47.039000	-0.000949	0.000001	-0.003649	0.006357	6118.607270	43577.972120	3819.457127	22516.552640
47.537000	0.000337	0.000723	-0.000950	0.003820	6147.548123	43884.650477	3831.636265	22631.865944
48.040000	-0.002550	0.000432	-0.001735	0.005835	6110.488078	43667.517087	3825.106342	22540.241496
48.537500	0.000349	0.000505	0.001187	0.000579	6172.374931	44171.179323	3844.301365	22780.171321
49.040000	-0.002946	-0.000658	-0.001271	0.005510	6109.953479	43595.672614	3826.942276	22554.992162
49.535500	-0.002065	0.000137	0.006270	-0.000575	6162.741320	44246.088327	3859.188504	22833.287302
50.035500	0.000590	-0.000066	-0.001116	0.005396	6137.497357	43661.893933	3827.567463	22560.143348
50.535500	0.001948	0.000493	0.003898	0.001510	6177.500267	44081.663196	3848.529531	22737.479631
51.036000	0.015114	-0.009448	0.008922	0.067900	5793.158046	37438.257999	3712.368940	19915.812630
51.536000	0.024656	-0.013484	0.001633	0.255272	4802.704062	25115.054181	3388.286297	13929.437830
52.036500	0.006596	-0.019504	-0.004839	-0.064095	6762.561707	48645.479252	3993.092490	25983.284350
52.537500	-0.006372	-0.036199	-0.007981	-0.160611	7593.511768	57882.628393	4275.619768	31744.689208
53.037500	0.009098	-0.025586	0.009134	-0.141059	7549.101278	56761.876153	4267.448340	30471.969089
53.537500	0.022398	-0.015794	0.021029	-0.105145	7310.432120	53615.522654	4189.310529	28278.250266
54.035000	0.024128	-0.011820	0.024972	-0.038293	6688.675863	46774.929560	4004.014369	24647.947622
54.535500	0.021782	-0.006988	0.033222	-0.002918	6368.945815	43792.860053	3932.037504	22941.450110
55.035500	0.030773	0.004627	0.035402	0.008649	6348.103057	43797.389730	3908.156084	22412.944580
55.535500	0.046683	0.012530	0.042993	-0.012987	6664.406876	46678.357650	3984.239621	23413.118987
56.036000	0.060818	0.022096	0.056804	0.001585	6660.569519	46176.202218	3982.194659	22734.041804
56.536500	0.078340	0.029986	0.080781	0.022511	6630.779434	44895.464214	3990.420775	21797.854760
57.036500	0.097635	0.039844	0.096930	0.043333	6617.497454	43847.663602	3977.843741	20910.029240
57.540000	0.119110	0.051329	0.118411	0.080754	6481.499356	41471.854451	3935.945305	19417.614836
58.037500	0.127643	0.059951	0.129672	0.123889	6203.037322	38522.478935	3856.637458	17849.530057
58.535500	0.145767	0.069323	0.146399	0.167622	6010.767098	35810.054017	3793.852247	16411.014123
59.035500	0.162421	0.077267	0.161788	0.209591	5831.533294	33327.481745	3735.753502	15160.250668
59.536000	0.176487	0.086444	0.180704	0.238178	5733.336021	31995.976653	3715.482429	14374.932289
60.035500	0.184085	0.091619	0.185844	0.277898	5527.441762	29768.568849	3646.581045	13366.138517
60.536000	0.197029	0.101190	0.200191	0.280302	5593.330502	30216.247981	3669.760195	13307.992423
61.036500	0.203581	0.103752	0.212827	0.308745	5458.246362	28633.878758	3639.215205	12643.915037
61.536500	0.217462	0.108122	0.225505	0.331301	5406.569024	27577.054753	3620.684650	12147.348756
62.037000	0.215800	0.114718	0.223187	0.340453	5343.577250	27432.050458	3599.690358	11953.113570
62.537500	0.220897	0.119030	0.223864	0.343908	5353.048059	27480.556947	3594.690205	11880.852894
63.035000	0.219360	0.120027	0.229596	0.345939	5332.525715	27422.059566	3601.361609	11838.641498
63.545500	0.224673	0.122413	0.228719	0.338547	5406.362497	27981.207956	3613.242690	11993.243865
64.035000	0.229196	0.127374	0.239685	0.339500	5427.502150	28214.059726	3631.855887	11973.157496
64.535500	0.231294	0.130883	0.244046	0.338873	5443.750317	28456.631024	3641.287432	11986.356753
65.036000	0.229945	0.130891	0.242292	0.343352	5409.113905	28194.536002	3629.516485	11892.437754
65.535500	0.236732	0.132524	0.241942	0.340183	5468.570011	28476.186902	3634.820701	11958.797365
66.039500	0.240269	0.134893	0.247842	0.341823	5480.056932	28519.177647	3642.898727	11924.400045
66.537000	0.243982	0.137693	0.252051	0.345237	5481.870074	28482.963373	3644.416707	11853.215322
67.040000	0.241340	0.137346	0.254251	0.352783	5420.739022	28021.550024	3634.271702	11697.835374
67.534000	0.245340	0.139858	0.255295	0.351136	5454.444777	28263.626275	3639.361866	11731.505554
68.037500	0.244833	0.139982	0.250101	0.359263	5403.089730	27799.871155	3614.466830	11566.536231
68.535500	0.245644	0.142469	0.257766	0.359731	5405.105595	27916.067058	3627.822702	11557.122590
69.036000	0.245435	0.142737	0.258061	0.369483	5347.066821	27374.940111	3610.319964	11363.407886
69.536000	0.249580	0.143329	0.262466	0.367345	5383.518301	27529.478703	3622.387677	11405.498898
70.036000	0.250848	0.145158	0.264611	0.372421	5361.362119	27345.774918	3616.958678	11305.888314
70.536500	0.253324	0.145753	0.265902	0.375776	5356.271763	27190.655310	3613.156810	11240.680098
71.036500	0.250509	0.147169	0.262260	0.385044	5287.378841	26754.813482	3589.787724	11063.151904
71.537000	0.256383	0.148305	0.272027	0.382433	5335.558851	26961.807902	3612.180394	11112.786866
72.037000	0.256631	0.149208	0.268795	0.390043	5293.702777	26592.569757	3592.531582	10968.965458
72.535500	0.260562	0.150641	0.270393	0.389786	5317.422886	26685.050860	3595.857764	10973.775502
73.034500	0.261928	0.150891	0.273267	0.396685	5286.129054	26323.146014	3588.658036	10845.475336
73.535000	0.266501	0.152950	0.276817	0.393915	5327.748956	26585.397721	3599.994870	10896.740397
74.035500	0.263329	0.152505	0.272214	0.398701	5282.678961	26301.428066	3583.210773	10808.370521
74.535500	0.266680	0.154011	0.275184	0.397113	5310.551949	26469.043156	3591.313673	10837.586510
75.036000	0.269342	0.154405	0.281041	0.403461	5289.720851	26147.621645	3590.437475	10721.436755
75.536500	0.269562	0.156654	0.284007	0.399944	5310.839407	26458.790054	3602.095190	10785.568111
76.036500	0.273640	0.157283	0.272852	0.402810	5317.733467	26337.566680	3577.097836	10733.268730
76.539500	0.273220	0.159390	0.292209	0.401824	5320.958604	26505.321224	3613.633012	10751.216967
77.037000	0.272638	0.157971	0.286812	0.400764	5323.684617	26485.806637	3605.700288	10770.576500
77.535000	0.276204	0.159951	0.285353	0.402038	5336.795248	26524.228318	3600.742137	10747.316382
78.035000	0.275932	0.160769	0.285803	0.405598	5314.914814	26375.330074	3595.137247	10682.712250
78.535000	0.277456	0.161866	0.292164	0.404153	5331.849511	26513.358037	3609.281251	10708.869039
79.035500	0.276556	0.160845	0.284546	0.408655	5301.114687	26214.550781	3587.429025	10627.654172
79.535500	0.278627	0.161861	0.290003	0.404068	5339.055141	26517.712957	3605.494273	10710.411543
80.036000	0.280541	0.162757	0.295858	0.409470	5319.102526	26273.541598	3606.319157	10613.026564
80.536000	0.284237	0.164387	0.294704	0.407570	5351.187535	26464.614242	3607.680181	10647.150206
81.036500	0.278077	0.163558	0.285824	0.412955	5285.452356	26129.333452	3582.073046	10550.852764
81.537500	0.285631	0.165007	0.298727	0.409250	5349.537836	26407.088096	3611.965962	10616.974678
82.034500	0.283324	0.164683	0.292364	0.412654	5316.821684	26205.823308	3594.248053	10556.196106
82.540500	0.285667	0.165700	0.303543	0.410314	5343.616875	26386.965961	3618.879287	10597.929578
83.035500	0.282628	0.166140	0.293470	0.416774	5289.563485	26063.170287	3588.859764	10483.272812
83.535500	0.290278	0.166282	0.296740	0.411884	5361.172044	26333.534541	3603.533986	10569.899606
84.036000	0.288863	0.167714	0.300097	0.413156	5345.652602	26342.169655	3607.327058	10547.279094
84.745000	0.284978	0.167328	0.304326	0.418391	5293.696601	26040.261303	3605.494944	10454.846951
85.042500	0.288847	0.168225	0.303017	0.420600	5303.070669	25970.333738	3599.118895	10416.169670
85.562500	0.290430	0.168299	0.298326	0.415002	5344.047717	26274.086359	3600.758438	10514.553116
86.037500	0.293151	0.170439	0.306553	0.417237	5346.847398	26268.993555	3611.672278	10475.130104
86.537000	0.294067	0.169343	0.305987	0.416858	5354.316770	26230.400175	3611.328020	10481.798772
87.035000	0.286544	0.170338	0.302819	0.423723	5272.557887	25916.700992	3593.148110	10361.834280
87.535000	0.292676	0.171577	0.304318	0.419399	5331.702917	26213.857722	3603.648716	10437.178252
88.035000	0.293959	0.171122	0.305887	0.419291	5339.679269	26195.229573	3606.698720	10439.067527
88.536000	0.294732	0.172013	0.303749	0.421170	5333.332704	26142.225122	3599.411616	10406.227512
89.036000	0.290936	0.171801	0.303996	0.427777	5274.447266	25779.587134	3588.010918	10291.883103
89.536000	0.294269	0.172380	0.301545	0.422471	5323.253577	26092.202600	3593.109792	10383.580558
90.036500	0.293127	0.172231	0.307294	0.425345	5300.438632	25931.046987	3598.273734	10333.760453
90.539500	0.294623	0.173820	0.310426	0.424533	5313.522484	26058.951434	3605.418309	10347.805004
91.037000	0.298223	0.174950	0.308621	0.425648	5327.683193	26059.732256	3600.123043	10328.533280
91.534000	0.297005	0.174476	0.309553	0.425891	5319.351545	26021.518383	3601.370542	10324.350569
92.035000	0.295213	0.174774	0.312596	0.428269	5295.707575	25910.834305	3602.574542	10283.435263
92.535500	0.296868	0.174237	0.315045	0.425319	5321.832047	26039.232554	3612.422626	10334.217466
93.035500	0.295212	0.174416	0.306952	0.425818	5309.571833	26022.169016	3596.806690	10325.601262
93.536000	0.296485	0.174765	0.315068	0.426758	5311.462300	25990.693839	3609.828752	10309.402845
94.036000	0.295497	0.175639	0.311254	0.428169	5297.877495	25962.125280	3600.325305	10285.152653
94.536500	0.298781	0.175667	0.306535	0.427481	5320.407552	26000.181773	3593.071027	10296.958187
95.036500	0.295586	0.174764	0.312152	0.426719	5306.582029	25992.682306	3604.581410	10310.070603
95.537000	0.298332	0.177369	0.310881	0.429095	5308.675959	26004.901735	3597.980256	10269.271526
96.037500	0.294092	0.176318	0.303998	0.429369	5283.207632	25934.435323	3585.186914	10264.586198
