sample name	sample
index	233
start time	 02-22-2021  11:07:26 AM
880	0.188276
Peak Time (s)	92.538
Peak Height 	0.1883
calc peak height	90,93
Baseline Time (s)	11.537
Baseline Value 	-0.004501
subtract baseline	10,4
Abs	0.154776
Peak Time (s)	92.034
Peak Height 	0.1548
calc peak height	90,93
Baseline Time (s)	10.037
Baseline Value 	-1.3731E-5
subtract baseline	10,3
PK_550	0.074793
Peak Time (s)	91.037
Peak Height 	0.07479
calc peak height	90,93
Baseline Time (s)	10.037
Baseline Value 	3.3806E-4
subtract baseline	10,2
PK_880	0.145361
Peak Time (s)	90.036
Peak Height 	0.1454
calc peak height	90,93
Baseline Time (s)	9.036
Baseline Value 	0.001282
subtract baseline	10,1


Time (s)	A880-A510	A880-A775	A880-A975	A880	I510	I775	I975	I880	
0.036500	0.000592	-0.000478	0.003702	0.001335	6909.265431	46928.336112	3992.053708	24711.869347
0.533500	-0.002286	-0.000415	0.000273	0.004144	6856.891928	46650.699901	3975.808540	24571.009287
1.034000	-0.003168	-0.000152	-0.003196	0.005820	6833.561504	46508.623191	3962.583855	24487.417207
1.535500	0.000412	-0.000080	0.000064	0.000876	6911.857003	47015.307239	3983.746980	24734.979692
2.034500	-0.000586	0.000517	-0.004804	0.000964	6901.785238	47067.001946	3970.913133	24730.522973
2.538500	-0.003248	0.000023	-0.003423	0.005568	6835.128789	46551.564570	3962.646444	24499.984832
3.035500	-0.005183	-0.000348	-0.003206	0.005590	6817.356075	46512.014310	3963.144732	24498.857081
3.536000	0.000848	0.000356	0.006173	0.000325	6921.011895	47115.685352	4001.223346	24762.727988
4.035500	0.000149	-0.000361	0.002212	-0.000199	6919.389569	47096.008331	3992.168817	24789.165972
4.536000	0.000343	0.000889	0.005267	0.000726	6912.598327	47129.089355	3997.771899	24742.515850
5.036500	0.000859	-0.000288	0.001523	0.000160	6922.653441	47066.899828	3989.423324	24771.036586
5.537500	-0.001107	-0.001166	0.002056	-0.000632	6911.751713	47058.190884	3992.897372	24811.031458
6.034500	-0.000752	-0.000039	-0.001099	-0.000345	6912.371790	47143.559588	3983.894089	24796.501673
6.534500	0.000990	-0.000176	0.000945	-0.000342	6928.535913	47129.375203	3989.223988	24796.355000
7.035500	-0.001573	-0.000642	-0.001753	-0.001137	6912.113087	47162.944664	3984.257953	24836.569309
7.535500	-0.000589	0.000091	0.001019	-0.000768	6917.814723	47200.052261	3990.534455	24817.902356
8.036000	-0.000189	0.000125	0.001096	-0.000385	6917.979649	47164.470932	3989.733551	24798.550406
8.535500	-0.002297	-0.000134	-0.001674	0.004253	6855.794319	46667.984907	3970.502757	24565.554948
9.036000	0.000000	0.000675	0.004397	0.000046	6915.726278	47176.545744	3997.268430	24776.781865
9.536000	-0.000924	-0.000249	0.002755	-0.000768	6914.709551	47165.413090	3995.090648	24817.918059
10.036500	0.001870	0.000000	0.000000	-0.000444	6937.700934	47157.716453	3987.020953	24801.527517
10.535000	-0.001888	0.000106	-0.001916	0.004463	6857.624507	46671.167248	3969.343151	24555.106561
11.037500	0.000326	0.000375	0.000979	-0.000138	6920.464696	47164.788220	3988.780183	24786.095674
11.537000	0.000234	-0.000384	-0.001120	0.000000	6918.330893	47073.367507	3982.942684	24779.112664
12.035000	-0.001747	0.000009	0.001058	-0.000346	6903.172578	47148.698151	3989.531220	24796.580126
12.536000	-0.002430	-0.000304	0.000306	0.004039	6856.532037	46672.478860	3976.163247	24576.248519
13.036500	0.001561	0.000655	0.004060	-0.001198	6941.858704	47301.586493	3999.663141	24839.661182
13.536500	0.001116	-0.000067	0.003483	-0.000284	6929.176444	47134.642837	3995.732652	24793.464431
14.066500	0.000408	-0.000305	0.005948	-0.000483	6924.438915	47130.560233	4002.764081	24803.485791
14.536500	-0.003218	-0.000115	0.000695	0.004088	6848.894034	46686.695674	3977.044248	24573.836082
15.036500	-0.001474	0.000582	-0.000618	0.001089	6892.426833	47060.912931	3981.417045	24724.234316
15.602000	-0.000658	-0.000211	0.006270	-0.000872	6918.138398	47179.839158	4004.648937	24823.152991
16.035000	0.000535	-0.000315	0.004088	-0.000791	6928.478204	47160.988626	3998.661472	24819.040729
16.534500	-0.002396	-0.000074	-0.001527	0.004919	6848.806630	46606.960177	3969.168328	24532.311820
17.035000	-0.001478	-0.000600	0.004044	-0.001351	6914.978777	47188.986184	4000.025956	24847.389551
17.535500	0.001120	-0.000264	0.000367	-0.002491	6949.820876	47339.857257	3993.341935	24905.167701
18.035500	0.003355	0.000039	0.003990	-0.002324	6969.229455	47353.686360	4002.454612	24896.683911
18.536000	-0.000696	-0.000461	0.003946	0.002216	6889.209947	46840.778001	3990.384489	24667.605222
19.036000	-0.000792	0.000757	-0.001933	0.001887	6891.357387	46997.517188	3975.938453	24684.098697
19.536500	-0.000678	-0.000101	-0.000961	0.001309	6897.750544	46969.104307	3979.955182	24713.158962
20.034000	-0.000236	0.000696	0.003368	0.001833	6896.991630	46996.870180	3989.873739	24686.830623
20.537000	-0.000496	0.000383	0.000409	0.003017	6883.670766	46845.175786	3979.079518	24627.428513
21.035500	-0.001028	0.000012	0.001852	0.001418	6893.508038	46969.602797	3986.994202	24707.692319
21.535500	0.000239	0.000290	0.002253	0.001583	6903.701743	46981.053123	3987.611419	24699.402158
22.034500	-0.003566	-0.001426	0.005834	0.000003	6883.157708	46967.286752	4001.178108	24778.968610
22.536000	-0.001185	-0.000107	0.003283	0.000996	6895.960575	47000.294643	3991.843941	24728.918353
23.036000	-0.001792	-0.000150	0.003101	0.001335	6887.226544	46961.590703	3990.480283	24711.882163
23.536500	-0.001205	0.000043	0.002711	0.000956	6896.136419	47019.569434	3990.448352	24730.926178
24.036500	-0.002777	-0.000672	-0.001774	0.001022	6881.032700	46940.350169	3978.590319	24727.591558
24.536500	-0.000189	-0.000079	-0.000709	0.001569	6899.866955	46944.966768	3979.933321	24700.087277
25.037000	-0.002620	-0.000325	0.001608	0.001104	6881.719132	46967.189376	3987.175653	24723.460646
25.534500	0.000075	-0.000350	0.005134	0.001302	6904.775685	46944.590263	3995.902001	24713.507749
26.035000	-0.000725	-0.000471	0.001649	0.001006	6900.113503	46962.299784	3987.540344	24728.400818
26.535500	-0.000483	0.000179	0.001404	0.003663	6877.845064	46759.202298	3979.985169	24595.077069
27.035500	0.000810	0.000436	-0.002546	0.002060	6904.567428	46947.431129	3973.909345	24675.405666
27.536000	-0.000450	0.000497	0.002582	0.001885	6894.535141	46971.401802	3987.682495	24684.223747
28.036500	0.000583	0.000653	0.006290	-0.001173	6932.497433	47298.765183	4005.500485	24838.383713
28.536500	-0.002515	-0.000536	0.002773	0.005294	6844.297862	46522.808235	3979.304915	24513.621312
29.087000	0.001737	0.000581	0.006688	0.000144	6930.969131	47156.999461	4003.062361	24771.833183
29.537000	0.001566	0.000369	0.006084	-0.000096	6931.612775	47159.815570	4002.100731	24783.956458
30.034500	0.001238	0.000361	0.006477	0.000107	6926.672522	47138.382830	4002.604200	24773.733044
30.535000	-0.001662	-0.000402	-0.005404	0.005269	6852.314235	46538.847053	3958.358924	24514.885332
31.035500	-0.001233	0.000436	0.001616	0.003177	6875.416738	46834.263354	3981.795403	24619.389554
31.535500	0.000919	0.000313	0.004139	0.001436	6911.361486	46998.335858	3992.936516	24706.801091
32.036000	-0.001520	-0.000238	0.000787	0.001956	6884.007632	46889.664802	3982.815113	24680.637084
32.569500	0.001236	0.000277	0.004921	0.000260	6925.223076	47114.179500	3998.085809	24765.993389
33.036500	-0.001695	-0.000455	-0.000871	0.002221	6879.966070	46840.888432	3977.824204	24667.359855
33.536500	0.002575	0.000873	0.008039	0.000793	6932.734001	47120.631689	4004.924151	24739.126063
34.040500	-0.000261	-0.000365	0.005291	0.000172	6912.138483	47057.850159	3999.296109	24770.425621
34.536500	-0.002862	-0.000059	-0.000281	0.005864	6835.950452	46513.559109	3969.945427	24485.255192
35.034500	-0.000549	-0.000504	0.003158	0.001010	6901.707420	46958.638930	3991.481574	24728.231194
35.535000	0.000933	0.000745	0.003833	0.002790	6898.944598	46904.752801	3988.586046	24638.773719
36.035500	0.000331	0.000429	0.004224	0.002514	6895.938489	46900.681660	3990.330093	24652.620135
36.535500	-0.002641	0.000317	0.001834	0.003165	6862.608980	46823.522969	3982.394287	24620.012701
37.035500	-0.001734	-0.000173	0.000809	0.001453	6886.672181	46947.230004	3984.184175	24705.939819
37.536000	-0.002052	-0.000156	0.001345	0.002006	6878.645926	46892.854632	3984.137216	24678.113405
38.036500	-0.000135	0.000441	-0.001293	0.002705	6889.872613	46882.547752	3975.478638	24643.061958
38.537000	-0.000772	0.000744	-0.000850	0.002493	6885.952695	46934.722455	3977.171974	24653.665047
39.037500	-0.001078	0.000112	0.000259	0.002669	6881.518237	46852.943872	3979.593504	24644.876416
39.537000	-0.001240	0.000468	0.004074	0.002421	6882.309810	46914.103094	3990.182382	24657.320776
40.038000	0.001436	0.000437	0.002628	0.002800	6903.511816	46872.573413	3985.412739	24638.285781
40.535500	-0.000490	0.000038	-0.003201	0.001812	6894.839299	46932.255073	3972.858461	24687.890666
41.035500	-0.000922	0.000396	0.005939	0.002104	6888.155818	46938.952772	3995.911090	24673.226481
41.535500	0.000878	-0.000005	-0.001370	0.001971	6906.023199	46911.727063	3977.177913	24679.886420
42.036500	-0.001418	0.000281	0.005137	0.002003	6884.516045	46937.492935	3994.066738	24678.279844
42.536000	-0.000186	0.000308	0.003314	0.003441	6882.627556	46794.700753	3985.530619	24606.208162
43.037000	0.000263	0.000948	0.005442	0.002619	6894.339434	46942.689651	3993.250719	24647.387280
43.537000	-0.001107	0.000080	0.005739	0.001959	6887.792468	46921.569419	3995.765944	24680.492275
44.037000	-0.000258	0.000307	0.000233	0.002366	6891.865454	46903.323048	3980.309442	24660.049779
44.537000	-0.000753	-0.000297	0.002355	0.002592	6885.217151	46819.291920	3985.243992	24648.729777
45.035500	0.001112	0.000476	0.004136	0.001022	6916.983426	47056.893371	3994.013014	24727.583530
45.535500	0.000293	0.000472	0.004379	0.000184	6917.166287	47141.824817	3996.859190	24769.812816
46.035000	-0.000277	0.000692	0.003427	-0.000062	6914.160573	47189.385210	3995.002892	24782.256420
46.544000	-0.000583	0.000565	0.000276	0.005793	6857.390855	46583.363041	3971.559201	24488.766746
47.036000	0.001650	0.000184	0.006180	0.001071	6921.534785	47022.312025	3999.270942	24725.151388
47.537000	0.002755	0.000383	0.003078	0.000241	6939.562792	47126.993515	3993.287316	24766.971372
48.036500	0.001300	0.000468	0.007389	0.000177	6926.594704	47142.107478	4004.833762	24770.160190
48.544500	-0.002851	0.000304	0.006966	0.005578	6838.649932	46578.718976	3989.488529	24499.469910
49.037500	-0.002203	-0.000189	-0.000872	0.002617	6871.645242	46827.648585	3976.795113	24647.453727
49.534500	-0.002141	0.000390	0.006352	0.002663	6871.798013	46881.684257	3995.525811	24645.154395
50.048000	-0.000155	-0.000392	-0.000639	-0.000643	6920.686936	47137.974319	3985.872019	24811.565810
50.535500	-0.001482	-0.000257	0.000294	0.004989	6856.521464	46581.626053	3973.679369	24528.847435
51.035000	0.000130	0.000386	0.000707	0.000624	6911.573349	47088.239531	3986.077363	24747.654373
51.536000	0.002540	0.000549	0.005113	-0.002113	6959.583097	47384.360317	4004.869222	24885.970337
52.035500	0.002238	0.001217	0.002118	-0.000045	6937.409127	47241.137139	3991.518239	24781.368232
52.537000	-0.005092	-0.000334	0.001962	0.006470	6810.222878	46425.060323	3974.161785	24455.075570
53.037000	0.010149	0.002729	0.002790	-0.014020	7146.916824	48851.098979	4030.575388	25498.008145
53.536500	-0.015976	-0.016164	0.016246	0.127507	5781.682340	34658.011372	3729.798192	19204.179398
54.037500	-0.015049	-0.024540	0.013868	-0.043957	7193.688792	49134.249689	4147.222311	27113.073236
54.535000	-0.016708	-0.038065	0.015948	-0.144505	8295.732011	59393.236090	4492.256282	33429.521898
55.035000	-0.006064	-0.025724	0.017738	-0.084261	7711.655184	53492.789985	4285.809011	29470.919937
55.535500	-0.011769	-0.020139	0.013419	-0.064777	7439.608195	51899.031721	4209.381750	28303.725884
56.036000	-0.008091	-0.014742	0.014774	-0.061707	7445.993842	52162.381062	4204.036445	28124.553782
56.536000	0.009098	-0.007979	0.017154	-0.076761	7797.584091	54700.632591	4259.381658	29015.435553
57.036500	0.021873	-0.004429	0.023912	-0.099394	8214.982346	57920.027588	4357.864904	30414.278059
57.536500	0.034663	0.000344	0.033728	-0.080698	8142.967649	56183.886240	4327.402333	29253.539846
58.037000	0.039961	0.003770	0.042409	-0.057872	7934.939637	53855.795888	4280.149124	27902.478312
58.534500	0.041799	0.012624	0.048084	0.014193	7180.788393	46952.977854	4077.820248	24074.578398
59.034000	0.047896	0.011308	0.052124	0.020547	7178.242524	46181.683043	4071.310534	23766.546543
59.535000	0.059669	0.020290	0.064129	0.018704	7315.020781	47274.289190	4110.788955	23855.450168
60.035500	0.070477	0.028543	0.075810	0.032512	7284.510618	46710.273419	4104.644155	23198.633131
60.535500	0.082399	0.035509	0.084182	0.070187	7031.146694	43718.988349	4022.966712	21509.201655
61.036000	0.084376	0.040065	0.092052	0.116654	6627.329983	39963.381761	3923.462104	19617.573403
61.535500	0.094042	0.045666	0.106274	0.129963	6596.062832	39311.281392	3925.715695	19112.033652
62.036500	0.104137	0.052304	0.110303	0.135169	6638.085956	39431.572569	3922.812576	18918.457983
62.537000	0.109829	0.055459	0.114866	0.134637	6692.281148	39743.111184	3935.439582	18938.154115
63.037000	0.115361	0.059931	0.121569	0.138025	6711.121925	39835.147649	3943.733848	18813.243523
63.537500	0.117189	0.063129	0.121098	0.140435	6705.998911	39902.293785	3936.521192	18725.029591
64.035000	0.119621	0.068761	0.129230	0.145949	6678.976490	39912.411973	3943.073579	18524.964058
64.535000	0.121813	0.069894	0.126527	0.128051	6858.651709	41570.518374	3981.892489	19183.721230
65.035500	0.123431	0.070864	0.127895	0.130069	6854.991333	41477.346501	3980.205453	19108.089808
65.573500	0.125514	0.072408	0.129719	0.132269	6853.925148	41419.152382	3979.230826	19026.024926
66.036500	0.126466	0.073100	0.129609	0.136631	6822.881225	41094.918113	3967.690165	18864.545107
66.536500	0.123541	0.073697	0.127033	0.147852	6696.639517	40171.725952	3932.830301	18456.486226
67.036500	0.127412	0.073507	0.132059	0.146404	6743.621471	40279.939388	3949.050751	18508.564848
67.537000	0.128956	0.074366	0.129850	0.150944	6717.084883	39964.338970	3932.144953	18345.878826
68.037500	0.128282	0.073869	0.138901	0.154097	6683.455564	39654.154723	3946.902937	18233.921016
68.537000	0.124744	0.072738	0.134353	0.161877	6585.718036	38907.551752	3916.283858	17961.075434
69.035000	0.129289	0.074829	0.139397	0.159627	6644.096593	39269.341643	3934.295693	18039.492110
69.535500	0.129092	0.074633	0.131329	0.160502	6634.819020	39179.755898	3912.253306	18008.935998
70.035500	0.129117	0.074137	0.136507	0.160626	6633.969886	39127.933840	3924.653176	18004.621080
70.536000	0.128040	0.075568	0.138238	0.167145	6568.948413	38705.935069	3912.901679	17779.096418
71.036000	0.134161	0.075366	0.136660	0.163115	6656.092619	39023.028686	3918.904706	17918.124447
71.536000	0.132599	0.075362	0.138007	0.162462	6648.203819	39077.011826	3923.823644	17940.753895
72.036000	0.137323	0.075033	0.136455	0.162754	6686.820921	39025.346562	3919.289090	17930.641449
72.536500	0.134327	0.076211	0.136915	0.163363	6655.386227	39072.723647	3918.924089	17909.540039
73.037500	0.134928	0.076606	0.138515	0.164151	6653.755155	39039.981884	3920.916686	17882.253239
73.535000	0.134179	0.076275	0.138989	0.163401	6653.771904	39074.888647	3923.930783	17908.214444
74.035000	0.135949	0.077241	0.140168	0.163876	6665.028632	39115.776630	3925.669270	17891.767353
74.535500	0.138024	0.076549	0.144499	0.164402	6678.536260	39014.397032	3935.110059	17873.577294
75.035000	0.137599	0.076798	0.141934	0.164467	6674.249040	39029.598685	3928.574955	17871.318059
75.536000	0.138936	0.076708	0.144584	0.164321	6687.218561	39034.323903	3935.523206	17876.372927
76.035500	0.138668	0.077144	0.145039	0.164350	6684.621208	39068.216401	3936.585210	17875.367120
76.539500	0.139154	0.076357	0.142836	0.164295	6689.355970	39007.302999	3931.238097	17877.274473
77.037000	0.140678	0.076913	0.141654	0.164798	6698.307349	39011.636954	3927.062897	17859.887029
77.534500	0.140816	0.077122	0.147033	0.165127	6696.638381	39001.680193	3939.627244	17848.546963
78.034500	0.140478	0.077284	0.150717	0.165645	6689.134225	38972.209412	3947.579799	17830.706746
78.535000	0.140084	0.077871	0.149806	0.168357	6662.017236	38796.074565	3938.484560	17737.549357
79.035500	0.141063	0.077187	0.146167	0.166580	6686.066158	38886.490699	3933.838512	17798.504710
79.538500	0.143084	0.077608	0.147445	0.167456	6696.097309	38848.846215	3934.840697	17768.417343
80.036000	0.142655	0.077008	0.148129	0.167196	6694.622911	38820.737951	3937.196333	17777.359925
80.536000	0.139907	0.077408	0.142395	0.174277	6609.342293	38272.254945	3905.666646	17536.204101
81.036000	0.142531	0.077379	0.153842	0.168982	6677.895433	38703.825734	3947.044486	17716.156884
81.536000	0.142569	0.077162	0.148572	0.169063	6677.518150	38679.238136	3933.643686	17713.370309
82.037000	0.144600	0.077806	0.145930	0.170092	6686.282913	38647.575531	3924.548292	17678.251415
82.537000	0.138327	0.077073	0.144494	0.175494	6585.432307	38146.059563	3907.807178	17495.166485
83.035000	0.144006	0.077768	0.150123	0.171697	6667.081652	38512.536896	3930.955447	17623.625719
83.538000	0.142740	0.077199	0.150419	0.171678	6656.227307	38467.406530	3931.734198	17624.245949
84.035500	0.142743	0.077237	0.149922	0.172221	6651.539482	38426.073470	3929.154370	17605.803787
84.535500	0.140215	0.076704	0.147930	0.179083	6570.957014	37826.174135	3907.435120	17374.759056
85.036000	0.142236	0.076564	0.154636	0.173692	6634.423307	38251.145260	3937.223531	17555.983620
85.536500	0.143240	0.076675	0.151857	0.174764	6633.834161	38173.007626	3927.649990	17519.772018
86.036500	0.144591	0.075898	0.148032	0.174623	6646.740192	38121.367448	3918.570897	17524.519493
86.539000	0.141691	0.076205	0.151363	0.181279	6564.851167	37610.140942	3910.443949	17301.605527
87.037000	0.145614	0.075904	0.151969	0.175966	6643.968773	38013.084266	3924.954296	17479.268602
87.537500	0.143256	0.075890	0.153842	0.176932	6615.295962	37933.899444	3927.195357	17446.794551
88.035000	0.143936	0.076499	0.154593	0.178082	6611.274064	37890.355754	3926.212175	17408.265356
88.535500	0.140775	0.075177	0.148381	0.184871	6526.841344	37242.807108	3894.554917	17182.702849
89.036000	0.144440	0.075119	0.150842	0.179345	6604.761635	37678.023277	3913.889836	17366.021086
89.536000	0.146718	0.074790	0.151997	0.179376	6624.059588	37649.226000	3916.641423	17365.002134
90.036000	0.145361	0.074424	0.149529	0.180443	6603.235704	37534.666431	3908.014466	17329.397861
90.536500	0.143279	0.074001	0.145068	0.184498	6551.058847	37179.357970	3887.527774	17195.015367
91.036500	0.143758	0.074793	0.151159	0.182165	6574.877476	37426.941304	3907.792530	17272.177708
91.537500	0.143331	0.073879	0.151138	0.182599	6567.566804	37319.927675	3906.687250	17257.803921
92.034000	0.145166	0.073097	0.154776	0.182770	6581.708491	37244.482388	3915.134477	17252.123256
92.538000	0.142737	0.073584	0.147020	0.188276	6514.762707	36849.801868	3883.185927	17070.911295
93.035000	0.144462	0.073602	0.151691	0.185515	6552.454537	37067.778446	3900.969886	17161.498896
93.535000	0.145358	0.072510	0.154421	0.185748	6558.054738	36963.597644	3907.011816	17153.811100
94.035500	0.142501	0.072412	0.154057	0.186366	6528.782454	36907.557703	3904.631995	17133.507608
94.536000	0.142927	0.072220	0.150908	0.191640	6488.318365	36482.137709	3884.429295	16961.305341
95.035500	0.145861	0.072408	0.151323	0.188951	6535.289992	36705.345648	3891.827378	17048.838431
95.539000	0.145924	0.073271	0.157972	0.190031	6526.746924	36688.489771	3905.236887	17013.626801
96.036500	0.144296	0.072292	0.154481	0.190824	6506.496376	36550.806598	3894.905785	16987.802554
96.561000	0.142360	0.072438	0.152733	0.197306	6436.951757	36063.400143	3875.345847	16778.607638
97.037500	0.146917	0.072904	0.157311	0.192950	6510.634878	36433.766646	3896.599499	16918.867923
97.534500	0.145359	0.072593	0.154936	0.193665	6491.695383	36354.623316	3889.198715	16895.740158
98.035500	0.145666	0.071588	0.151277	0.193683	6494.096634	36275.812124	3880.460643	16895.146309
98.563500	0.143161	0.072016	0.152517	0.200209	6419.800650	35810.441801	3868.029513	16685.936110
99.035000	0.146917	0.071780	0.154898	0.195763	6487.210677	36131.073572	3884.114421	16828.135841
