sample name	sample
index	432
start time	 03-08-2021  12:14:57 PM


Wavelength (nm)	Absorbance
494.344910	NaN
494.563924	NaN
494.782919	NaN
495.001897	NaN
495.220856	0.440110
495.439797	0.256949
495.658719	0.053174
495.877624	-0.004714
496.096510	-0.060642
496.315378	-0.049233
496.534227	-0.059305
496.753059	-0.139936
496.971872	-0.134996
497.190667	0.099956
497.409444	0.131615
497.628203	0.142260
497.846943	0.141930
498.065665	0.145545
498.284369	0.147093
498.503055	0.149797
498.721723	0.151602
498.940372	0.151992
499.159003	0.152816
499.377616	0.152079
499.596210	0.151066
499.814787	0.152993
500.033345	0.152252
500.251885	0.151730
500.470406	0.150274
500.688910	0.148489
500.907395	0.148715
501.125862	0.148010
501.344311	0.150316
501.562742	0.151400
501.781154	0.151718
501.999548	0.152569
502.217924	0.153237
502.436282	0.154136
502.654621	0.155504
502.872942	0.156434
503.091245	0.156791
503.309530	0.154830
503.527797	0.154390
503.746045	0.153558
503.964275	0.153704
504.182487	0.153134
504.400681	0.153337
504.618856	0.153402
504.837013	0.152307
505.055152	0.152719
505.273273	0.154493
505.491376	0.154907
505.709460	0.155782
505.927526	0.155604
506.145574	0.157085
506.363604	0.156521
506.581615	0.158112
506.799608	0.159456
507.017583	0.158241
507.235540	0.158689
507.453478	0.159214
507.671399	0.158464
507.889301	0.158710
508.107185	0.159158
508.325050	0.159503
508.542898	0.158907
508.760727	0.157990
508.978538	0.158994
509.196330	0.157700
509.414105	0.156983
509.631861	0.157015
509.849599	0.157409
510.067319	0.156836
510.285021	0.157112
510.502704	0.156804
510.720369	0.156997
510.938016	0.156757
511.155645	0.157039
511.373255	0.157717
511.590848	0.158360
511.808422	0.158597
512.025977	0.159381
512.243515	0.158930
512.461034	0.158592
512.678536	0.158931
512.896018	0.159818
513.113483	0.160731
513.330930	0.161661
513.548358	0.162452
513.765768	0.162383
513.983160	0.161919
514.200533	0.162394
514.417889	0.163114
514.635226	0.164398
514.852545	0.164387
515.069845	0.163428
515.287128	0.162751
515.504392	0.162522
515.721638	0.162853
515.938866	0.163010
516.156075	0.163667
516.373267	0.163250
516.590440	0.162793
516.807594	0.163224
517.024731	0.164369
517.241850	0.164210
517.458950	0.164166
517.676032	0.164155
517.893095	0.164375
518.110141	0.164009
518.327168	0.164974
518.544177	0.164886
518.761168	0.164960
518.978141	0.164440
519.195095	0.166136
519.412031	0.166096
519.628949	0.166494
519.845849	0.166883
520.062731	0.166951
520.279594	0.167325
520.496439	0.167863
520.713266	0.168404
520.930074	0.169380
521.146865	0.168555
521.363637	0.169583
521.580391	0.169470
521.797127	0.169581
522.013844	0.169827
522.230543	0.169713
522.447224	0.169207
522.663887	0.169466
522.880532	0.169472
523.097158	0.169572
523.313766	0.169734
523.530356	0.169715
523.746928	0.170024
523.963481	0.171406
524.180017	0.171788
524.396534	0.173587
524.613032	0.173231
524.829513	0.172884
525.045975	0.173349
525.262420	0.173549
525.478845	0.174047
525.695253	0.174527
525.911643	0.174278
526.128014	0.174594
526.344367	0.173951
526.560702	0.174302
526.777018	0.175417
526.993316	0.175784
527.209597	0.176357
527.425858	0.177210
527.642102	0.177606
527.858328	0.178241
528.074535	0.178650
528.290724	0.178868
528.506894	0.180613
528.723047	0.180853
528.939181	0.181275
529.155297	0.181341
529.371395	0.181148
529.587475	0.182072
529.803536	0.181957
530.019579	0.182376
530.235604	0.182892
530.451611	0.181966
530.667600	0.182063
530.883570	0.182077
531.099522	0.182354
531.315456	0.182994
531.531372	0.183110
531.747269	0.183814
531.963148	0.183840
532.179009	0.184531
532.394852	0.185119
532.610676	0.185812
532.826482	0.186255
533.042271	0.186860
533.258040	0.187581
533.473792	0.187669
533.689525	0.187183
533.905240	0.187328
534.120937	0.187784
534.336616	0.187819
534.552277	0.188172
534.767919	0.188580
534.983543	0.188811
535.199149	0.189131
535.414736	0.189370
535.630306	0.190714
535.845857	0.190901
536.061390	0.190449
536.276904	0.190947
536.492401	0.191258
536.707879	0.191341
536.923339	0.191589
537.138781	0.191413
537.354204	0.191812
537.569610	0.191837
537.784997	0.192399
538.000366	0.192854
538.215716	0.193440
538.431049	0.193474
538.646363	0.194179
538.861659	0.194678
539.076937	0.194948
539.292196	0.195213
539.507438	0.195142
539.722661	0.195860
539.937866	0.196351
540.153052	0.196357
540.368221	0.197043
540.583371	0.197316
540.798503	0.197385
541.013617	0.197902
541.228712	0.197877
541.443789	0.198513
541.658848	0.198697
541.873889	0.199388
542.088912	0.199943
542.303916	0.199609
542.518902	0.199799
542.733870	0.199940
542.948820	0.199758
543.163752	0.200534
543.378665	0.200842
543.593560	0.200927
543.808437	0.201145
544.023295	0.201544
544.238136	0.202246
544.452958	0.202983
544.667762	0.203270
544.882548	0.203606
545.097315	0.203629
545.312064	0.204059
545.526795	0.204365
545.741508	0.204346
545.956203	0.204531
546.170879	0.204529
546.385537	0.204420
546.600177	0.204852
546.814799	0.205054
547.029402	0.205078
547.243988	0.205513
547.458555	0.205846
547.673103	0.206118
547.887634	0.206625
548.102146	0.207044
548.316640	0.207422
548.531116	0.207553
548.745574	0.208454
548.960013	0.208805
549.174435	0.209028
549.388838	0.208953
549.603222	0.209439
549.817589	0.209226
550.031937	0.209109
550.246267	0.209610
550.460579	0.209711
550.674873	0.209713
550.889148	0.209958
551.103405	0.209868
551.317644	0.210721
551.531865	0.210893
551.746068	0.211064
551.960252	0.211433
552.174418	0.211638
552.388566	0.212025
552.602696	0.212003
552.816807	0.212769
553.030900	0.213113
553.244975	0.213400
553.459032	0.213340
553.673070	0.213571
553.887091	0.214080
554.101093	0.214171
554.315077	0.214519
554.529042	0.214687
554.742990	0.214403
554.956919	0.214350
555.170830	0.214281
555.384722	0.214494
555.598597	0.214959
555.812453	0.215103
556.026291	0.215693
556.240111	0.216057
556.453913	0.216826
556.667696	0.216995
556.881461	0.217628
557.095208	0.217930
557.308937	0.218933
557.522647	0.219504
557.736339	0.219636
557.950013	0.219291
558.163669	0.219332
558.377307	0.219773
558.590926	0.220371
558.804527	0.220216
559.018110	0.220385
559.231675	0.219746
559.445221	0.219397
559.658749	0.220041
559.872259	0.219779
560.085751	0.220359
560.299225	0.220130
560.512680	0.220084
560.726117	0.220496
560.939536	0.220938
561.152937	0.221718
561.366319	0.222463
561.579683	0.222445
561.793029	0.223413
562.006357	0.223028
562.219667	0.223224
562.432958	0.223803
562.646231	0.223818
562.859486	0.224060
563.072723	0.223916
563.285941	0.223984
563.499141	0.224284
563.712323	0.223991
563.925487	0.224445
564.138632	0.224832
564.351760	0.224555
564.564869	0.225040
564.777960	0.225090
564.991032	0.225552
565.204087	0.225738
565.417123	0.226208
565.630141	0.226302
565.843140	0.227008
566.056122	0.226974
566.269085	0.227647
566.482030	0.227711
566.694957	0.228035
566.907866	0.228031
567.120756	0.228245
567.333628	0.228681
567.546482	0.229516
567.759318	0.229491
567.972135	0.229702
568.184935	0.229739
568.397716	0.229921
568.610478	0.229888
568.823223	0.230461
569.035949	0.230577
569.248657	0.230447
569.461347	0.230250
569.674019	0.230519
569.886672	0.230984
570.099308	0.231066
570.311925	0.231472
570.524523	0.232006
570.737104	0.231857
570.949666	0.232370
571.162210	0.232251
571.374736	0.232854
571.587244	0.232780
571.799733	0.232716
572.012205	0.232751
572.224658	0.232670
572.437092	0.232492
572.649509	0.232838
572.861907	0.232948
573.074287	0.233498
573.286649	0.233544
573.498993	0.234021
573.711318	0.234242
573.923625	0.234491
574.135914	0.235258
574.348185	0.235773
574.560438	0.235996
574.772672	0.236012
574.984888	0.235936
575.197086	0.236152
575.409266	0.236206
575.621427	0.236375
575.833570	0.237027
576.045695	0.236759
576.257802	0.236667
576.469890	0.237012
576.681961	0.237090
576.894013	0.237439
577.106046	0.237667
577.318062	0.237743
577.530059	0.238088
577.742039	0.237952
577.954000	0.238243
578.165942	0.239102
578.377867	0.239372
578.589773	0.239746
578.801661	0.240043
579.013531	0.240279
579.225382	0.240655
579.437216	0.240818
579.649031	0.241274
579.860828	0.241494
580.072606	0.241508
580.284367	0.241668
580.496109	0.242124
580.707833	0.241987
580.919539	0.242126
581.131227	0.242134
581.342896	0.242316
581.554547	0.242649
581.766180	0.242989
581.977795	0.242906
582.189391	0.243214
582.400969	0.243416
582.612529	0.243684
582.824071	0.244278
583.035595	0.244579
583.247100	0.244807
583.458587	0.244801
583.670056	0.244949
583.881506	0.244987
584.092939	0.245051
584.304353	0.244995
584.515749	0.245391
584.727127	0.245160
584.938486	0.245425
585.149828	0.245942
585.361151	0.246234
585.572456	0.246228
585.783742	0.246722
585.995011	0.246803
586.206261	0.247408
586.417493	0.247464
586.628706	0.247959
586.839902	0.248265
587.051079	0.248353
587.262238	0.248701
587.473379	0.249054
587.684502	0.249111
587.895606	0.249305
588.106692	0.249215
588.317760	0.249482
588.528810	0.249641
588.739841	0.249765
588.950855	0.249845
589.161850	0.249966
589.372827	0.250391
589.583785	0.251017
589.794726	0.251278
590.005648	0.251354
590.216552	0.251496
590.427437	0.251455
590.638305	0.251255
590.849154	0.251592
591.059985	0.251878
591.270798	0.251784
591.481592	0.251653
591.692369	0.251937
591.903127	0.252192
592.113867	0.252616
592.324588	0.252985
592.535292	0.253676
592.745977	0.253965
592.956644	0.254069
593.167293	0.254064
593.377923	0.254266
593.588536	0.254590
593.799130	0.255057
594.009706	0.255426
594.220263	0.255597
594.430803	0.256124
594.641324	0.256304
594.851827	0.256469
595.062312	0.257104
595.272778	0.257746
595.483227	0.257909
595.693657	0.258271
595.904069	0.258437
596.114462	0.258756
596.324838	0.258883
596.535195	0.258950
596.745534	0.259517
596.955855	0.259517
597.166157	0.259536
597.376441	0.259508
597.586707	0.259295
597.796955	0.259453
598.007185	0.259692
598.217396	0.259695
598.427589	0.259873
598.637764	0.259610
598.847921	0.260050
599.058060	0.260270
599.268180	0.260513
599.478282	0.260741
599.688366	0.261126
599.898431	0.261301
600.108479	0.261725
600.318508	0.261965
600.528519	0.262362
600.738511	0.262746
600.948486	0.262640
601.158442	0.262997
601.368380	0.263346
601.578300	0.263566
601.788202	0.263689
601.998085	0.263568
602.207950	0.263767
602.417797	0.264052
602.627626	0.263825
602.837436	0.263978
603.047228	0.264173
603.257002	0.264322
603.466758	0.264103
603.676496	0.264620
603.886215	0.264746
604.095916	0.265289
604.305599	0.265375
604.515264	0.266247
604.724910	0.266864
604.934538	0.266947
605.144148	0.267188
605.353740	0.267534
605.563314	0.267300
605.772869	0.267775
605.982406	0.267833
606.191925	0.268194
606.401425	0.267705
606.610908	0.267631
606.820372	0.267853
607.029818	0.268058
607.239246	0.268232
607.448655	0.268956
607.658047	0.268976
607.867420	0.269096
608.076775	0.268877
608.286111	0.269533
608.495430	0.269888
608.704730	0.270345
608.914012	0.270375
609.123275	0.270716
609.332521	0.270933
609.541748	0.271229
609.750957	0.271178
609.960148	0.271650
610.169321	0.271614
610.378475	0.271542
610.587611	0.271537
610.796729	0.271870
611.005829	0.272081
611.214910	0.271840
611.423974	0.271888
611.633019	0.272291
611.842045	0.272517
612.051054	0.272629
612.260044	0.273112
612.469017	0.273256
612.677970	0.273341
612.886906	0.273455
613.095824	0.273702
613.304723	0.274038
613.513604	0.274132
613.722467	0.274155
613.931311	0.274294
614.140138	0.274394
614.348946	0.274862
614.557736	0.275132
614.766507	0.275206
614.975261	0.275506
615.183996	0.275900
615.392713	0.275917
615.601412	0.276109
615.810092	0.276361
616.018754	0.276334
616.227399	0.276083
616.436024	0.276352
616.644632	0.276489
616.853222	0.276707
617.061793	0.276684
617.270346	0.277221
617.478880	0.277552
617.687397	0.277941
617.895895	0.278237
618.104375	0.278775
618.312837	0.278892
618.521281	0.279134
618.729706	0.279263
618.938113	0.279339
619.146502	0.279494
619.354873	0.279409
619.563226	0.279568
619.771560	0.279886
619.979876	0.279727
620.188174	0.279682
620.396453	0.279630
620.604715	0.279552
620.812958	0.279714
621.021183	0.279832
621.229390	0.279970
621.437578	0.279976
621.645748	0.280077
621.853900	0.280384
622.062034	0.280649
622.270150	0.280732
622.478247	0.280879
622.686326	0.281001
622.894387	0.280909
623.102430	0.281351
623.310454	0.281435
623.518461	0.281709
623.726449	0.281843
623.934418	0.281919
624.142370	0.282519
624.350303	0.283241
624.558218	0.283756
624.766115	0.284165
624.973994	0.284275
625.181855	0.284530
625.389697	0.284657
625.597521	0.285114
625.805327	0.285503
626.013114	0.285745
626.220883	0.285711
626.428634	0.285633
626.636367	0.285796
626.844082	0.286107
627.051778	0.286420
627.259457	0.286477
627.467117	0.286476
627.674758	0.286730
627.882382	0.287104
628.089987	0.287073
628.297574	0.287445
628.505143	0.287848
628.712694	0.288171
628.920226	0.288416
629.127740	0.288893
629.335236	0.289145
629.542714	0.289287
629.750174	0.289322
629.957615	0.289663
630.165038	0.289693
630.372443	0.289733
630.579829	0.289629
630.787198	0.289618
630.994548	0.289385
631.201880	0.289338
631.409194	0.289249
631.616489	0.288922
631.823766	0.289312
632.031025	0.289375
632.238266	0.289416
632.445489	0.289409
632.652693	0.289562
632.859879	0.289950
633.067047	0.290486
633.274197	0.290781
633.481329	0.291288
633.688442	0.291277
633.895537	0.291604
634.102614	0.291844
634.309672	0.292082
634.516713	0.292494
634.723735	0.292579
634.930739	0.292704
635.137724	0.292976
635.344692	0.292952
635.551641	0.292827
635.758572	0.292795
635.965485	0.293069
636.172379	0.293410
636.379256	0.293155
636.586114	0.293030
636.792954	0.293104
636.999775	0.293328
637.206579	0.293862
637.413364	0.294238
637.620131	0.294489
637.826880	0.294556
638.033610	0.294664
638.240323	0.295095
638.447017	0.295657
638.653692	0.295724
638.860350	0.295877
639.066990	0.295892
639.273611	0.295873
639.480214	0.296032
639.686798	0.296124
639.893365	0.296238
640.099913	0.296415
640.306443	0.296596
640.512955	0.296856
640.719449	0.297083
640.925924	0.297422
641.132381	0.298133
641.338820	0.298466
641.545241	0.298807
641.751644	0.298946
641.958028	0.299340
642.164394	0.299339
642.370742	0.299531
642.577071	0.299651
642.783383	0.299704
642.989676	0.299680
643.195951	0.299658
643.402207	0.299810
643.608446	0.300166
643.814666	0.300274
644.020868	0.300771
644.227052	0.301233
644.433218	0.301410
644.639365	0.301668
644.845494	0.301842
645.051605	0.302299
645.257698	0.302742
645.463772	0.302875
645.669828	0.303311
645.875866	0.303066
646.081886	0.302911
646.287888	0.303027
646.493871	0.303302
646.699836	0.303484
646.905783	0.303841
647.111712	0.304029
647.317622	0.304206
647.523514	0.304179
647.729388	0.304718
647.935244	0.304957
648.141082	0.305341
648.346901	0.305543
648.552702	0.305869
648.758485	0.305961
648.964250	0.306002
649.169996	0.306353
649.375724	0.306601
649.581434	0.306846
649.787126	0.307298
649.992800	0.307659
650.198455	0.307769
650.404092	0.307927
650.609711	0.308068
650.815311	0.308231
651.020894	0.308281
651.226458	0.308339
651.432004	0.308681
651.637532	0.308465
651.843041	0.308497
652.048532	0.308684
652.254006	0.309029
652.459460	0.309316
652.664897	0.309614
652.870315	0.309943
653.075716	0.310186
653.281097	0.310138
653.486461	0.310736
653.691807	0.311271
653.897134	0.311649
654.102443	0.311705
654.307734	0.311774
654.513006	0.311701
654.718261	0.312083
654.923497	0.312327
655.128715	0.312901
655.333915	0.312999
655.539096	0.313008
655.744259	0.313302
655.949404	0.313553
656.154531	0.314017
656.359640	0.314509
656.564730	0.314803
656.769802	0.315048
656.974856	0.315139
657.179892	0.315271
657.384909	0.315291
657.589908	0.315478
657.794889	0.315712
657.999852	0.315827
658.204797	0.315914
658.409723	0.315829
658.614631	0.316037
658.819521	0.316234
659.024393	0.316461
659.229246	0.316761
659.434081	0.316547
659.638898	0.316899
659.843697	0.316976
660.048478	0.317500
660.253240	0.317905
660.457984	0.318357
660.662710	0.318587
660.867417	0.318921
661.072107	0.319137
661.276778	0.319554
661.481431	0.319590
661.686066	0.319865
661.890682	0.319687
662.095281	0.320041
662.299861	0.320142
662.504422	0.320344
662.708966	0.320689
662.913491	0.321134
663.117999	0.321328
663.322488	0.321622
663.526958	0.321777
663.731411	0.322415
663.935845	0.322334
664.140261	0.322413
664.344659	0.322501
664.549038	0.322621
664.753400	0.322549
664.957743	0.322893
665.162068	0.323239
665.366375	0.323733
665.570663	0.323696
665.774933	0.324405
665.979185	0.324752
666.183419	0.325302
666.387635	0.325508
666.591832	0.325922
666.796011	0.325998
667.000172	0.325971
667.204315	0.326285
667.408439	0.326663
667.612545	0.326771
667.816634	0.326943
668.020703	0.326741
668.224755	0.327139
668.428788	0.327456
668.632803	0.327919
668.836800	0.328474
669.040779	0.328779
669.244739	0.329032
669.448681	0.329188
669.652605	0.329568
669.856511	0.330076
670.060399	0.330294
670.264268	0.330470
670.468119	0.330423
670.671952	0.330776
670.875767	0.330727
671.079563	0.330849
671.283341	0.331003
671.487101	0.331126
671.690843	0.331262
671.894567	0.331323
672.098272	0.331582
672.301959	0.331973
672.505628	0.331661
672.709278	0.332050
672.912911	0.332131
673.116525	0.332194
673.320121	0.332416
673.523699	0.332649
673.727258	0.332862
673.930799	0.332766
674.134322	0.333004
674.337827	0.333571
674.541314	0.333712
674.744782	0.334298
674.948232	0.334640
675.151664	0.334852
675.355078	0.334894
675.558474	0.335235
675.761851	0.335855
675.965210	0.336337
676.168551	0.336470
676.371873	0.336852
676.575178	0.336866
676.778464	0.337378
676.981732	0.337846
677.184981	0.338330
677.388213	0.338729
677.591426	0.338717
677.794621	0.338986
677.997798	0.339163
678.200956	0.339532
678.404097	0.339997
678.607219	0.340188
678.810323	0.340246
679.013408	0.340563
679.216476	0.340610
679.419525	0.340853
679.622556	0.340723
679.825569	0.341237
680.028563	0.341480
680.231540	0.341647
680.434498	0.341813
680.637438	0.342115
680.840359	0.342341
681.043263	0.342677
681.246148	0.343285
681.449015	0.343749
681.651864	0.343766
681.854694	0.343596
682.057506	0.343690
682.260301	0.343812
682.463076	0.344181
682.665834	0.344449
682.868573	0.344878
683.071295	0.344941
683.273998	0.345151
683.476682	0.345615
683.679349	0.346082
683.881997	0.346621
684.084627	0.346828
684.287239	0.346852
684.489833	0.347181
684.692408	0.347161
684.894965	0.347383
685.097504	0.347743
685.300025	0.347877
685.502527	0.347895
685.705012	0.347998
685.907478	0.348352
686.109925	0.348593
686.312355	0.348530
686.514766	0.348789
686.717159	0.349214
686.919534	0.349450
687.121891	0.349634
687.324230	0.350077
687.526550	0.350234
687.728852	0.350606
687.931136	0.350750
688.133401	0.350875
688.335649	0.351227
688.537878	0.351468
688.740089	0.351793
688.942281	0.351929
689.144456	0.352259
689.346612	0.352456
689.548750	0.352529
689.750870	0.352892
689.952971	0.353553
690.155055	0.353598
690.357120	0.353773
690.559167	0.353758
690.761195	0.354281
690.963206	0.354030
691.165198	0.354023
691.367172	0.354076
691.569128	0.354121
691.771065	0.354139
691.972984	0.354212
692.174885	0.354283
692.376768	0.354424
692.578633	0.354258
692.780479	0.354645
692.982308	0.354933
693.184118	0.355326
693.385909	0.355526
693.587683	0.355811
693.789438	0.356160
693.991175	0.356112
694.192894	0.356449
694.394595	0.356611
694.596277	0.356709
694.797941	0.357072
694.999587	0.357152
695.201215	0.357447
695.402824	0.357325
695.604416	0.357529
695.805989	0.357738
696.007543	0.357660
696.209080	0.357991
696.410598	0.358329
696.612099	0.358718
696.813580	0.358744
697.015044	0.359058
697.216490	0.359375
697.417917	0.359430
697.619326	0.359698
697.820717	0.359972
698.022089	0.360024
698.223444	0.359978
698.424780	0.359727
698.626098	0.360012
698.827397	0.359865
699.028679	0.359998
699.229942	0.360312
699.431187	0.360397
699.632414	0.360385
699.833622	0.360426
700.034813	0.360716
700.235985	0.360998
700.437139	0.361112
700.638274	0.361230
700.839392	0.361412
701.040491	0.361672
701.241572	0.362092
701.442635	0.362533
701.643679	0.362763
701.844706	0.363266
702.045714	0.363136
702.246704	0.363365
702.447675	0.363723
702.648629	0.363784
702.849564	0.363796
703.050481	0.363834
703.251380	0.363736
703.452260	0.363969
703.653122	0.363428
703.853966	0.363696
704.054792	0.363712
704.255600	0.363675
704.456389	0.363753
704.657160	0.363521
704.857913	0.363569
705.058648	0.363601
705.259365	0.363325
705.460063	0.363694
705.660743	0.363659
705.861405	0.363736
706.062048	0.363855
706.262674	0.363945
706.463281	0.364024
706.663870	0.363884
706.864441	0.364060
707.064993	0.364369
707.265527	0.364382
707.466043	0.364646
707.666541	0.364734
707.867021	0.365010
708.067482	0.365192
708.267925	0.365522
708.468350	0.365758
708.668757	0.366105
708.869145	0.366411
709.069516	0.366707
709.269868	0.366992
709.470201	0.367230
709.670517	0.367438
709.870814	0.367681
710.071093	0.367760
710.271354	0.367819
710.471597	0.367783
710.671821	0.367764
710.872028	0.367488
711.072216	0.367407
711.272385	0.367310
711.472537	0.366925
711.672670	0.366636
711.872785	0.366525
712.072882	0.366659
712.272961	0.366486
712.473021	0.366304
712.673063	0.366333
712.873087	0.366283
713.073093	0.366297
713.273081	0.366355
713.473050	0.366352
713.673001	0.366432
713.872934	0.366284
714.072849	0.366529
714.272745	0.366688
714.472623	0.366864
714.672483	0.367010
714.872325	0.367073
715.072148	0.367059
715.271954	0.367261
715.471741	0.367424
715.671509	0.367283
715.871260	0.366974
716.070992	0.366923
716.270707	0.366948
716.470403	0.366756
716.670080	0.366663
716.869740	0.366747
717.069381	0.366706
717.269004	0.366557
717.468609	0.366400
717.668195	0.366502
717.867764	0.366475
718.067314	0.366247
718.266846	0.366153
718.466360	0.366138
718.665855	0.365953
718.865332	0.365635
719.064791	0.365359
719.264232	0.365315
719.463655	0.365201
719.663059	0.365015
719.862445	0.364935
720.061813	0.364905
720.261163	0.364693
720.460494	0.364678
720.659807	0.364748
720.859102	0.364826
721.058379	0.364799
721.257638	0.364760
721.456878	0.364683
721.656100	0.364725
721.855304	0.364983
722.054490	0.365281
722.253657	0.365321
722.452806	0.365372
722.651937	0.365366
722.851050	0.365594
723.050145	0.365655
723.249221	0.365599
723.448279	0.365529
723.647319	0.365263
723.846340	0.364826
724.045344	0.364693
724.244329	0.364566
724.443296	0.364431
724.642245	0.364211
724.841175	0.364014
725.040088	0.364211
725.238982	0.364143
725.437857	0.364003
725.636715	0.364083
725.835554	0.364179
726.034376	0.364058
726.233179	0.364114
726.431963	0.364063
726.630730	0.363898
726.829478	0.363499
727.028208	0.363406
727.226920	0.363105
727.425614	0.362845
727.624289	0.362334
727.822946	0.362359
728.021585	0.362206
728.220206	0.362038
728.418808	0.361965
728.617392	0.361991
728.815958	0.361733
729.014506	0.361888
729.213036	0.361660
729.411547	0.361978
729.610040	0.361645
729.808515	0.361477
730.006972	0.361474
730.205410	0.361209
730.403831	0.360841
730.602233	0.360982
730.800616	0.360648
730.998982	0.360637
731.197329	0.360281
731.395658	0.359933
731.593969	0.359900
731.792262	0.359740
731.990536	0.359787
732.188793	0.359828
732.387031	0.359797
732.585250	0.359739
732.783452	0.359509
732.981635	0.359108
733.179800	0.359271
733.377947	0.358877
733.576076	0.358430
733.774186	0.358253
733.972278	0.358172
734.170352	0.357724
734.368408	0.357724
734.566446	0.357730
734.764465	0.357618
734.962466	0.357289
735.160449	0.357316
735.358413	0.357613
735.556360	0.357459
735.754288	0.357214
735.952198	0.357263
736.150090	0.357208
736.347963	0.356971
736.545818	0.357161
736.743655	0.357279
736.941474	0.357049
737.139275	0.356901
737.337057	0.356975
737.534821	0.356955
737.732567	0.356528
737.930295	0.356090
738.128005	0.356344
738.325696	0.355923
738.523369	0.355769
738.721024	0.355630
738.918660	0.355187
739.116279	0.354817
739.313879	0.354709
739.511461	0.354747
739.709024	0.354802
739.906570	0.354301
740.104097	0.354276
740.301606	0.353939
740.499097	0.353948
740.696569	0.353897
740.894024	0.353593
741.091460	0.353303
741.288878	0.352973
741.486277	0.352593
741.683659	0.352579
741.881022	0.352061
742.078367	0.351995
742.275694	0.351706
742.473002	0.351543
742.670293	0.351430
742.867565	0.351064
743.064819	0.351060
743.262054	0.350812
743.459272	0.350158
743.656471	0.350121
743.853652	0.349845
744.050815	0.349329
744.247959	0.349282
744.445085	0.348878
744.642194	0.348731
744.839283	0.348213
745.036355	0.347914
745.233408	0.347954
745.430444	0.347846
745.627461	0.347491
745.824459	0.347290
746.021440	0.346835
746.218402	0.346779
746.415346	0.346301
746.612272	0.346125
746.809180	0.345860
747.006069	0.345550
747.202940	0.344990
747.399793	0.344863
747.596628	0.344670
747.793444	0.344371
747.990243	0.343996
748.187023	0.343854
748.383784	0.343835
748.580528	0.343931
748.777253	0.343940
748.973960	0.343850
749.170649	0.343389
749.367320	0.343281
749.563973	0.343217
749.760607	0.343035
749.957223	0.342890
750.153821	0.342491
750.350400	0.342047
750.546962	0.341765
750.743505	0.341683
750.940030	0.341408
751.136536	0.341210
751.333025	0.340960
751.529495	0.340755
751.725947	0.340875
751.922381	0.340852
752.118796	0.340764
752.315194	0.340630
752.511573	0.340269
752.707934	0.340351
752.904276	0.340257
753.100601	0.339979
753.296907	0.339773
753.493195	0.339312
753.689465	0.339102
753.885716	0.338826
754.081949	0.338450
754.278164	0.338531
754.474361	0.338618
754.670540	0.338383
754.866700	0.338420
755.062843	0.338505
755.258967	0.338540
755.455072	0.338012
755.651160	0.337874
755.847229	0.337553
756.043280	0.337191
756.239313	0.336490
756.435328	0.336410
756.631324	0.336095
756.827302	0.335728
757.023262	0.335376
757.219204	0.335412
757.415127	0.335375
757.611033	0.335426
757.806920	0.335485
758.002788	0.335687
758.198639	0.335508
758.394471	0.335232
758.590286	0.334961
758.786081	0.334959
758.981859	0.334879
759.177619	0.334356
759.373360	0.334100
759.569083	0.334199
759.764788	0.333905
759.960474	0.333504
760.156143	0.333431
760.351793	0.333447
760.547425	0.333086
760.743038	0.332981
760.938634	0.333114
761.134211	0.332836
761.329770	0.332297
761.525311	0.332154
761.720833	0.332217
761.916338	0.331908
762.111824	0.331913
762.307292	0.331578
762.502741	0.331472
762.698173	0.331063
762.893586	0.331176
763.088981	0.331142
763.284358	0.331036
763.479716	0.330642
763.675057	0.330644
763.870379	0.330429
764.065683	0.330663
764.260968	0.330403
764.456236	0.330510
764.651485	0.330399
764.846716	0.330051
765.041929	0.329958
765.237123	0.329972
765.432299	0.329957
765.627457	0.329589
765.822597	0.329512
766.017719	0.329195
766.212822	0.328989
766.407907	0.328827
766.602974	0.328680
766.798023	0.328436
766.993054	0.328164
767.188066	0.327914
767.383060	0.328146
767.578036	0.327881
767.772993	0.327798
767.967933	0.327772
768.162854	0.327497
768.357757	0.327495
768.552642	0.327264
768.747508	0.327088
768.942356	0.327068
769.137186	0.326648
769.331998	0.326376
769.526792	0.326697
769.721567	0.326405
769.916324	0.326072
770.111063	0.325972
770.305784	0.325909
770.500486	0.325849
770.695171	0.325355
770.889837	0.325289
771.084484	0.325194
771.279114	0.324643
771.473725	0.324644
771.668318	0.324680
771.862893	0.324564
772.057450	0.324605
772.251988	0.324539
772.446509	0.324463
772.641011	0.324325
772.835494	0.324241
773.029960	0.324027
773.224407	0.323846
773.418836	0.323885
773.613247	0.323649
773.807640	0.323451
774.002014	0.323194
774.196370	0.323317
774.390708	0.323082
774.585028	0.322897
774.779330	0.323000
774.973613	0.323148
775.167878	0.323026
775.362125	0.323404
775.556354	0.323349
775.750564	0.323394
775.944756	0.323185
776.138930	0.323501
776.333086	0.323593
776.527223	0.323527
776.721343	0.323166
776.915444	0.322904
777.109526	0.322706
777.303591	0.322762
777.497637	0.322734
777.691666	0.322660
777.885676	0.322247
778.079667	0.322243
778.273641	0.322412
778.467596	0.322621
778.661533	0.322592
778.855452	0.322594
779.049352	0.322345
779.243235	0.322286
779.437099	0.322334
779.630945	0.322568
779.824773	0.322655
780.018582	0.322458
780.212373	0.322206
780.406146	0.322261
780.599901	0.322086
780.793638	0.322009
780.987356	0.322125
781.181056	0.322150
781.374738	0.321938
781.568402	0.321829
781.762047	0.321674
781.955674	0.321746
782.149283	0.321949
782.342874	0.321874
782.536447	0.322205
782.730001	0.322151
782.923537	0.322341
783.117055	0.322515
783.310555	0.322472
783.504036	0.322800
783.697499	0.322699
783.890944	0.322390
784.084371	0.322588
784.277780	0.322578
784.471170	0.322691
784.664542	0.322217
784.857896	0.322170
785.051231	0.322164
785.244549	0.321972
785.437848	0.322241
785.631129	0.322562
785.824392	0.322208
786.017636	0.322122
786.210863	0.322021
786.404071	0.322249
786.597260	0.322313
786.790432	0.322208
786.983585	0.322250
787.176721	0.322231
787.369838	0.322306
787.562936	0.322640
787.756017	0.322608
787.949079	0.322911
788.142123	0.323045
788.335149	0.323066
788.528156	0.323174
788.721146	0.323389
788.914117	0.323268
789.107070	0.323176
789.300005	0.322981
789.492921	0.323242
789.685819	0.322875
789.878699	0.322822
790.071561	0.322854
790.264405	0.322986
790.457230	0.322791
790.650037	0.322971
790.842826	0.322955
791.035597	0.323036
791.228349	0.322926
791.421084	0.323339
791.613800	0.323436
791.806497	0.323566
791.999177	0.323495
792.191838	0.323656
792.384481	0.323457
792.577106	0.323311
792.769713	0.323361
792.962301	0.323440
793.154871	0.323186
793.347423	0.323108
793.539957	0.322984
793.732473	0.323206
793.924970	0.323397
794.117449	0.323651
794.309910	0.324089
794.502353	0.324479
794.694777	0.324237
794.887183	0.324569
795.079571	0.324921
795.271941	0.325370
795.464293	0.325454
795.656626	0.325553
795.848941	0.325736
796.041238	0.325718
796.233516	0.325774
796.425777	0.326059
796.618019	0.326164
796.810243	0.326414
797.002449	0.326460
797.194636	0.326428
797.386805	0.326256
797.578956	0.326268
797.771089	0.326557
797.963204	0.326759
798.155300	0.326804
798.347378	0.326773
798.539438	0.326734
798.731480	0.326739
798.923503	0.327186
799.115509	0.327697
799.307496	0.327996
799.499465	0.328025
799.691415	0.328207
799.883348	0.328401
800.075262	0.328471
800.267158	0.328713
800.459035	0.328719
800.650895	0.328891
800.842736	0.328857
801.034559	0.329102
801.226364	0.329503
801.418150	0.329753
801.609919	0.330255
801.801669	0.330924
801.993401	0.331011
802.185114	0.331505
802.376810	0.331748
802.568487	0.331791
802.760146	0.331839
802.951787	0.332216
803.143409	0.332127
803.335014	0.332206
803.526600	0.332233
803.718168	0.332513
803.909717	0.332247
804.101249	0.332276
804.292762	0.332654
804.484257	0.332867
804.675734	0.332323
804.867192	0.332888
805.058632	0.333311
805.250054	0.333508
805.441458	0.333877
805.632844	0.334252
805.824211	0.334730
806.015561	0.334995
806.206891	0.335484
806.398204	0.336262
806.589499	0.336322
806.780775	0.336197
806.972033	0.336297
807.163273	0.336293
807.354495	0.336758
807.545698	0.336528
807.736883	0.336814
807.928050	0.336875
808.119199	0.336909
808.310329	0.336746
808.501441	0.336972
808.692535	0.337210
808.883611	0.337370
809.074669	0.337384
809.265708	0.337602
809.456729	0.337428
809.647732	0.337464
809.838717	0.337615
810.029683	0.337906
810.220632	0.338337
810.411562	0.338680
810.602474	0.339053
810.793367	0.339102
810.984242	0.339705
811.175100	0.340180
811.365938	0.340499
811.556759	0.340740
811.747562	0.340935
811.938346	0.341119
812.129112	0.340820
812.319860	0.341095
812.510589	0.341542
812.701300	0.341482
812.891994	0.341568
813.082668	0.341760
813.273325	0.341971
813.463964	0.342703
813.654584	0.343157
813.845186	0.344027
814.035769	0.344347
814.226335	0.344857
814.416882	0.345220
814.607411	0.345617
814.797922	0.346051
814.988415	0.346858
815.178889	0.347057
815.369345	0.347215
815.559783	0.347481
815.750203	0.347830
815.940605	0.347804
816.130988	0.348519
816.321353	0.349050
816.511700	0.349416
816.702028	0.349889
816.892339	0.350205
817.082631	0.350623
817.272905	0.351044
817.463161	0.351384
817.653398	0.351946
817.843617	0.351950
818.033819	0.352218
818.224001	0.352627
818.414166	0.352579
818.604312	0.352716
818.794440	0.353067
818.984550	0.352962
819.174642	0.353215
819.364716	0.353502
819.554771	0.353714
819.744808	0.354076
819.934827	0.354227
820.124827	0.354666
820.314810	0.354893
820.504774	0.355138
820.694720	0.355744
820.884647	0.356092
821.074557	0.356484
821.264448	0.356880
821.454321	0.357123
821.644176	0.357315
821.834012	0.357425
822.023831	0.357717
822.213631	0.358022
822.403413	0.358134
822.593176	0.358402
822.782922	0.358849
822.972649	0.359576
823.162358	0.359869
823.352049	0.360296
823.541721	0.360503
823.731376	0.360979
823.921012	0.361198
824.110629	0.361606
824.300229	0.361967
824.489811	0.362237
824.679374	0.362150
824.868919	0.362469
825.058445	0.362994
825.247954	0.363594
825.437444	0.363974
825.626916	0.364465
825.816370	0.365031
826.005806	0.365643
826.195223	0.365964
826.384622	0.366378
826.574003	0.366946
826.763366	0.367059
826.952711	0.367139
827.142037	0.367478
827.331345	0.368057
827.520635	0.368379
827.709906	0.368486
827.899160	0.369217
828.088395	0.369531
828.277612	0.369769
828.466810	0.370362
828.655991	0.371198
828.845153	0.371597
829.034297	0.371619
829.223423	0.371805
829.412531	0.372296
829.601620	0.372668
829.790691	0.373281
829.979744	0.374386
830.168779	0.375417
830.357795	0.375792
830.546793	0.376460
830.735773	0.377246
830.924735	0.377982
831.113679	0.378514
831.302604	0.378711
831.491511	0.379312
831.680400	0.379137
831.869271	0.379180
832.058123	0.379474
832.246957	0.379465
832.435773	0.379916
832.624571	0.380230
832.813351	0.380513
833.002112	0.380860
833.190855	0.381093
833.379580	0.381487
833.568287	0.381854
833.756975	0.382337
833.945645	0.382933
834.134297	0.383260
834.322931	0.383768
834.511547	0.384158
834.700144	0.384594
834.888723	0.385216
835.077284	0.385926
835.265826	0.386382
835.454351	0.386835
835.642857	0.387562
835.831345	0.387988
836.019815	0.388598
836.208266	0.389244
836.396699	0.389564
836.585114	0.389857
836.773511	0.389970
836.961890	0.390531
837.150250	0.390921
837.338592	0.391427
837.526916	0.391810
837.715222	0.392110
837.903510	0.392505
838.091779	0.393360
838.280030	0.393941
838.468263	0.394430
838.656477	0.394490
838.844674	0.394825
839.032852	0.395169
839.221012	0.395822
839.409153	0.396128
839.597277	0.396407
839.785382	0.396458
839.973469	0.396779
840.161538	0.397461
840.349589	0.398039
840.537621	0.398490
840.725635	0.398653
840.913631	0.399086
841.101609	0.399671
841.289568	0.400439
841.477509	0.400726
841.665432	0.401270
841.853337	0.401244
842.041224	0.401495
842.229092	0.402295
842.416942	0.402890
842.604774	0.403227
842.792588	0.403917
842.980383	0.404427
843.168160	0.405322
843.355919	0.405649
843.543660	0.406643
843.731382	0.407000
843.919087	0.407100
844.106773	0.407888
844.294441	0.408475
844.482090	0.408680
844.669722	0.408959
844.857335	0.409361
845.044930	0.409506
845.232507	0.410094
845.420065	0.411103
845.607605	0.412047
845.795127	0.412191
845.982631	0.412466
846.170117	0.413044
846.357584	0.413697
846.545033	0.413927
846.732464	0.414933
846.919877	0.415123
847.107272	0.415477
847.294648	0.415584
847.482006	0.416060
847.669346	0.416793
847.856667	0.417192
848.043971	0.417362
848.231256	0.418303
848.418523	0.418607
848.605771	0.419258
848.793002	0.419323
848.980214	0.419801
849.167408	0.420116
849.354584	0.420520
849.541742	0.421190
849.728881	0.422001
849.916002	0.422164
850.103105	0.422533
850.290190	0.423034
850.477256	0.424120
850.664304	0.424729
850.851334	0.425388
851.038346	0.425590
851.225340	0.425976
851.412315	0.426125
851.599272	0.426812
851.786211	0.427187
851.973132	0.427551
852.160034	0.427683
852.346918	0.428229
852.533784	0.428566
852.720632	0.429245
852.907462	0.429638
853.094273	0.429975
853.281066	0.430384
853.467841	0.431024
853.654598	0.431190
853.841336	0.431695
854.028056	0.431857
854.214758	0.432534
854.401442	0.433166
854.588107	0.433788
854.774755	0.434112
854.961384	0.434592
855.147995	0.435079
855.334587	0.435488
855.521162	0.435591
855.707718	0.436235
855.894256	0.436419
856.080775	0.436681
856.267277	0.436885
856.453760	0.437341
856.640225	0.437415
856.826672	0.437923
857.013101	0.438459
857.199511	0.438630
857.385903	0.438423
857.572277	0.438915
857.758633	0.438950
857.944970	0.439317
858.131290	0.439983
858.317591	0.440272
858.503873	0.440567
858.690138	0.441011
858.876384	0.441842
859.062612	0.442642
859.248822	0.443118
859.435014	0.443988
859.621188	0.444410
859.807343	0.445104
859.993480	0.445659
860.179599	0.446068
860.365699	0.446540
860.551781	0.446841
860.737846	0.447449
860.923891	0.447843
861.109919	0.447585
861.295929	0.448024
861.481920	0.448107
861.667893	0.448657
861.853848	0.449074
862.039784	0.449382
862.225702	0.449517
862.411603	0.449509
862.597484	0.449516
862.783348	0.450476
862.969193	0.451036
863.155021	0.451455
863.340830	0.451828
863.526620	0.452199
863.712393	0.452675
863.898147	0.453722
864.083883	0.453771
864.269601	0.454558
864.455301	0.454591
864.640982	0.455100
864.826645	0.455217
865.012290	0.455540
865.197917	0.455741
865.383526	0.456045
865.569116	0.456297
865.754688	0.457021
865.940242	0.457576
866.125777	0.458237
866.311295	0.458299
866.496794	0.458333
866.682275	0.458918
866.867737	0.459707
867.053182	0.460416
867.238608	0.460840
867.424016	0.461288
867.609406	0.461608
867.794778	0.461735
867.980131	0.462255
868.165466	0.462839
868.350783	0.462953
868.536082	0.462608
868.721362	0.462613
868.906625	0.462844
869.091869	0.463366
869.277094	0.463322
869.462302	0.463623
869.647491	0.463463
869.832662	0.464001
870.017815	0.463916
870.202950	0.464603
870.388066	0.464373
870.573165	0.464623
870.758245	0.465024
870.943306	0.465307
871.128350	0.465886
871.313375	0.466878
871.498382	0.467190
871.683371	0.468337
871.868342	0.469091
872.053294	0.469863
872.238229	0.469989
872.423144	0.469951
872.608042	0.470538
872.792922	0.470281
872.977783	0.469831
873.162626	0.470121
873.347451	0.470271
873.532258	0.469640
873.717046	0.469784
873.901816	0.469828
874.086568	0.470328
874.271302	0.470293
874.456017	0.470694
874.640715	0.471281
874.825394	0.471381
875.010055	0.471328
875.194697	0.471656
875.379322	0.472241
875.563928	0.472906
875.748516	0.473257
875.933085	0.473624
876.117637	0.473912
876.302170	0.473870
876.486685	0.474220
876.671182	0.474384
876.855661	0.474722
877.040121	0.474606
877.224563	0.475241
877.408987	0.475378
877.593393	0.475471
877.777780	0.475397
877.962150	0.476324
878.146501	0.476752
878.330833	0.477209
878.515148	0.477764
878.699444	0.478362
878.883722	0.478268
879.067982	0.478029
879.252224	0.478411
879.436447	0.479008
879.620653	0.478963
879.804840	0.478928
879.989008	0.478971
880.173159	0.478689
880.357291	0.478374
880.541405	0.478126
880.725501	0.479108
880.909579	0.479562
881.093638	0.479401
881.277680	0.479093
881.461703	0.479375
881.645707	0.479860
881.829694	0.480283
882.013662	0.480265
882.197612	0.480635
882.381544	0.480503
882.565458	0.479952
882.749353	0.480206
882.933230	0.480825
883.117089	0.480984
883.300930	0.480558
883.484753	0.480423
883.668557	0.480824
883.852343	0.480846
884.036111	0.480546
884.219861	0.480710
884.403592	0.480731
884.587305	0.479892
884.771000	0.479567
884.954677	0.479598
885.138335	0.480166
885.321976	0.480208
885.505598	0.480420
885.689201	0.480124
885.872787	0.480258
886.056354	0.480971
886.239904	0.481640
886.423434	0.481617
886.606947	0.481845
886.790442	0.481150
886.973918	0.481703
887.157376	0.481720
887.340816	0.482110
887.524237	0.482079
887.707641	0.481673
887.891026	0.481495
888.074393	0.481914
888.257741	0.481606
888.441072	0.481761
888.624384	0.481052
888.807678	0.481119
888.990954	0.481084
889.174211	0.481436
889.357451	0.481036
889.540672	0.481033
889.723875	0.480997
889.907059	0.480970
890.090226	0.480487
890.273374	0.480370
890.456504	0.479965
890.639616	0.480361
890.822709	0.480395
891.005785	0.480838
891.188842	0.480569
891.371881	0.479835
891.554901	0.480447
891.737904	0.481321
891.920888	0.481711
892.103854	0.481798
892.286802	0.481313
892.469731	0.480773
892.652643	0.480604
892.835536	0.480238
893.018410	0.481109
893.201267	0.480567
893.384106	0.480230
893.566926	0.479999
893.749728	0.479170
893.932511	0.478746
894.115277	0.478463
894.298024	0.478027
894.480753	0.478498
894.663464	0.477736
894.846157	0.477326
895.028831	0.477214
895.211487	0.476930
895.394125	0.477115
895.576745	0.476807
895.759346	0.476892
895.941930	0.476986
896.124495	0.476883
896.307041	0.476441
896.489570	0.476465
896.672080	0.475782
896.854573	0.475003
897.037046	0.474724
897.219502	0.474761
897.401940	0.474203
897.584359	0.473573
897.766760	0.472469
897.949143	0.472425
898.131507	0.472532
898.313854	0.472549
898.496182	0.472901
898.678492	0.472884
898.860783	0.472167
899.043057	0.472205
899.225312	0.472241
899.407549	0.473136
899.589768	0.472686
899.771968	0.471954
899.954151	0.471209
900.136315	0.470261
900.318461	0.469934
900.500588	0.470255
900.682698	0.470089
900.864789	0.469954
901.046862	0.468996
901.228917	0.468596
901.410953	0.468082
901.592971	0.468560
901.774972	0.468832
901.956953	0.468316
902.138917	0.468169
902.320862	0.467976
902.502790	0.467232
902.684699	0.467045
902.866589	0.466736
903.048462	0.466199
903.230316	0.465683
903.412152	0.465350
903.593970	0.464875
903.775770	0.464412
903.957551	0.464047
904.139314	0.463660
904.321059	0.463134
904.502786	0.463145
904.684494	0.463130
904.866185	0.462105
905.047857	0.461627
905.229510	0.461951
905.411146	0.460955
905.592763	0.459818
905.774363	0.459451
905.955943	0.459027
906.137506	0.458373
906.319051	0.457869
906.500577	0.457491
906.682085	0.457061
906.863575	0.456238
907.045046	0.456080
907.226500	0.455203
907.407935	0.455224
907.589352	0.455106
907.770750	0.454849
907.952131	0.454278
908.133493	0.454069
908.314837	0.453348
908.496163	0.452894
908.677470	0.453015
908.858760	0.453546
909.040031	0.453114
909.221284	0.452095
909.402518	0.451460
909.583735	0.451140
909.764933	0.451122
909.946113	0.450351
910.127275	0.449000
910.308418	0.447864
910.489544	0.447432
910.670651	0.446302
910.851740	0.445943
911.032810	0.445450
911.213863	0.444685
911.394897	0.443659
911.575913	0.443696
911.756911	0.443715
911.937890	0.443181
912.118851	0.442347
912.299794	0.442256
912.480719	0.442624
912.661626	0.442091
912.842514	0.441368
913.023384	0.440866
913.204236	0.440489
913.385070	0.439710
913.565886	0.438853
913.746683	0.438740
913.927462	0.437766
914.108223	0.435702
914.288965	0.434777
914.469690	0.434264
914.650396	0.433389
914.831084	0.432326
915.011754	0.431900
915.192405	0.431359
915.373038	0.429663
915.553653	0.428420
915.734250	0.428647
915.914829	0.428160
916.095389	0.427594
916.275931	0.427073
916.456455	0.426425
916.636961	0.426063
916.817448	0.425358
916.997917	0.425461
917.178368	0.425400
917.358801	0.424563
917.539216	0.423921
917.719612	0.422892
917.899990	0.422372
918.080350	0.421717
918.260692	0.420531
918.441015	0.419588
918.621320	0.417985
918.801607	0.417493
918.981876	0.416348
919.162127	0.415252
919.342359	0.414911
919.522573	0.413722
919.702769	0.412194
919.882947	0.411720
920.063106	0.411547
920.243247	0.410791
920.423370	0.409813
920.603475	0.408748
920.783562	0.408287
920.963630	0.407397
921.143680	0.407210
921.323712	0.406984
921.503725	0.406613
921.683721	0.405899
921.863698	0.405709
922.043657	0.405556
922.223598	0.404664
922.403520	0.403533
922.583424	0.402981
922.763311	0.401667
922.943178	0.401327
923.123028	0.399588
923.302859	0.398259
923.482673	0.397494
923.662467	0.396781
923.842244	0.396272
924.022003	0.395262
924.201743	0.394146
924.381465	0.393778
924.561169	0.391995
924.740854	0.391437
924.920522	0.390445
925.100171	0.389109
925.279802	0.387042
925.459414	0.386322
925.639009	0.385989
925.818585	0.384824
925.998143	0.383228
926.177683	0.382865
926.357205	0.382409
926.536708	0.381741
926.716193	0.380459
926.895660	0.379930
927.075109	0.379181
927.254539	0.378186
927.433951	0.377447
927.613345	0.377054
927.792721	0.376108
927.972079	0.374602
928.151418	0.373081
928.330739	0.372812
928.510042	0.372000
928.689327	0.371375
928.868593	0.370360
929.047841	0.369143
929.227071	0.367707
929.406283	0.366476
929.585476	0.365654
929.764652	0.365184
929.943809	0.363877
930.122948	0.362494
930.302068	0.360045
930.481171	0.358831
930.660255	0.358566
930.839321	0.358286
931.018369	0.358122
931.197398	0.356453
931.376409	0.355595
931.555402	0.354771
931.734377	0.353958
931.913334	0.353234
932.092272	0.352581
932.271192	0.350655
932.450094	0.348805
932.628978	0.347448
932.807844	0.346925
932.986691	0.345391
933.165520	0.344626
933.344331	0.343822
933.523123	0.342400
933.701898	0.341590
933.880654	0.340993
934.059392	0.339849
934.238111	0.339220
934.416813	0.338962
934.595496	0.338032
934.774161	0.336843
934.952808	0.335183
935.131437	0.335124
935.310047	0.333421
935.488639	0.332543
935.667213	0.331418
935.845769	0.329785
936.024306	0.327855
936.202825	0.326968
936.381326	0.325590
936.559809	0.324371
936.738274	0.323184
936.916720	0.321660
937.095148	0.319626
937.273558	0.317654
937.451950	0.316255
937.630323	0.314720
937.808678	0.313099
937.987015	0.312044
938.165334	0.311127
938.343635	0.309693
938.521917	0.310094
938.700181	0.310410
938.878427	0.310159
939.056655	0.308944
939.234864	0.308294
939.413055	0.307767
939.591228	0.306241
939.769383	0.305635
939.947519	0.304932
940.125638	0.303322
940.303738	0.301430
940.481820	0.301125
940.659883	0.298648
940.837929	0.297786
941.015956	0.296945
941.193965	0.296694
941.371955	0.295403
941.549928	0.294042
941.727882	0.292230
941.905818	0.290700
942.083736	0.289474
942.261636	0.289556
942.439517	0.288155
942.617380	0.286279
942.795225	0.285303
942.973052	0.284022
943.150860	0.282157
943.328651	0.279143
943.506423	0.277364
943.684176	0.275942
943.861912	0.275135
944.039629	0.273661
944.217328	0.273315
944.395009	0.272172
944.572672	0.269340
944.750317	0.269074
944.927943	0.269694
945.105551	0.268230
945.283141	0.266149
945.460712	0.264908
945.638265	0.264372
945.815801	0.262294
945.993317	0.260467
946.170816	0.260285
946.348297	0.259135
946.525759	0.257986
946.703203	0.256941
946.880629	0.255422
947.058036	0.255184
947.235425	0.254045
947.412797	0.252498
947.590149	0.250814
947.767484	0.249403
947.944800	0.247844
948.122099	0.245330
948.299379	0.245629
948.476640	0.246353
948.653884	0.244062
948.831109	0.241138
949.008316	0.241415
949.185505	0.240401
949.362676	0.239381
949.539828	0.236250
949.716962	0.236236
949.894078	0.233638
950.071176	0.229982
950.248256	0.228858
950.425317	0.228904
950.602360	0.225636
950.779385	0.223623
950.956391	0.223765
951.133380	0.223964
951.310350	0.222860
951.487302	0.221631
951.664235	0.221927
951.841151	0.219002
952.018048	0.217145
952.194927	0.217749
952.371788	0.218335
952.548631	0.215437
952.725455	0.214168
952.902261	0.211524
953.079049	0.211084
953.255819	0.210270
953.432570	0.210294
953.609303	0.211274
953.786018	0.208174
953.962715	0.205271
954.139394	0.202648
954.316054	0.203438
954.492696	0.202438
954.669320	0.202261
954.845926	0.200728
955.022513	0.199154
955.199083	0.196882
955.375634	0.196425
955.552166	0.195835
955.728681	0.195598
955.905177	0.190145
956.081655	0.189860
956.258115	0.188104
956.434557	0.187726
956.610980	0.185916
956.787385	0.183324
956.963772	0.182819
957.140141	0.183674
957.316492	0.183488
957.492824	0.184637
957.669138	0.183218
957.845434	0.181576
958.021712	0.178478
958.197971	0.178725
958.374212	0.178221
958.550435	0.177071
958.726640	0.173226
958.902826	0.171354
959.078995	0.172991
959.255145	0.174438
959.431277	0.174774
959.607390	0.174487
959.783486	0.172360
959.959563	0.170924
960.135622	0.168739
960.311662	0.168031
960.487685	0.168053
960.663689	0.167206
960.839675	0.166337
961.015643	0.164501
961.191593	0.164881
961.367524	0.164362
961.543437	0.164552
961.719332	0.166338
961.895209	0.167755
962.071067	0.167652
962.246907	0.163101
962.422730	0.161860
962.598533	0.162609
962.774319	0.161935
962.950086	0.162029
963.125835	0.161274
963.301566	0.160765
963.477279	0.159807
963.652973	0.158136
963.828650	0.158733
964.004308	0.157621
964.179947	0.156179
964.355569	0.155495
964.531172	0.156964
964.706757	0.157027
964.882324	0.155285
965.057873	0.155021
965.233403	0.155161
965.408916	0.157927
965.584410	0.157587
965.759885	0.157282
965.935343	0.157665
966.110782	0.156416
966.286203	0.155869
966.461606	0.155806
966.636991	0.156628
966.812357	0.155863
966.987705	0.154330
967.163035	0.153118
967.338347	0.153797
967.513641	0.153515
967.688916	0.152301
967.864173	0.151348
968.039412	0.153710
968.214632	0.152373
968.389835	0.152049
968.565019	0.150924
968.740185	0.153311
968.915333	0.153363
969.090462	0.153063
969.265573	0.153589
969.440667	0.152696
969.615741	0.151546
969.790798	0.151488
969.965836	0.153261
970.140856	0.152998
970.315858	0.151180
970.490842	0.148992
970.665808	0.149354
970.840755	0.152448
971.015684	0.153914
971.190595	0.152888
971.365487	0.151290
971.540362	0.150838
971.715218	0.151636
971.890056	0.152110
972.064875	0.153058
972.239677	0.151823
972.414460	0.149844
972.589225	0.148856
972.763972	0.150521
972.938700	0.150958
973.113411	0.151689
973.288103	0.151762
973.462777	0.151756
973.637432	0.151528
973.812070	0.152166
973.986689	0.152151
974.161290	0.153364
974.335873	0.152977
974.510437	0.155359
974.684984	0.153224
974.859512	0.154056
975.034022	0.154650
975.208513	0.154105
975.382987	0.154278
975.557442	0.152166
975.731879	0.151350
975.906298	0.149141
976.080698	0.149740
976.255080	0.152760
976.429445	0.152239
976.603790	0.151043
976.778118	0.152811
976.952427	0.152016
977.126719	0.151222
977.300992	0.151744
977.475246	0.150566
977.649483	0.146579
977.823701	0.144308
977.997901	0.143930
978.172083	0.144487
978.346247	0.142269
978.520392	0.141489
978.694519	0.142898
978.868628	0.139992
979.042719	0.141479
979.216791	0.140670
979.390845	0.140331
979.564882	0.141577
979.738899	0.141253
979.912899	0.142549
980.086880	0.144225
980.260843	0.144327
980.434788	0.149128
980.608715	0.148275
980.782623	0.148987
980.956514	0.149433
981.130386	0.146587
981.304240	0.145103
981.478075	0.143754
981.651892	0.143495
981.825692	0.143338
981.999472	0.137485
982.173235	0.139251
982.346980	0.141366
982.520706	0.142140
982.694414	0.142941
982.868104	0.144174
983.041775	0.145898
983.215428	0.145873
983.389064	0.145430
983.562680	0.148042
983.736279	0.148630
983.909860	0.147484
984.083422	0.146392
984.256966	0.146475
984.430491	0.146502
984.603999	0.145574
984.777488	0.145350
984.950959	0.146718
985.124412	0.148243
985.297847	0.146742
985.471263	0.148413
985.644661	0.149116
985.818041	0.148575
985.991403	0.148458
986.164747	0.147442
986.338072	0.146242
986.511379	0.145882
986.684668	0.144098
986.857938	0.144370
987.031191	0.141830
987.204425	0.142942
987.377641	0.143728
987.550839	0.141839
987.724018	0.144005
987.897179	0.147456
988.070322	0.147167
988.243447	0.148020
988.416554	0.149795
988.589642	0.151464
988.762712	0.149156
988.935764	0.148493
989.108798	0.151842
989.281813	0.151754
989.454811	0.149578
989.627790	0.149602
989.800751	0.149878
989.973693	0.148690
990.146617	0.147596
990.319524	0.149342
990.492412	0.151244
990.665281	0.149568
990.838133	0.149110
991.010966	0.148370
991.183781	0.148470
991.356578	0.147680
991.529356	0.147926
991.702117	0.150070
991.874859	0.148451
992.047583	0.147565
992.220288	0.147743
992.392976	0.147550
992.565645	0.147188
992.738296	0.145992
992.910929	0.145941
993.083543	0.145066
993.256139	0.144171
993.428718	0.145049
993.601277	0.145833
993.773819	0.146134
993.946342	0.145040
994.118848	0.145357
994.291335	0.145982
994.463803	0.146518
994.636254	0.146716
994.808686	0.145097
994.981100	0.146723
995.153496	0.143939
995.325874	0.143719
995.498233	0.143572
995.670574	0.142878
995.842897	0.142146
996.015202	0.143125
996.187488	0.143509
996.359757	0.143842
996.532007	0.142237
996.704239	0.143879
996.876452	0.144159
997.048648	0.144366
997.220825	0.145604
997.392984	0.146728
997.565124	0.146353
997.737247	0.146862
997.909351	0.147853
998.081437	0.147332
998.253505	0.147534
998.425554	0.145995
998.597586	0.145368
998.769599	0.145130
998.941594	0.146336
999.113571	0.147090
999.285529	0.144846
999.457469	0.144644
999.629391	0.146322
999.801295	0.145638
999.973181	0.146969
1000.145048	0.150019
1000.316897	0.152059
1000.488728	0.151994
1000.660541	0.152288
1000.832335	0.153919
1001.004111	0.154418
1001.175869	0.152361
1001.347609	0.154430
1001.519331	0.153803
1001.691034	0.152569
1001.862719	0.151095
1002.034386	0.149863
1002.206035	0.148617
1002.377665	0.148713
1002.549277	0.148216
1002.720871	0.149237
1002.892447	0.147596
1003.064004	0.149304
1003.235544	0.148533
1003.407065	0.147939
1003.578568	0.147736
1003.750052	0.147279
1003.921519	0.145532
1004.092967	0.145003
1004.264397	0.145454
1004.435809	0.144660
1004.607202	0.143293
1004.778577	0.142854
1004.949934	0.142121
1005.121273	0.142950
1005.292594	0.143043
1005.463896	0.144922
1005.635180	0.145895
1005.806446	0.145010
1005.977694	0.147388
1006.148923	0.148112
1006.320135	0.149921
1006.491328	0.150592
1006.662503	0.151149
1006.833659	0.152888
1007.004798	0.150856
1007.175918	0.149745
1007.347020	0.149189
1007.518103	0.146124
1007.689169	0.145622
1007.860216	0.145123
1008.031245	0.145008
1008.202256	0.143321
1008.373248	0.140530
1008.544223	0.140676
1008.715179	0.141679
1008.886117	0.139649
1009.057036	0.139929
1009.227938	0.139330
1009.398821	0.139320
1009.569686	0.139200
1009.740533	0.139278
1009.911361	0.139844
1010.082172	0.140755
1010.252964	0.140702
1010.423738	0.142813
1010.594493	0.142133
1010.765231	0.142102
1010.935950	0.140961
1011.106651	0.141838
1011.277334	0.142032
1011.447998	0.142973
1011.618645	0.140559
1011.789273	0.141567
1011.959882	0.144231
1012.130474	0.146219
1012.301048	0.147195
1012.471603	0.146797
1012.642140	0.148212
1012.812658	0.148637
1012.983159	0.149044
1013.153641	0.151582
1013.324105	0.149958
1013.494551	0.147984
1013.664979	0.147454
1013.835388	0.147733
1014.005779	0.148285
1014.176152	0.147479
1014.346507	0.148624
1014.516843	0.146629
1014.687162	0.146272
1014.857462	0.145627
1015.027744	0.146744
1015.198007	0.146825
1015.368252	0.146290
1015.538480	0.147914
1015.708689	0.147639
1015.878879	0.145430
1016.049052	0.147873
1016.219206	0.149130
1016.389342	0.150067
1016.559460	0.150221
1016.729559	0.151964
1016.899641	0.151328
1017.069704	0.151314
1017.239749	0.150134
1017.409775	0.151591
1017.579784	0.150526
1017.749774	0.150448
1017.919746	0.150456
1018.089700	0.149595
1018.259635	0.147853
1018.429553	0.148460
1018.599452	0.148333
1018.769333	0.149406
1018.939195	0.149691
1019.109040	0.149727
1019.278866	0.147859
1019.448674	0.147987
1019.618464	0.147397
1019.788235	0.146408
1019.957989	0.146108
1020.127724	0.145919
1020.297441	0.143275
1020.467139	0.142477
1020.636820	0.141122
1020.806482	0.143037
1020.976126	0.142331
1021.145752	0.141167
1021.315359	0.141084
1021.484948	0.142315
1021.654519	0.141606
1021.824072	0.143660
1021.993607	0.143766
1022.163123	0.147213
1022.332621	0.146000
1022.502101	0.144630
1022.671563	0.146591
1022.841007	0.146668
1023.010432	0.144181
1023.179839	0.142914
1023.349228	0.143369
1023.518598	0.143400
1023.687951	0.141083
1023.857285	0.141944
1024.026601	0.143761
1024.195899	0.143674
1024.365178	0.144160
1024.534439	0.145434
1024.703682	0.146037
1024.872907	0.145141
1025.042114	0.145258
1025.211302	0.145231
1025.380472	0.143812
1025.549624	0.143430
1025.718758	0.143148
1025.887873	0.142968
1026.056970	0.141664
1026.226049	0.141915
1026.395110	0.141293
1026.564153	0.140332
1026.733177	0.140557
1026.902183	0.141067
1027.071171	0.141531
1027.240141	0.141052
1027.409092	0.142878
1027.578026	0.143406
1027.746940	0.142169
1027.915837	0.141171
1028.084716	0.140740
1028.253576	0.138824
1028.422418	0.138084
1028.591242	0.136627
1028.760048	0.136578
1028.928835	0.135253
1029.097604	0.136512
1029.266355	0.136761
1029.435088	0.139698
1029.603803	0.138902
1029.772499	0.140506
1029.941177	0.142821
1030.109837	0.144786
1030.278478	0.143887
1030.447102	0.143558
1030.615707	0.143090
1030.784294	0.144583
1030.952863	0.144653
1031.121413	0.146713
1031.289945	0.147104
1031.458460	0.146657
1031.626955	0.145080
1031.795433	0.145972
1031.963892	0.147093
1032.132334	0.145630
1032.300756	0.146801
1032.469161	0.146364
1032.637548	0.146872
1032.805916	0.145907
1032.974266	0.145030
1033.142598	0.145968
1033.310911	0.145462
1033.479207	0.145210
1033.647484	0.145945
1033.815743	0.145695
1033.983983	0.146123
1034.152206	0.143895
1034.320410	0.144079
1034.488596	0.144185
1034.656764	0.143201
1034.824914	0.142552
1034.993045	0.143155
1035.161158	0.143104
1035.329253	0.143876
1035.497330	0.142009
1035.665388	0.143851
1035.833428	0.143660
1036.001450	0.143432
1036.169454	0.144941
1036.337440	0.146828
1036.505407	0.146608
1036.673356	0.148249
1036.841287	0.146470
1037.009200	0.147207
1037.177094	0.147232
1037.344970	0.147589
1037.512828	0.148201
1037.680668	0.148624
1037.848489	0.148558
1038.016293	0.146949
1038.184078	0.146175
1038.351845	0.145955
1038.519593	0.146475
1038.687324	0.146658
1038.855036	0.146797
1039.022730	0.146462
1039.190406	0.145507
1039.358063	0.144178
1039.525702	0.144101
1039.693323	0.145825
1039.860926	0.145743
1040.028511	0.145757
1040.196077	0.144784
1040.363625	0.145794
1040.531155	0.144752
1040.698667	0.144594
1040.866161	0.143840
1041.033636	0.145609
1041.201093	0.143126
1041.368532	0.144436
1041.535952	0.143934
1041.703355	0.144038
1041.870739	0.143770
1042.038105	0.144584
1042.205452	0.144380
1042.372782	0.144347
1042.540093	0.144486
1042.707386	0.146834
1042.874661	0.143908
1043.041918	0.144586
1043.209156	0.144825
1043.376376	0.144898
1043.543578	0.143816
1043.710762	0.145383
1043.877927	0.147928
1044.045074	0.146436
1044.212203	0.144975
1044.379314	0.147164
1044.546407	0.146050
1044.713481	0.146593
1044.880537	0.145071
1045.047575	0.146804
1045.214595	0.145567
1045.381596	0.144089
1045.548579	0.144778
1045.715544	0.143503
1045.882491	0.144064
1046.049420	0.143903
1046.216330	0.143713
1046.383222	0.144739
1046.550096	0.146278
1046.716951	0.146494
1046.883789	0.145707
1047.050608	0.145689
1047.217409	0.146466
1047.384192	0.143398
1047.550956	0.144092
1047.717703	0.142345
1047.884431	0.144002
1048.051140	0.141265
1048.217832	0.141941
1048.384505	0.142790
1048.551161	0.142734
1048.717798	0.142784
1048.884416	0.142938
1049.051017	0.142834
1049.217599	0.144031
1049.384163	0.141094
1049.550709	0.142720
1049.717237	0.141004
1049.883746	0.142306
1050.050237	0.141454
1050.216710	0.141694
1050.383165	0.144484
1050.549601	0.143570
1050.716019	0.144751
1050.882420	0.146120
1051.048801	0.144984
1051.215165	0.144707
1051.381510	0.143802
1051.547837	0.145737
1051.714146	0.145770
1051.880437	0.145605
1052.046709	0.144004
1052.212964	0.142247
1052.379200	0.141054
1052.545417	0.141503
1052.711617	0.141591
1052.877798	0.139761
1053.043961	0.137747
1053.210106	0.136684
1053.376233	0.136717
1053.542341	0.139325
1053.708432	0.138225
1053.874504	0.138831
1054.040557	0.138401
1054.206593	0.139969
1054.372610	0.140449
1054.538609	0.140888
1054.704590	0.141157
1054.870553	0.142864
1055.036497	0.140478
1055.202424	0.140632
1055.368331	0.141242
1055.534221	0.141273
1055.700093	0.140644
1055.865946	0.143493
1056.031781	0.144300
1056.197598	0.145396
1056.363397	0.141527
1056.529177	0.144681
1056.694939	0.146942
1056.860683	0.148145
1057.026409	0.147996
1057.192116	0.146527
1057.357806	0.144659
1057.523477	0.144847
1057.689130	0.145388
1057.854764	0.147709
1058.020381	0.145634
1058.185979	0.145620
1058.351559	0.144956
1058.517120	0.146887
1058.682664	0.150291
1058.848189	0.148757
1059.013696	0.147635
1059.179185	0.148122
1059.344656	0.147430
1059.510108	0.148385
1059.675542	0.147347
1059.840958	0.146271
1060.006356	0.145409
1060.171735	0.145051
1060.337096	0.147498
1060.502439	0.147118
1060.667764	0.146685
1060.833071	0.144925
1060.998359	0.143246
1061.163629	0.144449
1061.328881	0.143500
1061.494115	0.142164
1061.659330	0.141096
1061.824527	0.139632
1061.989706	0.140395
1062.154867	0.139145
1062.320010	0.141098
1062.485134	0.143146
1062.650240	0.140355
1062.815328	0.142212
1062.980398	0.142668
1063.145449	0.142576
1063.310482	0.142300
1063.475497	0.142278
1063.640494	0.142019
1063.805473	0.142702
1063.970433	0.143796
1064.135375	0.145198
1064.300299	0.143669
1064.465204	0.145195
1064.630092	0.145057
1064.794961	0.146820
1064.959812	0.147238
1065.124645	0.147708
1065.289459	0.147622
1065.454256	0.147149
1065.619034	0.147454
1065.783793	0.147416
1065.948535	0.147061
1066.113258	0.146300
1066.277964	0.145506
1066.442651	0.145583
1066.607319	0.147401
1066.771970	0.146894
1066.936602	0.148578
1067.101216	0.147699
1067.265812	0.148896
1067.430389	0.148942
1067.594949	0.148111
1067.759490	0.148788
1067.924013	0.148465
1068.088518	0.148449
1068.253004	0.147188
1068.417472	0.145526
1068.581922	0.149599
1068.746354	0.148851
1068.910768	0.146681
1069.075163	0.148587
1069.239540	0.148874
1069.403899	0.149250
1069.568240	0.148714
1069.732562	0.148849
1069.896866	0.147454
1070.061152	0.143595
1070.225420	0.144316
1070.389670	0.143975
1070.553901	0.144960
1070.718114	0.145651
1070.882309	0.147411
1071.046486	0.147385
1071.210644	0.149503
1071.374784	0.150483
1071.538906	0.151917
1071.703010	0.150640
1071.867096	0.152443
1072.031163	0.151333
1072.195212	0.149487
1072.359243	0.148328
1072.523256	0.148136
1072.687250	0.146213
1072.851226	0.147507
1073.015184	0.147561
1073.179124	0.151233
1073.343045	0.153293
1073.506949	0.152394
1073.670834	0.152550
1073.834701	0.151637
1073.998549	0.151965
1074.162380	0.151967
1074.326192	0.150436
1074.489986	0.148572
1074.653761	0.146208
1074.817519	0.145094
1074.981258	0.145271
1075.144979	0.144046
1075.308682	0.143088
1075.472367	0.142921
1075.636033	0.143868
1075.799681	0.144865
1075.963311	0.145864
1076.126923	0.145019
1076.290516	0.144141
1076.454092	0.143972
1076.617649	0.145602
1076.781187	0.146304
1076.944708	0.146103
1077.108210	0.147383
1077.271695	0.147632
1077.435160	0.149864
1077.598608	0.151286
1077.762038	0.151069
1077.925449	0.153225
1078.088842	0.152077
1078.252217	0.153243
1078.415573	0.153920
1078.578912	0.153415
1078.742232	0.152260
1078.905534	0.152353
1079.068817	0.150857
1079.232083	0.153227
1079.395330	0.152829
1079.558559	0.156142
1079.721770	0.157707
1079.884962	0.156952
1080.048136	0.157996
1080.211293	0.157244
1080.374430	0.156019
1080.537550	0.159423
1080.700651	0.157203
1080.863735	0.158624
1081.026800	0.158915
1081.189846	0.154722
1081.352875	0.154492
1081.515885	0.152410
1081.678877	0.154728
1081.841851	0.155894
1082.004807	0.157583
1082.167744	0.159722
1082.330663	0.159370
1082.493564	0.153889
1082.656447	0.157733
1082.819312	0.157171
1082.982158	0.157833
1083.144986	0.158136
1083.307796	0.158054
1083.470587	0.156086
1083.633361	0.153776
1083.796116	0.153866
1083.958853	0.156434
1084.121571	0.154725
1084.284272	0.156078
1084.446954	0.156337
1084.609618	0.155006
1084.772264	0.155022
1084.934892	0.154560
1085.097501	0.156610
1085.260092	0.155763
1085.422665	0.159033
1085.585220	0.161968
1085.747756	0.162349
1085.910274	0.159928
1086.072774	0.159915
1086.235256	0.160761
1086.397720	0.160134
1086.560165	0.163396
1086.722592	0.163118
1086.885001	0.163485
1087.047392	0.161725
1087.209764	0.160300
1087.372119	0.162375
1087.534455	0.163616
1087.696772	0.163919
1087.859072	0.165978
1088.021353	0.160598
1088.183616	0.160771
1088.345861	0.158250
1088.508088	0.158675
1088.670296	0.160028
1088.832486	0.160425
1088.994658	0.161214
1089.156812	0.158150
1089.318948	0.160417
1089.481065	0.161786
1089.643164	0.166910
1089.805245	0.165875
1089.967308	0.163799
1090.129352	0.165762
1090.291378	0.167673
1090.453386	0.165300
1090.615376	0.165064
1090.777347	0.161693
1090.939301	0.162799
1091.101236	0.158290
1091.263153	0.159241
1091.425051	0.162299
1091.586932	0.157197
1091.748794	0.156687
1091.910638	0.157165
1092.072463	0.156724
1092.234271	0.158782
1092.396060	0.157600
1092.557831	0.156019
1092.719584	0.155573
1092.881319	0.156352
1093.043035	0.155414
1093.204733	0.154924
1093.366413	0.155186
1093.528075	0.157014
1093.689718	0.153811
1093.851343	0.153659
1094.012950	0.155739
1094.174539	0.158211
1094.336110	0.158189
1094.497662	0.166419
1094.659196	0.166768
1094.820712	0.170493
1094.982210	0.171402
1095.143689	0.175821
1095.305151	0.178338
1095.466594	0.181896
1095.628018	0.182146
1095.789425	0.179412
1095.950813	0.177155
1096.112183	0.177417
1096.273535	0.173039
1096.434869	0.172122
1096.596184	0.168679
1096.757482	0.167585
1096.918761	0.167010
1097.080021	0.167311
1097.241264	0.164589
1097.402488	0.161582
1097.563694	0.159017
1097.724882	0.162178
1097.886052	0.163380
1098.047203	0.164564
1098.208336	0.164709
1098.369451	0.161184
1098.530548	0.160724
1098.691627	0.165994
1098.852687	0.165761
1099.013729	0.167949
1099.174753	0.167061
1099.335758	0.165980
1099.496746	0.166045
1099.657715	0.165226
1099.818666	0.164177
1099.979599	0.163428
1100.140513	0.161079
1100.301409	0.164514
1100.462287	0.165552
1100.623147	0.165093
1100.783989	0.168105
1100.944812	0.167021
1101.105617	0.168201
1101.266404	0.169327
1101.427173	0.171591
1101.587923	0.173242
1101.748656	0.170842
1101.909370	0.171637
1102.070066	0.171172
1102.230743	0.171159
1102.391403	0.172241
1102.552044	0.172927
1102.712667	0.176703
1102.873271	0.175709
1103.033858	0.174980
1103.194426	0.173812
1103.354976	0.175470
1103.515508	0.177495
1103.676021	0.175795
1103.836517	0.173770
1103.996994	0.173756
1104.157453	0.175147
1104.317893	0.176819
1104.478316	0.178588
1104.638720	0.178142
1104.799106	0.177719
1104.959474	0.181633
1105.119823	0.183323
1105.280155	0.182592
1105.440468	0.182499
1105.600763	0.181978
1105.761039	0.183033
1105.921298	0.182297
1106.081538	0.188154
1106.241760	0.188591
1106.401964	0.184305
1106.562149	0.185119
1106.722316	0.189986
1106.882465	0.190865
1107.042596	0.186926
1107.202709	0.187080
1107.362803	0.186227
1107.522879	0.185203
1107.682937	0.177919
1107.842977	0.177305
1108.002999	0.176759
1108.163002	0.176341
1108.322987	0.175060
1108.482954	0.175919
1108.642902	0.170769
1108.802833	0.167382
1108.962745	0.165416
1109.122639	0.168726
1109.282515	0.165033
1109.442372	0.166545
1109.602211	0.166549
1109.762032	0.168249
1109.921835	0.169884
1110.081620	0.168784
1110.241386	0.175116
1110.401134	0.177210
1110.560864	0.178502
1110.720576	0.183432
1110.880269	0.182865
1111.039945	0.182405
1111.199602	0.181085
1111.359240	0.178761
1111.518861	0.185502
1111.678463	0.187319
1111.838047	0.183239
1111.997613	0.182821
1112.157161	0.185145
1112.316690	0.187365
1112.476202	0.188063
1112.635695	0.187962
1112.795169	0.190896
1112.954626	0.189829
1113.114064	0.190055
1113.273484	0.195447
1113.432886	0.196132
1113.592270	0.195556
1113.751635	0.192445
1113.910983	0.195508
1114.070312	0.196490
1114.229622	0.193017
1114.388915	0.191901
1114.548189	0.194539
1114.707445	0.193808
1114.866683	0.190374
1115.025903	0.186377
1115.185104	0.186523
1115.344287	0.185013
1115.503452	0.181762
1115.662599	0.182274
1115.821727	0.175725
1115.980838	0.175212
1116.139930	0.174952
1116.299004	0.181268
1116.458059	0.189103
1116.617097	0.190501
1116.776116	0.188522
1116.935117	0.192307
1117.094099	0.194428
1117.253064	0.200970
1117.412010	0.197747
1117.570938	0.196031
1117.729848	0.190186
1117.888740	0.185711
1118.047613	0.176080
1118.206468	0.171609
1118.365305	0.170077
1118.524124	0.170032
1118.682924	0.167747
1118.841707	0.171519
1119.000471	0.174088
1119.159216	0.177739
1119.317944	0.183477
1119.476653	0.196053
1119.635344	0.203589
1119.794017	0.205216
1119.952672	0.207289
1120.111308	0.212302
1120.269927	0.203700
1120.428527	0.197539
1120.587108	0.197876
1120.745672	0.187991
1120.904217	0.184481
1121.062744	0.181721
1121.221253	0.177207
1121.379744	0.174066
1121.538216	0.171569
1121.696671	0.175704
1121.855107	0.184619
1122.013524	0.184005
1122.171924	0.185764
1122.330305	0.181647
1122.488668	0.179855
1122.647013	0.178630
1122.805340	0.177655
1122.963648	0.185885
1123.121938	0.182158
1123.280210	0.183690
1123.438464	0.182979
1123.596700	0.178969
1123.754917	0.180558
1123.913116	0.187166
1124.071297	0.196242
1124.229459	0.202652
1124.387604	0.198929
1124.545730	0.203789
1124.703838	0.201407
1124.861928	0.201512
1125.019999	0.210920
1125.178052	0.212864
1125.336088	0.209145
1125.494104	0.202171
1125.652103	0.190964
1125.810083	0.190125
1125.968045	0.185757
1126.125989	0.179143
1126.283915	0.179419
1126.441823	0.178120
1126.599712	0.185078
1126.757583	0.185625
1126.915436	0.184942
1127.073270	0.192939
1127.231087	0.186541
1127.388885	0.192290
1127.546665	0.192855
1127.704426	0.195977
1127.862170	0.192286
1128.019895	0.187846
1128.177602	0.180010
1128.335291	0.183771
1128.492961	0.188002
1128.650614	0.195357
1128.808248	0.189604
1128.965864	0.193199
1129.123461	0.192607
1129.281041	0.197091
1129.438602	0.197460
1129.596145	0.201733
1129.753670	0.200637
1129.911176	0.196616
1130.068665	0.190607
1130.226135	0.194535
1130.383587	0.194624
1130.541020	0.196513
1130.698436	0.191423
1130.855833	0.189309
1131.013212	0.192719
1131.170573	0.194610
1131.327915	0.192470
1131.485239	0.188269
1131.642545	0.181323
1131.799833	0.181638
1131.957103	0.181219
1132.114354	0.183873
1132.271588	0.189547
1132.428803	0.193445
1132.585999	0.193502
1132.743178	0.187782
1132.900338	0.193721
1133.057480	0.198585
1133.214604	0.199190
1133.371710	0.204272
1133.528797	0.197253
1133.685866	0.188802
1133.842917	0.187769
1133.999950	0.191341
1134.156964	0.194797
1134.313960	0.188186
1134.470938	0.188252
1134.627898	0.191294
1134.784840	0.183029
1134.941763	0.198282
1135.098668	0.201179
1135.255555	0.191703
1135.412424	0.188669
1135.569274	0.188102
1135.726107	0.194375
1135.882921	0.194976
1136.039716	0.187909
1136.196494	0.194678
1136.353253	0.181665
1136.509995	0.184301
1136.666717	0.196258
1136.823422	0.201218
1136.980109	0.200879
1137.136777	0.208392
1137.293427	0.205993
1137.450059	0.213805
1137.606672	0.207443
1137.763267	0.215044
1137.919844	0.215180
1138.076403	0.213406
1138.232944	0.209227
1138.389466	0.210181
1138.545971	0.197951
1138.702457	0.199034
1138.858924	0.191709
1139.015374	0.184515
1139.171805	0.186394
1139.328218	0.180849
1139.484613	0.175331
1139.640990	0.177065
1139.797348	0.187404
1139.953688	0.198351
1140.110010	0.200656
1140.266314	0.199822
1140.422600	0.209126
1140.578867	0.198625
1140.735116	0.208646
1140.891347	0.212870
1141.047559	0.210999
1141.203754	0.210824
1141.359930	0.206323
1141.516088	0.207382
1141.672228	0.213657
1141.828349	0.209438
1141.984452	0.210494
1142.140537	0.204100
1142.296604	0.197305
1142.452653	0.193609
1142.608683	0.190132
1142.764695	0.192060
1142.920689	0.199119
1143.076665	0.196652
1143.232622	0.203994
1143.388562	0.209115
1143.544483	0.202700
1143.700385	0.200596
1143.856270	0.209129
1144.012136	0.206878
1144.167985	0.217274
1144.323814	0.205088
1144.479626	0.207997
1144.635420	0.204203
1144.791195	0.205024
1144.946952	0.209237
1145.102691	0.213747
1145.258411	0.214427
1145.414113	0.217240
1145.569798	0.206699
1145.725463	0.209207
1145.881111	0.205091
1146.036741	0.203350
1146.192352	0.202414
1146.347945	0.207343
1146.503519	0.209954
1146.659076	0.202677
1146.814614	0.194037
1146.970134	0.196343
1147.125636	0.192859
1147.281120	0.200757
1147.436585	0.210945
1147.592032	0.211041
1147.747461	0.204969
1147.902872	0.214056
1148.058265	0.217259
1148.213639	0.228154
1148.368995	0.222179
1148.524333	0.224425
1148.679653	0.214315
1148.834954	0.216320
1148.990237	0.230074
1149.145502	0.230788
1149.300749	0.226946
1149.455977	0.221561
1149.611188	0.210321
1149.766380	0.211719
1149.921553	0.211368
1150.076709	0.220083
1150.231846	0.202581
1150.386966	0.194550
1150.542066	0.197019
1150.697149	0.196079
1150.852214	0.192624
1151.007260	0.194018
1151.162288	0.191902
1151.317298	0.194599
1151.472289	0.206680
1151.627263	0.205200
1151.782218	0.203284
1151.937155	0.197003
1152.092073	0.194572
1152.246974	0.197418
1152.401856	0.192507
1152.556720	0.197912
1152.711566	0.208641
1152.866393	0.193624
1153.021203	0.215346
1153.175994	0.219752
1153.330767	0.236791
1153.485521	0.242719
1153.640258	0.233666
1153.794976	0.246043
1153.949676	0.246113
1154.104358	0.231219
1154.259021	0.232277
1154.413667	0.218933
1154.568294	0.216274
1154.722903	0.199493
1154.877493	0.190330
1155.032066	0.206041
1155.186620	0.206433
1155.341156	0.204511
1155.495674	0.201018
1155.650173	0.195989
1155.804654	0.195224
1155.959118	0.189541
1156.113562	0.192287
1156.267989	0.193697
1156.422397	0.187945
1156.576788	0.190983
1156.731160	0.186418
1156.885513	0.181160
1157.039849	0.188440
1157.194166	0.185022
1157.348465	0.185529
1157.502746	0.206947
1157.657009	0.216772
1157.811253	0.216246
1157.965479	0.214599
1158.119687	0.222872
1158.273877	0.233459
1158.428048	0.225723
1158.582201	0.222381
1158.736337	0.214190
1158.890453	0.192691
1159.044552	0.179620
1159.198632	0.175905
1159.352694	0.177237
1159.506738	0.172289
1159.660764	0.181812
1159.814771	0.180837
1159.968761	0.186986
1160.122732	0.201613
1160.276685	0.204811
1160.430619	0.198527
1160.584535	0.202459
1160.738434	0.199636
1160.892313	0.198643
1161.046175	0.203247
1161.200019	0.207960
1161.353844	0.202401
1161.507651	0.195691
1161.661440	0.196512
1161.815210	0.194294
1161.968962	0.189575
1162.122697	0.183546
1162.276412	0.186232
1162.430110	0.175144
1162.583789	0.174707
1162.737451	0.181457
1162.891094	0.191912
1163.044718	0.186477
1163.198325	0.204026
1163.351913	0.219859
1163.505483	0.212974
1163.659035	0.196792
1163.812569	0.204387
1163.966084	0.209997
1164.119581	0.210469
1164.273060	0.199968
1164.426521	0.204740
1164.579964	0.188820
1164.733388	0.176739
1164.886794	0.183320
1165.040182	0.204363
1165.193551	0.199576
1165.346903	0.198961
1165.500236	0.204306
1165.653551	0.195322
1165.806848	0.191191
1165.960126	0.201288
1166.113386	0.200211
1166.266628	0.220166
1166.419852	0.215268
1166.573058	0.222328
1166.726245	0.220059
1166.879414	0.215149
1167.032565	0.211372
1167.185698	0.233214
1167.338812	0.235415
1167.491909	0.245800
1167.644987	0.236295
1167.798046	0.228582
1167.951088	0.204601
1168.104111	0.189561
1168.257117	0.183263
1168.410103	0.210754
1168.563072	0.187056
1168.716023	0.185684
1168.868955	0.169468
1169.021869	0.158689
1169.174765	0.171137
1169.327642	0.184803
1169.480501	0.199621
1169.633343	0.201928
1169.786165	0.186438
1169.938970	0.188509
1170.091757	0.187746
1170.244525	0.207987
1170.397275	0.205786
1170.550007	0.192471
1170.702720	0.205078
1170.855415	0.196963
1171.008092	0.180378
1171.160751	0.163231
1171.313392	0.154067
1171.466014	0.150508
1171.618619	0.062908
1171.771205	0.062908
1171.923772	0.062908
