sample name	sample
index	45
start time	 02-11-2021  02:05:53 PM
880	0.101421
Peak Time (s)	82.539
Peak Height 	0.1014
calc peak height	80,83
Baseline Time (s)	8.534
Baseline Value 	-0.003113
subtract baseline	10,4
Abs	0.056304
Peak Time (s)	81.535
Peak Height 	0.0563
calc peak height	80,83
Baseline Time (s)	10.547
Baseline Value 	0.008755
subtract baseline	10,3
PK_550	0.033043
Peak Time (s)	80.035
Peak Height 	0.03304
calc peak height	80,83
Baseline Time (s)	10.547
Baseline Value 	6.5848E-4
subtract baseline	10,2
PK_880	0.039402
Peak Time (s)	80.035
Peak Height 	0.0394
calc peak height	80,83
Baseline Time (s)	8.534
Baseline Value 	0.002761
subtract baseline	10,1


Time (s)	A880-A510	A880-A775	A880-A975	A880	I510	I775	I975	I880	
0.035000	-0.001956	-0.000035	0.000837	0.000946	4614.629851	20177.728977	3314.796566	10946.694123
0.536000	-0.004761	-0.001736	-0.009379	0.001173	4603.131861	20101.697034	3305.187857	10942.521968
1.071500	-0.000083	0.000160	-0.002106	0.005897	4602.956214	19990.788028	3307.511784	10855.989239
1.536000	0.000041	-0.000431	-0.012186	-0.000151	4626.449587	20205.497231	3303.842016	10966.940340
2.039000	-0.001045	0.000057	-0.009004	0.000649	4619.234669	20193.114085	3306.004925	10952.167984
2.537000	0.001263	-0.000587	-0.008538	0.000051	4630.364170	20191.328519	3306.976695	10963.211847
3.037000	-0.000594	-0.000743	-0.001583	0.001594	4617.352157	20124.210307	3311.949116	10934.766732
3.535000	-0.001760	-0.001307	-0.005253	0.002243	4610.441792	20076.487332	3307.975059	10922.826287
4.035000	0.000959	0.000818	-0.008107	0.003298	4616.774177	20118.616248	3304.412789	10903.477492
4.535500	-0.001447	-0.000545	-0.002977	0.001731	4613.580711	20126.634988	3310.536622	10932.243510
5.035500	-0.001366	-0.001744	-0.003929	0.001648	4614.200788	20082.668339	3309.735855	10933.764957
5.535500	0.002675	0.000018	-0.007211	-0.001957	4643.555386	20294.975730	3310.033085	11000.362534
6.036500	-0.000184	0.000392	-0.000811	0.000870	4621.678361	20197.644641	3313.335685	10948.101655
6.539000	0.001227	0.000380	-0.011762	0.002630	4620.345223	20127.671739	3301.712156	10915.732042
7.039500	-0.002127	-0.000350	-0.005265	0.001850	4610.546193	20129.622650	3308.324946	10930.062844
7.566000	-0.000034	0.000226	-0.007103	0.000093	4625.225493	20221.846762	3308.250186	10962.429479
8.037500	0.001799	-0.001386	-0.014990	-0.000180	4633.314892	20168.862800	3301.335966	10967.479626
8.534500	0.000000	0.000541	-0.002312	0.000000	4625.712364	20238.030564	3312.749883	10964.146480
9.037500	-0.001054	-0.000929	0.000413	-0.000331	4622.942180	20192.877108	3315.591618	10970.258417
9.535000	0.002410	0.000219	0.001972	-0.002752	4645.610531	20334.678371	3319.321876	11015.130919
10.035500	-0.001527	-0.000000	0.003640	0.000480	4618.040071	20197.536847	3317.851907	10955.280426
10.547500	0.000517	0.000000	0.000000	0.002401	4618.507278	20121.696305	3312.667532	10919.927897
11.036000	0.001532	0.000596	-0.006923	0.001102	4627.359246	20196.502714	3307.490749	10943.816760
11.536500	-0.000349	-0.000736	-0.006486	-0.000167	4625.017088	20194.049706	3309.055309	10967.240125
12.033500	-0.001071	-0.000723	0.008039	0.000423	4619.996300	20171.199737	3322.054752	10956.336619
12.537000	-0.001894	-0.000222	-0.000662	0.000865	4615.173838	20173.568278	3313.478283	10948.191176
13.040500	-0.001704	0.000012	-0.004546	0.000923	4615.676816	20180.511157	3309.835333	10947.110588
13.535000	-0.002364	-0.001342	-0.006636	0.000147	4616.119664	20157.679187	3308.629010	10961.431164
14.035000	0.003180	0.001913	-0.001133	0.002692	4627.582918	20185.716498	3311.350231	10914.577606
14.535500	-0.005749	-0.001051	-0.006186	0.000894	4600.449575	20139.669847	3308.356051	10947.645903
15.035500	-0.002530	0.000854	0.007794	0.001671	4609.695675	20184.260817	3320.642104	10933.353876
15.535500	-0.004015	0.000875	0.000484	0.001430	4604.978601	20194.594320	3314.017144	10937.778105
16.039000	0.000439	-0.000022	0.001416	0.001617	4621.204831	20151.761377	3314.710841	10934.337542
16.536500	-0.003496	0.000698	-0.001519	0.001104	4608.179330	20200.470327	3312.461673	10943.782559
17.037000	0.001552	0.001050	0.010081	0.001920	4624.301160	20182.128264	3322.571956	10928.765676
17.537500	-0.003339	0.000179	-0.012385	0.000668	4610.430182	20197.182956	3302.919840	10951.818149
18.034500	0.001052	0.000561	-0.010090	0.001428	4624.273985	20182.237799	3304.309937	10937.820517
18.535000	-0.000130	-0.000085	-0.010919	0.002151	4616.994440	20128.212893	3302.905036	10924.520909
19.035000	0.002000	0.001032	-0.021149	0.002256	4624.734571	20168.142678	3293.673945	10922.598006
19.535500	0.001507	0.001930	0.004315	0.000668	4628.929447	20266.636494	3318.308708	10951.815469
20.036000	-0.002138	0.000485	-0.007993	-0.000759	4620.440235	20265.935305	3308.215397	10978.183668
20.538500	0.000308	0.000610	-0.005202	0.000184	4626.186636	20233.441340	3309.911522	10960.740393
21.036500	0.000222	0.000930	-0.003715	0.001328	4621.481370	20200.801585	3310.227980	10939.660491
21.536500	-0.002061	-0.001250	-0.003771	-0.001166	4622.287370	20213.246933	3312.478422	10985.709630
22.037500	0.001920	0.000702	0.007182	0.000222	4632.233934	20235.603484	3321.433472	10960.051303
22.534500	0.000256	-0.000097	-0.004498	0.000426	4625.059085	20195.831774	3310.337373	10956.278924
23.062000	0.002507	-0.000392	-0.007816	0.000141	4634.802827	20195.463895	3307.553407	10961.543215
23.535500	0.000911	0.000606	0.006312	0.003437	4616.059138	20104.767058	3317.584731	10900.918656
24.035500	-0.001072	-0.000177	0.001998	0.000425	4619.985084	20192.738423	3316.365480	10956.295857
24.582500	-0.003162	-0.000437	-0.010922	0.002574	4603.879708	20097.706954	3302.520273	10916.759235
25.036000	-0.001011	0.000267	-0.000289	0.000682	4619.237979	20200.146503	3313.994748	10951.561770
25.539000	0.001524	0.001320	0.000445	0.001704	4625.021189	20201.350265	3313.726455	10932.737191
26.040500	-0.002789	0.000285	0.006338	0.000191	4614.332856	20220.303300	3320.664791	10960.623316
26.537000	-0.002515	0.000534	-0.001316	0.004574	4598.771121	20057.236016	3309.448626	10880.125332
27.040000	0.002910	0.001570	0.004283	0.003136	4624.845740	20154.603286	3315.967584	10906.432766
27.534500	0.001174	0.000342	0.001572	0.001616	4624.019482	20166.177503	3314.857348	10934.363831
28.035000	0.000819	0.001770	-0.005378	0.002668	4618.642014	20181.043649	3307.472193	10915.029448
28.535500	0.001781	0.000727	-0.007137	0.003105	4620.647355	20122.633189	3305.469680	10907.017656
29.036000	-0.001059	-0.001223	-0.014507	0.001030	4617.729094	20127.516482	3300.681481	10945.149000
29.535500	0.001943	0.000767	-0.008050	0.002879	4622.129856	20133.077308	3304.843977	10911.146851
30.036500	0.000769	-0.000257	-0.002370	0.001662	4622.296066	20140.718244	3311.159623	10933.514717
30.536500	0.001538	-0.000044	-0.005752	0.002912	4620.454069	20099.839123	3306.907048	10910.542171
31.036500	0.000809	-0.000764	-0.006855	0.001744	4622.132178	20117.504240	3306.967072	10932.005391
31.536500	-0.002115	0.000100	-0.002945	0.002210	4609.221750	20133.159650	3310.124215	10923.433104
32.040000	-0.000556	0.000180	-0.000627	0.001885	4616.384493	20149.134930	3312.564301	10929.405190
32.535000	0.003478	0.000193	-0.004903	0.003165	4626.912495	20099.205134	3307.452500	10905.911468
33.035500	-0.002603	0.000196	-0.005409	0.001903	4608.537986	20149.094445	3308.143874	10929.084562
33.535500	0.000260	0.000363	-0.005039	0.002033	4618.932536	20150.524711	3308.363264	10926.683375
34.036000	-0.000862	-0.001031	-0.007215	0.000909	4618.941726	20139.877216	3307.401496	10947.381586
34.536000	-0.001341	-0.000424	-0.005285	0.002138	4612.435078	20115.390034	3308.042519	10924.767513
35.038500	0.001335	0.000711	0.001809	0.001955	4623.340808	20167.359860	3314.762758	10928.131547
35.536500	-0.000462	0.001155	-0.003095	0.002974	4612.597137	20144.615745	3309.283563	10909.404584
36.037000	0.000898	0.001322	-0.000005	0.002534	4619.456068	20168.635198	3312.539806	10917.490255
36.536000	-0.002645	-0.000008	-0.005255	0.002607	4605.711526	20113.287767	3307.640561	10916.154976
37.037500	0.002260	0.001474	-0.001226	0.000799	4631.321656	20243.369628	3313.016369	10949.411845
37.535500	0.002329	0.000768	0.001743	0.001452	4629.075943	20189.496078	3315.168469	10937.374211
38.063000	0.000769	-0.000312	0.003443	0.000135	4628.143062	20198.882388	3317.991579	10961.656046
38.538000	-0.001239	-0.000387	-0.009795	0.005083	4601.663096	20001.200322	3301.273377	10870.819199
39.036000	-0.000377	0.001959	0.005686	0.001958	4616.789296	20216.617397	3318.384896	10928.066153
39.539000	0.001469	-0.001110	-0.005545	-0.000578	4633.575719	20195.532578	3310.297850	10974.834910
40.036500	0.000101	0.000137	0.002226	0.000537	4624.042309	20200.735521	3316.474426	10954.238194
40.536500	0.001928	0.000951	-0.014211	0.005535	4611.945588	20035.897117	3296.916589	10862.571572
41.039000	0.002388	0.000513	-0.004624	0.003313	4622.174867	20106.005336	3307.572342	10903.203339
41.537500	0.001469	0.002013	-0.004153	0.003480	4618.026533	20158.556232	3307.849880	10900.137884
42.051500	0.002736	0.000859	0.006617	0.001132	4631.867817	20205.752683	3320.038864	10943.263337
42.535500	-0.000486	0.000045	0.002176	0.004967	4604.950389	20022.653534	3312.306749	10872.946080
43.035500	0.004482	0.001599	-0.003662	0.002726	4632.453307	20171.983709	3308.990843	10913.959301
43.535500	-0.001453	-0.000518	-0.002076	-0.002690	4630.461603	20302.839233	3315.470502	11013.982142
44.036000	0.005255	0.000187	-0.004778	-0.004052	4661.757707	20385.312103	3314.221574	11039.317971
44.536000	-0.005750	-0.001204	-0.000516	0.007262	4576.594137	19884.368105	3307.716817	10831.145856
45.036500	-0.047839	-0.030664	0.026749	0.293842	3719.326466	11159.958701	3129.067858	7020.935698
45.536500	-0.057157	-0.035889	-0.010017	0.145862	4004.322767	14332.133424	3192.899666	8676.151782
46.037500	-0.059028	-0.026368	-0.014598	-0.087367	4737.917081	22811.428305	3388.690579	12751.316534
46.537500	-0.045685	-0.016995	-0.016639	-0.154653	5100.293639	26634.412807	3466.231227	14394.845184
47.035000	-0.034135	-0.011600	-0.000206	-0.147834	5123.720212	26557.048176	3478.672737	14216.444651
47.535000	-0.026768	-0.011660	0.011899	-0.081114	4847.538180	23200.759545	3411.515401	12611.122338
48.035500	-0.029100	-0.008625	-0.000672	-0.022047	4598.905858	20756.666760	3335.306548	11381.801137
48.538500	-0.021958	-0.003995	-0.000668	-0.015223	4600.104359	20667.254747	3328.685272	11250.263066
49.039000	-0.009502	0.002471	-0.000538	-0.009177	4624.466431	20684.333392	3323.025384	11135.426961
49.536500	0.003379	0.010186	0.013467	-0.000404	4640.269675	20641.295863	3328.026432	10971.606208
50.037000	0.008641	0.011694	0.027569	0.010219	4619.679246	20275.106648	3331.386818	10777.637744
50.537000	0.010976	0.013880	0.023365	0.021357	4586.408286	19922.856309	3316.772775	10579.286386
51.037000	0.015066	0.016771	0.031718	0.021774	4600.209697	20019.504867	3324.268081	10571.961003
51.537500	0.014759	0.017877	0.027738	0.038765	4536.227876	19408.549727	3304.755842	10279.286661
52.035000	0.023204	0.023172	0.028584	0.055656	4505.899091	18976.438554	3290.450529	9999.462071
52.535000	0.027220	0.024757	0.033818	0.050379	4539.299402	19230.724054	3299.761560	10085.715652
53.035000	0.024708	0.024628	0.027739	0.050790	4528.714284	19210.560957	3293.985893	10078.953919
53.556500	0.032960	0.025754	0.033437	0.051660	4555.582205	19220.159012	3298.274910	10064.685654
54.037000	0.031789	0.026498	0.038197	0.054686	4540.251108	19135.171664	3299.827076	10015.242909
54.539500	0.029500	0.025811	0.035648	0.062686	4503.289040	18815.788004	3290.479982	9886.168501
55.036500	0.033484	0.030031	0.038820	0.059623	4528.511116	19083.115230	3295.976527	9935.301235
55.537000	0.035223	0.027795	0.030397	0.060475	4531.715551	18969.236909	3287.829233	9921.605043
56.037500	0.039569	0.029717	0.038509	0.065187	4530.391602	18867.030584	3290.795837	9846.305530
56.535000	0.032323	0.026906	0.041726	0.071517	4482.109465	18536.715302	3288.078213	9746.429034
57.035000	0.036305	0.026831	0.026075	0.066869	4512.624619	18701.106449	3278.628869	9819.620614
57.535500	0.040058	0.029958	0.034443	0.073099	4503.806495	18589.398969	3280.447005	9721.702276
58.035500	0.036705	0.029601	0.037057	0.075612	4483.115668	18486.750130	3280.532282	9682.591414
58.539000	0.039097	0.029187	0.029588	0.084537	4460.400725	18157.494469	3266.819758	9545.527318
59.036000	0.042542	0.031133	0.037683	0.081217	4483.929228	18342.278072	3276.312533	9596.179184
59.537000	0.043568	0.031174	0.037111	0.082988	4481.318287	18281.321200	3274.343759	9569.108155
60.037000	0.044985	0.032306	0.042601	0.084014	4482.691348	18285.074066	3278.104813	9553.481988
60.537500	0.038514	0.030087	0.049154	0.089696	4440.714570	18009.646837	3278.842922	9467.568831
61.034500	0.042706	0.032201	0.045879	0.085032	4471.185997	18245.609353	3280.023030	9538.004273
61.535000	0.042125	0.030624	0.038557	0.083777	4473.532454	18234.314649	3274.895306	9557.089921
62.035500	0.042191	0.030078	0.036142	0.083636	4474.251495	18220.138357	3272.991669	9559.234217
62.536000	0.040633	0.029618	0.033737	0.088434	4452.272294	18037.060834	3267.026220	9486.546186
63.036000	0.039667	0.029805	0.045013	0.083158	4467.141916	18227.311218	3280.882392	9566.523206
63.536000	0.043457	0.032077	0.041779	0.084815	4474.554666	18248.869698	3276.733116	9541.300599
64.035500	0.041156	0.030827	0.051480	0.084668	4467.069977	18210.212578	3285.135949	9543.533544
64.537000	0.037060	0.031939	0.047670	0.090951	4431.516050	18030.276141	3276.526207	9448.734294
65.037000	0.037800	0.030145	0.038671	0.084513	4456.014836	18191.787971	3274.373212	9545.886332
65.537500	0.038800	0.031482	0.039390	0.085966	4454.457728	18187.725234	3273.758784	9523.839185
66.034500	0.038073	0.030456	0.041165	0.085218	4454.530161	18178.019934	3275.876009	9535.184184
66.535000	0.035496	0.030304	0.042609	0.090315	4428.380392	17995.768405	3272.814281	9458.271749
67.038000	0.035220	0.031469	0.030748	0.085090	4445.187517	18217.895556	3267.317580	9537.116383
67.535500	0.036271	0.032040	0.050975	0.086149	4445.161182	18200.799901	3283.425555	9521.055734
68.038500	0.036152	0.030932	0.043341	0.083901	4452.454809	18240.772020	3278.827516	9555.199294
68.536500	0.036799	0.031105	0.039669	0.090326	4432.747259	18023.051444	3270.359477	9458.101643
69.036500	0.041927	0.032759	0.042404	0.085770	4465.922614	18239.294312	3276.454529	9526.811423
69.537000	0.040734	0.031926	0.052993	0.084826	4465.059794	18243.172916	3286.306744	9541.132388
70.037000	0.039599	0.030899	0.037021	0.084535	4462.141533	18217.393147	3272.974921	9545.553369
70.537000	0.036047	0.031577	0.049711	0.084365	4450.502681	18247.112916	3283.872218	9548.137234
71.037500	0.038154	0.032004	0.018705	0.084088	4458.696875	18271.816054	3258.357572	9552.344851
71.535000	0.031096	0.030674	0.040521	0.083731	4435.775207	18237.646424	3276.585336	9557.779218
72.035500	0.034518	0.031454	0.036266	0.083719	4447.474041	18265.467888	3273.025408	9557.961566
72.538000	0.033556	0.031971	0.039167	0.088440	4428.161859	18118.495360	3271.509082	9486.462653
73.036000	0.035535	0.031279	0.046747	0.084489	4448.321495	18232.292711	3281.225980	9546.249555
73.536500	0.038509	0.031885	0.032409	0.085144	4456.281197	18230.592070	3268.641268	9536.296987
74.036500	0.036600	0.031398	0.033894	0.085647	4448.001872	18195.915216	3269.451950	9528.662433
74.537000	0.034239	0.030323	0.039856	0.090179	4424.597681	18001.124131	3270.636791	9460.314135
75.037000	0.039346	0.033204	0.045026	0.088297	4448.333501	18166.442714	3276.535004	9488.615403
75.535000	0.041411	0.030908	0.029971	0.087700	4457.472780	18107.247294	3264.544511	9497.612969
76.035000	0.036090	0.030318	0.041173	0.087302	4440.612788	18100.575890	3274.132856	9503.622357
76.535500	0.036145	0.030383	0.048263	0.087337	4440.682405	18101.661896	3280.090645	9503.101150
77.035500	0.038829	0.031733	0.040426	0.090949	4437.522438	18023.207560	3270.470747	9448.765157
77.536000	0.033541	0.031251	0.049407	0.089867	4423.299474	18043.977326	3278.911967	9464.993537
78.036000	0.037251	0.031304	0.045023	0.091395	4430.660691	17993.006477	3273.929252	9442.092433
78.536500	0.036135	0.031284	0.036492	0.097423	4406.692157	17785.764808	3261.942443	9352.514458
79.036500	0.036752	0.031764	0.055747	0.092174	4426.345110	17981.997236	3282.350039	9430.441783
79.537500	0.037160	0.033090	0.048951	0.094298	4420.568471	17954.506316	3274.788167	9398.802289
80.035000	0.039402	0.033043	0.039022	0.095561	4423.862384	17909.503686	3265.516504	9380.056791
80.534500	0.035984	0.030775	0.032068	0.099991	4397.675707	17681.478610	3256.328173	9314.742305
81.035000	0.036944	0.030921	0.036544	0.095339	4416.355215	17844.486678	3263.677109	9383.353056
81.535500	0.036266	0.031034	0.056304	0.096360	4410.670674	17813.454656	3279.255175	9368.224579
82.038500	0.038047	0.030864	0.054626	0.096438	4416.364454	17805.005212	3277.766494	9367.069631
82.539000	0.033812	0.031184	0.044903	0.101421	4385.815949	17646.997460	3265.533786	9293.798367
83.036500	0.039030	0.031437	0.040356	0.097255	4416.922276	17796.726716	3265.223112	9355.003991
83.537000	0.039628	0.031855	0.037009	0.098041	4416.292515	17784.204098	3261.861831	9343.409355
84.034000	0.039351	0.031399	0.038208	0.097619	4416.779139	17783.050434	3263.175672	9349.631741
84.559500	0.046067	0.032395	0.041372	0.101411	4426.607567	17688.199087	3262.665680	9293.934661
85.034500	0.040151	0.031440	0.050761	0.099214	4414.114591	17730.265728	3272.190988	9326.143945
85.535000	0.037128	0.031143	0.042532	0.098373	4406.836924	17748.728696	3266.088414	9338.519055
86.035000	0.040872	0.029882	0.045967	0.098015	4420.551722	17718.064005	3269.208444	9343.784248
86.562000	0.038400	0.031332	0.030849	0.101895	4399.369626	17635.999133	3253.849097	9286.865895
87.035500	0.038410	0.030351	0.042298	0.098978	4409.092469	17701.349853	3265.401550	9329.612874
