sample name	sample
index	592
start time	 03-16-2021  04:35:17 PM


Wavelength (nm)	Absorbance
494.344910	-0.127996
494.563924	-0.127996
494.782919	-0.127996
495.001897	0.375771
495.220856	-0.042483
495.439797	-0.017825
495.658719	0.114161
495.877624	0.095234
496.096510	0.043212
496.315378	0.216447
496.534227	0.275545
496.753059	0.236006
496.971872	0.203040
497.190667	0.166031
497.409444	0.171609
497.628203	0.159184
497.846943	0.163407
498.065665	0.165567
498.284369	0.162586
498.503055	0.162402
498.721723	0.162278
498.940372	0.162923
499.159003	0.162780
499.377616	0.161487
499.596210	0.164040
499.814787	0.164061
500.033345	0.164869
500.251885	0.165310
500.470406	0.167153
500.688910	0.167949
500.907395	0.167301
501.125862	0.168694
501.344311	0.168715
501.562742	0.166621
501.781154	0.166549
501.999548	0.164829
502.217924	0.164993
502.436282	0.162956
502.654621	0.162376
502.872942	0.161948
503.091245	0.160902
503.309530	0.161230
503.527797	0.162550
503.746045	0.161303
503.964275	0.161668
504.182487	0.161863
504.400681	0.162072
504.618856	0.162515
504.837013	0.163260
505.055152	0.163837
505.273273	0.162514
505.491376	0.162899
505.709460	0.163721
505.927526	0.164048
506.145574	0.165164
506.363604	0.166214
506.581615	0.166513
506.799608	0.167352
507.017583	0.167676
507.235540	0.169099
507.453478	0.169524
507.671399	0.169930
507.889301	0.170625
508.107185	0.169581
508.325050	0.169605
508.542898	0.170061
508.760727	0.168931
508.978538	0.168694
509.196330	0.168051
509.414105	0.167407
509.631861	0.167858
509.849599	0.167879
510.067319	0.167481
510.285021	0.167529
510.502704	0.167464
510.720369	0.167854
510.938016	0.168551
511.155645	0.169124
511.373255	0.169244
511.590848	0.169150
511.808422	0.167898
512.025977	0.168815
512.243515	0.168818
512.461034	0.168206
512.678536	0.168402
512.896018	0.167774
513.113483	0.167875
513.330930	0.169132
513.548358	0.168736
513.765768	0.170769
513.983160	0.170318
514.200533	0.169448
514.417889	0.169995
514.635226	0.170720
514.852545	0.171378
515.069845	0.170740
515.287128	0.170225
515.504392	0.171301
515.721638	0.170896
515.938866	0.170919
516.156075	0.171159
516.373267	0.171648
516.590440	0.171170
516.807594	0.171367
517.024731	0.172138
517.241850	0.172078
517.458950	0.171540
517.676032	0.171412
517.893095	0.170986
518.110141	0.171399
518.327168	0.172070
518.544177	0.172313
518.761168	0.172475
518.978141	0.172857
519.195095	0.173044
519.412031	0.173644
519.628949	0.173601
519.845849	0.174376
520.062731	0.174700
520.279594	0.173666
520.496439	0.174065
520.713266	0.174285
520.930074	0.174607
521.146865	0.174487
521.363637	0.174348
521.580391	0.174883
521.797127	0.174923
522.013844	0.175092
522.230543	0.175667
522.447224	0.175491
522.663887	0.175593
522.880532	0.175411
523.097158	0.174945
523.313766	0.175158
523.530356	0.174958
523.746928	0.175664
523.963481	0.175910
524.180017	0.176581
524.396534	0.177424
524.613032	0.178120
524.829513	0.179064
525.045975	0.180246
525.262420	0.180197
525.478845	0.180627
525.695253	0.180064
525.911643	0.180462
526.128014	0.180840
526.344367	0.180091
526.560702	0.179216
526.777018	0.178434
526.993316	0.179012
527.209597	0.180088
527.425858	0.179945
527.642102	0.180818
527.858328	0.181200
528.074535	0.181354
528.290724	0.182328
528.506894	0.182876
528.723047	0.183994
528.939181	0.183899
529.155297	0.182953
529.371395	0.183736
529.587475	0.184234
529.803536	0.184460
530.019579	0.184367
530.235604	0.184792
530.451611	0.185276
530.667600	0.184993
530.883570	0.185510
531.099522	0.186262
531.315456	0.186481
531.531372	0.186031
531.747269	0.186376
531.963148	0.186333
532.179009	0.186155
532.394852	0.186419
532.610676	0.186944
532.826482	0.186768
533.042271	0.187179
533.258040	0.187908
533.473792	0.188391
533.689525	0.188868
533.905240	0.189555
534.120937	0.190203
534.336616	0.191202
534.552277	0.191555
534.767919	0.191761
534.983543	0.191942
535.199149	0.192332
535.414736	0.192763
535.630306	0.192869
535.845857	0.193199
536.061390	0.193143
536.276904	0.192066
536.492401	0.192765
536.707879	0.193164
536.923339	0.193235
537.138781	0.192687
537.354204	0.193205
537.569610	0.193004
537.784997	0.193196
538.000366	0.193196
538.215716	0.193792
538.431049	0.193078
538.646363	0.193079
538.861659	0.194168
539.076937	0.194177
539.292196	0.194431
539.507438	0.194679
539.722661	0.194607
539.937866	0.195342
540.153052	0.196209
540.368221	0.197115
540.583371	0.197635
540.798503	0.196806
541.013617	0.197737
541.228712	0.198102
541.443789	0.198616
541.658848	0.198922
541.873889	0.199774
542.088912	0.199348
542.303916	0.198726
542.518902	0.199062
542.733870	0.198914
542.948820	0.198899
543.163752	0.199006
543.378665	0.199835
543.593560	0.200811
543.808437	0.199784
544.023295	0.200758
544.238136	0.202006
544.452958	0.201768
544.667762	0.202836
544.882548	0.202450
545.097315	0.202570
545.312064	0.201868
545.526795	0.201476
545.741508	0.202201
545.956203	0.202404
546.170879	0.202404
546.385537	0.203173
546.600177	0.202944
546.814799	0.204087
547.029402	0.204443
547.243988	0.204977
547.458555	0.204765
547.673103	0.205451
547.887634	0.205123
548.102146	0.205538
548.316640	0.205876
548.531116	0.206136
548.745574	0.205538
548.960013	0.205281
549.174435	0.205677
549.388838	0.206686
549.603222	0.206600
549.817589	0.206844
550.031937	0.206758
550.246267	0.206561
550.460579	0.207068
550.674873	0.207831
550.889148	0.208240
551.103405	0.208415
551.317644	0.208352
551.531865	0.208804
551.746068	0.209133
551.960252	0.209016
552.174418	0.209371
552.388566	0.209976
552.602696	0.209762
552.816807	0.210103
553.030900	0.209731
553.244975	0.209722
553.459032	0.209734
553.673070	0.209590
553.887091	0.209852
554.101093	0.209715
554.315077	0.209360
554.529042	0.209839
554.742990	0.210369
554.956919	0.211133
555.170830	0.211366
555.384722	0.210989
555.598597	0.211199
555.812453	0.211935
556.026291	0.212265
556.240111	0.212532
556.453913	0.212621
556.667696	0.211768
556.881461	0.211758
557.095208	0.211861
557.308937	0.212365
557.522647	0.212872
557.736339	0.212533
557.950013	0.212692
558.163669	0.212910
558.377307	0.213064
558.590926	0.214045
558.804527	0.214236
559.018110	0.214459
559.231675	0.214712
559.445221	0.215054
559.658749	0.215733
559.872259	0.215773
560.085751	0.215778
560.299225	0.215656
560.512680	0.216002
560.726117	0.216100
560.939536	0.216241
561.152937	0.216512
561.366319	0.216703
561.579683	0.215934
561.793029	0.215870
562.006357	0.216115
562.219667	0.216547
562.432958	0.215988
562.646231	0.216364
562.859486	0.216657
563.072723	0.216776
563.285941	0.216398
563.499141	0.216796
563.712323	0.217055
563.925487	0.217281
564.138632	0.217279
564.351760	0.217882
564.564869	0.217789
564.777960	0.217483
564.991032	0.217152
565.204087	0.217686
565.417123	0.218187
565.630141	0.218757
565.843140	0.218626
566.056122	0.219599
566.269085	0.219857
566.482030	0.220178
566.694957	0.220453
566.907866	0.220360
567.120756	0.220566
567.333628	0.220446
567.546482	0.220207
567.759318	0.220748
567.972135	0.220332
568.184935	0.219849
568.397716	0.219381
568.610478	0.219796
568.823223	0.220183
569.035949	0.220164
569.248657	0.220026
569.461347	0.220462
569.674019	0.220523
569.886672	0.220703
570.099308	0.221185
570.311925	0.221256
570.524523	0.221325
570.737104	0.221723
570.949666	0.221477
571.162210	0.222211
571.374736	0.222204
571.587244	0.222607
571.799733	0.222435
572.012205	0.222559
572.224658	0.223137
572.437092	0.223313
572.649509	0.223440
572.861907	0.223722
573.074287	0.223334
573.286649	0.223199
573.498993	0.222951
573.711318	0.222537
573.923625	0.222232
574.135914	0.222043
574.348185	0.221780
574.560438	0.221816
574.772672	0.221830
574.984888	0.222559
575.197086	0.223650
575.409266	0.223502
575.621427	0.224324
575.833570	0.224643
576.045695	0.225162
576.257802	0.225981
576.469890	0.226193
576.681961	0.226861
576.894013	0.226773
577.106046	0.226642
577.318062	0.227051
577.530059	0.227267
577.742039	0.227542
577.954000	0.227810
578.165942	0.227499
578.377867	0.227451
578.589773	0.227465
578.801661	0.227516
579.013531	0.226919
579.225382	0.227166
579.437216	0.227197
579.649031	0.227448
579.860828	0.227229
580.072606	0.227353
580.284367	0.227970
580.496109	0.228206
580.707833	0.228539
580.919539	0.229031
581.131227	0.228999
581.342896	0.229241
581.554547	0.229203
581.766180	0.229362
581.977795	0.229539
582.189391	0.229857
582.400969	0.229838
582.612529	0.229496
582.824071	0.229433
583.035595	0.229474
583.247100	0.229332
583.458587	0.229020
583.670056	0.229160
583.881506	0.229221
584.092939	0.229336
584.304353	0.229018
584.515749	0.229535
584.727127	0.229670
584.938486	0.229750
585.149828	0.229871
585.361151	0.230332
585.572456	0.230331
585.783742	0.230542
585.995011	0.230956
586.206261	0.231607
586.417493	0.231735
586.628706	0.231954
586.839902	0.232079
587.051079	0.232179
587.262238	0.232642
587.473379	0.232785
587.684502	0.233002
587.895606	0.232111
588.106692	0.231817
588.317760	0.232083
588.528810	0.232682
588.739841	0.233058
588.950855	0.233281
589.161850	0.233562
589.372827	0.233877
589.583785	0.234121
589.794726	0.234542
590.005648	0.234861
590.216552	0.234722
590.427437	0.234242
590.638305	0.234128
590.849154	0.234537
591.059985	0.234254
591.270798	0.234087
591.481592	0.233918
591.692369	0.233870
591.903127	0.233567
592.113867	0.233974
592.324588	0.234284
592.535292	0.234845
592.745977	0.234594
592.956644	0.235087
593.167293	0.235856
593.377923	0.236222
593.588536	0.236742
593.799130	0.237214
594.009706	0.236790
594.220263	0.236904
594.430803	0.236923
594.641324	0.237383
594.851827	0.237511
595.062312	0.237199
595.272778	0.237189
595.483227	0.236733
595.693657	0.237112
595.904069	0.237991
596.114462	0.238277
596.324838	0.238523
596.535195	0.238651
596.745534	0.238901
596.955855	0.238838
597.166157	0.238838
597.376441	0.239869
597.586707	0.239905
597.796955	0.239699
598.007185	0.239783
598.217396	0.239862
598.427589	0.239958
598.637764	0.239604
598.847921	0.239934
599.058060	0.240207
599.268180	0.239436
599.478282	0.239561
599.688366	0.239518
599.898431	0.239332
600.108479	0.239578
600.318508	0.239777
600.528519	0.240500
600.738511	0.240622
600.948486	0.240673
601.158442	0.241413
601.368380	0.241210
601.578300	0.241465
601.788202	0.241741
601.998085	0.241531
602.207950	0.241507
602.417797	0.241231
602.627626	0.241704
602.837436	0.241942
603.047228	0.241851
603.257002	0.242335
603.466758	0.242499
603.676496	0.242519
603.886215	0.242847
604.095916	0.243114
604.305599	0.243066
604.515264	0.243038
604.724910	0.243161
604.934538	0.243093
605.144148	0.243208
605.353740	0.243031
605.563314	0.243475
605.772869	0.243367
605.982406	0.243523
606.191925	0.243852
606.401425	0.243847
606.610908	0.244232
606.820372	0.244561
607.029818	0.244602
607.239246	0.244764
607.448655	0.244554
607.658047	0.244642
607.867420	0.244642
608.076775	0.244422
608.286111	0.244590
608.495430	0.244068
608.704730	0.244171
608.914012	0.244252
609.123275	0.244527
609.332521	0.244808
609.541748	0.245001
609.750957	0.244931
609.960148	0.245192
610.169321	0.245266
610.378475	0.245712
610.587611	0.245886
610.796729	0.245900
611.005829	0.245714
611.214910	0.245665
611.423974	0.245799
611.633019	0.246329
611.842045	0.246522
612.051054	0.246923
612.260044	0.247253
612.469017	0.247237
612.677970	0.247390
612.886906	0.248173
613.095824	0.248611
613.304723	0.248635
613.513604	0.248758
613.722467	0.248971
613.931311	0.248828
614.140138	0.248983
614.348946	0.249123
614.557736	0.249220
614.766507	0.248839
614.975261	0.249029
615.183996	0.249225
615.392713	0.248669
615.601412	0.248452
615.810092	0.248650
616.018754	0.248340
616.227399	0.248288
616.436024	0.248727
616.644632	0.248807
616.853222	0.249240
617.061793	0.249795
617.270346	0.250075
617.478880	0.250214
617.687397	0.250312
617.895895	0.250782
618.104375	0.251186
618.312837	0.251164
618.521281	0.251360
618.729706	0.250600
618.938113	0.250238
619.146502	0.250659
619.354873	0.251031
619.563226	0.250969
619.771560	0.250954
619.979876	0.250934
620.188174	0.250701
620.396453	0.250867
620.604715	0.251491
620.812958	0.251667
621.021183	0.251754
621.229390	0.251912
621.437578	0.252362
621.645748	0.252411
621.853900	0.252537
622.062034	0.253175
622.270150	0.253453
622.478247	0.253565
622.686326	0.253347
622.894387	0.253059
623.102430	0.253226
623.310454	0.253631
623.518461	0.253846
623.726449	0.254240
623.934418	0.253938
624.142370	0.253847
624.350303	0.253893
624.558218	0.254633
624.766115	0.255089
624.973994	0.254950
625.181855	0.254486
625.389697	0.254705
625.597521	0.254659
625.805327	0.255273
626.013114	0.255298
626.220883	0.255304
626.428634	0.255194
626.636367	0.255060
626.844082	0.255345
627.051778	0.255678
627.259457	0.255553
627.467117	0.255464
627.674758	0.255241
627.882382	0.255564
628.089987	0.256004
628.297574	0.256097
628.505143	0.256690
628.712694	0.256936
628.920226	0.256849
629.127740	0.257050
629.335236	0.257537
629.542714	0.257500
629.750174	0.257651
629.957615	0.257334
630.165038	0.257782
630.372443	0.257659
630.579829	0.257826
630.787198	0.257892
630.994548	0.258265
631.201880	0.258207
631.409194	0.258680
631.616489	0.258892
631.823766	0.259214
632.031025	0.259135
632.238266	0.259463
632.445489	0.259381
632.652693	0.260124
632.859879	0.260091
633.067047	0.260191
633.274197	0.260156
633.481329	0.260258
633.688442	0.260619
633.895537	0.260768
634.102614	0.261118
634.309672	0.261571
634.516713	0.261447
634.723735	0.261606
634.930739	0.261719
635.137724	0.261979
635.344692	0.262046
635.551641	0.261958
635.758572	0.262127
635.965485	0.261934
636.172379	0.261925
636.379256	0.262071
636.586114	0.262279
636.792954	0.262522
636.999775	0.262635
637.206579	0.262787
637.413364	0.263306
637.620131	0.263316
637.826880	0.263211
638.033610	0.263322
638.240323	0.263121
638.447017	0.263035
638.653692	0.262861
638.860350	0.262893
639.066990	0.263104
639.273611	0.262834
639.480214	0.263116
639.686798	0.263567
639.893365	0.263575
640.099913	0.263950
640.306443	0.264113
640.512955	0.264539
640.719449	0.264848
640.925924	0.265079
641.132381	0.265252
641.338820	0.265524
641.545241	0.266067
641.751644	0.266553
641.958028	0.266911
642.164394	0.267094
642.370742	0.267327
642.577071	0.267391
642.783383	0.267504
642.989676	0.267680
643.195951	0.267943
643.402207	0.267634
643.608446	0.267601
643.814666	0.267529
644.020868	0.267725
644.227052	0.267806
644.433218	0.268173
644.639365	0.268333
644.845494	0.268597
645.051605	0.268516
645.257698	0.268683
645.463772	0.269013
645.669828	0.269224
645.875866	0.269566
646.081886	0.269849
646.287888	0.269782
646.493871	0.270060
646.699836	0.270055
646.905783	0.270391
647.111712	0.270522
647.317622	0.270452
647.523514	0.270540
647.729388	0.270735
647.935244	0.271009
648.141082	0.271089
648.346901	0.271303
648.552702	0.271795
648.758485	0.271975
648.964250	0.272271
649.169996	0.272560
649.375724	0.272853
649.581434	0.272765
649.787126	0.272877
649.992800	0.273262
650.198455	0.272997
650.404092	0.272754
650.609711	0.272756
650.815311	0.272720
651.020894	0.272862
651.226458	0.272925
651.432004	0.273308
651.637532	0.273140
651.843041	0.273241
652.048532	0.273648
652.254006	0.274086
652.459460	0.274248
652.664897	0.274440
652.870315	0.274575
653.075716	0.274728
653.281097	0.274769
653.486461	0.275219
653.691807	0.275504
653.897134	0.275564
654.102443	0.275536
654.307734	0.275496
654.513006	0.275532
654.718261	0.275543
654.923497	0.275849
655.128715	0.275841
655.333915	0.276028
655.539096	0.276007
655.744259	0.276458
655.949404	0.276969
656.154531	0.277048
656.359640	0.277632
656.564730	0.277890
656.769802	0.278016
656.974856	0.278534
657.179892	0.278751
657.384909	0.278938
657.589908	0.278730
657.794889	0.278574
657.999852	0.279029
658.204797	0.279000
658.409723	0.278941
658.614631	0.279212
658.819521	0.279126
659.024393	0.278804
659.229246	0.278977
659.434081	0.279264
659.638898	0.279608
659.843697	0.279638
660.048478	0.279871
660.253240	0.280056
660.457984	0.280057
660.662710	0.280432
660.867417	0.280883
661.072107	0.281154
661.276778	0.281443
661.481431	0.281815
661.686066	0.282165
661.890682	0.282087
662.095281	0.282218
662.299861	0.282529
662.504422	0.282535
662.708966	0.282829
662.913491	0.283013
663.117999	0.283084
663.322488	0.282906
663.526958	0.283052
663.731411	0.283221
663.935845	0.283865
664.140261	0.283962
664.344659	0.284133
664.549038	0.284338
664.753400	0.284452
664.957743	0.284501
665.162068	0.284697
665.366375	0.284842
665.570663	0.285360
665.774933	0.285351
665.979185	0.285510
666.183419	0.285820
666.387635	0.285850
666.591832	0.286123
666.796011	0.286410
667.000172	0.286636
667.204315	0.286697
667.408439	0.286819
667.612545	0.287126
667.816634	0.287235
668.020703	0.287222
668.224755	0.287638
668.428788	0.287503
668.632803	0.287827
668.836800	0.287902
669.040779	0.288189
669.244739	0.288338
669.448681	0.288403
669.652605	0.288718
669.856511	0.288966
670.060399	0.289030
670.264268	0.289759
670.468119	0.289755
670.671952	0.290159
670.875767	0.290333
671.079563	0.290517
671.283341	0.290641
671.487101	0.290964
671.690843	0.291312
671.894567	0.291371
672.098272	0.291411
672.301959	0.291790
672.505628	0.291877
672.709278	0.292393
672.912911	0.292632
673.116525	0.292838
673.320121	0.292783
673.523699	0.292962
673.727258	0.293093
673.930799	0.293275
674.134322	0.293448
674.337827	0.293690
674.541314	0.293503
674.744782	0.293782
674.948232	0.293997
675.151664	0.294542
675.355078	0.294726
675.558474	0.295302
675.761851	0.295234
675.965210	0.295441
676.168551	0.295846
676.371873	0.296200
676.575178	0.296197
676.778464	0.296434
676.981732	0.296692
677.184981	0.296884
677.388213	0.296832
677.591426	0.297308
677.794621	0.297300
677.997798	0.297226
678.200956	0.297381
678.404097	0.297752
678.607219	0.298076
678.810323	0.297907
679.013408	0.298241
679.216476	0.298738
679.419525	0.298857
679.622556	0.298984
679.825569	0.299243
680.028563	0.299249
680.231540	0.299349
680.434498	0.299321
680.637438	0.299590
680.840359	0.299571
681.043263	0.299298
681.246148	0.299474
681.449015	0.300128
681.651864	0.300240
681.854694	0.300594
682.057506	0.300926
682.260301	0.301261
682.463076	0.301464
682.665834	0.301743
682.868573	0.302046
683.071295	0.302294
683.273998	0.302268
683.476682	0.302652
683.679349	0.302775
683.881997	0.302788
684.084627	0.302931
684.287239	0.303035
684.489833	0.302900
684.692408	0.303107
684.894965	0.303295
685.097504	0.303526
685.300025	0.303540
685.502527	0.304071
685.705012	0.304235
685.907478	0.304428
686.109925	0.304371
686.312355	0.304672
686.514766	0.304904
686.717159	0.304918
686.919534	0.304995
687.121891	0.305311
687.324230	0.305076
687.526550	0.305341
687.728852	0.305624
687.931136	0.305757
688.133401	0.306002
688.335649	0.306170
688.537878	0.306395
688.740089	0.306417
688.942281	0.306295
689.144456	0.306790
689.346612	0.306749
689.548750	0.306882
689.750870	0.307449
689.952971	0.307506
690.155055	0.307871
690.357120	0.308026
690.559167	0.308343
690.761195	0.308746
690.963206	0.308526
691.165198	0.308737
691.367172	0.308768
691.569128	0.308737
691.771065	0.309071
691.972984	0.308919
692.174885	0.309298
692.376768	0.309515
692.578633	0.309549
692.780479	0.309496
692.982308	0.309576
693.184118	0.309719
693.385909	0.309850
693.587683	0.309761
693.789438	0.309715
693.991175	0.309465
694.192894	0.309289
694.394595	0.309373
694.596277	0.309728
694.797941	0.309736
694.999587	0.309551
695.201215	0.309736
695.402824	0.309943
695.604416	0.310189
695.805989	0.310498
696.007543	0.310831
696.209080	0.311169
696.410598	0.311290
696.612099	0.311589
696.813580	0.312306
697.015044	0.312455
697.216490	0.312760
697.417917	0.313352
697.619326	0.313721
697.820717	0.313858
698.022089	0.313889
698.223444	0.314225
698.424780	0.314254
698.626098	0.314077
698.827397	0.314010
699.028679	0.314075
699.229942	0.313788
699.431187	0.313625
699.632414	0.313421
699.833622	0.313417
700.034813	0.313464
700.235985	0.313463
700.437139	0.313735
700.638274	0.314081
700.839392	0.314264
701.040491	0.314171
701.241572	0.314314
701.442635	0.314585
701.643679	0.314621
701.844706	0.314522
702.045714	0.314987
702.246704	0.315114
702.447675	0.315060
702.648629	0.315053
702.849564	0.315326
703.050481	0.315398
703.251380	0.315554
703.452260	0.315636
703.653122	0.315717
703.853966	0.315636
704.054792	0.315511
704.255600	0.315453
704.456389	0.315467
704.657160	0.315655
704.857913	0.315486
705.058648	0.315679
705.259365	0.315896
705.460063	0.315981
705.660743	0.316120
705.861405	0.316240
706.062048	0.316235
706.262674	0.316168
706.463281	0.316006
706.663870	0.316242
706.864441	0.316126
707.064993	0.316071
707.265527	0.316112
707.466043	0.315968
707.666541	0.316034
707.867021	0.316336
708.067482	0.316337
708.267925	0.316415
708.468350	0.316293
708.668757	0.316301
708.869145	0.316074
709.069516	0.315980
709.269868	0.316226
709.470201	0.316038
709.670517	0.316081
709.870814	0.316380
710.071093	0.316597
710.271354	0.316458
710.471597	0.316700
710.671821	0.316827
710.872028	0.316908
711.072216	0.316903
711.272385	0.316967
711.472537	0.316802
711.672670	0.316648
711.872785	0.316453
712.072882	0.316621
712.272961	0.316128
712.473021	0.316279
712.673063	0.316197
712.873087	0.315966
713.073093	0.316172
713.273081	0.316171
713.473050	0.316210
713.673001	0.316303
713.872934	0.316220
714.072849	0.316410
714.272745	0.316388
714.472623	0.316578
714.672483	0.316702
714.872325	0.316513
715.072148	0.316415
715.271954	0.316489
715.471741	0.316244
715.671509	0.316302
715.871260	0.316398
716.070992	0.316287
716.270707	0.316245
716.470403	0.316202
716.670080	0.315827
716.869740	0.315927
717.069381	0.315464
717.269004	0.315581
717.468609	0.315241
717.668195	0.314843
717.867764	0.314611
718.067314	0.314064
718.266846	0.313846
718.466360	0.314235
718.665855	0.314097
718.865332	0.314037
719.064791	0.314007
719.264232	0.313985
719.463655	0.314026
719.663059	0.313923
719.862445	0.314191
720.061813	0.314172
720.261163	0.314025
720.460494	0.313851
720.659807	0.314053
720.859102	0.313732
721.058379	0.313791
721.257638	0.314046
721.456878	0.314132
721.656100	0.313714
721.855304	0.313712
722.054490	0.313338
722.253657	0.313022
722.452806	0.312882
722.651937	0.312867
722.851050	0.312777
723.050145	0.312337
723.249221	0.312145
723.448279	0.312384
723.647319	0.312090
723.846340	0.311709
724.045344	0.311960
724.244329	0.311452
724.443296	0.311220
724.642245	0.310898
724.841175	0.310796
725.040088	0.310795
725.238982	0.310388
725.437857	0.310416
725.636715	0.310880
725.835554	0.310663
726.034376	0.310706
726.233179	0.310599
726.431963	0.310563
726.630730	0.310499
726.829478	0.310349
727.028208	0.310456
727.226920	0.310172
727.425614	0.309587
727.624289	0.309279
727.822946	0.309123
728.021585	0.308922
728.220206	0.308721
728.418808	0.308619
728.617392	0.308342
728.815958	0.308203
729.014506	0.308226
729.213036	0.308213
729.411547	0.308123
729.610040	0.308039
729.808515	0.307729
730.006972	0.307956
730.205410	0.307616
730.403831	0.307741
730.602233	0.307465
730.800616	0.307171
730.998982	0.307250
731.197329	0.307142
731.395658	0.307006
731.593969	0.306963
731.792262	0.306386
731.990536	0.305981
732.188793	0.305482
732.387031	0.305400
732.585250	0.305040
732.783452	0.304538
732.981635	0.304186
733.179800	0.304217
733.377947	0.304146
733.576076	0.304232
733.774186	0.304213
733.972278	0.304202
734.170352	0.303898
734.368408	0.304039
734.566446	0.303639
734.764465	0.303688
734.962466	0.303270
735.160449	0.302992
735.358413	0.302850
735.556360	0.302996
735.754288	0.302786
735.952198	0.302968
736.150090	0.302639
736.347963	0.302968
736.545818	0.303130
736.743655	0.302790
736.941474	0.302570
737.139275	0.302273
737.337057	0.302012
737.534821	0.301711
737.732567	0.301208
737.930295	0.301162
738.128005	0.300702
738.325696	0.300218
738.523369	0.300510
738.721024	0.300319
738.918660	0.300237
739.116279	0.299726
739.313879	0.299382
739.511461	0.299145
739.709024	0.298769
739.906570	0.298652
740.104097	0.298036
740.301606	0.297387
740.499097	0.297345
740.696569	0.296931
740.894024	0.297015
741.091460	0.296982
741.288878	0.297062
741.486277	0.296723
741.683659	0.296346
741.881022	0.296370
742.078367	0.296281
742.275694	0.295741
742.473002	0.295546
742.670293	0.295558
742.867565	0.295311
743.064819	0.295258
743.262054	0.295478
743.459272	0.295457
743.656471	0.295226
743.853652	0.295106
744.050815	0.294874
744.247959	0.294902
744.445085	0.294428
744.642194	0.294200
744.839283	0.293541
745.036355	0.293104
745.233408	0.292530
745.430444	0.292346
745.627461	0.292082
745.824459	0.292399
746.021440	0.291896
746.218402	0.291845
746.415346	0.292025
746.612272	0.291864
746.809180	0.291690
747.006069	0.291924
747.202940	0.291896
747.399793	0.291896
747.596628	0.291671
747.793444	0.291715
747.990243	0.291532
748.187023	0.291257
748.383784	0.291383
748.580528	0.291224
748.777253	0.291254
748.973960	0.291134
749.170649	0.290980
749.367320	0.290800
749.563973	0.290520
749.760607	0.290115
749.957223	0.289770
750.153821	0.289824
750.350400	0.289773
750.546962	0.289311
750.743505	0.289095
750.940030	0.288956
751.136536	0.288796
751.333025	0.288759
751.529495	0.288887
751.725947	0.288824
751.922381	0.288132
752.118796	0.287811
752.315194	0.287848
752.511573	0.287895
752.707934	0.287530
752.904276	0.287247
753.100601	0.286756
753.296907	0.286323
753.493195	0.286128
753.689465	0.285983
753.885716	0.285780
754.081949	0.285608
754.278164	0.285161
754.474361	0.285185
754.670540	0.284972
754.866700	0.285191
755.062843	0.285396
755.258967	0.285378
755.455072	0.285487
755.651160	0.285649
755.847229	0.285277
756.043280	0.285351
756.239313	0.285255
756.435328	0.285356
756.631324	0.285064
756.827302	0.284625
757.023262	0.284504
757.219204	0.284132
757.415127	0.283619
757.611033	0.283519
757.806920	0.283036
758.002788	0.282979
758.198639	0.282860
758.394471	0.282675
758.590286	0.282639
758.786081	0.282549
758.981859	0.282552
759.177619	0.282515
759.373360	0.282709
759.569083	0.282818
759.764788	0.282482
759.960474	0.282217
760.156143	0.282364
760.351793	0.282177
760.547425	0.281798
760.743038	0.281475
760.938634	0.281492
761.134211	0.281014
761.329770	0.280744
761.525311	0.280559
761.720833	0.280494
761.916338	0.280345
762.111824	0.280401
762.307292	0.280551
762.502741	0.280424
762.698173	0.279980
762.893586	0.279902
763.088981	0.280179
763.284358	0.280009
763.479716	0.279695
763.675057	0.279159
763.870379	0.278957
764.065683	0.278508
764.260968	0.278643
764.456236	0.279027
764.651485	0.279004
764.846716	0.278853
765.041929	0.278707
765.237123	0.278766
765.432299	0.278911
765.627457	0.278619
765.822597	0.278481
766.017719	0.278395
766.212822	0.278027
766.407907	0.278063
766.602974	0.277548
766.798023	0.277526
766.993054	0.277398
767.188066	0.277272
767.383060	0.277173
767.578036	0.277478
767.772993	0.277244
767.967933	0.277047
768.162854	0.276888
768.357757	0.277082
768.552642	0.277250
768.747508	0.277212
768.942356	0.277106
769.137186	0.277226
769.331998	0.277259
769.526792	0.277205
769.721567	0.277092
769.916324	0.277084
770.111063	0.276660
770.305784	0.276533
770.500486	0.276515
770.695171	0.276563
770.889837	0.276278
771.084484	0.276041
771.279114	0.276014
771.473725	0.276144
771.668318	0.275789
771.862893	0.275901
772.057450	0.275676
772.251988	0.275646
772.446509	0.275609
772.641011	0.275578
772.835494	0.275109
773.029960	0.275205
773.224407	0.275157
773.418836	0.275165
773.613247	0.275092
773.807640	0.274919
774.002014	0.274881
774.196370	0.274730
774.390708	0.274870
774.585028	0.275037
774.779330	0.274637
774.973613	0.274814
775.167878	0.274878
775.362125	0.274884
775.556354	0.274845
775.750564	0.274497
775.944756	0.274344
776.138930	0.273920
776.333086	0.273921
776.527223	0.274156
776.721343	0.273737
776.915444	0.273504
777.109526	0.273430
777.303591	0.273519
777.497637	0.273519
777.691666	0.273518
777.885676	0.273927
778.079667	0.274018
778.273641	0.273967
778.467596	0.274323
778.661533	0.274550
778.855452	0.274403
779.049352	0.274596
779.243235	0.274642
779.437099	0.274617
779.630945	0.274358
779.824773	0.274220
780.018582	0.274171
780.212373	0.273844
780.406146	0.273953
780.599901	0.274196
780.793638	0.274096
780.987356	0.274137
781.181056	0.274551
781.374738	0.275251
781.568402	0.275100
781.762047	0.275069
781.955674	0.275072
782.149283	0.275082
782.342874	0.275305
782.536447	0.275085
782.730001	0.275172
782.923537	0.274806
783.117055	0.274353
783.310555	0.274459
783.504036	0.274578
783.697499	0.274566
783.890944	0.274534
784.084371	0.274224
784.277780	0.274350
784.471170	0.274308
784.664542	0.274474
784.857896	0.274461
785.051231	0.274655
785.244549	0.275125
785.437848	0.275015
785.631129	0.274900
785.824392	0.274742
786.017636	0.274810
786.210863	0.275006
786.404071	0.274967
786.597260	0.275088
786.790432	0.275129
786.983585	0.274844
787.176721	0.275235
787.369838	0.275246
787.562936	0.275437
787.756017	0.275468
787.949079	0.275607
788.142123	0.275736
788.335149	0.275897
788.528156	0.275895
788.721146	0.275865
788.914117	0.276011
789.107070	0.276227
789.300005	0.276828
789.492921	0.277085
789.685819	0.277124
789.878699	0.277472
790.071561	0.277450
790.264405	0.277712
790.457230	0.277479
790.650037	0.277555
790.842826	0.277730
791.035597	0.277633
791.228349	0.277643
791.421084	0.277933
791.613800	0.277872
791.806497	0.278092
791.999177	0.278290
792.191838	0.278932
792.384481	0.278979
792.577106	0.279163
792.769713	0.279111
792.962301	0.279346
793.154871	0.279181
793.347423	0.279292
793.539957	0.279250
793.732473	0.279201
793.924970	0.279269
794.117449	0.279377
794.309910	0.279449
794.502353	0.279604
794.694777	0.279389
794.887183	0.279659
795.079571	0.279981
795.271941	0.280259
795.464293	0.280613
795.656626	0.280696
795.848941	0.280981
796.041238	0.281402
796.233516	0.281267
796.425777	0.281853
796.618019	0.282088
796.810243	0.282206
797.002449	0.282346
797.194636	0.282417
797.386805	0.282854
797.578956	0.282977
797.771089	0.282901
797.963204	0.283171
798.155300	0.283452
798.347378	0.283404
798.539438	0.283173
798.731480	0.283351
798.923503	0.283397
799.115509	0.283247
799.307496	0.283349
799.499465	0.283386
799.691415	0.283976
799.883348	0.284140
800.075262	0.284305
800.267158	0.284791
800.459035	0.284931
800.650895	0.285176
800.842736	0.285440
801.034559	0.285932
801.226364	0.286156
801.418150	0.286236
801.609919	0.286025
801.801669	0.286274
801.993401	0.286406
802.185114	0.286836
802.376810	0.287101
802.568487	0.287107
802.760146	0.287037
802.951787	0.287397
803.143409	0.287445
803.335014	0.287819
803.526600	0.288051
803.718168	0.288501
803.909717	0.288232
804.101249	0.288544
804.292762	0.288866
804.484257	0.289383
804.675734	0.289409
804.867192	0.289500
805.058632	0.289495
805.250054	0.289923
805.441458	0.290102
805.632844	0.290396
805.824211	0.290535
806.015561	0.290640
806.206891	0.290837
806.398204	0.291188
806.589499	0.291635
806.780775	0.292043
806.972033	0.292101
807.163273	0.292498
807.354495	0.292813
807.545698	0.292808
807.736883	0.293423
807.928050	0.293464
808.119199	0.293671
808.310329	0.293776
808.501441	0.293917
808.692535	0.294285
808.883611	0.294290
809.074669	0.294680
809.265708	0.294907
809.456729	0.295187
809.647732	0.295311
809.838717	0.295362
810.029683	0.295813
810.220632	0.295958
810.411562	0.296342
810.602474	0.296565
810.793367	0.296844
810.984242	0.297168
811.175100	0.297118
811.365938	0.297670
811.556759	0.298109
811.747562	0.298013
811.938346	0.298462
812.129112	0.298377
812.319860	0.298602
812.510589	0.299008
812.701300	0.299398
812.891994	0.299741
813.082668	0.299765
813.273325	0.300188
813.463964	0.300788
813.654584	0.301454
813.845186	0.301933
814.035769	0.302491
814.226335	0.302587
814.416882	0.302946
814.607411	0.303447
814.797922	0.303871
814.988415	0.304123
815.178889	0.304385
815.369345	0.304479
815.559783	0.304825
815.750203	0.305130
815.940605	0.305738
816.130988	0.306075
816.321353	0.306229
816.511700	0.306614
816.702028	0.306751
816.892339	0.307232
817.082631	0.307542
817.272905	0.307718
817.463161	0.307935
817.653398	0.307890
817.843617	0.308492
818.033819	0.308664
818.224001	0.308810
818.414166	0.309380
818.604312	0.309351
818.794440	0.309542
818.984550	0.310075
819.174642	0.310608
819.364716	0.310947
819.554771	0.310881
819.744808	0.311416
819.934827	0.312023
820.124827	0.312170
820.314810	0.313048
820.504774	0.313621
820.694720	0.313757
820.884647	0.313878
821.074557	0.314366
821.264448	0.314690
821.454321	0.314863
821.644176	0.314843
821.834012	0.315186
822.023831	0.315123
822.213631	0.315191
822.403413	0.315544
822.593176	0.315615
822.782922	0.315937
822.972649	0.316269
823.162358	0.316726
823.352049	0.317456
823.541721	0.318347
823.731376	0.319067
823.921012	0.319310
824.110629	0.319879
824.300229	0.320165
824.489811	0.320237
824.679374	0.320726
824.868919	0.320949
825.058445	0.321088
825.247954	0.320944
825.437444	0.321248
825.626916	0.321855
825.816370	0.321890
826.005806	0.322365
826.195223	0.322829
826.384622	0.323256
826.574003	0.323838
826.763366	0.323966
826.952711	0.324441
827.142037	0.324701
827.331345	0.324681
827.520635	0.325375
827.709906	0.326073
827.899160	0.326430
828.088395	0.326701
828.277612	0.326927
828.466810	0.327274
828.655991	0.327521
828.845153	0.327694
829.034297	0.328503
829.223423	0.328423
829.412531	0.328662
829.601620	0.328946
829.790691	0.329283
829.979744	0.329713
830.168779	0.330324
830.357795	0.330889
830.546793	0.331263
830.735773	0.331739
830.924735	0.332510
831.113679	0.332784
831.302604	0.333117
831.491511	0.333812
831.680400	0.334033
831.869271	0.334392
832.058123	0.334768
832.246957	0.335256
832.435773	0.335607
832.624571	0.335711
832.813351	0.335761
833.002112	0.335765
833.190855	0.335969
833.379580	0.336402
833.568287	0.336635
833.756975	0.336815
833.945645	0.337148
834.134297	0.337309
834.322931	0.337727
834.511547	0.338597
834.700144	0.339811
834.888723	0.340214
835.077284	0.341040
835.265826	0.341502
835.454351	0.341832
835.642857	0.342101
835.831345	0.342639
836.019815	0.343290
836.208266	0.343575
836.396699	0.344135
836.585114	0.344182
836.773511	0.343831
836.961890	0.344140
837.150250	0.345050
837.338592	0.345617
837.526916	0.346140
837.715222	0.346625
837.903510	0.346663
838.091779	0.346631
838.280030	0.347223
838.468263	0.348238
838.656477	0.349184
838.844674	0.349426
839.032852	0.350088
839.221012	0.350397
839.409153	0.350557
839.597277	0.351315
839.785382	0.352041
839.973469	0.352354
840.161538	0.352477
840.349589	0.352793
840.537621	0.352554
840.725635	0.352786
840.913631	0.352878
841.101609	0.353280
841.289568	0.353715
841.477509	0.354206
841.665432	0.354876
841.853337	0.355450
842.041224	0.355556
842.229092	0.356510
842.416942	0.357021
842.604774	0.357718
842.792588	0.358165
842.980383	0.358408
843.168160	0.358695
843.355919	0.359022
843.543660	0.359895
843.731382	0.360295
843.919087	0.360777
844.106773	0.361143
844.294441	0.361830
844.482090	0.362114
844.669722	0.362899
844.857335	0.363482
845.044930	0.364074
845.232507	0.364369
845.420065	0.364800
845.607605	0.365199
845.795127	0.365631
845.982631	0.366030
846.170117	0.366553
846.357584	0.366831
846.545033	0.367053
846.732464	0.367111
846.919877	0.367342
847.107272	0.367875
847.294648	0.368326
847.482006	0.368692
847.669346	0.368895
847.856667	0.369655
848.043971	0.370131
848.231256	0.370245
848.418523	0.370960
848.605771	0.371456
848.793002	0.372249
848.980214	0.372443
849.167408	0.373085
849.354584	0.373708
849.541742	0.374067
849.728881	0.374541
849.916002	0.375470
850.103105	0.376302
850.290190	0.376709
850.477256	0.377315
850.664304	0.378050
850.851334	0.378893
851.038346	0.379173
851.225340	0.379584
851.412315	0.379997
851.599272	0.380381
851.786211	0.380629
851.973132	0.380972
852.160034	0.380849
852.346918	0.381110
852.533784	0.380719
852.720632	0.381283
852.907462	0.381432
853.094273	0.382322
853.281066	0.382769
853.467841	0.383281
853.654598	0.383767
853.841336	0.383832
854.028056	0.384539
854.214758	0.385656
854.401442	0.385859
854.588107	0.387050
854.774755	0.387137
854.961384	0.387125
855.147995	0.386934
855.334587	0.387259
855.521162	0.388316
855.707718	0.388647
855.894256	0.388795
856.080775	0.389441
856.267277	0.389095
856.453760	0.389819
856.640225	0.390898
856.826672	0.391616
857.013101	0.392326
857.199511	0.392434
857.385903	0.392758
857.572277	0.393214
857.758633	0.393563
857.944970	0.394202
858.131290	0.393884
858.317591	0.394122
858.503873	0.394431
858.690138	0.394794
858.876384	0.395530
859.062612	0.396152
859.248822	0.396116
859.435014	0.396719
859.621188	0.397430
859.807343	0.398354
859.993480	0.398442
860.179599	0.399157
860.365699	0.399492
860.551781	0.399584
860.737846	0.399739
860.923891	0.400954
861.109919	0.401043
861.295929	0.401046
861.481920	0.401510
861.667893	0.402059
861.853848	0.402457
862.039784	0.402811
862.225702	0.403441
862.411603	0.404040
862.597484	0.403800
862.783348	0.404453
862.969193	0.405018
863.155021	0.405098
863.340830	0.405496
863.526620	0.406004
863.712393	0.406142
863.898147	0.406575
864.083883	0.406772
864.269601	0.407178
864.455301	0.407218
864.640982	0.407276
864.826645	0.407869
865.012290	0.408249
865.197917	0.407608
865.383526	0.408046
865.569116	0.408114
865.754688	0.408463
865.940242	0.408963
866.125777	0.409588
866.311295	0.410600
866.496794	0.410901
866.682275	0.411302
866.867737	0.412408
867.053182	0.413184
867.238608	0.414092
867.424016	0.413940
867.609406	0.413773
867.794778	0.413906
867.980131	0.413996
868.165466	0.414028
868.350783	0.414042
868.536082	0.414530
868.721362	0.414503
868.906625	0.414740
869.091869	0.415773
869.277094	0.416511
869.462302	0.417184
869.647491	0.417360
869.832662	0.417890
870.017815	0.418049
870.202950	0.418231
870.388066	0.418750
870.573165	0.418760
870.758245	0.418672
870.943306	0.418773
871.128350	0.418658
871.313375	0.418668
871.498382	0.418904
871.683371	0.419573
871.868342	0.419963
872.053294	0.420165
872.238229	0.420359
872.423144	0.420726
872.608042	0.420815
872.792922	0.420854
872.977783	0.421399
873.162626	0.421715
873.347451	0.422077
873.532258	0.422603
873.717046	0.422754
873.901816	0.422923
874.086568	0.423462
874.271302	0.423862
874.456017	0.424631
874.640715	0.424422
874.825394	0.424757
875.010055	0.424956
875.194697	0.424643
875.379322	0.424804
875.563928	0.425062
875.748516	0.425290
875.933085	0.426070
876.117637	0.426441
876.302170	0.427187
876.486685	0.427398
876.671182	0.427544
876.855661	0.427660
877.040121	0.427715
877.224563	0.428136
877.408987	0.428117
877.593393	0.428270
877.777780	0.428067
877.962150	0.428276
878.146501	0.428942
878.330833	0.429779
878.515148	0.430315
878.699444	0.431377
878.883722	0.431513
879.067982	0.431724
879.252224	0.431158
879.436447	0.431791
879.620653	0.431073
879.804840	0.430826
879.989008	0.430489
880.173159	0.431003
880.357291	0.430633
880.541405	0.431029
880.725501	0.431384
880.909579	0.431979
881.093638	0.432013
881.277680	0.433117
881.461703	0.433194
881.645707	0.433609
881.829694	0.432912
882.013662	0.433357
882.197612	0.433397
882.381544	0.433471
882.565458	0.433481
882.749353	0.432931
882.933230	0.433592
883.117089	0.433670
883.300930	0.433667
883.484753	0.433657
883.668557	0.433355
883.852343	0.433465
884.036111	0.433429
884.219861	0.433406
884.403592	0.434599
884.587305	0.434299
884.771000	0.434227
884.954677	0.434962
885.138335	0.435938
885.321976	0.435902
885.505598	0.435938
885.689201	0.435946
885.872787	0.435787
886.056354	0.435473
886.239904	0.435543
886.423434	0.435665
886.606947	0.435396
886.790442	0.435063
886.973918	0.435718
887.157376	0.435603
887.340816	0.436404
887.524237	0.436793
887.707641	0.436722
887.891026	0.437266
888.074393	0.437487
888.257741	0.437445
888.441072	0.438067
888.624384	0.437220
888.807678	0.437705
888.990954	0.437216
889.174211	0.437254
889.357451	0.437396
889.540672	0.436876
889.723875	0.437457
889.907059	0.436626
890.090226	0.436578
890.273374	0.436698
890.456504	0.436423
890.639616	0.436315
890.822709	0.437424
891.005785	0.437652
891.188842	0.438006
891.371881	0.437188
891.554901	0.438037
891.737904	0.437895
891.920888	0.438291
892.103854	0.438367
892.286802	0.439008
892.469731	0.438401
892.652643	0.437926
892.835536	0.437207
893.018410	0.437461
893.201267	0.437247
893.384106	0.437078
893.566926	0.437017
893.749728	0.437145
893.932511	0.436420
894.115277	0.436139
894.298024	0.436371
894.480753	0.436756
894.663464	0.436394
894.846157	0.435870
895.028831	0.435356
895.211487	0.435183
895.394125	0.435266
895.576745	0.435558
895.759346	0.435192
895.941930	0.434774
896.124495	0.434256
896.307041	0.434590
896.489570	0.434867
896.672080	0.435083
896.854573	0.435220
897.037046	0.434842
897.219502	0.434738
897.401940	0.434349
897.584359	0.434226
897.766760	0.434282
897.949143	0.433533
898.131507	0.433835
898.313854	0.433087
898.496182	0.433099
898.678492	0.432569
898.860783	0.432008
899.043057	0.432435
899.225312	0.432562
899.407549	0.432977
899.589768	0.432678
899.771968	0.431686
899.954151	0.432489
900.136315	0.431679
900.318461	0.431428
900.500588	0.430845
900.682698	0.430481
900.864789	0.429996
901.046862	0.429375
901.228917	0.430385
901.410953	0.430698
901.592971	0.429846
901.774972	0.429747
901.956953	0.429760
902.138917	0.429913
902.320862	0.429403
902.502790	0.429104
902.684699	0.428460
902.866589	0.427262
903.048462	0.426416
903.230316	0.426627
903.412152	0.426557
903.593970	0.426264
903.775770	0.425754
903.957551	0.425390
904.139314	0.424841
904.321059	0.424851
904.502786	0.424978
904.684494	0.425494
904.866185	0.424374
905.047857	0.423957
905.229510	0.423509
905.411146	0.423532
905.592763	0.423807
905.774363	0.423510
905.955943	0.422773
906.137506	0.422298
906.319051	0.420928
906.500577	0.420064
906.682085	0.419530
906.863575	0.419255
907.045046	0.419413
907.226500	0.419028
907.407935	0.419235
907.589352	0.418560
907.770750	0.417972
907.952131	0.418054
908.133493	0.418819
908.314837	0.419073
908.496163	0.418808
908.677470	0.417716
908.858760	0.416865
909.040031	0.416069
909.221284	0.415658
909.402518	0.415288
909.583735	0.414705
909.764933	0.414038
909.946113	0.413251
910.127275	0.413014
910.308418	0.411872
910.489544	0.411258
910.670651	0.410033
910.851740	0.410377
911.032810	0.409449
911.213863	0.409508
911.394897	0.408335
911.575913	0.407861
911.756911	0.407449
911.937890	0.407845
912.118851	0.407621
912.299794	0.407759
912.480719	0.406474
912.661626	0.406188
912.842514	0.405214
913.023384	0.404857
913.204236	0.403638
913.385070	0.402607
913.565886	0.402264
913.746683	0.402062
913.927462	0.401750
914.108223	0.401463
914.288965	0.400676
914.469690	0.400273
914.650396	0.400240
914.831084	0.400299
915.011754	0.398931
915.192405	0.397956
915.373038	0.397466
915.553653	0.396414
915.734250	0.396327
915.914829	0.396881
916.095389	0.396120
916.275931	0.395583
916.456455	0.394290
916.636961	0.394749
916.817448	0.393949
916.997917	0.392895
917.178368	0.392900
917.358801	0.391293
917.539216	0.390186
917.719612	0.390158
917.899990	0.389551
918.080350	0.389813
918.260692	0.388934
918.441015	0.388884
918.621320	0.387931
918.801607	0.387386
918.981876	0.387065
919.162127	0.386051
919.342359	0.385087
919.522573	0.383892
919.702769	0.382562
919.882947	0.382146
920.063106	0.381101
920.243247	0.380840
920.423370	0.379443
920.603475	0.378758
920.783562	0.378446
920.963630	0.377255
921.143680	0.377455
921.323712	0.377353
921.503725	0.376404
921.683721	0.375379
921.863698	0.374584
922.043657	0.374445
922.223598	0.374426
922.403520	0.373510
922.583424	0.372990
922.763311	0.372081
922.943178	0.370985
923.123028	0.371651
923.302859	0.371187
923.482673	0.370971
923.662467	0.369792
923.842244	0.368655
924.022003	0.368014
924.201743	0.367341
924.381465	0.365799
924.561169	0.364735
924.740854	0.361583
924.920522	0.360535
925.100171	0.358989
925.279802	0.358728
925.459414	0.358265
925.639009	0.356910
925.818585	0.355986
925.998143	0.355583
926.177683	0.354902
926.357205	0.355320
926.536708	0.354315
926.716193	0.353954
926.895660	0.354120
927.075109	0.352142
927.254539	0.350546
927.433951	0.350025
927.613345	0.348682
927.792721	0.348232
927.972079	0.347235
928.151418	0.346935
928.330739	0.346228
928.510042	0.343342
928.689327	0.343583
928.868593	0.343871
929.047841	0.342602
929.227071	0.342604
929.406283	0.341043
929.585476	0.339668
929.764652	0.338609
929.943809	0.337709
930.122948	0.338016
930.302068	0.336560
930.481171	0.335651
930.660255	0.334725
930.839321	0.334063
931.018369	0.334224
931.197398	0.334529
931.376409	0.333358
931.555402	0.332802
931.734377	0.331066
931.913334	0.330099
932.092272	0.329436
932.271192	0.328243
932.450094	0.327484
932.628978	0.325658
932.807844	0.323707
932.986691	0.323232
933.165520	0.321580
933.344331	0.321746
933.523123	0.321945
933.701898	0.320607
933.880654	0.320705
934.059392	0.318736
934.238111	0.318283
934.416813	0.316419
934.595496	0.315854
934.774161	0.315205
934.952808	0.312504
935.131437	0.310957
935.310047	0.309349
935.488639	0.306632
935.667213	0.305376
935.845769	0.304489
936.024306	0.304108
936.202825	0.302970
936.381326	0.302162
936.559809	0.301459
936.738274	0.299767
936.916720	0.299560
937.095148	0.298923
937.273558	0.298973
937.451950	0.297627
937.630323	0.296403
937.808678	0.294378
937.987015	0.292892
938.165334	0.291473
938.343635	0.291362
938.521917	0.291353
938.700181	0.290755
938.878427	0.289454
939.056655	0.288943
939.234864	0.287842
939.413055	0.286370
939.591228	0.284208
939.769383	0.284231
939.947519	0.282991
940.125638	0.282139
940.303738	0.281602
940.481820	0.280252
940.659883	0.278592
940.837929	0.278750
941.015956	0.278381
941.193965	0.277392
941.371955	0.277617
941.549928	0.276108
941.727882	0.273373
941.905818	0.272146
942.083736	0.271310
942.261636	0.271729
942.439517	0.270332
942.617380	0.269109
942.795225	0.269400
942.973052	0.267753
943.150860	0.266430
943.328651	0.265081
943.506423	0.264183
943.684176	0.262128
943.861912	0.259707
944.039629	0.258416
944.217328	0.258056
944.395009	0.257064
944.572672	0.255623
944.750317	0.253877
944.927943	0.253586
945.105551	0.252077
945.283141	0.252071
945.460712	0.249731
945.638265	0.248832
945.815801	0.247909
945.993317	0.247008
946.170816	0.246026
946.348297	0.244964
946.525759	0.242675
946.703203	0.242891
946.880629	0.240425
947.058036	0.239246
947.235425	0.238033
947.412797	0.236524
947.590149	0.235204
947.767484	0.232457
947.944800	0.233402
948.122099	0.233843
948.299379	0.232219
948.476640	0.230674
948.653884	0.231725
948.831109	0.230475
949.008316	0.230863
949.185505	0.230225
949.362676	0.232595
949.539828	0.232125
949.716962	0.230716
949.894078	0.229432
950.071176	0.228436
950.248256	0.224808
950.425317	0.224026
950.602360	0.222132
950.779385	0.221002
950.956391	0.217124
951.133380	0.213638
951.310350	0.212716
951.487302	0.210479
951.664235	0.211397
951.841151	0.212455
952.018048	0.211337
952.194927	0.209334
952.371788	0.208495
952.548631	0.207738
952.725455	0.206099
952.902261	0.204671
953.079049	0.204146
953.255819	0.202008
953.432570	0.202517
953.609303	0.202580
953.786018	0.200959
953.962715	0.199717
954.139394	0.197734
954.316054	0.197236
954.492696	0.197566
954.669320	0.198514
954.845926	0.197998
955.022513	0.194761
955.199083	0.191103
955.375634	0.190372
955.552166	0.188457
955.728681	0.187726
955.905177	0.188984
956.081655	0.185510
956.258115	0.183017
956.434557	0.181850
956.610980	0.182726
956.787385	0.183377
956.963772	0.183967
957.140141	0.186233
957.316492	0.184564
957.492824	0.184223
957.669138	0.187861
957.845434	0.187974
958.021712	0.187979
958.197971	0.186703
958.374212	0.186090
958.550435	0.186519
958.726640	0.182911
958.902826	0.184644
959.078995	0.185691
959.255145	0.180718
959.431277	0.179814
959.607390	0.177031
959.783486	0.175156
959.959563	0.174164
960.135622	0.174474
960.311662	0.174618
960.487685	0.176191
960.663689	0.173435
960.839675	0.175477
961.015643	0.173636
961.191593	0.176662
961.367524	0.175931
961.543437	0.176958
961.719332	0.175272
961.895209	0.173450
962.071067	0.173266
962.246907	0.172495
962.422730	0.171588
962.598533	0.172477
962.774319	0.173166
962.950086	0.173872
963.125835	0.170752
963.301566	0.171641
963.477279	0.169981
963.652973	0.167618
963.828650	0.166830
964.004308	0.167486
964.179947	0.168046
964.355569	0.166290
964.531172	0.165109
964.706757	0.167046
964.882324	0.165046
965.057873	0.165592
965.233403	0.166459
965.408916	0.163902
965.584410	0.161580
965.759885	0.162042
965.935343	0.160904
966.110782	0.162129
966.286203	0.163154
966.461606	0.160683
966.636991	0.161704
966.812357	0.161563
966.987705	0.162160
967.163035	0.160668
967.338347	0.158374
967.513641	0.158924
967.688916	0.161409
967.864173	0.160720
968.039412	0.164183
968.214632	0.167331
968.389835	0.166103
968.565019	0.167406
968.740185	0.168821
968.915333	0.170438
969.090462	0.169687
969.265573	0.165608
969.440667	0.162696
969.615741	0.162113
969.790798	0.160292
969.965836	0.158886
970.140856	0.159253
970.315858	0.163015
970.490842	0.163080
970.665808	0.163525
970.840755	0.165177
971.015684	0.163157
971.190595	0.159402
971.365487	0.158518
971.540362	0.159288
971.715218	0.158418
971.890056	0.153264
972.064875	0.151290
972.239677	0.150018
972.414460	0.151191
972.589225	0.156134
972.763972	0.161688
972.938700	0.164190
973.113411	0.167107
973.288103	0.167198
973.462777	0.167142
973.637432	0.167687
973.812070	0.169160
973.986689	0.166710
974.161290	0.161461
974.335873	0.159949
974.510437	0.157524
974.684984	0.155878
974.859512	0.155079
975.034022	0.156975
975.208513	0.158333
975.382987	0.156947
975.557442	0.157447
975.731879	0.161920
975.906298	0.162525
976.080698	0.162068
976.255080	0.160822
976.429445	0.161956
976.603790	0.159854
976.778118	0.160357
976.952427	0.160844
977.126719	0.160846
977.300992	0.161210
977.475246	0.160846
977.649483	0.159130
977.823701	0.159070
977.997901	0.158326
978.172083	0.161212
978.346247	0.159068
978.520392	0.157542
978.694519	0.156398
978.868628	0.156854
979.042719	0.154042
979.216791	0.155962
979.390845	0.157655
979.564882	0.157096
979.738899	0.155722
979.912899	0.156461
980.086880	0.157753
980.260843	0.157882
980.434788	0.155283
980.608715	0.157445
980.782623	0.157012
980.956514	0.153885
981.130386	0.153473
981.304240	0.154628
981.478075	0.153256
981.651892	0.153414
981.825692	0.154324
981.999472	0.154934
982.173235	0.155783
982.346980	0.155647
982.520706	0.157065
982.694414	0.160533
982.868104	0.159478
983.041775	0.160815
983.215428	0.161644
983.389064	0.161642
983.562680	0.161053
983.736279	0.161920
983.909860	0.161422
984.083422	0.159328
984.256966	0.160183
984.430491	0.160021
984.603999	0.158311
984.777488	0.158878
984.950959	0.157731
985.124412	0.157423
985.297847	0.156146
985.471263	0.155524
985.644661	0.157285
985.818041	0.154888
985.991403	0.155464
986.164747	0.154970
986.338072	0.152659
986.511379	0.151164
986.684668	0.154399
986.857938	0.153702
987.031191	0.154806
987.204425	0.157285
987.377641	0.155720
987.550839	0.155575
987.724018	0.160509
987.897179	0.161680
988.070322	0.162760
988.243447	0.161441
988.416554	0.164079
988.589642	0.162395
988.762712	0.159882
988.935764	0.164120
989.108798	0.165009
989.281813	0.160877
989.454811	0.161938
989.627790	0.162443
989.800751	0.164299
989.973693	0.163382
990.146617	0.168479
990.319524	0.170182
990.492412	0.165857
990.665281	0.162611
990.838133	0.160381
991.010966	0.159469
991.183781	0.160542
991.356578	0.159726
991.529356	0.158652
991.702117	0.153465
991.874859	0.152684
992.047583	0.154466
992.220288	0.157237
992.392976	0.161590
992.565645	0.161220
992.738296	0.161250
992.910929	0.158683
993.083543	0.157425
993.256139	0.158725
993.428718	0.160226
993.601277	0.159659
993.773819	0.157364
993.946342	0.156778
994.118848	0.154630
994.291335	0.152309
994.463803	0.153575
994.636254	0.153511
994.808686	0.153539
994.981100	0.152149
995.153496	0.150395
995.325874	0.151362
995.498233	0.150935
995.670574	0.151466
995.842897	0.151351
996.015202	0.150893
996.187488	0.152931
996.359757	0.152461
996.532007	0.150801
996.704239	0.152479
996.876452	0.152982
997.048648	0.152597
997.220825	0.154342
997.392984	0.156438
997.565124	0.157206
997.737247	0.152574
997.909351	0.153416
998.081437	0.152957
998.253505	0.152021
998.425554	0.150640
998.597586	0.150982
998.769599	0.152081
998.941594	0.149681
999.113571	0.147350
999.285529	0.150621
999.457469	0.150566
999.629391	0.152045
999.801295	0.152517
999.973181	0.153281
1000.145048	0.152940
1000.316897	0.151432
1000.488728	0.153670
1000.660541	0.153980
1000.832335	0.153880
1001.004111	0.152755
1001.175869	0.151631
1001.347609	0.152229
1001.519331	0.152137
1001.691034	0.152472
1001.862719	0.152489
1002.034386	0.152209
1002.206035	0.154917
1002.377665	0.153936
1002.549277	0.155060
1002.720871	0.158221
1002.892447	0.156530
1003.064004	0.157885
1003.235544	0.159050
1003.407065	0.160179
1003.578568	0.159149
1003.750052	0.156102
1003.921519	0.155801
1004.092967	0.154657
1004.264397	0.151913
1004.435809	0.155677
1004.607202	0.153838
1004.778577	0.150282
1004.949934	0.148213
1005.121273	0.147389
1005.292594	0.148367
1005.463896	0.149178
1005.635180	0.149034
1005.806446	0.148392
1005.977694	0.147360
1006.148923	0.146226
1006.320135	0.147736
1006.491328	0.149052
1006.662503	0.149793
1006.833659	0.150115
1007.004798	0.149741
1007.175918	0.151152
1007.347020	0.151456
1007.518103	0.151070
1007.689169	0.152992
1007.860216	0.151932
1008.031245	0.151592
1008.202256	0.153097
1008.373248	0.153872
1008.544223	0.155058
1008.715179	0.153364
1008.886117	0.156499
1009.057036	0.157618
1009.227938	0.157034
1009.398821	0.159936
1009.569686	0.161180
1009.740533	0.160247
1009.911361	0.157727
1010.082172	0.156512
1010.252964	0.157779
1010.423738	0.155944
1010.594493	0.151703
1010.765231	0.152811
1010.935950	0.151756
1011.106651	0.149091
1011.277334	0.149207
1011.447998	0.150421
1011.618645	0.152005
1011.789273	0.150381
1011.959882	0.152044
1012.130474	0.154141
1012.301048	0.154402
1012.471603	0.153470
1012.642140	0.156631
1012.812658	0.156105
1012.983159	0.157546
1013.153641	0.155467
1013.324105	0.157724
1013.494551	0.156604
1013.664979	0.156099
1013.835388	0.154929
1014.005779	0.156416
1014.176152	0.156667
1014.346507	0.155263
1014.516843	0.153568
1014.687162	0.154446
1014.857462	0.154855
1015.027744	0.155829
1015.198007	0.155569
1015.368252	0.156332
1015.538480	0.153522
1015.708689	0.152103
1015.878879	0.156813
1016.049052	0.160033
1016.219206	0.158369
1016.389342	0.158571
1016.559460	0.157124
1016.729559	0.157160
1016.899641	0.156754
1017.069704	0.160330
1017.239749	0.160952
1017.409775	0.162143
1017.579784	0.157430
1017.749774	0.160221
1017.919746	0.157866
1018.089700	0.158181
1018.259635	0.158491
1018.429553	0.156897
1018.599452	0.154965
1018.769333	0.154531
1018.939195	0.151676
1019.109040	0.155067
1019.278866	0.152176
1019.448674	0.151300
1019.618464	0.151322
1019.788235	0.152464
1019.957989	0.154933
1020.127724	0.155139
1020.297441	0.155194
1020.467139	0.152636
1020.636820	0.151419
1020.806482	0.155667
1020.976126	0.157272
1021.145752	0.155995
1021.315359	0.155425
1021.484948	0.155108
1021.654519	0.159205
1021.824072	0.158599
1021.993607	0.160541
1022.163123	0.160532
1022.332621	0.157611
1022.502101	0.156857
1022.671563	0.156035
1022.841007	0.154790
1023.010432	0.154883
1023.179839	0.150665
1023.349228	0.150446
1023.518598	0.152197
1023.687951	0.152166
1023.857285	0.152373
1024.026601	0.155927
1024.195899	0.160433
1024.365178	0.161449
1024.534439	0.160784
1024.703682	0.161868
1024.872907	0.163291
1025.042114	0.162161
1025.211302	0.162804
1025.380472	0.166110
1025.549624	0.164078
1025.718758	0.161803
1025.887873	0.164124
1026.056970	0.164292
1026.226049	0.165355
1026.395110	0.163362
1026.564153	0.159508
1026.733177	0.160156
1026.902183	0.156044
1027.071171	0.156503
1027.240141	0.157614
1027.409092	0.155045
1027.578026	0.154028
1027.746940	0.151734
1027.915837	0.152843
1028.084716	0.156359
1028.253576	0.154773
1028.422418	0.155820
1028.591242	0.154475
1028.760048	0.153159
1028.928835	0.153925
1029.097604	0.155145
1029.266355	0.157562
1029.435088	0.158122
1029.603803	0.157059
1029.772499	0.157690
1029.941177	0.157806
1030.109837	0.156893
1030.278478	0.156930
1030.447102	0.155622
1030.615707	0.155514
1030.784294	0.153366
1030.952863	0.152581
1031.121413	0.151175
1031.289945	0.151249
1031.458460	0.150273
1031.626955	0.151121
1031.795433	0.151587
1031.963892	0.150105
1032.132334	0.150436
1032.300756	0.150135
1032.469161	0.149286
1032.637548	0.150908
1032.805916	0.149739
1032.974266	0.150341
1033.142598	0.149602
1033.310911	0.151262
1033.479207	0.153721
1033.647484	0.153084
1033.815743	0.154218
1033.983983	0.156154
1034.152206	0.156469
1034.320410	0.155122
1034.488596	0.155677
1034.656764	0.155905
1034.824914	0.154948
1034.993045	0.154758
1035.161158	0.154420
1035.329253	0.153147
1035.497330	0.150758
1035.665388	0.151055
1035.833428	0.154134
1036.001450	0.155876
1036.169454	0.157556
1036.337440	0.153521
1036.505407	0.153913
1036.673356	0.152868
1036.841287	0.151884
1037.009200	0.154588
1037.177094	0.154869
1037.344970	0.154078
1037.512828	0.152946
1037.680668	0.153462
1037.848489	0.156353
1038.016293	0.155871
1038.184078	0.157452
1038.351845	0.156909
1038.519593	0.155337
1038.687324	0.154696
1038.855036	0.154594
1039.022730	0.153680
1039.190406	0.153983
1039.358063	0.156235
1039.525702	0.156529
1039.693323	0.155698
1039.860926	0.156745
1040.028511	0.154705
1040.196077	0.153971
1040.363625	0.154424
1040.531155	0.156343
1040.698667	0.158180
1040.866161	0.154377
1041.033636	0.155399
1041.201093	0.156733
1041.368532	0.156060
1041.535952	0.158162
1041.703355	0.158448
1041.870739	0.156730
1042.038105	0.154510
1042.205452	0.151012
1042.372782	0.152611
1042.540093	0.150284
1042.707386	0.148716
1042.874661	0.150420
1043.041918	0.149866
1043.209156	0.148254
1043.376376	0.149699
1043.543578	0.150253
1043.710762	0.150078
1043.877927	0.147185
1044.045074	0.148712
1044.212203	0.149336
1044.379314	0.147765
1044.546407	0.146905
1044.713481	0.148974
1044.880537	0.149654
1045.047575	0.149240
1045.214595	0.151050
1045.381596	0.154348
1045.548579	0.152694
1045.715544	0.155334
1045.882491	0.158837
1046.049420	0.162121
1046.216330	0.161427
1046.383222	0.159747
1046.550096	0.160036
1046.716951	0.158160
1046.883789	0.156213
1047.050608	0.158239
1047.217409	0.155219
1047.384192	0.152682
1047.550956	0.149997
1047.717703	0.152501
1047.884431	0.152545
1048.051140	0.152313
1048.217832	0.151887
1048.384505	0.151314
1048.551161	0.148631
1048.717798	0.149405
1048.884416	0.152036
1049.051017	0.152226
1049.217599	0.151983
1049.384163	0.152888
1049.550709	0.150542
1049.717237	0.152663
1049.883746	0.153975
1050.050237	0.155505
1050.216710	0.154434
1050.383165	0.150653
1050.549601	0.150584
1050.716019	0.150330
1050.882420	0.148841
1051.048801	0.149265
1051.215165	0.147100
1051.381510	0.147248
1051.547837	0.146964
1051.714146	0.147044
1051.880437	0.149178
1052.046709	0.151224
1052.212964	0.148438
1052.379200	0.149011
1052.545417	0.153207
1052.711617	0.151804
1052.877798	0.150901
1053.043961	0.149466
1053.210106	0.149981
1053.376233	0.150271
1053.542341	0.150171
1053.708432	0.150900
1053.874504	0.151515
1054.040557	0.150395
1054.206593	0.153532
1054.372610	0.153287
1054.538609	0.154087
1054.704590	0.155223
1054.870553	0.155449
1055.036497	0.154435
1055.202424	0.152937
1055.368331	0.152024
1055.534221	0.149249
1055.700093	0.149141
1055.865946	0.149848
1056.031781	0.150790
1056.197598	0.149488
1056.363397	0.146615
1056.529177	0.145312
1056.694939	0.149518
1056.860683	0.148743
1057.026409	0.149061
1057.192116	0.148665
1057.357806	0.148046
1057.523477	0.148007
1057.689130	0.148312
1057.854764	0.150241
1058.020381	0.152760
1058.185979	0.149976
1058.351559	0.151020
1058.517120	0.150082
1058.682664	0.150159
1058.848189	0.151970
1059.013696	0.153099
1059.179185	0.152373
1059.344656	0.153538
1059.510108	0.151046
1059.675542	0.150110
1059.840958	0.152622
1060.006356	0.156095
1060.171735	0.159259
1060.337096	0.158159
1060.502439	0.156653
1060.667764	0.158233
1060.833071	0.153435
1060.998359	0.154605
1061.163629	0.156951
1061.328881	0.154240
1061.494115	0.152544
1061.659330	0.151255
1061.824527	0.152603
1061.989706	0.155444
1062.154867	0.157153
1062.320010	0.159668
1062.485134	0.159929
1062.650240	0.160836
1062.815328	0.163764
1062.980398	0.165320
1063.145449	0.161566
1063.310482	0.162558
1063.475497	0.163488
1063.640494	0.163440
1063.805473	0.165039
1063.970433	0.164889
1064.135375	0.163623
1064.300299	0.161943
1064.465204	0.161799
1064.630092	0.162067
1064.794961	0.158991
1064.959812	0.159488
1065.124645	0.157701
1065.289459	0.156704
1065.454256	0.154972
1065.619034	0.155012
1065.783793	0.154262
1065.948535	0.151244
1066.113258	0.151318
1066.277964	0.151058
1066.442651	0.146734
1066.607319	0.147834
1066.771970	0.148018
1066.936602	0.149963
1067.101216	0.151438
1067.265812	0.152022
1067.430389	0.154918
1067.594949	0.155586
1067.759490	0.158228
1067.924013	0.161169
1068.088518	0.159963
1068.253004	0.162771
1068.417472	0.161016
1068.581922	0.158543
1068.746354	0.158106
1068.910768	0.159731
1069.075163	0.159843
1069.239540	0.158413
1069.403899	0.155527
1069.568240	0.153380
1069.732562	0.153025
1069.896866	0.154878
1070.061152	0.156110
1070.225420	0.160315
1070.389670	0.162678
1070.553901	0.163172
1070.718114	0.164116
1070.882309	0.165511
1071.046486	0.169568
1071.210644	0.169506
1071.374784	0.169327
1071.538906	0.168479
1071.703010	0.166812
1071.867096	0.162700
1072.031163	0.164756
1072.195212	0.166259
1072.359243	0.166203
1072.523256	0.164490
1072.687250	0.162784
1072.851226	0.165891
1073.015184	0.164617
1073.179124	0.163316
1073.343045	0.163405
1073.506949	0.163426
1073.670834	0.161985
1073.834701	0.162206
1073.998549	0.162410
1074.162380	0.162647
1074.326192	0.159129
1074.489986	0.162419
1074.653761	0.160920
1074.817519	0.160260
1074.981258	0.159865
1075.144979	0.157676
1075.308682	0.159772
1075.472367	0.164870
1075.636033	0.167709
1075.799681	0.169263
1075.963311	0.170068
1076.126923	0.170432
1076.290516	0.171205
1076.454092	0.172757
1076.617649	0.173766
1076.781187	0.170022
1076.944708	0.164139
1077.108210	0.162664
1077.271695	0.162384
1077.435160	0.162742
1077.598608	0.164576
1077.762038	0.165141
1077.925449	0.162098
1078.088842	0.161443
1078.252217	0.165920
1078.415573	0.168676
1078.578912	0.165613
1078.742232	0.167427
1078.905534	0.166462
1079.068817	0.165863
1079.232083	0.166144
1079.395330	0.163676
1079.558559	0.163993
1079.721770	0.163338
1079.884962	0.161349
1080.048136	0.160175
1080.211293	0.159291
1080.374430	0.155804
1080.537550	0.154574
1080.700651	0.155344
1080.863735	0.157658
1081.026800	0.159802
1081.189846	0.158007
1081.352875	0.159581
1081.515885	0.160895
1081.678877	0.159700
1081.841851	0.161160
1082.004807	0.165913
1082.167744	0.166096
1082.330663	0.166832
1082.493564	0.166328
1082.656447	0.164460
1082.819312	0.164289
1082.982158	0.165853
1083.144986	0.163580
1083.307796	0.165775
1083.470587	0.162254
1083.633361	0.159857
1083.796116	0.159831
1083.958853	0.156440
1084.121571	0.161880
1084.284272	0.160910
1084.446954	0.161760
1084.609618	0.163539
1084.772264	0.159536
1084.934892	0.158500
1085.097501	0.159565
1085.260092	0.158593
1085.422665	0.165587
1085.585220	0.162633
1085.747756	0.164914
1085.910274	0.165783
1086.072774	0.167111
1086.235256	0.170245
1086.397720	0.167940
1086.560165	0.164761
1086.722592	0.169213
1086.885001	0.163752
1087.047392	0.162039
1087.209764	0.163508
1087.372119	0.164898
1087.534455	0.162112
1087.696772	0.161551
1087.859072	0.165764
1088.021353	0.171040
1088.183616	0.164504
1088.345861	0.169318
1088.508088	0.170358
1088.670296	0.167931
1088.832486	0.169789
1088.994658	0.172744
1089.156812	0.179162
1089.318948	0.176581
1089.481065	0.177101
1089.643164	0.178551
1089.805245	0.176026
1089.967308	0.172875
1090.129352	0.174616
1090.291378	0.168583
1090.453386	0.169612
1090.615376	0.167208
1090.777347	0.171238
1090.939301	0.168986
1091.101236	0.172244
1091.263153	0.171525
1091.425051	0.179253
1091.586932	0.174101
1091.748794	0.176940
1091.910638	0.177058
1092.072463	0.175842
1092.234271	0.172228
1092.396060	0.170970
1092.557831	0.166156
1092.719584	0.170735
1092.881319	0.167958
1093.043035	0.168021
1093.204733	0.166577
1093.366413	0.164354
1093.528075	0.161026
1093.689718	0.162784
1093.851343	0.166164
1094.012950	0.165329
1094.174539	0.163472
1094.336110	0.161740
1094.497662	0.164693
1094.659196	0.166118
1094.820712	0.171738
1094.982210	0.174202
1095.143689	0.174227
1095.305151	0.172790
1095.466594	0.178568
1095.628018	0.180540
1095.789425	0.184936
1095.950813	0.180648
1096.112183	0.180804
1096.273535	0.177546
1096.434869	0.179724
1096.596184	0.179690
1096.757482	0.176754
1096.918761	0.175726
1097.080021	0.171457
1097.241264	0.166581
1097.402488	0.174325
1097.563694	0.173300
1097.724882	0.174554
1097.886052	0.171902
1098.047203	0.177963
1098.208336	0.181762
1098.369451	0.183123
1098.530548	0.186223
1098.691627	0.188167
1098.852687	0.182934
1099.013729	0.183389
1099.174753	0.186423
1099.335758	0.186046
1099.496746	0.178639
1099.657715	0.179106
1099.818666	0.173963
1099.979599	0.175066
1100.140513	0.175418
1100.301409	0.176828
1100.462287	0.174736
1100.623147	0.167853
1100.783989	0.169977
1100.944812	0.173641
1101.105617	0.171364
1101.266404	0.176142
1101.427173	0.172255
1101.587923	0.170294
1101.748656	0.168203
1101.909370	0.176400
1102.070066	0.180725
1102.230743	0.182161
1102.391403	0.180478
1102.552044	0.182093
1102.712667	0.180962
1102.873271	0.177542
1103.033858	0.177826
1103.194426	0.180695
1103.354976	0.176543
1103.515508	0.172965
1103.676021	0.169324
1103.836517	0.166715
1103.996994	0.162452
1104.157453	0.159841
1104.317893	0.165483
1104.478316	0.168313
1104.638720	0.164558
1104.799106	0.161267
1104.959474	0.160523
1105.119823	0.169584
1105.280155	0.171540
1105.440468	0.177740
1105.600763	0.180921
1105.761039	0.179707
1105.921298	0.178778
1106.081538	0.184048
1106.241760	0.187403
1106.401964	0.184797
1106.562149	0.178618
1106.722316	0.178522
1106.882465	0.173776
1107.042596	0.178650
1107.202709	0.175925
1107.362803	0.177908
1107.522879	0.178224
1107.682937	0.177869
1107.842977	0.183045
1108.002999	0.178076
1108.163002	0.182805
1108.322987	0.187661
1108.482954	0.186526
1108.642902	0.190226
1108.802833	0.188824
1108.962745	0.183784
1109.122639	0.184952
1109.282515	0.188278
1109.442372	0.196193
1109.602211	0.190576
1109.762032	0.184811
1109.921835	0.182334
1110.081620	0.180709
1110.241386	0.179642
1110.401134	0.180953
1110.560864	0.179213
1110.720576	0.177030
1110.880269	0.170135
1111.039945	0.172922
1111.199602	0.182357
1111.359240	0.185548
1111.518861	0.186669
1111.678463	0.186854
1111.838047	0.188922
1111.997613	0.186821
1112.157161	0.186830
1112.316690	0.192781
1112.476202	0.193127
1112.635695	0.185827
1112.795169	0.184709
1112.954626	0.183894
1113.114064	0.183517
1113.273484	0.184093
1113.432886	0.185734
1113.592270	0.186067
1113.751635	0.178017
1113.910983	0.176325
1114.070312	0.175957
1114.229622	0.171215
1114.388915	0.175439
1114.548189	0.180467
1114.707445	0.179895
1114.866683	0.176431
1115.025903	0.177251
1115.185104	0.179824
1115.344287	0.183282
1115.503452	0.183359
1115.662599	0.187849
1115.821727	0.182725
1115.980838	0.183267
1116.139930	0.182333
1116.299004	0.184935
1116.458059	0.183374
1116.617097	0.188453
1116.776116	0.184040
1116.935117	0.187784
1117.094099	0.180448
1117.253064	0.181509
1117.412010	0.171922
1117.570938	0.171416
1117.729848	0.171872
1117.888740	0.170049
1118.047613	0.170690
1118.206468	0.169124
1118.365305	0.163996
1118.524124	0.163235
1118.682924	0.170992
1118.841707	0.173751
1119.000471	0.179396
1119.159216	0.176371
1119.317944	0.178295
1119.476653	0.176146
1119.635344	0.184380
1119.794017	0.188967
1119.952672	0.193197
1120.111308	0.185631
1120.269927	0.181183
1120.428527	0.176417
1120.587108	0.177552
1120.745672	0.172299
1120.904217	0.169720
1121.062744	0.163555
1121.221253	0.159777
1121.379744	0.163227
1121.538216	0.165843
1121.696671	0.176263
1121.855107	0.175954
1122.013524	0.177678
1122.171924	0.181969
1122.330305	0.179820
1122.488668	0.186280
1122.647013	0.186866
1122.805340	0.194066
1122.963648	0.189483
1123.121938	0.185526
1123.280210	0.187085
1123.438464	0.190819
1123.596700	0.190012
1123.754917	0.198868
1123.913116	0.196433
1124.071297	0.203166
1124.229459	0.192472
1124.387604	0.199584
1124.545730	0.197040
1124.703838	0.193821
1124.861928	0.188497
1125.019999	0.193153
1125.178052	0.186870
1125.336088	0.187133
1125.494104	0.181589
1125.652103	0.186184
1125.810083	0.181191
1125.968045	0.182037
1126.125989	0.184948
1126.283915	0.185154
1126.441823	0.180145
1126.599712	0.181069
1126.757583	0.178674
1126.915436	0.184512
1127.073270	0.180623
1127.231087	0.179934
1127.388885	0.186292
1127.546665	0.190089
1127.704426	0.193548
1127.862170	0.192664
1128.019895	0.193692
1128.177602	0.193066
1128.335291	0.189644
1128.492961	0.196238
1128.650614	0.199373
1128.808248	0.200386
1128.965864	0.198684
1129.123461	0.197697
1129.281041	0.199912
1129.438602	0.200115
1129.596145	0.194646
1129.753670	0.188505
1129.911176	0.183132
1130.068665	0.177836
1130.226135	0.166866
1130.383587	0.160845
1130.541020	0.162062
1130.698436	0.168302
1130.855833	0.167638
1131.013212	0.170805
1131.170573	0.174255
1131.327915	0.179865
1131.485239	0.179686
1131.642545	0.180993
1131.799833	0.178821
1131.957103	0.176246
1132.114354	0.173593
1132.271588	0.177313
1132.428803	0.173618
1132.585999	0.172487
1132.743178	0.171165
1132.900338	0.174169
1133.057480	0.176971
1133.214604	0.179660
1133.371710	0.178036
1133.528797	0.166603
1133.685866	0.166857
1133.842917	0.169674
1133.999950	0.168916
1134.156964	0.166995
1134.313960	0.177055
1134.470938	0.180107
1134.627898	0.176927
1134.784840	0.179654
1134.941763	0.196915
1135.098668	0.194782
1135.255555	0.194655
1135.412424	0.196673
1135.569274	0.185171
1135.726107	0.184276
1135.882921	0.182007
1136.039716	0.184601
1136.196494	0.181151
1136.353253	0.168045
1136.509995	0.164242
1136.666717	0.166890
1136.823422	0.169756
1136.980109	0.184022
1137.136777	0.171840
1137.293427	0.174367
1137.450059	0.184121
1137.606672	0.185981
1137.763267	0.194503
1137.919844	0.193185
1138.076403	0.200606
1138.232944	0.202340
1138.389466	0.203212
1138.545971	0.213000
1138.702457	0.210661
1138.858924	0.205609
1139.015374	0.211847
1139.171805	0.205532
1139.328218	0.213846
1139.484613	0.207111
1139.640990	0.200798
1139.797348	0.201193
1139.953688	0.197109
1140.110010	0.202777
1140.266314	0.208837
1140.422600	0.201388
1140.578867	0.204081
1140.735116	0.207444
1140.891347	0.212207
1141.047559	0.222719
1141.203754	0.219764
1141.359930	0.220628
1141.516088	0.215647
1141.672228	0.211882
1141.828349	0.210472
1141.984452	0.212073
1142.140537	0.207891
1142.296604	0.200124
1142.452653	0.198128
1142.608683	0.190040
1142.764695	0.174737
1142.920689	0.170726
1143.076665	0.172332
1143.232622	0.183719
1143.388562	0.185030
1143.544483	0.184786
1143.700385	0.191312
1143.856270	0.178618
1144.012136	0.192623
1144.167985	0.202739
1144.323814	0.201906
1144.479626	0.213029
1144.635420	0.213965
1144.791195	0.206316
1144.946952	0.209978
1145.102691	0.217846
1145.258411	0.230880
1145.414113	0.226784
1145.569798	0.230645
1145.725463	0.239557
1145.881111	0.232689
1146.036741	0.223842
1146.192352	0.219154
1146.347945	0.214234
1146.503519	0.199534
1146.659076	0.197128
1146.814614	0.188771
1146.970134	0.183534
1147.125636	0.179130
1147.281120	0.172599
1147.436585	0.174775
1147.592032	0.188904
1147.747461	0.193981
1147.902872	0.201890
1148.058265	0.193927
1148.213639	0.194030
1148.368995	0.206184
1148.524333	0.217973
1148.679653	0.222693
1148.834954	0.208631
1148.990237	0.210713
1149.145502	0.195728
1149.300749	0.182586
1149.455977	0.200037
1149.611188	0.197796
1149.766380	0.186382
1149.921553	0.169742
1150.076709	0.160195
1150.231846	0.174055
1150.386966	0.169450
1150.542066	0.177506
1150.697149	0.186035
1150.852214	0.171736
1151.007260	0.169699
1151.162288	0.168700
1151.317298	0.181624
1151.472289	0.188981
1151.627263	0.181616
1151.782218	0.182740
1151.937155	0.178235
1152.092073	0.173361
1152.246974	0.176814
1152.401856	0.185208
1152.556720	0.191733
1152.711566	0.186417
1152.866393	0.185827
1153.021203	0.183178
1153.175994	0.183652
1153.330767	0.182684
1153.485521	0.186926
1153.640258	0.180949
1153.794976	0.188931
1153.949676	0.192483
1154.104358	0.196652
1154.259021	0.200802
1154.413667	0.206230
1154.568294	0.209336
1154.722903	0.200777
1154.877493	0.205468
1155.032066	0.214669
1155.186620	0.204021
1155.341156	0.198030
1155.495674	0.180651
1155.650173	0.175203
1155.804654	0.175511
1155.959118	0.168867
1156.113562	0.182635
1156.267989	0.164124
1156.422397	0.149151
1156.576788	0.138853
1156.731160	0.147871
1156.885513	0.150967
1157.039849	0.152272
1157.194166	0.147273
1157.348465	0.133834
1157.502746	0.127015
1157.657009	0.141663
1157.811253	0.145395
1157.965479	0.162841
1158.119687	0.160931
1158.273877	0.174133
1158.428048	0.186986
1158.582201	0.188640
1158.736337	0.205056
1158.890453	0.209507
1159.044552	0.202969
1159.198632	0.209496
1159.352694	0.182701
1159.506738	0.172384
1159.660764	0.165637
1159.814771	0.144842
1159.968761	0.160254
1160.122732	0.164239
1160.276685	0.159142
1160.430619	0.153255
1160.584535	0.159512
1160.738434	0.174278
1160.892313	0.189058
1161.046175	0.201492
1161.200019	0.215453
1161.353844	0.205903
1161.507651	0.198418
1161.661440	0.189729
1161.815210	0.200924
1161.968962	0.194598
1162.122697	0.204132
1162.276412	0.193576
1162.430110	0.189615
1162.583789	0.177020
1162.737451	0.178284
1162.891094	0.167721
1163.044718	0.173860
1163.198325	0.171946
1163.351913	0.192754
1163.505483	0.177508
1163.659035	0.177436
1163.812569	0.157955
1163.966084	0.154656
1164.119581	0.158253
1164.273060	0.167198
1164.426521	0.182912
1164.579964	0.178974
1164.733388	0.150700
1164.886794	0.170053
1165.040182	0.168493
1165.193551	0.175706
1165.346903	0.184248
1165.500236	0.166580
1165.653551	0.167100
1165.806848	0.157009
1165.960126	0.169144
1166.113386	0.187201
1166.266628	0.182209
1166.419852	0.184092
1166.573058	0.195826
1166.726245	0.191324
1166.879414	0.217555
1167.032565	0.213121
1167.185698	0.231947
1167.338812	0.228813
1167.491909	0.209242
1167.644987	0.181419
1167.798046	0.190938
1167.951088	0.178482
1168.104111	0.185408
1168.257117	0.171994
1168.410103	0.171119
1168.563072	0.179255
1168.716023	0.182789
1168.868955	0.216439
1169.021869	0.235825
1169.174765	0.192761
1169.327642	0.183826
1169.480501	0.178325
1169.633343	0.173410
1169.786165	0.188026
1169.938970	0.157790
1170.091757	0.139875
1170.244525	0.123395
1170.397275	0.125662
1170.550007	0.156283
1170.702720	0.181070
1170.855415	0.194213
1171.008092	0.194665
1171.160751	0.184615
1171.313392	0.191026
1171.466014	0.287099
1171.618619	0.158474
1171.771205	0.158474
1171.923772	0.158474
