sample name	sample
index	1398
start time	 05-10-2021  11:02:36 AM


Wavelength (nm)	Absorbance
494.344910	-0.084731
494.563924	-0.084731
494.782919	-0.084731
495.001897	-0.069735
495.220856	-0.022707
495.439797	-0.015955
495.658719	-0.005557
495.877624	-0.016170
496.096510	-0.008997
496.315378	-0.012847
496.534227	-0.019810
496.753059	-0.023184
496.971872	-0.021639
497.190667	0.091828
497.409444	0.139597
497.628203	0.154355
497.846943	0.165627
498.065665	0.167238
498.284369	0.172002
498.503055	0.174533
498.721723	0.177512
498.940372	0.178086
499.159003	0.178731
499.377616	0.178837
499.596210	0.178842
499.814787	0.177822
500.033345	0.179565
500.251885	0.179860
500.470406	0.179521
500.688910	0.177707
500.907395	0.176886
501.125862	0.177050
501.344311	0.176681
501.562742	0.175486
501.781154	0.175341
501.999548	0.175472
502.217924	0.175231
502.436282	0.176651
502.654621	0.177179
502.872942	0.177915
503.091245	0.178143
503.309530	0.178066
503.527797	0.179667
503.746045	0.179708
503.964275	0.179371
504.182487	0.178747
504.400681	0.177758
504.618856	0.177045
504.837013	0.177400
505.055152	0.176786
505.273273	0.176896
505.491376	0.177755
505.709460	0.178895
505.927526	0.179700
506.145574	0.179609
506.363604	0.179623
506.581615	0.181461
506.799608	0.181826
507.017583	0.182936
507.235540	0.182439
507.453478	0.183102
507.671399	0.183142
507.889301	0.182857
508.107185	0.182986
508.325050	0.182639
508.542898	0.182186
508.760727	0.181657
508.978538	0.181339
509.196330	0.182402
509.414105	0.182308
509.631861	0.183207
509.849599	0.183569
510.067319	0.184692
510.285021	0.186791
510.502704	0.187477
510.720369	0.187846
510.938016	0.188088
511.155645	0.188685
511.373255	0.187879
511.590848	0.186811
511.808422	0.187032
512.025977	0.188110
512.243515	0.187731
512.461034	0.187072
512.678536	0.187575
512.896018	0.187508
513.113483	0.187235
513.330930	0.185931
513.548358	0.186222
513.765768	0.186707
513.983160	0.185419
514.200533	0.186516
514.417889	0.187427
514.635226	0.187370
514.852545	0.188716
515.069845	0.190230
515.287128	0.192044
515.504392	0.192797
515.721638	0.193005
515.938866	0.193317
516.156075	0.193059
516.373267	0.192512
516.590440	0.193224
516.807594	0.193021
517.024731	0.192638
517.241850	0.193696
517.458950	0.193977
517.676032	0.194475
517.893095	0.196488
518.110141	0.197076
518.327168	0.198431
518.544177	0.198417
518.761168	0.197948
518.978141	0.198412
519.195095	0.197899
519.412031	0.198339
519.628949	0.197663
519.845849	0.197158
520.062731	0.197197
520.279594	0.197877
520.496439	0.198338
520.713266	0.198960
520.930074	0.198671
521.146865	0.198545
521.363637	0.199670
521.580391	0.201154
521.797127	0.201059
522.013844	0.200647
522.230543	0.200255
522.447224	0.201483
522.663887	0.202026
522.880532	0.203358
523.097158	0.204630
523.313766	0.203568
523.530356	0.204005
523.746928	0.204574
523.963481	0.206006
524.180017	0.206290
524.396534	0.206235
524.613032	0.205822
524.829513	0.205826
525.045975	0.205894
525.262420	0.206970
525.478845	0.206249
525.695253	0.206826
525.911643	0.206335
526.128014	0.207336
526.344367	0.207698
526.560702	0.208429
526.777018	0.208633
526.993316	0.209208
527.209597	0.209503
527.425858	0.210462
527.642102	0.210470
527.858328	0.210868
528.074535	0.211080
528.290724	0.212215
528.506894	0.212446
528.723047	0.213090
528.939181	0.213210
529.155297	0.213865
529.371395	0.214458
529.587475	0.214800
529.803536	0.216277
530.019579	0.216616
530.235604	0.215897
530.451611	0.217373
530.667600	0.217757
530.883570	0.217747
531.099522	0.218088
531.315456	0.217809
531.531372	0.218635
531.747269	0.218346
531.963148	0.219195
532.179009	0.219900
532.394852	0.220122
532.610676	0.220387
532.826482	0.221669
533.042271	0.222047
533.258040	0.223126
533.473792	0.223667
533.689525	0.223994
533.905240	0.224506
534.120937	0.224767
534.336616	0.225066
534.552277	0.225158
534.767919	0.225279
534.983543	0.225566
535.199149	0.225672
535.414736	0.225649
535.630306	0.226058
535.845857	0.225889
536.061390	0.226025
536.276904	0.226810
536.492401	0.227582
536.707879	0.227753
536.923339	0.228005
537.138781	0.228578
537.354204	0.228965
537.569610	0.229093
537.784997	0.229232
538.000366	0.229541
538.215716	0.229350
538.431049	0.229734
538.646363	0.230536
538.861659	0.231319
539.076937	0.231675
539.292196	0.232413
539.507438	0.233408
539.722661	0.234260
539.937866	0.235322
540.153052	0.236002
540.368221	0.236406
540.583371	0.236397
540.798503	0.236991
541.013617	0.237120
541.228712	0.237515
541.443789	0.237150
541.658848	0.237273
541.873889	0.237575
542.088912	0.237978
542.303916	0.238290
542.518902	0.239086
542.733870	0.238891
542.948820	0.239748
543.163752	0.239819
543.378665	0.240954
543.593560	0.241507
543.808437	0.241501
544.023295	0.241875
544.238136	0.242119
544.452958	0.241647
544.667762	0.242245
544.882548	0.242029
545.097315	0.242922
545.312064	0.242668
545.526795	0.242607
545.741508	0.242808
545.956203	0.242898
546.170879	0.243260
546.385537	0.244213
546.600177	0.244293
546.814799	0.244724
547.029402	0.244479
547.243988	0.244932
547.458555	0.245184
547.673103	0.245771
547.887634	0.245732
548.102146	0.246190
548.316640	0.246433
548.531116	0.247064
548.745574	0.247575
548.960013	0.248222
549.174435	0.248723
549.388838	0.249398
549.603222	0.249524
549.817589	0.250078
550.031937	0.250320
550.246267	0.250548
550.460579	0.250853
550.674873	0.251299
550.889148	0.250715
551.103405	0.251127
551.317644	0.250932
551.531865	0.251154
551.746068	0.251427
551.960252	0.251350
552.174418	0.251474
552.388566	0.251490
552.602696	0.251423
552.816807	0.251972
553.030900	0.251433
553.244975	0.251806
553.459032	0.252214
553.673070	0.252233
553.887091	0.252079
554.101093	0.252179
554.315077	0.252235
554.529042	0.252389
554.742990	0.252516
554.956919	0.252950
555.170830	0.253226
555.384722	0.253018
555.598597	0.253476
555.812453	0.253721
556.026291	0.253785
556.240111	0.254088
556.453913	0.254542
556.667696	0.254764
556.881461	0.255324
557.095208	0.255598
557.308937	0.256345
557.522647	0.256384
557.736339	0.257225
557.950013	0.257458
558.163669	0.257785
558.377307	0.257735
558.590926	0.258081
558.804527	0.257987
559.018110	0.257787
559.231675	0.257848
559.445221	0.257705
559.658749	0.257885
559.872259	0.258424
560.085751	0.258200
560.299225	0.258539
560.512680	0.258840
560.726117	0.259005
560.939536	0.259439
561.152937	0.260027
561.366319	0.260623
561.579683	0.260594
561.793029	0.260819
562.006357	0.261168
562.219667	0.261180
562.432958	0.261289
562.646231	0.261198
562.859486	0.261147
563.072723	0.260592
563.285941	0.261004
563.499141	0.260980
563.712323	0.260957
563.925487	0.261385
564.138632	0.261550
564.351760	0.261944
564.564869	0.262663
564.777960	0.262886
564.991032	0.262999
565.204087	0.263149
565.417123	0.263501
565.630141	0.263676
565.843140	0.263749
566.056122	0.263883
566.269085	0.264006
566.482030	0.263888
566.694957	0.264244
566.907866	0.264548
567.120756	0.264573
567.333628	0.264528
567.546482	0.264927
567.759318	0.264868
567.972135	0.264849
568.184935	0.264890
568.397716	0.265035
568.610478	0.265197
568.823223	0.265210
569.035949	0.265447
569.248657	0.265746
569.461347	0.265397
569.674019	0.265393
569.886672	0.265996
570.099308	0.266133
570.311925	0.266094
570.524523	0.266081
570.737104	0.266498
570.949666	0.266701
571.162210	0.266958
571.374736	0.267292
571.587244	0.267428
571.799733	0.267028
572.012205	0.266799
572.224658	0.267461
572.437092	0.267844
572.649509	0.268011
572.861907	0.268364
573.074287	0.268671
573.286649	0.269531
573.498993	0.270114
573.711318	0.270591
573.923625	0.271101
574.135914	0.271027
574.348185	0.271225
574.560438	0.271679
574.772672	0.271103
574.984888	0.271403
575.197086	0.271543
575.409266	0.271832
575.621427	0.272249
575.833570	0.271920
576.045695	0.271846
576.257802	0.271873
576.469890	0.271392
576.681961	0.272340
576.894013	0.272171
577.106046	0.271819
577.318062	0.271633
577.530059	0.271337
577.742039	0.271387
577.954000	0.271754
578.165942	0.272094
578.377867	0.272937
578.589773	0.272544
578.801661	0.272660
579.013531	0.272169
579.225382	0.272064
579.437216	0.272660
579.649031	0.273666
579.860828	0.273844
580.072606	0.273324
580.284367	0.273318
580.496109	0.273837
580.707833	0.273951
580.919539	0.275137
581.131227	0.275881
581.342896	0.276346
581.554547	0.276388
581.766180	0.276984
581.977795	0.277837
582.189391	0.278191
582.400969	0.277966
582.612529	0.278342
582.824071	0.277943
583.035595	0.278304
583.247100	0.278136
583.458587	0.278165
583.670056	0.278104
583.881506	0.277986
584.092939	0.277981
584.304353	0.278202
584.515749	0.278377
584.727127	0.279002
584.938486	0.278542
585.149828	0.278717
585.361151	0.279340
585.572456	0.279216
585.783742	0.279710
585.995011	0.279791
586.206261	0.280416
586.417493	0.280777
586.628706	0.280946
586.839902	0.281822
587.051079	0.282009
587.262238	0.282193
587.473379	0.282698
587.684502	0.283121
587.895606	0.283173
588.106692	0.283006
588.317760	0.283161
588.528810	0.283512
588.739841	0.282991
588.950855	0.283443
589.161850	0.283358
589.372827	0.283127
589.583785	0.283529
589.794726	0.283800
590.005648	0.284187
590.216552	0.284517
590.427437	0.284583
590.638305	0.285069
590.849154	0.285095
591.059985	0.285628
591.270798	0.286036
591.481592	0.285682
591.692369	0.285811
591.903127	0.285991
592.113867	0.286114
592.324588	0.286309
592.535292	0.286875
592.745977	0.287509
592.956644	0.287379
593.167293	0.287991
593.377923	0.288357
593.588536	0.288860
593.799130	0.288985
594.009706	0.289327
594.220263	0.289150
594.430803	0.289062
594.641324	0.288890
594.851827	0.289053
595.062312	0.288989
595.272778	0.289364
595.483227	0.289508
595.693657	0.289466
595.904069	0.289251
596.114462	0.289746
596.324838	0.290129
596.535195	0.289927
596.745534	0.290135
596.955855	0.290358
597.166157	0.290599
597.376441	0.290656
597.586707	0.291119
597.796955	0.291447
598.007185	0.291338
598.217396	0.291045
598.427589	0.291257
598.637764	0.291498
598.847921	0.291665
599.058060	0.291543
599.268180	0.291878
599.478282	0.291957
599.688366	0.292044
599.898431	0.292272
600.108479	0.293019
600.318508	0.293304
600.528519	0.293097
600.738511	0.293255
600.948486	0.293292
601.158442	0.293588
601.368380	0.294046
601.578300	0.294746
601.788202	0.295364
601.998085	0.295630
602.207950	0.296240
602.417797	0.297034
602.627626	0.297039
602.837436	0.297602
603.047228	0.297550
603.257002	0.297742
603.466758	0.297549
603.676496	0.297691
603.886215	0.297390
604.095916	0.297499
604.305599	0.297507
604.515264	0.298144
604.724910	0.298418
604.934538	0.298608
605.144148	0.298662
605.353740	0.298970
605.563314	0.298646
605.772869	0.299200
605.982406	0.299174
606.191925	0.299273
606.401425	0.299096
606.610908	0.299477
606.820372	0.299751
607.029818	0.299926
607.239246	0.300254
607.448655	0.300904
607.658047	0.301094
607.867420	0.301507
608.076775	0.301785
608.286111	0.302385
608.495430	0.302288
608.704730	0.302862
608.914012	0.303169
609.123275	0.303274
609.332521	0.303589
609.541748	0.304011
609.750957	0.303589
609.960148	0.303877
610.169321	0.303882
610.378475	0.304212
610.587611	0.304408
610.796729	0.304679
611.005829	0.304970
611.214910	0.304812
611.423974	0.304832
611.633019	0.305651
611.842045	0.306152
612.051054	0.306161
612.260044	0.305957
612.469017	0.305968
612.677970	0.305845
612.886906	0.305776
613.095824	0.306123
613.304723	0.306126
613.513604	0.306104
613.722467	0.305967
613.931311	0.306354
614.140138	0.306652
614.348946	0.306672
614.557736	0.306932
614.766507	0.307258
614.975261	0.307291
615.183996	0.307514
615.392713	0.307673
615.601412	0.307668
615.810092	0.307892
616.018754	0.308257
616.227399	0.308372
616.436024	0.308687
616.644632	0.308717
616.853222	0.309270
617.061793	0.309349
617.270346	0.309496
617.478880	0.309851
617.687397	0.309913
617.895895	0.310004
618.104375	0.310298
618.312837	0.310245
618.521281	0.310502
618.729706	0.310568
618.938113	0.310560
619.146502	0.310751
619.354873	0.310999
619.563226	0.311337
619.771560	0.311523
619.979876	0.311719
620.188174	0.312005
620.396453	0.312163
620.604715	0.312113
620.812958	0.312718
621.021183	0.312763
621.229390	0.312716
621.437578	0.312612
621.645748	0.312834
621.853900	0.313029
622.062034	0.313165
622.270150	0.313314
622.478247	0.313728
622.686326	0.313745
622.894387	0.313989
623.102430	0.314279
623.310454	0.314704
623.518461	0.314638
623.726449	0.314903
623.934418	0.315314
624.142370	0.315703
624.350303	0.315765
624.558218	0.316063
624.766115	0.316451
624.973994	0.316665
625.181855	0.316490
625.389697	0.316918
625.597521	0.317073
625.805327	0.317381
626.013114	0.317152
626.220883	0.317285
626.428634	0.317346
626.636367	0.317408
626.844082	0.317462
627.051778	0.318027
627.259457	0.318366
627.467117	0.318524
627.674758	0.318511
627.882382	0.318950
628.089987	0.319190
628.297574	0.319501
628.505143	0.319565
628.712694	0.319864
628.920226	0.320070
629.127740	0.319790
629.335236	0.320016
629.542714	0.320056
629.750174	0.320191
629.957615	0.320390
630.165038	0.320858
630.372443	0.321342
630.579829	0.321596
630.787198	0.321435
630.994548	0.321921
631.201880	0.322112
631.409194	0.322256
631.616489	0.321977
631.823766	0.322232
632.031025	0.322335
632.238266	0.322737
632.445489	0.322792
632.652693	0.323234
632.859879	0.323493
633.067047	0.323527
633.274197	0.323998
633.481329	0.324827
633.688442	0.324867
633.895537	0.324669
634.102614	0.324569
634.309672	0.324684
634.516713	0.324946
634.723735	0.325091
634.930739	0.325335
635.137724	0.325331
635.344692	0.325430
635.551641	0.325819
635.758572	0.326183
635.965485	0.326542
636.172379	0.326750
636.379256	0.326742
636.586114	0.326736
636.792954	0.326694
636.999775	0.327001
637.206579	0.327276
637.413364	0.327275
637.620131	0.327395
637.826880	0.327538
638.033610	0.327881
638.240323	0.328306
638.447017	0.328778
638.653692	0.329171
638.860350	0.329418
639.066990	0.329646
639.273611	0.330212
639.480214	0.330783
639.686798	0.330808
639.893365	0.331078
640.099913	0.331292
640.306443	0.331527
640.512955	0.331774
640.719449	0.331882
640.925924	0.332056
641.132381	0.332139
641.338820	0.332060
641.545241	0.332458
641.751644	0.332873
641.958028	0.333222
642.164394	0.333198
642.370742	0.333870
642.577071	0.334182
642.783383	0.334312
642.989676	0.334371
643.195951	0.334630
643.402207	0.334557
643.608446	0.334394
643.814666	0.334425
644.020868	0.334723
644.227052	0.334448
644.433218	0.334385
644.639365	0.334504
644.845494	0.334687
645.051605	0.334832
645.257698	0.335238
645.463772	0.335668
645.669828	0.335728
645.875866	0.335766
646.081886	0.335931
646.287888	0.336237
646.493871	0.336408
646.699836	0.336384
646.905783	0.336791
647.111712	0.336922
647.317622	0.336825
647.523514	0.336942
647.729388	0.337326
647.935244	0.337639
648.141082	0.338025
648.346901	0.338670
648.552702	0.339184
648.758485	0.339039
648.964250	0.339079
649.169996	0.339254
649.375724	0.339762
649.581434	0.340035
649.787126	0.340328
649.992800	0.340437
650.198455	0.340411
650.404092	0.340491
650.609711	0.340604
650.815311	0.340910
651.020894	0.341504
651.226458	0.341521
651.432004	0.341674
651.637532	0.341626
651.843041	0.341788
652.048532	0.341898
652.254006	0.342342
652.459460	0.343055
652.664897	0.343599
652.870315	0.343712
653.075716	0.344164
653.281097	0.344290
653.486461	0.344821
653.691807	0.345085
653.897134	0.345389
654.102443	0.345615
654.307734	0.345328
654.513006	0.345397
654.718261	0.345724
654.923497	0.345826
655.128715	0.346098
655.333915	0.345834
655.539096	0.346004
655.744259	0.346162
655.949404	0.346277
656.154531	0.346697
656.359640	0.346574
656.564730	0.346326
656.769802	0.346598
656.974856	0.346561
657.179892	0.346993
657.384909	0.347136
657.589908	0.347141
657.794889	0.347143
657.999852	0.347308
658.204797	0.347543
658.409723	0.347893
658.614631	0.347697
658.819521	0.348143
659.024393	0.348166
659.229246	0.348544
659.434081	0.348692
659.638898	0.348599
659.843697	0.348708
660.048478	0.349034
660.253240	0.349294
660.457984	0.349899
660.662710	0.350130
660.867417	0.350232
661.072107	0.350531
661.276778	0.351055
661.481431	0.351753
661.686066	0.352148
661.890682	0.352256
662.095281	0.352596
662.299861	0.352394
662.504422	0.352303
662.708966	0.352838
662.913491	0.352600
663.117999	0.352543
663.322488	0.352773
663.526958	0.352759
663.731411	0.352973
663.935845	0.353021
664.140261	0.353367
664.344659	0.353586
664.549038	0.353755
664.753400	0.354207
664.957743	0.354696
665.162068	0.355038
665.366375	0.355305
665.570663	0.355789
665.774933	0.356045
665.979185	0.356467
666.183419	0.356801
666.387635	0.357257
666.591832	0.357565
666.796011	0.357898
667.000172	0.358034
667.204315	0.358295
667.408439	0.358383
667.612545	0.358582
667.816634	0.358498
668.020703	0.358653
668.224755	0.358604
668.428788	0.358643
668.632803	0.358757
668.836800	0.358776
669.040779	0.359150
669.244739	0.358901
669.448681	0.359357
669.652605	0.359924
669.856511	0.360159
670.060399	0.360563
670.264268	0.361081
670.468119	0.361051
670.671952	0.361246
670.875767	0.361370
671.079563	0.362071
671.283341	0.362185
671.487101	0.362276
671.690843	0.362696
671.894567	0.362747
672.098272	0.363049
672.301959	0.363573
672.505628	0.363854
672.709278	0.364406
672.912911	0.364641
673.116525	0.365012
673.320121	0.365497
673.523699	0.365785
673.727258	0.366085
673.930799	0.366150
674.134322	0.366315
674.337827	0.366272
674.541314	0.366405
674.744782	0.366625
674.948232	0.366963
675.151664	0.367235
675.355078	0.367502
675.558474	0.367901
675.761851	0.368026
675.965210	0.368304
676.168551	0.369113
676.371873	0.369563
676.575178	0.369807
676.778464	0.369857
676.981732	0.370032
677.184981	0.370374
677.388213	0.370566
677.591426	0.371057
677.794621	0.371232
677.997798	0.371408
678.200956	0.371187
678.404097	0.371608
678.607219	0.372036
678.810323	0.372122
679.013408	0.372449
679.216476	0.372857
679.419525	0.372988
679.622556	0.373236
679.825569	0.373401
680.028563	0.373781
680.231540	0.374002
680.434498	0.374206
680.637438	0.374367
680.840359	0.374619
681.043263	0.374887
681.246148	0.375017
681.449015	0.375301
681.651864	0.375779
681.854694	0.376246
682.057506	0.376586
682.260301	0.376832
682.463076	0.377296
682.665834	0.377549
682.868573	0.377908
683.071295	0.378251
683.273998	0.378610
683.476682	0.379011
683.679349	0.379347
683.881997	0.379515
684.084627	0.379757
684.287239	0.379833
684.489833	0.379943
684.692408	0.379928
684.894965	0.380343
685.097504	0.380542
685.300025	0.380357
685.502527	0.380361
685.705012	0.380533
685.907478	0.380698
686.109925	0.381162
686.312355	0.381435
686.514766	0.381544
686.717159	0.381618
686.919534	0.381877
687.121891	0.382029
687.324230	0.382052
687.526550	0.382278
687.728852	0.382413
687.931136	0.382329
688.133401	0.382338
688.335649	0.382707
688.537878	0.382716
688.740089	0.382660
688.942281	0.382844
689.144456	0.383107
689.346612	0.383313
689.548750	0.383390
689.750870	0.383659
689.952971	0.383698
690.155055	0.383817
690.357120	0.384004
690.559167	0.384168
690.761195	0.384491
690.963206	0.384602
691.165198	0.384765
691.367172	0.385170
691.569128	0.385349
691.771065	0.385776
691.972984	0.386002
692.174885	0.386407
692.376768	0.386780
692.578633	0.386960
692.780479	0.387436
692.982308	0.387625
693.184118	0.387714
693.385909	0.387961
693.587683	0.388162
693.789438	0.388383
693.991175	0.388570
694.192894	0.388826
694.394595	0.389037
694.596277	0.388851
694.797941	0.389075
694.999587	0.389336
695.201215	0.389473
695.402824	0.389790
695.604416	0.389815
695.805989	0.389974
696.007543	0.389949
696.209080	0.390113
696.410598	0.390654
696.612099	0.390765
696.813580	0.390727
697.015044	0.390944
697.216490	0.391062
697.417917	0.391185
697.619326	0.391197
697.820717	0.391675
698.022089	0.391562
698.223444	0.391885
698.424780	0.392277
698.626098	0.392461
698.827397	0.392547
699.028679	0.392732
699.229942	0.393109
699.431187	0.393418
699.632414	0.393236
699.833622	0.393516
700.034813	0.393439
700.235985	0.393442
700.437139	0.393903
700.638274	0.394083
700.839392	0.394257
701.040491	0.394442
701.241572	0.394639
701.442635	0.394885
701.643679	0.395449
701.844706	0.395480
702.045714	0.395348
702.246704	0.395505
702.447675	0.395678
702.648629	0.395573
702.849564	0.395409
703.050481	0.395638
703.251380	0.395939
703.452260	0.395607
703.653122	0.395634
703.853966	0.395945
704.054792	0.395891
704.255600	0.396261
704.456389	0.396390
704.657160	0.396710
704.857913	0.396670
705.058648	0.396516
705.259365	0.396717
705.460063	0.396910
705.660743	0.397061
705.861405	0.397018
706.062048	0.396949
706.262674	0.397044
706.463281	0.397023
706.663870	0.397239
706.864441	0.397430
707.064993	0.397637
707.265527	0.397613
707.466043	0.397544
707.666541	0.397613
707.867021	0.397301
708.067482	0.397072
708.267925	0.397032
708.468350	0.396951
708.668757	0.396946
708.869145	0.396810
709.069516	0.396729
709.269868	0.396842
709.470201	0.396757
709.670517	0.397060
709.870814	0.397280
710.071093	0.396968
710.271354	0.396722
710.471597	0.396565
710.671821	0.396560
710.872028	0.396199
711.072216	0.396061
711.272385	0.396042
711.472537	0.395948
711.672670	0.396004
711.872785	0.396332
712.072882	0.396309
712.272961	0.396162
712.473021	0.396047
712.673063	0.396119
712.873087	0.396215
713.073093	0.396185
713.273081	0.396060
713.473050	0.395819
713.673001	0.395757
713.872934	0.395940
714.072849	0.396225
714.272745	0.396381
714.472623	0.396743
714.672483	0.396844
714.872325	0.397233
715.072148	0.397520
715.271954	0.397874
715.471741	0.398056
715.671509	0.398123
715.871260	0.398142
716.070992	0.397800
716.270707	0.397816
716.470403	0.397383
716.670080	0.396978
716.869740	0.396599
717.069381	0.396397
717.269004	0.396066
717.468609	0.395658
717.668195	0.395481
717.867764	0.395508
718.067314	0.395107
718.266846	0.395274
718.466360	0.395282
718.665855	0.395237
718.865332	0.394863
719.064791	0.394627
719.264232	0.394502
719.463655	0.394369
719.663059	0.394482
719.862445	0.394845
720.061813	0.394709
720.261163	0.394490
720.460494	0.394411
720.659807	0.394665
720.859102	0.394817
721.058379	0.394924
721.257638	0.394787
721.456878	0.394731
721.656100	0.394583
721.855304	0.394544
722.054490	0.394543
722.253657	0.394798
722.452806	0.394581
722.651937	0.394722
722.851050	0.394459
723.050145	0.394390
723.249221	0.394206
723.448279	0.394086
723.647319	0.394006
723.846340	0.393960
724.045344	0.393791
724.244329	0.393789
724.443296	0.393491
724.642245	0.393539
724.841175	0.393527
725.040088	0.393369
725.238982	0.393051
725.437857	0.392954
725.636715	0.392856
725.835554	0.392533
726.034376	0.392288
726.233179	0.392400
726.431963	0.392186
726.630730	0.392084
726.829478	0.392004
727.028208	0.392439
727.226920	0.392472
727.425614	0.392408
727.624289	0.392435
727.822946	0.392311
728.021585	0.392028
728.220206	0.392126
728.418808	0.392031
728.617392	0.391774
728.815958	0.390974
729.014506	0.390431
729.213036	0.389744
729.411547	0.389253
729.610040	0.388890
729.808515	0.388425
730.006972	0.387807
730.205410	0.387356
730.403831	0.387371
730.602233	0.387220
730.800616	0.387053
730.998982	0.387216
731.197329	0.387049
731.395658	0.387002
731.593969	0.386954
731.792262	0.387010
731.990536	0.386862
732.188793	0.386670
732.387031	0.386687
732.585250	0.386773
732.783452	0.386630
732.981635	0.386606
733.179800	0.386466
733.377947	0.386413
733.576076	0.386384
733.774186	0.386568
733.972278	0.386283
734.170352	0.386145
734.368408	0.385864
734.566446	0.385594
734.764465	0.385440
734.962466	0.385380
735.160449	0.385181
735.358413	0.384987
735.556360	0.384453
735.754288	0.384468
735.952198	0.384107
736.150090	0.383899
736.347963	0.383754
736.545818	0.383520
736.743655	0.383413
736.941474	0.383317
737.139275	0.383308
737.337057	0.383273
737.534821	0.382802
737.732567	0.382773
737.930295	0.382561
738.128005	0.382487
738.325696	0.382298
738.523369	0.381865
738.721024	0.381409
738.918660	0.381035
739.116279	0.380855
739.313879	0.380640
739.511461	0.380334
739.709024	0.379897
739.906570	0.379563
740.104097	0.379405
740.301606	0.379291
740.499097	0.379273
740.696569	0.379027
740.894024	0.378580
741.091460	0.378499
741.288878	0.378307
741.486277	0.378610
741.683659	0.378603
741.881022	0.378264
742.078367	0.378201
742.275694	0.377892
742.473002	0.377561
742.670293	0.377588
742.867565	0.377174
743.064819	0.376823
743.262054	0.376157
743.459272	0.375593
743.656471	0.375450
743.853652	0.375049
744.050815	0.374836
744.247959	0.374498
744.445085	0.374306
744.642194	0.374014
744.839283	0.374019
745.036355	0.373976
745.233408	0.373833
745.430444	0.373516
745.627461	0.373048
745.824459	0.372728
746.021440	0.372687
746.218402	0.372176
746.415346	0.372043
746.612272	0.371497
746.809180	0.371192
747.006069	0.370774
747.202940	0.370759
747.399793	0.370746
747.596628	0.370655
747.793444	0.370172
747.990243	0.370078
748.187023	0.370294
748.383784	0.370324
748.580528	0.370135
748.777253	0.370264
748.973960	0.369907
749.170649	0.369792
749.367320	0.369382
749.563973	0.369433
749.760607	0.369511
749.957223	0.368889
750.153821	0.368579
750.350400	0.368456
750.546962	0.368030
750.743505	0.368097
750.940030	0.367881
751.136536	0.367685
751.333025	0.367524
751.529495	0.366860
751.725947	0.366635
751.922381	0.366510
752.118796	0.366262
752.315194	0.366140
752.511573	0.365854
752.707934	0.366011
752.904276	0.366095
753.100601	0.365970
753.296907	0.366078
753.493195	0.366156
753.689465	0.366280
753.885716	0.366391
754.081949	0.366267
754.278164	0.365908
754.474361	0.365458
754.670540	0.365311
754.866700	0.364983
755.062843	0.364719
755.258967	0.364656
755.455072	0.364122
755.651160	0.363857
755.847229	0.363687
756.043280	0.363331
756.239313	0.363240
756.435328	0.363208
756.631324	0.362790
756.827302	0.362658
757.023262	0.362269
757.219204	0.362148
757.415127	0.361992
757.611033	0.361943
757.806920	0.361886
758.002788	0.361398
758.198639	0.360640
758.394471	0.360484
758.590286	0.360150
758.786081	0.360136
758.981859	0.360044
759.177619	0.359594
759.373360	0.359450
759.569083	0.359180
759.764788	0.359217
759.960474	0.359216
760.156143	0.359383
760.351793	0.359270
760.547425	0.358808
760.743038	0.358734
760.938634	0.358507
761.134211	0.357999
761.329770	0.358202
761.525311	0.357851
761.720833	0.357781
761.916338	0.357201
762.111824	0.357122
762.307292	0.357159
762.502741	0.356779
762.698173	0.356490
762.893586	0.356491
763.088981	0.356023
763.284358	0.355722
763.479716	0.355476
763.675057	0.355648
763.870379	0.355604
764.065683	0.355390
764.260968	0.355148
764.456236	0.355173
764.651485	0.355103
764.846716	0.355267
765.041929	0.355439
765.237123	0.355392
765.432299	0.355291
765.627457	0.355088
765.822597	0.354909
766.017719	0.354921
766.212822	0.354725
766.407907	0.354671
766.602974	0.354224
766.798023	0.354388
766.993054	0.354264
767.188066	0.354131
767.383060	0.353838
767.578036	0.353611
767.772993	0.353552
767.967933	0.353662
768.162854	0.353571
768.357757	0.353564
768.552642	0.353068
768.747508	0.353006
768.942356	0.352730
769.137186	0.352439
769.331998	0.352378
769.526792	0.352332
769.721567	0.352251
769.916324	0.352118
770.111063	0.351913
770.305784	0.351939
770.500486	0.351606
770.695171	0.351785
770.889837	0.352056
771.084484	0.351943
771.279114	0.351897
771.473725	0.351741
771.668318	0.351404
771.862893	0.351416
772.057450	0.351020
772.251988	0.351338
772.446509	0.351142
772.641011	0.350922
772.835494	0.350896
773.029960	0.350839
773.224407	0.350933
773.418836	0.351471
773.613247	0.351515
773.807640	0.351609
774.002014	0.351459
774.196370	0.351595
774.390708	0.351534
774.585028	0.351570
774.779330	0.351344
774.973613	0.351181
775.167878	0.350988
775.362125	0.350719
775.556354	0.350722
775.750564	0.350661
775.944756	0.350469
776.138930	0.350380
776.333086	0.350558
776.527223	0.350499
776.721343	0.350255
776.915444	0.349844
777.109526	0.349848
777.303591	0.349750
777.497637	0.349569
777.691666	0.349478
777.885676	0.349664
778.079667	0.349517
778.273641	0.349463
778.467596	0.349766
778.661533	0.349934
778.855452	0.350340
779.049352	0.350263
779.243235	0.350511
779.437099	0.350657
779.630945	0.350681
779.824773	0.350742
780.018582	0.351009
780.212373	0.351002
780.406146	0.351221
780.599901	0.351191
780.793638	0.351491
780.987356	0.351338
781.181056	0.351261
781.374738	0.351097
781.568402	0.351350
781.762047	0.351403
781.955674	0.351411
782.149283	0.351221
782.342874	0.350946
782.536447	0.350806
782.730001	0.350799
782.923537	0.350818
783.117055	0.351149
783.310555	0.350623
783.504036	0.350536
783.697499	0.350703
783.890944	0.350669
784.084371	0.351043
784.277780	0.351063
784.471170	0.351146
784.664542	0.351233
784.857896	0.351130
785.051231	0.351638
785.244549	0.351779
785.437848	0.351580
785.631129	0.351786
785.824392	0.351641
786.017636	0.351880
786.210863	0.351913
786.404071	0.351936
786.597260	0.351933
786.790432	0.351837
786.983585	0.351596
787.176721	0.351857
787.369838	0.351971
787.562936	0.352182
787.756017	0.352278
787.949079	0.352456
788.142123	0.352628
788.335149	0.352967
788.528156	0.352989
788.721146	0.353311
788.914117	0.353316
789.107070	0.353251
789.300005	0.353283
789.492921	0.353639
789.685819	0.353400
789.878699	0.353625
790.071561	0.353745
790.264405	0.353611
790.457230	0.353585
790.650037	0.353447
790.842826	0.353560
791.035597	0.353500
791.228349	0.353171
791.421084	0.353682
791.613800	0.353630
791.806497	0.353324
791.999177	0.353752
792.191838	0.353932
792.384481	0.354195
792.577106	0.354358
792.769713	0.354638
792.962301	0.355061
793.154871	0.354945
793.347423	0.355082
793.539957	0.355658
793.732473	0.355825
793.924970	0.356029
794.117449	0.356650
794.309910	0.356646
794.502353	0.356777
794.694777	0.356654
794.887183	0.357209
795.079571	0.357416
795.271941	0.357636
795.464293	0.357930
795.656626	0.358069
795.848941	0.357853
796.041238	0.358153
796.233516	0.358480
796.425777	0.358940
796.618019	0.358905
796.810243	0.359356
797.002449	0.359304
797.194636	0.359567
797.386805	0.359752
797.578956	0.360084
797.771089	0.360487
797.963204	0.360669
798.155300	0.361029
798.347378	0.361746
798.539438	0.362291
798.731480	0.362566
798.923503	0.362688
799.115509	0.363037
799.307496	0.363414
799.499465	0.363511
799.691415	0.363911
799.883348	0.364100
800.075262	0.363918
800.267158	0.363673
800.459035	0.364225
800.650895	0.364508
800.842736	0.364888
801.034559	0.365110
801.226364	0.365595
801.418150	0.365764
801.609919	0.366074
801.801669	0.366270
801.993401	0.366731
802.185114	0.366832
802.376810	0.367016
802.568487	0.367306
802.760146	0.367643
802.951787	0.367742
803.143409	0.368068
803.335014	0.368398
803.526600	0.368631
803.718168	0.368669
803.909717	0.369226
804.101249	0.369593
804.292762	0.370164
804.484257	0.370242
804.675734	0.370749
804.867192	0.370976
805.058632	0.371176
805.250054	0.371710
805.441458	0.372236
805.632844	0.372305
805.824211	0.372619
806.015561	0.372500
806.206891	0.372684
806.398204	0.373122
806.589499	0.373539
806.780775	0.373641
806.972033	0.373964
807.163273	0.374477
807.354495	0.374796
807.545698	0.374993
807.736883	0.375383
807.928050	0.375905
808.119199	0.375936
808.310329	0.375985
808.501441	0.376613
808.692535	0.376853
808.883611	0.376529
809.074669	0.376442
809.265708	0.376740
809.456729	0.376802
809.647732	0.377070
809.838717	0.377481
810.029683	0.377709
810.220632	0.377708
810.411562	0.378067
810.602474	0.378541
810.793367	0.379318
810.984242	0.379782
811.175100	0.380022
811.365938	0.380365
811.556759	0.380707
811.747562	0.381234
811.938346	0.381658
812.129112	0.381951
812.319860	0.382472
812.510589	0.383025
812.701300	0.383701
812.891994	0.384282
813.082668	0.384686
813.273325	0.384694
813.463964	0.385240
813.654584	0.385869
813.845186	0.386403
814.035769	0.387046
814.226335	0.386992
814.416882	0.386950
814.607411	0.387690
814.797922	0.388414
814.988415	0.389017
815.178889	0.389193
815.369345	0.389620
815.559783	0.389857
815.750203	0.389805
815.940605	0.390427
816.130988	0.391082
816.321353	0.391391
816.511700	0.391290
816.702028	0.392078
816.892339	0.392685
817.082631	0.392594
817.272905	0.393224
817.463161	0.393941
817.653398	0.394108
817.843617	0.394415
818.033819	0.394774
818.224001	0.395330
818.414166	0.395438
818.604312	0.395749
818.794440	0.396581
818.984550	0.396990
819.174642	0.397272
819.364716	0.397600
819.554771	0.397929
819.744808	0.398612
819.934827	0.399093
820.124827	0.399643
820.314810	0.399912
820.504774	0.399827
820.694720	0.400079
820.884647	0.400902
821.074557	0.401613
821.264448	0.402189
821.454321	0.402206
821.644176	0.402546
821.834012	0.402944
822.023831	0.403663
822.213631	0.404354
822.403413	0.404855
822.593176	0.405290
822.782922	0.405686
822.972649	0.405967
823.162358	0.406571
823.352049	0.407306
823.541721	0.407646
823.731376	0.407982
823.921012	0.408392
824.110629	0.409003
824.300229	0.409192
824.489811	0.409784
824.679374	0.410419
824.868919	0.410960
825.058445	0.411402
825.247954	0.412019
825.437444	0.412466
825.626916	0.413367
825.816370	0.413854
826.005806	0.414328
826.195223	0.414862
826.384622	0.415296
826.574003	0.415784
826.763366	0.416097
826.952711	0.416437
827.142037	0.417135
827.331345	0.417592
827.520635	0.418168
827.709906	0.418675
827.899160	0.418879
828.088395	0.419324
828.277612	0.419998
828.466810	0.420734
828.655991	0.421696
828.845153	0.422124
829.034297	0.422652
829.223423	0.422990
829.412531	0.423530
829.601620	0.424321
829.790691	0.424846
829.979744	0.425485
830.168779	0.425898
830.357795	0.426082
830.546793	0.426731
830.735773	0.427240
830.924735	0.427663
831.113679	0.428384
831.302604	0.429050
831.491511	0.429818
831.680400	0.429849
831.869271	0.430087
832.058123	0.430770
832.246957	0.431351
832.435773	0.431735
832.624571	0.432211
832.813351	0.432339
833.002112	0.432539
833.190855	0.433286
833.379580	0.434020
833.568287	0.434886
833.756975	0.435500
833.945645	0.435573
834.134297	0.436236
834.322931	0.437325
834.511547	0.437789
834.700144	0.438390
834.888723	0.438591
835.077284	0.438831
835.265826	0.439586
835.454351	0.439692
835.642857	0.440995
835.831345	0.441368
836.019815	0.442026
836.208266	0.442647
836.396699	0.443345
836.585114	0.443871
836.773511	0.444701
836.961890	0.445185
837.150250	0.446058
837.338592	0.446015
837.526916	0.446710
837.715222	0.447086
837.903510	0.447906
838.091779	0.448108
838.280030	0.449002
838.468263	0.449677
838.656477	0.450486
838.844674	0.451020
839.032852	0.451700
839.221012	0.452388
839.409153	0.452713
839.597277	0.453265
839.785382	0.454517
839.973469	0.454946
840.161538	0.455700
840.349589	0.456134
840.537621	0.457040
840.725635	0.457882
840.913631	0.458620
841.101609	0.459549
841.289568	0.460188
841.477509	0.460324
841.665432	0.460844
841.853337	0.461369
842.041224	0.461431
842.229092	0.461782
842.416942	0.461969
842.604774	0.462517
842.792588	0.462761
842.980383	0.462970
843.168160	0.463556
843.355919	0.464138
843.543660	0.464225
843.731382	0.464813
843.919087	0.465254
844.106773	0.465868
844.294441	0.465757
844.482090	0.465728
844.669722	0.466703
844.857335	0.467048
845.044930	0.467352
845.232507	0.468125
845.420065	0.468563
845.607605	0.469017
845.795127	0.469281
845.982631	0.470233
846.170117	0.471122
846.357584	0.471402
846.545033	0.471910
846.732464	0.472656
846.919877	0.473449
847.107272	0.474185
847.294648	0.474672
847.482006	0.475404
847.669346	0.476155
847.856667	0.476980
848.043971	0.477734
848.231256	0.478976
848.418523	0.479498
848.605771	0.479671
848.793002	0.480393
848.980214	0.481159
849.167408	0.482352
849.354584	0.482538
849.541742	0.483496
849.728881	0.484077
849.916002	0.484388
850.103105	0.485143
850.290190	0.486101
850.477256	0.486522
850.664304	0.487054
850.851334	0.486754
851.038346	0.487570
851.225340	0.487691
851.412315	0.488405
851.599272	0.488778
851.786211	0.489105
851.973132	0.489432
852.160034	0.490141
852.346918	0.490844
852.533784	0.491817
852.720632	0.492445
852.907462	0.492902
853.094273	0.493451
853.281066	0.493844
853.467841	0.494386
853.654598	0.495022
853.841336	0.495664
854.028056	0.496082
854.214758	0.496785
854.401442	0.496906
854.588107	0.497705
854.774755	0.498114
854.961384	0.498576
855.147995	0.498997
855.334587	0.499672
855.521162	0.499567
855.707718	0.499784
855.894256	0.500184
856.080775	0.500723
856.267277	0.501452
856.453760	0.501716
856.640225	0.502024
856.826672	0.502424
857.013101	0.502556
857.199511	0.503744
857.385903	0.504676
857.572277	0.504733
857.758633	0.505188
857.944970	0.504726
858.131290	0.505824
858.317591	0.506905
858.503873	0.507893
858.690138	0.508283
858.876384	0.508630
859.062612	0.508887
859.248822	0.509552
859.435014	0.510212
859.621188	0.511520
859.807343	0.511687
859.993480	0.511959
860.179599	0.512289
860.365699	0.513422
860.551781	0.513645
860.737846	0.513964
860.923891	0.514551
861.109919	0.514631
861.295929	0.514916
861.481920	0.515273
861.667893	0.515932
861.853848	0.516581
862.039784	0.516575
862.225702	0.517271
862.411603	0.518201
862.597484	0.518783
862.783348	0.519764
862.969193	0.520352
863.155021	0.520762
863.340830	0.520821
863.526620	0.521047
863.712393	0.522071
863.898147	0.522071
864.083883	0.522749
864.269601	0.523320
864.455301	0.523814
864.640982	0.524279
864.826645	0.524689
865.012290	0.525757
865.197917	0.526320
865.383526	0.526423
865.569116	0.527203
865.754688	0.527642
865.940242	0.527898
866.125777	0.528460
866.311295	0.528806
866.496794	0.529632
866.682275	0.529959
866.867737	0.530613
867.053182	0.530325
867.238608	0.530707
867.424016	0.530607
867.609406	0.531125
867.794778	0.531283
867.980131	0.531710
868.165466	0.531408
868.350783	0.531676
868.536082	0.531701
868.721362	0.532341
868.906625	0.532430
869.091869	0.532573
869.277094	0.532786
869.462302	0.533467
869.647491	0.534025
869.832662	0.534797
870.017815	0.535228
870.202950	0.535379
870.388066	0.536125
870.573165	0.537198
870.758245	0.537460
870.943306	0.537911
871.128350	0.538494
871.313375	0.538323
871.498382	0.538643
871.683371	0.539165
871.868342	0.539777
872.053294	0.539822
872.238229	0.539659
872.423144	0.540350
872.608042	0.541048
872.792922	0.540795
872.977783	0.540740
873.162626	0.540523
873.347451	0.540938
873.532258	0.541011
873.717046	0.541021
873.901816	0.541283
874.086568	0.540904
874.271302	0.540821
874.456017	0.541393
874.640715	0.542584
874.825394	0.543350
875.010055	0.542778
875.194697	0.542790
875.379322	0.543459
875.563928	0.543512
875.748516	0.544514
875.933085	0.544420
876.117637	0.544689
876.302170	0.544167
876.486685	0.544613
876.671182	0.545463
876.855661	0.545844
877.040121	0.545873
877.224563	0.546880
877.408987	0.546931
877.593393	0.547887
877.777780	0.548177
877.962150	0.548283
878.146501	0.548335
878.330833	0.548653
878.515148	0.549115
878.699444	0.550122
878.883722	0.549805
879.067982	0.550557
879.252224	0.550513
879.436447	0.550449
879.620653	0.552038
879.804840	0.552562
879.989008	0.552371
880.173159	0.552457
880.357291	0.552579
880.541405	0.553354
880.725501	0.552646
880.909579	0.553148
881.093638	0.553322
881.277680	0.552995
881.461703	0.552514
881.645707	0.552387
881.829694	0.552383
882.013662	0.551972
882.197612	0.551611
882.381544	0.552943
882.565458	0.552234
882.749353	0.552394
882.933230	0.552082
883.117089	0.552104
883.300930	0.552364
883.484753	0.552893
883.668557	0.552825
883.852343	0.553514
884.036111	0.552340
884.219861	0.552943
884.403592	0.553130
884.587305	0.553715
884.771000	0.554502
884.954677	0.555168
885.138335	0.555294
885.321976	0.555739
885.505598	0.555140
885.689201	0.555797
885.872787	0.556316
886.056354	0.556575
886.239904	0.556093
886.423434	0.556379
886.606947	0.556344
886.790442	0.556302
886.973918	0.556571
887.157376	0.556653
887.340816	0.556479
887.524237	0.556244
887.707641	0.555836
887.891026	0.556571
888.074393	0.556867
888.257741	0.556853
888.441072	0.556799
888.624384	0.556711
888.807678	0.556939
888.990954	0.557016
889.174211	0.556912
889.357451	0.556737
889.540672	0.556210
889.723875	0.555500
889.907059	0.555185
890.090226	0.555103
890.273374	0.555198
890.456504	0.554891
890.639616	0.554720
890.822709	0.554299
891.005785	0.554830
891.188842	0.554730
891.371881	0.555036
891.554901	0.555215
891.737904	0.554993
891.920888	0.554565
892.103854	0.554957
892.286802	0.554997
892.469731	0.555207
892.652643	0.554230
892.835536	0.554292
893.018410	0.553655
893.201267	0.552953
893.384106	0.552987
893.566926	0.552767
893.749728	0.552061
893.932511	0.551592
894.115277	0.551245
894.298024	0.550683
894.480753	0.550021
894.663464	0.549801
894.846157	0.549643
895.028831	0.549404
895.211487	0.548898
895.394125	0.548551
895.576745	0.548669
895.759346	0.548026
895.941930	0.548336
896.124495	0.547865
896.307041	0.547629
896.489570	0.547498
896.672080	0.546902
896.854573	0.546341
897.037046	0.546492
897.219502	0.546087
897.401940	0.546413
897.584359	0.546862
897.766760	0.547002
897.949143	0.546520
898.131507	0.546946
898.313854	0.546428
898.496182	0.547192
898.678492	0.546952
898.860783	0.546309
899.043057	0.545641
899.225312	0.544799
899.407549	0.544843
899.589768	0.544617
899.771968	0.543539
899.954151	0.544285
900.136315	0.543462
900.318461	0.542938
900.500588	0.542984
900.682698	0.542819
900.864789	0.542726
901.046862	0.541415
901.228917	0.541254
901.410953	0.541403
901.592971	0.541082
901.774972	0.540703
901.956953	0.540947
902.138917	0.540295
902.320862	0.538983
902.502790	0.538387
902.684699	0.538125
902.866589	0.537908
903.048462	0.537472
903.230316	0.536108
903.412152	0.535662
903.593970	0.534876
903.775770	0.535116
903.957551	0.535691
904.139314	0.535413
904.321059	0.535873
904.502786	0.534767
904.684494	0.534218
904.866185	0.533663
905.047857	0.533604
905.229510	0.531726
905.411146	0.531590
905.592763	0.530685
905.774363	0.529821
905.955943	0.528437
906.137506	0.528530
906.319051	0.527742
906.500577	0.527251
906.682085	0.526448
906.863575	0.526629
907.045046	0.525279
907.226500	0.524859
907.407935	0.524380
907.589352	0.524128
907.770750	0.522978
907.952131	0.522498
908.133493	0.521865
908.314837	0.521240
908.496163	0.520309
908.677470	0.518972
908.858760	0.517736
909.040031	0.517127
909.221284	0.516538
909.402518	0.515557
909.583735	0.514875
909.764933	0.514112
909.946113	0.512841
910.127275	0.512681
910.308418	0.512913
910.489544	0.513065
910.670651	0.513010
910.851740	0.512375
911.032810	0.512339
911.213863	0.511715
911.394897	0.511863
911.575913	0.511707
911.756911	0.510876
911.937890	0.510127
912.118851	0.509621
912.299794	0.508564
912.480719	0.507777
912.661626	0.506995
912.842514	0.506439
913.023384	0.504844
913.204236	0.504400
913.385070	0.503942
913.565886	0.502785
913.746683	0.502120
913.927462	0.501487
914.108223	0.500975
914.288965	0.499686
914.469690	0.499055
914.650396	0.498332
914.831084	0.497555
915.011754	0.497021
915.192405	0.496362
915.373038	0.494384
915.553653	0.492915
915.734250	0.491695
915.914829	0.491696
916.095389	0.490869
916.275931	0.490500
916.456455	0.489027
916.636961	0.488291
916.817448	0.487970
916.997917	0.488642
917.178368	0.488737
917.358801	0.488349
917.539216	0.487131
917.719612	0.486217
917.899990	0.485507
918.080350	0.485508
918.260692	0.484525
918.441015	0.484285
918.621320	0.482810
918.801607	0.481475
918.981876	0.480422
919.162127	0.479538
919.342359	0.478529
919.522573	0.477797
919.702769	0.476134
919.882947	0.475046
920.063106	0.473296
920.243247	0.472738
920.423370	0.471265
920.603475	0.470308
920.783562	0.469501
920.963630	0.468466
921.143680	0.467475
921.323712	0.466696
921.503725	0.465737
921.683721	0.464706
921.863698	0.462822
922.043657	0.462326
922.223598	0.461370
922.403520	0.460561
922.583424	0.459795
922.763311	0.458238
922.943178	0.457041
923.123028	0.455747
923.302859	0.454387
923.482673	0.453954
923.662467	0.452835
923.842244	0.451350
924.022003	0.450066
924.201743	0.448123
924.381465	0.446572
924.561169	0.445436
924.740854	0.444247
924.920522	0.443417
925.100171	0.441857
925.279802	0.440441
925.459414	0.440518
925.639009	0.438753
925.818585	0.437950
925.998143	0.437562
926.177683	0.436739
926.357205	0.435878
926.536708	0.434665
926.716193	0.433305
926.895660	0.432797
927.075109	0.430650
927.254539	0.429923
927.433951	0.429013
927.613345	0.427732
927.792721	0.426848
927.972079	0.425350
928.151418	0.423526
928.330739	0.421813
928.510042	0.419880
928.689327	0.418495
928.868593	0.417500
929.047841	0.416058
929.227071	0.414664
929.406283	0.413372
929.585476	0.412691
929.764652	0.411190
929.943809	0.410449
930.122948	0.408993
930.302068	0.408481
930.481171	0.407306
930.660255	0.405950
930.839321	0.404829
931.018369	0.403737
931.197398	0.401835
931.376409	0.401640
931.555402	0.401643
931.734377	0.401054
931.913334	0.399951
932.092272	0.398107
932.271192	0.397119
932.450094	0.396734
932.628978	0.393964
932.807844	0.392275
932.986691	0.390744
933.165520	0.388954
933.344331	0.387764
933.523123	0.384539
933.701898	0.383623
933.880654	0.381477
934.059392	0.379115
934.238111	0.377801
934.416813	0.377681
934.595496	0.376784
934.774161	0.375023
934.952808	0.373491
935.131437	0.372824
935.310047	0.370330
935.488639	0.369646
935.667213	0.368628
935.845769	0.367094
936.024306	0.365015
936.202825	0.362991
936.381326	0.361412
936.559809	0.360053
936.738274	0.358924
936.916720	0.358422
937.095148	0.356352
937.273558	0.354304
937.451950	0.353903
937.630323	0.352739
937.808678	0.351938
937.987015	0.351029
938.165334	0.348208
938.343635	0.347045
938.521917	0.345104
938.700181	0.344817
938.878427	0.342995
939.056655	0.341776
939.234864	0.340195
939.413055	0.338823
939.591228	0.337391
939.769383	0.336603
939.947519	0.334097
940.125638	0.332555
940.303738	0.329615
940.481820	0.328796
940.659883	0.327516
940.837929	0.326637
941.015956	0.324149
941.193965	0.321649
941.371955	0.320181
941.549928	0.320026
941.727882	0.319452
941.905818	0.317507
942.083736	0.316230
942.261636	0.314096
942.439517	0.312669
942.617380	0.312150
942.795225	0.311278
942.973052	0.309751
943.150860	0.306959
943.328651	0.305577
943.506423	0.305080
943.684176	0.302666
943.861912	0.302787
944.039629	0.300298
944.217328	0.297334
944.395009	0.296141
944.572672	0.295442
944.750317	0.294446
944.927943	0.292474
945.105551	0.292640
945.283141	0.291406
945.460712	0.288256
945.638265	0.286495
945.815801	0.285333
945.993317	0.283402
946.170816	0.281552
946.348297	0.281313
946.525759	0.279941
946.703203	0.276313
946.880629	0.275092
947.058036	0.273463
947.235425	0.272301
947.412797	0.271945
947.590149	0.270645
947.767484	0.268747
947.944800	0.266359
948.122099	0.264089
948.299379	0.263544
948.476640	0.262883
948.653884	0.261173
948.831109	0.259194
949.008316	0.258142
949.185505	0.256463
949.362676	0.255747
949.539828	0.254349
949.716962	0.253987
949.894078	0.253059
950.071176	0.250922
950.248256	0.249224
950.425317	0.248640
950.602360	0.246626
950.779385	0.244262
950.956391	0.243700
951.133380	0.241540
951.310350	0.239676
951.487302	0.236855
951.664235	0.234511
951.841151	0.234039
952.018048	0.233007
952.194927	0.230851
952.371788	0.228579
952.548631	0.225245
952.725455	0.223897
952.902261	0.221905
953.079049	0.221473
953.255819	0.222487
953.432570	0.220755
953.609303	0.217647
953.786018	0.215396
953.962715	0.214485
954.139394	0.213056
954.316054	0.211644
954.492696	0.210547
954.669320	0.209286
954.845926	0.206094
955.022513	0.203893
955.199083	0.202186
955.375634	0.201533
955.552166	0.202175
955.728681	0.203162
955.905177	0.201961
956.081655	0.200246
956.258115	0.199969
956.434557	0.200439
956.610980	0.200859
956.787385	0.203078
956.963772	0.202671
957.140141	0.200563
957.316492	0.197899
957.492824	0.198079
957.669138	0.199007
957.845434	0.197322
958.021712	0.196199
958.197971	0.195665
958.374212	0.192804
958.550435	0.191467
958.726640	0.192973
958.902826	0.192965
959.078995	0.190903
959.255145	0.188071
959.431277	0.186109
959.607390	0.183400
959.783486	0.182110
959.959563	0.181106
960.135622	0.183473
960.311662	0.180363
960.487685	0.178852
960.663689	0.178678
960.839675	0.181038
961.015643	0.181065
961.191593	0.183534
961.367524	0.184242
961.543437	0.183875
961.719332	0.179317
961.895209	0.181106
962.071067	0.179712
962.246907	0.180229
962.422730	0.179521
962.598533	0.178785
962.774319	0.176746
962.950086	0.176363
963.125835	0.178113
963.301566	0.177406
963.477279	0.174896
963.652973	0.175836
963.828650	0.175517
964.004308	0.175392
964.179947	0.177327
964.355569	0.174274
964.531172	0.174886
964.706757	0.170619
964.882324	0.173452
965.057873	0.173555
965.233403	0.171183
965.408916	0.169146
965.584410	0.165787
965.759885	0.163933
965.935343	0.162950
966.110782	0.161860
966.286203	0.164259
966.461606	0.161695
966.636991	0.160406
966.812357	0.161901
966.987705	0.163844
967.163035	0.166953
967.338347	0.168411
967.513641	0.169776
967.688916	0.168764
967.864173	0.168462
968.039412	0.170012
968.214632	0.172811
968.389835	0.173319
968.565019	0.171792
968.740185	0.170357
968.915333	0.166194
969.090462	0.168944
969.265573	0.171741
969.440667	0.172528
969.615741	0.170991
969.790798	0.168955
969.965836	0.168073
970.140856	0.168171
970.315858	0.169581
970.490842	0.172160
970.665808	0.170167
970.840755	0.168285
971.015684	0.167931
971.190595	0.168437
971.365487	0.167556
971.540362	0.169231
971.715218	0.169217
971.890056	0.165312
972.064875	0.167306
972.239677	0.166943
972.414460	0.166553
972.589225	0.166662
972.763972	0.168210
972.938700	0.170082
973.113411	0.171237
973.288103	0.172041
973.462777	0.175388
973.637432	0.171323
973.812070	0.170322
973.986689	0.171000
974.161290	0.170436
974.335873	0.165323
974.510437	0.165429
974.684984	0.163234
974.859512	0.163944
975.034022	0.161171
975.208513	0.163331
975.382987	0.163918
975.557442	0.162936
975.731879	0.163905
975.906298	0.166363
976.080698	0.165810
976.255080	0.163172
976.429445	0.161521
976.603790	0.163882
976.778118	0.163514
976.952427	0.164151
977.126719	0.166015
977.300992	0.164101
977.475246	0.163956
977.649483	0.163436
977.823701	0.167811
977.997901	0.166682
978.172083	0.165506
978.346247	0.166536
978.520392	0.166642
978.694519	0.163808
978.868628	0.163884
979.042719	0.165557
979.216791	0.166250
979.390845	0.164229
979.564882	0.166095
979.738899	0.165317
979.912899	0.165240
980.086880	0.164822
980.260843	0.167212
980.434788	0.167004
980.608715	0.166950
980.782623	0.166529
980.956514	0.167626
981.130386	0.166544
981.304240	0.166780
981.478075	0.168976
981.651892	0.169778
981.825692	0.167881
981.999472	0.168617
982.173235	0.168624
982.346980	0.167256
982.520706	0.165345
982.694414	0.166529
982.868104	0.163546
983.041775	0.162367
983.215428	0.162533
983.389064	0.160529
983.562680	0.159978
983.736279	0.159478
983.909860	0.162000
984.083422	0.161922
984.256966	0.161678
984.430491	0.165783
984.603999	0.164929
984.777488	0.164451
984.950959	0.164427
985.124412	0.167051
985.297847	0.166138
985.471263	0.163878
985.644661	0.164465
985.818041	0.162698
985.991403	0.162549
986.164747	0.161911
986.338072	0.160575
986.511379	0.161134
986.684668	0.160936
986.857938	0.162470
987.031191	0.165371
987.204425	0.165304
987.377641	0.167017
987.550839	0.165595
987.724018	0.164178
987.897179	0.166058
988.070322	0.167608
988.243447	0.166710
988.416554	0.166934
988.589642	0.166733
988.762712	0.166582
988.935764	0.166967
989.108798	0.166630
989.281813	0.166685
989.454811	0.166104
989.627790	0.164657
989.800751	0.163597
989.973693	0.163630
990.146617	0.161378
990.319524	0.162819
990.492412	0.161111
990.665281	0.162764
990.838133	0.162783
991.010966	0.161736
991.183781	0.161140
991.356578	0.161582
991.529356	0.160599
991.702117	0.160804
991.874859	0.161045
992.047583	0.161642
992.220288	0.160569
992.392976	0.161470
992.565645	0.162662
992.738296	0.163784
992.910929	0.164045
993.083543	0.165184
993.256139	0.166640
993.428718	0.165206
993.601277	0.165824
993.773819	0.165862
993.946342	0.164576
994.118848	0.165133
994.291335	0.165251
994.463803	0.164764
994.636254	0.164387
994.808686	0.162936
994.981100	0.163905
995.153496	0.163084
995.325874	0.164982
995.498233	0.165091
995.670574	0.163515
995.842897	0.162872
996.015202	0.163573
996.187488	0.162276
996.359757	0.162258
996.532007	0.160913
996.704239	0.163240
996.876452	0.164804
997.048648	0.166103
997.220825	0.167286
997.392984	0.168984
997.565124	0.168569
997.737247	0.170470
997.909351	0.170721
998.081437	0.170969
998.253505	0.167652
998.425554	0.165421
998.597586	0.165588
998.769599	0.165148
998.941594	0.163795
999.113571	0.163127
999.285529	0.160715
999.457469	0.161370
999.629391	0.162205
999.801295	0.162783
999.973181	0.161108
1000.145048	0.159931
1000.316897	0.160581
1000.488728	0.160964
1000.660541	0.160970
1000.832335	0.163057
1001.004111	0.162798
1001.175869	0.164064
1001.347609	0.165238
1001.519331	0.165375
1001.691034	0.164838
1001.862719	0.163363
1002.034386	0.163456
1002.206035	0.163652
1002.377665	0.162768
1002.549277	0.164209
1002.720871	0.160819
1002.892447	0.159840
1003.064004	0.161045
1003.235544	0.163154
1003.407065	0.165023
1003.578568	0.166810
1003.750052	0.168537
1003.921519	0.168672
1004.092967	0.166547
1004.264397	0.169677
1004.435809	0.169946
1004.607202	0.170999
1004.778577	0.171655
1004.949934	0.169766
1005.121273	0.168129
1005.292594	0.164247
1005.463896	0.166166
1005.635180	0.164322
1005.806446	0.161672
1005.977694	0.162047
1006.148923	0.160974
1006.320135	0.160099
1006.491328	0.160812
1006.662503	0.161342
1006.833659	0.163503
1007.004798	0.162382
1007.175918	0.164708
1007.347020	0.167094
1007.518103	0.166630
1007.689169	0.166864
1007.860216	0.165925
1008.031245	0.166221
1008.202256	0.165811
1008.373248	0.165526
1008.544223	0.166248
1008.715179	0.165858
1008.886117	0.165783
1009.057036	0.167275
1009.227938	0.166761
1009.398821	0.168326
1009.569686	0.167041
1009.740533	0.166508
1009.911361	0.169196
1010.082172	0.165667
1010.252964	0.165234
1010.423738	0.164954
1010.594493	0.164121
1010.765231	0.164802
1010.935950	0.162852
1011.106651	0.163894
1011.277334	0.164158
1011.447998	0.161114
1011.618645	0.162686
1011.789273	0.164164
1011.959882	0.163271
1012.130474	0.162907
1012.301048	0.163117
1012.471603	0.163219
1012.642140	0.165518
1012.812658	0.167183
1012.983159	0.168741
1013.153641	0.169261
1013.324105	0.168036
1013.494551	0.168044
1013.664979	0.168853
1013.835388	0.168772
1014.005779	0.170543
1014.176152	0.170637
1014.346507	0.168231
1014.516843	0.167184
1014.687162	0.167239
1014.857462	0.165465
1015.027744	0.164990
1015.198007	0.166004
1015.368252	0.165740
1015.538480	0.166659
1015.708689	0.164815
1015.878879	0.166059
1016.049052	0.167063
1016.219206	0.167022
1016.389342	0.169622
1016.559460	0.171687
1016.729559	0.171159
1016.899641	0.171268
1017.069704	0.170769
1017.239749	0.169787
1017.409775	0.169618
1017.579784	0.168874
1017.749774	0.167489
1017.919746	0.167854
1018.089700	0.165298
1018.259635	0.165057
1018.429553	0.165625
1018.599452	0.164210
1018.769333	0.165203
1018.939195	0.164670
1019.109040	0.165230
1019.278866	0.168319
1019.448674	0.166962
1019.618464	0.168668
1019.788235	0.168467
1019.957989	0.166584
1020.127724	0.165848
1020.297441	0.166170
1020.467139	0.166064
1020.636820	0.165190
1020.806482	0.163571
1020.976126	0.163039
1021.145752	0.162265
1021.315359	0.160657
1021.484948	0.162176
1021.654519	0.164202
1021.824072	0.161922
1021.993607	0.161888
1022.163123	0.160960
1022.332621	0.161967
1022.502101	0.161974
1022.671563	0.163148
1022.841007	0.161653
1023.010432	0.160839
1023.179839	0.159275
1023.349228	0.159742
1023.518598	0.159946
1023.687951	0.161338
1023.857285	0.161018
1024.026601	0.162375
1024.195899	0.162910
1024.365178	0.163357
1024.534439	0.163854
1024.703682	0.163619
1024.872907	0.164245
1025.042114	0.164706
1025.211302	0.163360
1025.380472	0.162336
1025.549624	0.162357
1025.718758	0.159352
1025.887873	0.161316
1026.056970	0.160495
1026.226049	0.158967
1026.395110	0.158535
1026.564153	0.158598
1026.733177	0.160012
1026.902183	0.160242
1027.071171	0.160343
1027.240141	0.162024
1027.409092	0.161849
1027.578026	0.161856
1027.746940	0.163710
1027.915837	0.165034
1028.084716	0.162895
1028.253576	0.162026
1028.422418	0.161334
1028.591242	0.160854
1028.760048	0.160332
1028.928835	0.160684
1029.097604	0.160339
1029.266355	0.159276
1029.435088	0.157723
1029.603803	0.160172
1029.772499	0.159946
1029.941177	0.159434
1030.109837	0.159806
1030.278478	0.160913
1030.447102	0.160937
1030.615707	0.161659
1030.784294	0.162975
1030.952863	0.164476
1031.121413	0.162409
1031.289945	0.162371
1031.458460	0.163162
1031.626955	0.163834
1031.795433	0.162194
1031.963892	0.162043
1032.132334	0.162681
1032.300756	0.161403
1032.469161	0.161190
1032.637548	0.162898
1032.805916	0.162961
1032.974266	0.165090
1033.142598	0.163806
1033.310911	0.165595
1033.479207	0.165209
1033.647484	0.163882
1033.815743	0.163918
1033.983983	0.163798
1034.152206	0.162656
1034.320410	0.164344
1034.488596	0.162113
1034.656764	0.163029
1034.824914	0.159810
1034.993045	0.160945
1035.161158	0.160780
1035.329253	0.162291
1035.497330	0.161737
1035.665388	0.163213
1035.833428	0.163180
1036.001450	0.161914
1036.169454	0.160476
1036.337440	0.162501
1036.505407	0.162331
1036.673356	0.164203
1036.841287	0.162704
1037.009200	0.162986
1037.177094	0.161312
1037.344970	0.161144
1037.512828	0.163683
1037.680668	0.163655
1037.848489	0.162826
1038.016293	0.162699
1038.184078	0.162815
1038.351845	0.162635
1038.519593	0.157933
1038.687324	0.159234
1038.855036	0.159713
1039.022730	0.157723
1039.190406	0.158062
1039.358063	0.160133
1039.525702	0.159605
1039.693323	0.159052
1039.860926	0.161585
1040.028511	0.167228
1040.196077	0.167604
1040.363625	0.165833
1040.531155	0.166666
1040.698667	0.168354
1040.866161	0.166403
1041.033636	0.165251
1041.201093	0.165650
1041.368532	0.165370
1041.535952	0.164236
1041.703355	0.163085
1041.870739	0.162085
1042.038105	0.161763
1042.205452	0.160258
1042.372782	0.159788
1042.540093	0.159984
1042.707386	0.158497
1042.874661	0.155167
1043.041918	0.155070
1043.209156	0.155689
1043.376376	0.156650
1043.543578	0.155464
1043.710762	0.156432
1043.877927	0.158101
1044.045074	0.158259
1044.212203	0.158069
1044.379314	0.160587
1044.546407	0.161867
1044.713481	0.162888
1044.880537	0.161008
1045.047575	0.162352
1045.214595	0.160217
1045.381596	0.159586
1045.548579	0.160834
1045.715544	0.160155
1045.882491	0.159177
1046.049420	0.158227
1046.216330	0.157271
1046.383222	0.159359
1046.550096	0.159930
1046.716951	0.161639
1046.883789	0.159461
1047.050608	0.158582
1047.217409	0.159820
1047.384192	0.159715
1047.550956	0.159308
1047.717703	0.157451
1047.884431	0.158821
1048.051140	0.159810
1048.217832	0.160180
1048.384505	0.161701
1048.551161	0.161165
1048.717798	0.159396
1048.884416	0.159324
1049.051017	0.158371
1049.217599	0.159418
1049.384163	0.158312
1049.550709	0.156613
1049.717237	0.156355
1049.883746	0.156225
1050.050237	0.154913
1050.216710	0.155523
1050.383165	0.155643
1050.549601	0.156527
1050.716019	0.155560
1050.882420	0.156505
1051.048801	0.158311
1051.215165	0.157828
1051.381510	0.157430
1051.547837	0.159118
1051.714146	0.161163
1051.880437	0.161179
1052.046709	0.161475
1052.212964	0.163114
1052.379200	0.162650
1052.545417	0.160509
1052.711617	0.159709
1052.877798	0.160467
1053.043961	0.160033
1053.210106	0.158345
1053.376233	0.158486
1053.542341	0.160139
1053.708432	0.158789
1053.874504	0.158985
1054.040557	0.161404
1054.206593	0.161560
1054.372610	0.164474
1054.538609	0.165287
1054.704590	0.164641
1054.870553	0.165472
1055.036497	0.164827
1055.202424	0.165380
1055.368331	0.165011
1055.534221	0.162692
1055.700093	0.163119
1055.865946	0.159716
1056.031781	0.161432
1056.197598	0.162978
1056.363397	0.161550
1056.529177	0.159062
1056.694939	0.158107
1056.860683	0.157495
1057.026409	0.158915
1057.192116	0.157661
1057.357806	0.159072
1057.523477	0.157903
1057.689130	0.157280
1057.854764	0.156957
1058.020381	0.158066
1058.185979	0.160965
1058.351559	0.162575
1058.517120	0.160768
1058.682664	0.161714
1058.848189	0.160279
1059.013696	0.159076
1059.179185	0.159405
1059.344656	0.159422
1059.510108	0.161221
1059.675542	0.159323
1059.840958	0.157544
1060.006356	0.159253
1060.171735	0.160984
1060.337096	0.162379
1060.502439	0.164196
1060.667764	0.163947
1060.833071	0.165718
1060.998359	0.163082
1061.163629	0.161884
1061.328881	0.164543
1061.494115	0.163622
1061.659330	0.162984
1061.824527	0.161991
1061.989706	0.162333
1062.154867	0.162442
1062.320010	0.162163
1062.485134	0.162813
1062.650240	0.164739
1062.815328	0.163497
1062.980398	0.165800
1063.145449	0.166048
1063.310482	0.166153
1063.475497	0.163026
1063.640494	0.162800
1063.805473	0.163206
1063.970433	0.163506
1064.135375	0.160924
1064.300299	0.161502
1064.465204	0.159109
1064.630092	0.157141
1064.794961	0.157946
1064.959812	0.157751
1065.124645	0.158441
1065.289459	0.160680
1065.454256	0.161625
1065.619034	0.165260
1065.783793	0.163606
1065.948535	0.162927
1066.113258	0.164366
1066.277964	0.164886
1066.442651	0.165928
1066.607319	0.165484
1066.771970	0.163641
1066.936602	0.163505
1067.101216	0.161195
1067.265812	0.158421
1067.430389	0.160434
1067.594949	0.161905
1067.759490	0.162226
1067.924013	0.162595
1068.088518	0.164048
1068.253004	0.163338
1068.417472	0.161173
1068.581922	0.161393
1068.746354	0.164625
1068.910768	0.164885
1069.075163	0.163220
1069.239540	0.162510
1069.403899	0.163767
1069.568240	0.163483
1069.732562	0.164241
1069.896866	0.167292
1070.061152	0.168422
1070.225420	0.168143
1070.389670	0.166178
1070.553901	0.167422
1070.718114	0.169134
1070.882309	0.166788
1071.046486	0.166558
1071.210644	0.166075
1071.374784	0.164758
1071.538906	0.164197
1071.703010	0.164115
1071.867096	0.163618
1072.031163	0.164372
1072.195212	0.162823
1072.359243	0.164982
1072.523256	0.165076
1072.687250	0.164665
1072.851226	0.164671
1073.015184	0.163290
1073.179124	0.163260
1073.343045	0.162797
1073.506949	0.162884
1073.670834	0.163873
1073.834701	0.164097
1073.998549	0.163218
1074.162380	0.163919
1074.326192	0.165856
1074.489986	0.168266
1074.653761	0.168607
1074.817519	0.170396
1074.981258	0.169479
1075.144979	0.169765
1075.308682	0.169145
1075.472367	0.171078
1075.636033	0.172430
1075.799681	0.170543
1075.963311	0.173275
1076.126923	0.172248
1076.290516	0.172840
1076.454092	0.172528
1076.617649	0.172529
1076.781187	0.173421
1076.944708	0.170259
1077.108210	0.173215
1077.271695	0.174781
1077.435160	0.171845
1077.598608	0.174239
1077.762038	0.174566
1077.925449	0.174482
1078.088842	0.173708
1078.252217	0.171784
1078.415573	0.176365
1078.578912	0.171348
1078.742232	0.169202
1078.905534	0.171978
1079.068817	0.170866
1079.232083	0.168207
1079.395330	0.165611
1079.558559	0.167206
1079.721770	0.169138
1079.884962	0.165910
1080.048136	0.166652
1080.211293	0.169704
1080.374430	0.167662
1080.537550	0.165733
1080.700651	0.165984
1080.863735	0.169800
1081.026800	0.168415
1081.189846	0.166303
1081.352875	0.165104
1081.515885	0.166626
1081.678877	0.167251
1081.841851	0.168144
1082.004807	0.169614
1082.167744	0.170591
1082.330663	0.167538
1082.493564	0.166424
1082.656447	0.169053
1082.819312	0.170720
1082.982158	0.172027
1083.144986	0.170095
1083.307796	0.166817
1083.470587	0.165494
1083.633361	0.165080
1083.796116	0.168893
1083.958853	0.168182
1084.121571	0.169196
1084.284272	0.169348
1084.446954	0.166015
1084.609618	0.167107
1084.772264	0.168228
1084.934892	0.172427
1085.097501	0.173179
1085.260092	0.171404
1085.422665	0.173932
1085.585220	0.171949
1085.747756	0.172850
1085.910274	0.172430
1086.072774	0.172236
1086.235256	0.172249
1086.397720	0.172010
1086.560165	0.170605
1086.722592	0.170728
1086.885001	0.168321
1087.047392	0.171816
1087.209764	0.171525
1087.372119	0.172597
1087.534455	0.170689
1087.696772	0.170214
1087.859072	0.171779
1088.021353	0.176682
1088.183616	0.177568
1088.345861	0.178900
1088.508088	0.173880
1088.670296	0.176619
1088.832486	0.177767
1088.994658	0.178573
1089.156812	0.180725
1089.318948	0.179647
1089.481065	0.178281
1089.643164	0.178974
1089.805245	0.177467
1089.967308	0.179610
1090.129352	0.178832
1090.291378	0.180410
1090.453386	0.177452
1090.615376	0.175640
1090.777347	0.173582
1090.939301	0.172592
1091.101236	0.170642
1091.263153	0.173081
1091.425051	0.170452
1091.586932	0.167196
1091.748794	0.163621
1091.910638	0.169167
1092.072463	0.168453
1092.234271	0.167405
1092.396060	0.168271
1092.557831	0.169568
1092.719584	0.167255
1092.881319	0.169223
1093.043035	0.171286
1093.204733	0.174230
1093.366413	0.176021
1093.528075	0.177913
1093.689718	0.178308
1093.851343	0.178588
1094.012950	0.173951
1094.174539	0.175626
1094.336110	0.179226
1094.497662	0.180116
1094.659196	0.179263
1094.820712	0.173009
1094.982210	0.175705
1095.143689	0.171711
1095.305151	0.166008
1095.466594	0.169489
1095.628018	0.169942
1095.789425	0.168874
1095.950813	0.165460
1096.112183	0.163669
1096.273535	0.168245
1096.434869	0.166559
1096.596184	0.175115
1096.757482	0.182722
1096.918761	0.183401
1097.080021	0.181607
1097.241264	0.179443
1097.402488	0.181224
1097.563694	0.181283
1097.724882	0.177713
1097.886052	0.174949
1098.047203	0.169497
1098.208336	0.167494
1098.369451	0.169604
1098.530548	0.174243
1098.691627	0.173695
1098.852687	0.171331
1099.013729	0.172411
1099.174753	0.173022
1099.335758	0.176307
1099.496746	0.177077
1099.657715	0.177179
1099.818666	0.171976
1099.979599	0.167052
1100.140513	0.166105
1100.301409	0.166265
1100.462287	0.163458
1100.623147	0.160907
1100.783989	0.159404
1100.944812	0.159021
1101.105617	0.154396
1101.266404	0.153867
1101.427173	0.157830
1101.587923	0.161302
1101.748656	0.163797
1101.909370	0.163056
1102.070066	0.160998
1102.230743	0.156725
1102.391403	0.158568
1102.552044	0.162559
1102.712667	0.167664
1102.873271	0.166028
1103.033858	0.163974
1103.194426	0.162549
1103.354976	0.165569
1103.515508	0.170545
1103.676021	0.173614
1103.836517	0.170168
1103.996994	0.165176
1104.157453	0.162196
1104.317893	0.160524
1104.478316	0.155585
1104.638720	0.155263
1104.799106	0.156167
1104.959474	0.158782
1105.119823	0.162365
1105.280155	0.162034
1105.440468	0.169069
1105.600763	0.166645
1105.761039	0.169148
1105.921298	0.175190
1106.081538	0.177956
1106.241760	0.176206
1106.401964	0.172903
1106.562149	0.169614
1106.722316	0.173837
1106.882465	0.176977
1107.042596	0.181261
1107.202709	0.178178
1107.362803	0.173560
1107.522879	0.171106
1107.682937	0.167799
1107.842977	0.168601
1108.002999	0.169670
1108.163002	0.168072
1108.322987	0.160256
1108.482954	0.162000
1108.642902	0.167957
1108.802833	0.173195
1108.962745	0.175339
1109.122639	0.177837
1109.282515	0.174088
1109.442372	0.171652
1109.602211	0.169965
1109.762032	0.173717
1109.921835	0.168776
1110.081620	0.162728
1110.241386	0.159761
1110.401134	0.161027
1110.560864	0.164572
1110.720576	0.168772
1110.880269	0.166741
1111.039945	0.165060
1111.199602	0.163456
1111.359240	0.163828
1111.518861	0.170264
1111.678463	0.173823
1111.838047	0.167996
1111.997613	0.164227
1112.157161	0.166416
1112.316690	0.175508
1112.476202	0.175200
1112.635695	0.175277
1112.795169	0.175472
1112.954626	0.172134
1113.114064	0.172986
1113.273484	0.172910
1113.432886	0.169094
1113.592270	0.164676
1113.751635	0.159460
1113.910983	0.164595
1114.070312	0.164316
1114.229622	0.164112
1114.388915	0.161292
1114.548189	0.162035
1114.707445	0.167687
1114.866683	0.175502
1115.025903	0.173772
1115.185104	0.173890
1115.344287	0.173555
1115.503452	0.171484
1115.662599	0.172928
1115.821727	0.172238
1115.980838	0.166761
1116.139930	0.164818
1116.299004	0.160474
1116.458059	0.167253
1116.617097	0.167904
1116.776116	0.170982
1116.935117	0.172927
1117.094099	0.173738
1117.253064	0.174333
1117.412010	0.176963
1117.570938	0.180402
1117.729848	0.184454
1117.888740	0.183302
1118.047613	0.179714
1118.206468	0.173746
1118.365305	0.177319
1118.524124	0.178546
1118.682924	0.179262
1118.841707	0.179252
1119.000471	0.173527
1119.159216	0.174905
1119.317944	0.172248
1119.476653	0.181323
1119.635344	0.180816
1119.794017	0.175443
1119.952672	0.176138
1120.111308	0.181640
1120.269927	0.176889
1120.428527	0.178559
1120.587108	0.175594
1120.745672	0.177778
1120.904217	0.173798
1121.062744	0.176230
1121.221253	0.179970
1121.379744	0.178842
1121.538216	0.173662
1121.696671	0.176093
1121.855107	0.171719
1122.013524	0.172149
1122.171924	0.169644
1122.330305	0.167798
1122.488668	0.169165
1122.647013	0.165141
1122.805340	0.164527
1122.963648	0.161403
1123.121938	0.158405
1123.280210	0.161458
1123.438464	0.164855
1123.596700	0.162815
1123.754917	0.158890
1123.913116	0.153830
1124.071297	0.156575
1124.229459	0.154856
1124.387604	0.155967
1124.545730	0.159434
1124.703838	0.160421
1124.861928	0.158769
1125.019999	0.157835
1125.178052	0.163529
1125.336088	0.166539
1125.494104	0.168400
1125.652103	0.167711
1125.810083	0.165284
1125.968045	0.166209
1126.125989	0.168378
1126.283915	0.165790
1126.441823	0.172178
1126.599712	0.175994
1126.757583	0.174556
1126.915436	0.177492
1127.073270	0.177763
1127.231087	0.182384
1127.388885	0.182526
1127.546665	0.179544
1127.704426	0.179649
1127.862170	0.175314
1128.019895	0.169213
1128.177602	0.173369
1128.335291	0.170197
1128.492961	0.170583
1128.650614	0.169700
1128.808248	0.172935
1128.965864	0.181724
1129.123461	0.188179
1129.281041	0.188493
1129.438602	0.187018
1129.596145	0.188519
1129.753670	0.185726
1129.911176	0.186618
1130.068665	0.183655
1130.226135	0.180212
1130.383587	0.170482
1130.541020	0.164732
1130.698436	0.162134
1130.855833	0.166437
1131.013212	0.164555
1131.170573	0.164612
1131.327915	0.163932
1131.485239	0.166229
1131.642545	0.166832
1131.799833	0.165667
1131.957103	0.165026
1132.114354	0.161217
1132.271588	0.155842
1132.428803	0.154768
1132.585999	0.154435
1132.743178	0.161309
1132.900338	0.157668
1133.057480	0.158879
1133.214604	0.154320
1133.371710	0.154649
1133.528797	0.156777
1133.685866	0.155715
1133.842917	0.155332
1133.999950	0.153110
1134.156964	0.139519
1134.313960	0.139856
1134.470938	0.135834
1134.627898	0.138988
1134.784840	0.141230
1134.941763	0.142328
1135.098668	0.143948
1135.255555	0.142519
1135.412424	0.140654
1135.569274	0.143123
1135.726107	0.150765
1135.882921	0.150700
1136.039716	0.157033
1136.196494	0.149494
1136.353253	0.152314
1136.509995	0.153107
1136.666717	0.152252
1136.823422	0.155786
1136.980109	0.157770
1137.136777	0.152193
1137.293427	0.154722
1137.450059	0.147332
1137.606672	0.157546
1137.763267	0.153938
1137.919844	0.153555
1138.076403	0.154697
1138.232944	0.159257
1138.389466	0.158706
1138.545971	0.161321
1138.702457	0.153669
1138.858924	0.155504
1139.015374	0.151132
1139.171805	0.153587
1139.328218	0.155695
1139.484613	0.153196
1139.640990	0.143534
1139.797348	0.154818
1139.953688	0.155995
1140.110010	0.159442
1140.266314	0.160881
1140.422600	0.152202
1140.578867	0.155339
1140.735116	0.156636
1140.891347	0.157577
1141.047559	0.160630
1141.203754	0.149276
1141.359930	0.145218
1141.516088	0.151362
1141.672228	0.151129
1141.828349	0.154354
1141.984452	0.149293
1142.140537	0.146069
1142.296604	0.149579
1142.452653	0.149201
1142.608683	0.150317
1142.764695	0.156832
1142.920689	0.154429
1143.076665	0.156121
1143.232622	0.162950
1143.388562	0.169704
1143.544483	0.166413
1143.700385	0.163165
1143.856270	0.166033
1144.012136	0.163767
1144.167985	0.155580
1144.323814	0.154757
1144.479626	0.154450
1144.635420	0.146909
1144.791195	0.147150
1144.946952	0.146710
1145.102691	0.147075
1145.258411	0.140865
1145.414113	0.148775
1145.569798	0.151573
1145.725463	0.153068
1145.881111	0.159561
1146.036741	0.171994
1146.192352	0.162456
1146.347945	0.169110
1146.503519	0.161654
1146.659076	0.167200
1146.814614	0.157024
1146.970134	0.155237
1147.125636	0.144335
1147.281120	0.133013
1147.436585	0.121843
1147.592032	0.127275
1147.747461	0.126879
1147.902872	0.132629
1148.058265	0.132491
1148.213639	0.141423
1148.368995	0.141045
1148.524333	0.153806
1148.679653	0.164051
1148.834954	0.164133
1148.990237	0.158960
1149.145502	0.152520
1149.300749	0.146259
1149.455977	0.143398
1149.611188	0.132826
1149.766380	0.137190
1149.921553	0.124910
1150.076709	0.123116
1150.231846	0.126357
1150.386966	0.126060
1150.542066	0.133865
1150.697149	0.130301
1150.852214	0.133495
1151.007260	0.127900
1151.162288	0.126956
1151.317298	0.125426
1151.472289	0.127502
1151.627263	0.129942
1151.782218	0.132536
1151.937155	0.129090
1152.092073	0.141965
1152.246974	0.138677
1152.401856	0.146627
1152.556720	0.140815
1152.711566	0.149233
1152.866393	0.140724
1153.021203	0.133448
1153.175994	0.133235
1153.330767	0.130266
1153.485521	0.126457
1153.640258	0.127442
1153.794976	0.127975
1153.949676	0.125915
1154.104358	0.122072
1154.259021	0.123133
1154.413667	0.124461
1154.568294	0.117210
1154.722903	0.118142
1154.877493	0.117487
1155.032066	0.123768
1155.186620	0.121760
1155.341156	0.122963
1155.495674	0.130185
1155.650173	0.127039
1155.804654	0.132452
1155.959118	0.139386
1156.113562	0.141619
1156.267989	0.133500
1156.422397	0.121651
1156.576788	0.126463
1156.731160	0.138149
1156.885513	0.138241
1157.039849	0.144572
1157.194166	0.138351
1157.348465	0.144118
1157.502746	0.136918
1157.657009	0.136306
1157.811253	0.145365
1157.965479	0.142627
1158.119687	0.128299
1158.273877	0.131577
1158.428048	0.122631
1158.582201	0.120486
1158.736337	0.110440
1158.890453	0.108083
1159.044552	0.115809
1159.198632	0.106417
1159.352694	0.102281
1159.506738	0.099605
1159.660764	0.082941
1159.814771	0.081855
1159.968761	0.079577
1160.122732	0.075493
1160.276685	0.068696
1160.430619	0.069037
1160.584535	0.071325
1160.738434	0.079472
1160.892313	0.091261
1161.046175	0.097681
1161.200019	0.101135
1161.353844	0.102067
1161.507651	0.109028
1161.661440	0.118737
1161.815210	0.128613
1161.968962	0.131737
1162.122697	0.121201
1162.276412	0.116014
1162.430110	0.115218
1162.583789	0.118752
1162.737451	0.116227
1162.891094	0.111941
1163.044718	0.114258
1163.198325	0.110536
1163.351913	0.110896
1163.505483	0.114664
1163.659035	0.120743
1163.812569	0.127194
1163.966084	0.123242
1164.119581	0.128650
1164.273060	0.135205
1164.426521	0.130806
1164.579964	0.125363
1164.733388	0.116455
1164.886794	0.125093
1165.040182	0.123901
1165.193551	0.116975
1165.346903	0.127583
1165.500236	0.129424
1165.653551	0.142681
1165.806848	0.148105
1165.960126	0.156051
1166.113386	0.160607
1166.266628	0.152492
1166.419852	0.136870
1166.573058	0.142202
1166.726245	0.129245
1166.879414	0.120597
1167.032565	0.102827
1167.185698	0.107564
1167.338812	0.101661
1167.491909	0.109159
1167.644987	0.116489
1167.798046	0.116455
1167.951088	0.112518
1168.104111	0.117709
1168.257117	0.131266
1168.410103	0.129057
1168.563072	0.111454
1168.716023	0.104555
1168.868955	0.106151
1169.021869	0.094727
1169.174765	0.106010
1169.327642	0.102711
1169.480501	0.109046
1169.633343	0.096273
1169.786165	0.103257
1169.938970	0.114232
1170.091757	0.127712
1170.244525	0.113630
1170.397275	0.116852
1170.550007	0.107425
1170.702720	0.118114
1170.855415	0.118141
1171.008092	0.123328
1171.160751	0.119433
1171.313392	0.118224
1171.466014	0.216008
1171.618619	0.101202
1171.771205	0.101202
1171.923772	0.101202
