sample name	sample
index	256
start time	 02-25-2021  10:45:35 AM


Wavelength (nm)	Absorbance
494.344910	0.053782
494.563924	0.053782
494.782919	0.053782
495.001897	0.012529
495.220856	0.009214
495.439797	0.007602
495.658719	0.012506
495.877624	-0.006057
496.096510	-0.021718
496.315378	-0.007828
496.534227	-0.011413
496.753059	-0.024559
496.971872	-0.029471
497.190667	0.047211
497.409444	0.063957
497.628203	0.069872
497.846943	0.072059
498.065665	0.073482
498.284369	0.075351
498.503055	0.076596
498.721723	0.076311
498.940372	0.077433
499.159003	0.078308
499.377616	0.077895
499.596210	0.077714
499.814787	0.077779
500.033345	0.077349
500.251885	0.076172
500.470406	0.074802
500.688910	0.074766
500.907395	0.074336
501.125862	0.073660
501.344311	0.073360
501.562742	0.073136
501.781154	0.072610
501.999548	0.073381
502.217924	0.073740
502.436282	0.074035
502.654621	0.074977
502.872942	0.074323
503.091245	0.074618
503.309530	0.075367
503.527797	0.075109
503.746045	0.075842
503.964275	0.075680
504.182487	0.074652
504.400681	0.074698
504.618856	0.074017
504.837013	0.074741
505.055152	0.075402
505.273273	0.075491
505.491376	0.075742
505.709460	0.075699
505.927526	0.075838
506.145574	0.076907
506.363604	0.076354
506.581615	0.076655
506.799608	0.076123
507.017583	0.075365
507.235540	0.076314
507.453478	0.076339
507.671399	0.076688
507.889301	0.077001
508.107185	0.077256
508.325050	0.078382
508.542898	0.078621
508.760727	0.078972
508.978538	0.078879
509.196330	0.077975
509.414105	0.078447
509.631861	0.078007
509.849599	0.077691
510.067319	0.078215
510.285021	0.078259
510.502704	0.078318
510.720369	0.078808
510.938016	0.079706
511.155645	0.080199
511.373255	0.079864
511.590848	0.080251
511.808422	0.080471
512.025977	0.079293
512.243515	0.079961
512.461034	0.079942
512.678536	0.079775
512.896018	0.080072
513.113483	0.080154
513.330930	0.079926
513.548358	0.080829
513.765768	0.080424
513.983160	0.080656
514.200533	0.079777
514.417889	0.080167
514.635226	0.079643
514.852545	0.079525
515.069845	0.079199
515.287128	0.079852
515.504392	0.078809
515.721638	0.079331
515.938866	0.079737
516.156075	0.079946
516.373267	0.079329
516.590440	0.079720
516.807594	0.080052
517.024731	0.080311
517.241850	0.079817
517.458950	0.079865
517.676032	0.079995
517.893095	0.080295
518.110141	0.081218
518.327168	0.081712
518.544177	0.081952
518.761168	0.081254
518.978141	0.081233
519.195095	0.081626
519.412031	0.081916
519.628949	0.081656
519.845849	0.081833
520.062731	0.081478
520.279594	0.081658
520.496439	0.081400
520.713266	0.082102
520.930074	0.082572
521.146865	0.083116
521.363637	0.083619
521.580391	0.084369
521.797127	0.083947
522.013844	0.083592
522.230543	0.083686
522.447224	0.084369
522.663887	0.084181
522.880532	0.083814
523.097158	0.083655
523.313766	0.083663
523.530356	0.083423
523.746928	0.084035
523.963481	0.084543
524.180017	0.084750
524.396534	0.084860
524.613032	0.085210
524.829513	0.085143
525.045975	0.085601
525.262420	0.085181
525.478845	0.086302
525.695253	0.086366
525.911643	0.086447
526.128014	0.086493
526.344367	0.086516
526.560702	0.086301
526.777018	0.086923
526.993316	0.086321
527.209597	0.086994
527.425858	0.086665
527.642102	0.086508
527.858328	0.086705
528.074535	0.087086
528.290724	0.087318
528.506894	0.087971
528.723047	0.088036
528.939181	0.088455
529.155297	0.088202
529.371395	0.088091
529.587475	0.088832
529.803536	0.089335
530.019579	0.089371
530.235604	0.089184
530.451611	0.088600
530.667600	0.088424
530.883570	0.088888
531.099522	0.089584
531.315456	0.090389
531.531372	0.090317
531.747269	0.090148
531.963148	0.090157
532.179009	0.091205
532.394852	0.091606
532.610676	0.092176
532.826482	0.092066
533.042271	0.092177
533.258040	0.091525
533.473792	0.091413
533.689525	0.091417
533.905240	0.091322
534.120937	0.091290
534.336616	0.091400
534.552277	0.091834
534.767919	0.091775
534.983543	0.091777
535.199149	0.092366
535.414736	0.092524
535.630306	0.092612
535.845857	0.093083
536.061390	0.092682
536.276904	0.093113
536.492401	0.092885
536.707879	0.093236
536.923339	0.093398
537.138781	0.093732
537.354204	0.094094
537.569610	0.094579
537.784997	0.094453
538.000366	0.095022
538.215716	0.095402
538.431049	0.095557
538.646363	0.095870
538.861659	0.096057
539.076937	0.095911
539.292196	0.095900
539.507438	0.095769
539.722661	0.096282
539.937866	0.096127
540.153052	0.095701
540.368221	0.095953
540.583371	0.096210
540.798503	0.096326
541.013617	0.096269
541.228712	0.096071
541.443789	0.096107
541.658848	0.095833
541.873889	0.095935
542.088912	0.095983
542.303916	0.096072
542.518902	0.096028
542.733870	0.095647
542.948820	0.095345
543.163752	0.096091
543.378665	0.096415
543.593560	0.096999
543.808437	0.097002
544.023295	0.097313
544.238136	0.097685
544.452958	0.098034
544.667762	0.098906
544.882548	0.099383
545.097315	0.099391
545.312064	0.099702
545.526795	0.099708
545.741508	0.099805
545.956203	0.100311
546.170879	0.100301
546.385537	0.100122
546.600177	0.100125
546.814799	0.100376
547.029402	0.100221
547.243988	0.100492
547.458555	0.100562
547.673103	0.100862
547.887634	0.100530
548.102146	0.100393
548.316640	0.100567
548.531116	0.100711
548.745574	0.101358
548.960013	0.101678
549.174435	0.101496
549.388838	0.101465
549.603222	0.101565
549.817589	0.101905
550.031937	0.101951
550.246267	0.101847
550.460579	0.102115
550.674873	0.101654
550.889148	0.101625
551.103405	0.101626
551.317644	0.102033
551.531865	0.102320
551.746068	0.102516
551.960252	0.102634
552.174418	0.102720
552.388566	0.102382
552.602696	0.102671
552.816807	0.102773
553.030900	0.102791
553.244975	0.102527
553.459032	0.102529
553.673070	0.102746
553.887091	0.103033
554.101093	0.103522
554.315077	0.103616
554.529042	0.103306
554.742990	0.103540
554.956919	0.103690
555.170830	0.104355
555.384722	0.104661
555.598597	0.104373
555.812453	0.104570
556.026291	0.104305
556.240111	0.104491
556.453913	0.104559
556.667696	0.104497
556.881461	0.104961
557.095208	0.104715
557.308937	0.104561
557.522647	0.104821
557.736339	0.104491
557.950013	0.104691
558.163669	0.104912
558.377307	0.105293
558.590926	0.105471
558.804527	0.105634
559.018110	0.106075
559.231675	0.106309
559.445221	0.106444
559.658749	0.106628
559.872259	0.106336
560.085751	0.106725
560.299225	0.106653
560.512680	0.106704
560.726117	0.106542
560.939536	0.106355
561.152937	0.106265
561.366319	0.106376
561.579683	0.106594
561.793029	0.107121
562.006357	0.106602
562.219667	0.106983
562.432958	0.107079
562.646231	0.107159
562.859486	0.107424
563.072723	0.107653
563.285941	0.107736
563.499141	0.107412
563.712323	0.107421
563.925487	0.107570
564.138632	0.107103
564.351760	0.107179
564.564869	0.107431
564.777960	0.107314
564.991032	0.107168
565.204087	0.106850
565.417123	0.107685
565.630141	0.107807
565.843140	0.108255
566.056122	0.108601
566.269085	0.108861
566.482030	0.109008
566.694957	0.109136
566.907866	0.109576
567.120756	0.110289
567.333628	0.110078
567.546482	0.110213
567.759318	0.110394
567.972135	0.110933
568.184935	0.111028
568.397716	0.110945
568.610478	0.111075
568.823223	0.110677
569.035949	0.110416
569.248657	0.110505
569.461347	0.110972
569.674019	0.110744
569.886672	0.110661
570.099308	0.110614
570.311925	0.110576
570.524523	0.110308
570.737104	0.110594
570.949666	0.110600
571.162210	0.110626
571.374736	0.110351
571.587244	0.110432
571.799733	0.110090
572.012205	0.110365
572.224658	0.110685
572.437092	0.110967
572.649509	0.110969
572.861907	0.111149
573.074287	0.111094
573.286649	0.110812
573.498993	0.110884
573.711318	0.111147
573.923625	0.110942
574.135914	0.110609
574.348185	0.110524
574.560438	0.110641
574.772672	0.110648
574.984888	0.111067
575.197086	0.111241
575.409266	0.111212
575.621427	0.111645
575.833570	0.111747
576.045695	0.111970
576.257802	0.111875
576.469890	0.112032
576.681961	0.111994
576.894013	0.111981
577.106046	0.112099
577.318062	0.112296
577.530059	0.111933
577.742039	0.111929
577.954000	0.112009
578.165942	0.112443
578.377867	0.112522
578.589773	0.112755
578.801661	0.112633
579.013531	0.112775
579.225382	0.112892
579.437216	0.113225
579.649031	0.113416
579.860828	0.113560
580.072606	0.113957
580.284367	0.114135
580.496109	0.114513
580.707833	0.114811
580.919539	0.115291
581.131227	0.115203
581.342896	0.115334
581.554547	0.115404
581.766180	0.115525
581.977795	0.115398
582.189391	0.115240
582.400969	0.115250
582.612529	0.115153
582.824071	0.114995
583.035595	0.115052
583.247100	0.115202
583.458587	0.115323
583.670056	0.114982
583.881506	0.114982
584.092939	0.115430
584.304353	0.115656
584.515749	0.115761
584.727127	0.115834
584.938486	0.116338
585.149828	0.116087
585.361151	0.116118
585.572456	0.116461
585.783742	0.116673
585.995011	0.116650
586.206261	0.116319
586.417493	0.116400
586.628706	0.116750
586.839902	0.116535
587.051079	0.116819
587.262238	0.116919
587.473379	0.117306
587.684502	0.117090
587.895606	0.117135
588.106692	0.117347
588.317760	0.117458
588.528810	0.117074
588.739841	0.117153
588.950855	0.117040
589.161850	0.116960
589.372827	0.116656
589.583785	0.116920
589.794726	0.116634
590.005648	0.116417
590.216552	0.116494
590.427437	0.116621
590.638305	0.116819
590.849154	0.117096
591.059985	0.117367
591.270798	0.117464
591.481592	0.117231
591.692369	0.117263
591.903127	0.117516
592.113867	0.117500
592.324588	0.117777
592.535292	0.117879
592.745977	0.117644
592.956644	0.117710
593.167293	0.117966
593.377923	0.118196
593.588536	0.118312
593.799130	0.118461
594.009706	0.118593
594.220263	0.118453
594.430803	0.118245
594.641324	0.118450
594.851827	0.118580
595.062312	0.118595
595.272778	0.118743
595.483227	0.119057
595.693657	0.119101
595.904069	0.119265
596.114462	0.119531
596.324838	0.119638
596.535195	0.119679
596.745534	0.119642
596.955855	0.119657
597.166157	0.119412
597.376441	0.119428
597.586707	0.119243
597.796955	0.119328
598.007185	0.119162
598.217396	0.119292
598.427589	0.119329
598.637764	0.119343
598.847921	0.119191
599.058060	0.119676
599.268180	0.119943
599.478282	0.120003
599.688366	0.120008
599.898431	0.120241
600.108479	0.120371
600.318508	0.120403
600.528519	0.120574
600.738511	0.120600
600.948486	0.120478
601.158442	0.120307
601.368380	0.120527
601.578300	0.120412
601.788202	0.120482
601.998085	0.120251
602.207950	0.120009
602.417797	0.120024
602.627626	0.120142
602.837436	0.120291
603.047228	0.120269
603.257002	0.120183
603.466758	0.120225
603.676496	0.120263
603.886215	0.120640
604.095916	0.120974
604.305599	0.120955
604.515264	0.121305
604.724910	0.121418
604.934538	0.121405
605.144148	0.121657
605.353740	0.121907
605.563314	0.121658
605.772869	0.121575
605.982406	0.121771
606.191925	0.121898
606.401425	0.121805
606.610908	0.121548
606.820372	0.121802
607.029818	0.121828
607.239246	0.121724
607.448655	0.122073
607.658047	0.122239
607.867420	0.122194
608.076775	0.121957
608.286111	0.122048
608.495430	0.122236
608.704730	0.122084
608.914012	0.122312
609.123275	0.122228
609.332521	0.122259
609.541748	0.122264
609.750957	0.122381
609.960148	0.122802
610.169321	0.122512
610.378475	0.122832
610.587611	0.123136
610.796729	0.122898
611.005829	0.123053
611.214910	0.123062
611.423974	0.123071
611.633019	0.123119
611.842045	0.123138
612.051054	0.123412
612.260044	0.123291
612.469017	0.123447
612.677970	0.123330
612.886906	0.123544
613.095824	0.123759
613.304723	0.124034
613.513604	0.123979
613.722467	0.124097
613.931311	0.124261
614.140138	0.124198
614.348946	0.123912
614.557736	0.124139
614.766507	0.124199
614.975261	0.123984
615.183996	0.123860
615.392713	0.124078
615.601412	0.123763
615.810092	0.123952
616.018754	0.124092
616.227399	0.124346
616.436024	0.124292
616.644632	0.124422
616.853222	0.124694
617.061793	0.124592
617.270346	0.124467
617.478880	0.124660
617.687397	0.124460
617.895895	0.124600
618.104375	0.124626
618.312837	0.124908
618.521281	0.124745
618.729706	0.124700
618.938113	0.125004
619.146502	0.125191
619.354873	0.125415
619.563226	0.125642
619.771560	0.125501
619.979876	0.125573
620.188174	0.125706
620.396453	0.126073
620.604715	0.126192
620.812958	0.126105
621.021183	0.126105
621.229390	0.126136
621.437578	0.125951
621.645748	0.126028
621.853900	0.126054
622.062034	0.126175
622.270150	0.126041
622.478247	0.126164
622.686326	0.125905
622.894387	0.126036
623.102430	0.126077
623.310454	0.126514
623.518461	0.126890
623.726449	0.127173
623.934418	0.127355
624.142370	0.127503
624.350303	0.127381
624.558218	0.128021
624.766115	0.128021
624.973994	0.128265
625.181855	0.128167
625.389697	0.128219
625.597521	0.128212
625.805327	0.128419
626.013114	0.128467
626.220883	0.128886
626.428634	0.128778
626.636367	0.128998
626.844082	0.129032
627.051778	0.129260
627.259457	0.129284
627.467117	0.129391
627.674758	0.128990
627.882382	0.129269
628.089987	0.129032
628.297574	0.129169
628.505143	0.129268
628.712694	0.129405
628.920226	0.129493
629.127740	0.129361
629.335236	0.129320
629.542714	0.129408
629.750174	0.129292
629.957615	0.129328
630.165038	0.129443
630.372443	0.129346
630.579829	0.129299
630.787198	0.128872
630.994548	0.129118
631.201880	0.129289
631.409194	0.129539
631.616489	0.129555
631.823766	0.129823
632.031025	0.129817
632.238266	0.130111
632.445489	0.130178
632.652693	0.130599
632.859879	0.130512
633.067047	0.130521
633.274197	0.130415
633.481329	0.130364
633.688442	0.130409
633.895537	0.130375
634.102614	0.130366
634.309672	0.130356
634.516713	0.130534
634.723735	0.130506
634.930739	0.130406
635.137724	0.130393
635.344692	0.130481
635.551641	0.130543
635.758572	0.130666
635.965485	0.130486
636.172379	0.130565
636.379256	0.130511
636.586114	0.130728
636.792954	0.130999
636.999775	0.130996
637.206579	0.131020
637.413364	0.130901
637.620131	0.130973
637.826880	0.131151
638.033610	0.131185
638.240323	0.131168
638.447017	0.131302
638.653692	0.131467
638.860350	0.131835
639.066990	0.131956
639.273611	0.132088
639.480214	0.132224
639.686798	0.132160
639.893365	0.132287
640.099913	0.132427
640.306443	0.132131
640.512955	0.131975
640.719449	0.131888
640.925924	0.131998
641.132381	0.132174
641.338820	0.132463
641.545241	0.132903
641.751644	0.133179
641.958028	0.133396
642.164394	0.133986
642.370742	0.134166
642.577071	0.134629
642.783383	0.134910
642.989676	0.134937
643.195951	0.134684
643.402207	0.134721
643.608446	0.134642
643.814666	0.134571
644.020868	0.134585
644.227052	0.134725
644.433218	0.134471
644.639365	0.134455
644.845494	0.134711
645.051605	0.134807
645.257698	0.134964
645.463772	0.135035
645.669828	0.135257
645.875866	0.135304
646.081886	0.135229
646.287888	0.135529
646.493871	0.135497
646.699836	0.135293
646.905783	0.135434
647.111712	0.135101
647.317622	0.135270
647.523514	0.135149
647.729388	0.135085
647.935244	0.135319
648.141082	0.135487
648.346901	0.135677
648.552702	0.136015
648.758485	0.136005
648.964250	0.136397
649.169996	0.136365
649.375724	0.136718
649.581434	0.136818
649.787126	0.137003
649.992800	0.136874
650.198455	0.137015
650.404092	0.137020
650.609711	0.137361
650.815311	0.137366
651.020894	0.137471
651.226458	0.137669
651.432004	0.137916
651.637532	0.137933
651.843041	0.138171
652.048532	0.138142
652.254006	0.138249
652.459460	0.138207
652.664897	0.138419
652.870315	0.138409
653.075716	0.138377
653.281097	0.138343
653.486461	0.138379
653.691807	0.138505
653.897134	0.138646
654.102443	0.138679
654.307734	0.138844
654.513006	0.138829
654.718261	0.138900
654.923497	0.138962
655.128715	0.139160
655.333915	0.139272
655.539096	0.139133
655.744259	0.139136
655.949404	0.139258
656.154531	0.139221
656.359640	0.139181
656.564730	0.139466
656.769802	0.139395
656.974856	0.139468
657.179892	0.139537
657.384909	0.139593
657.589908	0.139813
657.794889	0.139865
657.999852	0.139967
658.204797	0.140320
658.409723	0.140410
658.614631	0.140610
658.819521	0.140696
659.024393	0.140739
659.229246	0.140790
659.434081	0.140879
659.638898	0.140904
659.843697	0.141088
660.048478	0.141099
660.253240	0.141364
660.457984	0.141375
660.662710	0.141503
660.867417	0.141670
661.072107	0.141927
661.276778	0.142097
661.481431	0.142077
661.686066	0.142155
661.890682	0.142313
662.095281	0.142336
662.299861	0.142516
662.504422	0.142551
662.708966	0.142457
662.913491	0.142381
663.117999	0.142379
663.322488	0.142605
663.526958	0.142820
663.731411	0.142749
663.935845	0.142644
664.140261	0.142704
664.344659	0.142634
664.549038	0.142918
664.753400	0.143260
664.957743	0.143315
665.162068	0.143465
665.366375	0.143452
665.570663	0.143446
665.774933	0.143542
665.979185	0.143520
666.183419	0.143599
666.387635	0.143659
666.591832	0.143677
666.796011	0.143859
667.000172	0.143890
667.204315	0.143972
667.408439	0.144208
667.612545	0.144396
667.816634	0.144434
668.020703	0.144561
668.224755	0.144595
668.428788	0.144575
668.632803	0.144451
668.836800	0.144548
669.040779	0.144711
669.244739	0.144686
669.448681	0.144921
669.652605	0.145210
669.856511	0.145441
670.060399	0.145422
670.264268	0.145779
670.468119	0.146065
670.671952	0.146281
670.875767	0.146291
671.079563	0.146606
671.283341	0.146412
671.487101	0.146399
671.690843	0.146596
671.894567	0.146794
672.098272	0.146682
672.301959	0.146799
672.505628	0.146840
672.709278	0.146894
672.912911	0.146933
673.116525	0.147101
673.320121	0.147305
673.523699	0.147579
673.727258	0.147957
673.930799	0.148140
674.134322	0.148157
674.337827	0.148406
674.541314	0.148801
674.744782	0.149117
674.948232	0.149352
675.151664	0.149699
675.355078	0.149615
675.558474	0.149599
675.761851	0.149873
675.965210	0.150091
676.168551	0.150127
676.371873	0.149838
676.575178	0.149685
676.778464	0.149763
676.981732	0.149457
677.184981	0.149520
677.388213	0.149512
677.591426	0.149389
677.794621	0.149562
677.997798	0.149656
678.200956	0.149942
678.404097	0.150212
678.607219	0.150448
678.810323	0.150672
679.013408	0.150758
679.216476	0.150874
679.419525	0.150955
679.622556	0.150986
679.825569	0.151169
680.028563	0.151374
680.231540	0.151356
680.434498	0.151248
680.637438	0.151573
680.840359	0.151767
681.043263	0.151974
681.246148	0.152292
681.449015	0.152258
681.651864	0.152131
681.854694	0.152221
682.057506	0.152248
682.260301	0.152474
682.463076	0.152516
682.665834	0.152430
682.868573	0.152437
683.071295	0.152206
683.273998	0.152397
683.476682	0.152509
683.679349	0.152327
683.881997	0.152673
684.084627	0.152582
684.287239	0.152515
684.489833	0.152719
684.692408	0.152834
684.894965	0.152951
685.097504	0.152997
685.300025	0.153197
685.502527	0.153538
685.705012	0.153365
685.907478	0.153495
686.109925	0.153468
686.312355	0.153489
686.514766	0.153561
686.717159	0.153690
686.919534	0.153799
687.121891	0.153693
687.324230	0.153565
687.526550	0.153697
687.728852	0.153838
687.931136	0.153982
688.133401	0.153993
688.335649	0.154063
688.537878	0.154391
688.740089	0.154490
688.942281	0.154671
689.144456	0.154930
689.346612	0.154993
689.548750	0.155006
689.750870	0.155339
689.952971	0.155258
690.155055	0.155335
690.357120	0.155148
690.559167	0.155174
690.761195	0.155319
690.963206	0.155369
691.165198	0.155332
691.367172	0.155471
691.569128	0.155231
691.771065	0.155450
691.972984	0.155436
692.174885	0.155565
692.376768	0.155606
692.578633	0.155424
692.780479	0.155443
692.982308	0.155758
693.184118	0.155849
693.385909	0.156079
693.587683	0.156488
693.789438	0.156643
693.991175	0.156711
694.192894	0.156890
694.394595	0.157053
694.596277	0.156848
694.797941	0.156676
694.999587	0.156663
695.201215	0.156544
695.402824	0.156172
695.604416	0.156310
695.805989	0.156436
696.007543	0.156335
696.209080	0.156273
696.410598	0.156421
696.612099	0.156410
696.813580	0.156500
697.015044	0.156627
697.216490	0.156788
697.417917	0.156708
697.619326	0.156571
697.820717	0.156769
698.022089	0.156900
698.223444	0.157074
698.424780	0.157371
698.626098	0.157351
698.827397	0.157511
699.028679	0.157675
699.229942	0.157758
699.431187	0.157645
699.632414	0.157743
699.833622	0.157940
700.034813	0.158198
700.235985	0.157973
700.437139	0.157956
700.638274	0.158031
700.839392	0.158052
701.040491	0.158162
701.241572	0.158648
701.442635	0.158645
701.643679	0.158633
701.844706	0.158543
702.045714	0.158838
702.246704	0.158891
702.447675	0.159028
702.648629	0.159071
702.849564	0.159057
703.050481	0.158919
703.251380	0.158897
703.452260	0.158911
703.653122	0.158977
703.853966	0.158961
704.054792	0.158884
704.255600	0.158528
704.456389	0.158599
704.657160	0.158611
704.857913	0.158506
705.058648	0.158432
705.259365	0.158475
705.460063	0.158139
705.660743	0.158094
705.861405	0.158276
706.062048	0.158290
706.262674	0.158283
706.463281	0.158319
706.663870	0.158443
706.864441	0.158569
707.064993	0.158673
707.265527	0.158923
707.466043	0.158835
707.666541	0.158920
707.867021	0.159270
708.067482	0.159369
708.267925	0.159375
708.468350	0.159402
708.668757	0.159449
708.869145	0.159437
709.069516	0.159458
709.269868	0.159778
709.470201	0.159768
709.670517	0.159848
709.870814	0.159890
710.071093	0.159995
710.271354	0.159897
710.471597	0.159908
710.671821	0.160012
710.872028	0.159926
711.072216	0.159914
711.272385	0.160051
711.472537	0.159905
711.672670	0.159622
711.872785	0.159612
712.072882	0.159868
712.272961	0.159815
712.473021	0.159689
712.673063	0.159746
712.873087	0.159635
713.073093	0.159379
713.273081	0.159230
713.473050	0.159331
713.673001	0.159076
713.872934	0.158810
714.072849	0.158816
714.272745	0.158891
714.472623	0.159032
714.672483	0.158882
714.872325	0.158830
715.072148	0.159052
715.271954	0.159204
715.471741	0.159411
715.671509	0.159630
715.871260	0.159693
716.070992	0.159893
716.270707	0.159927
716.470403	0.160204
716.670080	0.160211
716.869740	0.160039
717.069381	0.159969
717.269004	0.160060
717.468609	0.159994
717.668195	0.159964
717.867764	0.159696
718.067314	0.159581
718.266846	0.159470
718.466360	0.159536
718.665855	0.159660
718.865332	0.159518
719.064791	0.159397
719.264232	0.159343
719.463655	0.159476
719.663059	0.159352
719.862445	0.159224
720.061813	0.159242
720.261163	0.159383
720.460494	0.159163
720.659807	0.159162
720.859102	0.159091
721.058379	0.158955
721.257638	0.158562
721.456878	0.158760
721.656100	0.158909
721.855304	0.158783
722.054490	0.158855
722.253657	0.159005
722.452806	0.159126
722.651937	0.159040
722.851050	0.159183
723.050145	0.159389
723.249221	0.159353
723.448279	0.159245
723.647319	0.159260
723.846340	0.159263
724.045344	0.159040
724.244329	0.158997
724.443296	0.159003
724.642245	0.159042
724.841175	0.158948
725.040088	0.158839
725.238982	0.158759
725.437857	0.158702
725.636715	0.158367
725.835554	0.158574
726.034376	0.158476
726.233179	0.158496
726.431963	0.158364
726.630730	0.158284
726.829478	0.158177
727.028208	0.158195
727.226920	0.158264
727.425614	0.158257
727.624289	0.157999
727.822946	0.157995
728.021585	0.157854
728.220206	0.157680
728.418808	0.157672
728.617392	0.157609
728.815958	0.157669
729.014506	0.157576
729.213036	0.157380
729.411547	0.157262
729.610040	0.157250
729.808515	0.157159
730.006972	0.157196
730.205410	0.156940
730.403831	0.156885
730.602233	0.156605
730.800616	0.156471
730.998982	0.156472
731.197329	0.156516
731.395658	0.156286
731.593969	0.156337
731.792262	0.156332
731.990536	0.156377
732.188793	0.156331
732.387031	0.156309
732.585250	0.156257
732.783452	0.156414
732.981635	0.156451
733.179800	0.156363
733.377947	0.156190
733.576076	0.155980
733.774186	0.155945
733.972278	0.156092
734.170352	0.155859
734.368408	0.155686
734.566446	0.155454
734.764465	0.155452
734.962466	0.155501
735.160449	0.155489
735.358413	0.155706
735.556360	0.155733
735.754288	0.155483
735.952198	0.155606
736.150090	0.155648
736.347963	0.155625
736.545818	0.155371
736.743655	0.155355
736.941474	0.155340
737.139275	0.154974
737.337057	0.154698
737.534821	0.154826
737.732567	0.154654
737.930295	0.154536
738.128005	0.154557
738.325696	0.154604
738.523369	0.154428
738.721024	0.154415
738.918660	0.154384
739.116279	0.154468
739.313879	0.154069
739.511461	0.154261
739.709024	0.154259
739.906570	0.154107
740.104097	0.153934
740.301606	0.153803
740.499097	0.153643
740.696569	0.153898
740.894024	0.153844
741.091460	0.153841
741.288878	0.153771
741.486277	0.153836
741.683659	0.153671
741.881022	0.153614
742.078367	0.153445
742.275694	0.153494
742.473002	0.153184
742.670293	0.153382
742.867565	0.153413
743.064819	0.153301
743.262054	0.153212
743.459272	0.153198
743.656471	0.153238
743.853652	0.153556
744.050815	0.153551
744.247959	0.153577
744.445085	0.153176
744.642194	0.153269
744.839283	0.153201
745.036355	0.153010
745.233408	0.153147
745.430444	0.152958
745.627461	0.152947
745.824459	0.152719
746.021440	0.152576
746.218402	0.152608
746.415346	0.152462
746.612272	0.152438
746.809180	0.152404
747.006069	0.152171
747.202940	0.152084
747.399793	0.151766
747.596628	0.151707
747.793444	0.151791
747.990243	0.151578
748.187023	0.151495
748.383784	0.151308
748.580528	0.151402
748.777253	0.151460
748.973960	0.151718
749.170649	0.151644
749.367320	0.151510
749.563973	0.151377
749.760607	0.151316
749.957223	0.151348
750.153821	0.151360
750.350400	0.151148
750.546962	0.150971
750.743505	0.150753
750.940030	0.150858
751.136536	0.150862
751.333025	0.150691
751.529495	0.150702
751.725947	0.150464
751.922381	0.150374
752.118796	0.150247
752.315194	0.150219
752.511573	0.150203
752.707934	0.150019
752.904276	0.149932
753.100601	0.150001
753.296907	0.150138
753.493195	0.149960
753.689465	0.149889
753.885716	0.149871
754.081949	0.149873
754.278164	0.149753
754.474361	0.149726
754.670540	0.149834
754.866700	0.149696
755.062843	0.149499
755.258967	0.149692
755.455072	0.149625
755.651160	0.149383
755.847229	0.149151
756.043280	0.149248
756.239313	0.149099
756.435328	0.148892
756.631324	0.149104
756.827302	0.148927
757.023262	0.148766
757.219204	0.148706
757.415127	0.148814
757.611033	0.148774
757.806920	0.148464
758.002788	0.148444
758.198639	0.148516
758.394471	0.148271
758.590286	0.148349
758.786081	0.148237
758.981859	0.148092
759.177619	0.148240
759.373360	0.148285
759.569083	0.148425
759.764788	0.148194
759.960474	0.147730
760.156143	0.147711
760.351793	0.147829
760.547425	0.147714
760.743038	0.147786
760.938634	0.147347
761.134211	0.147321
761.329770	0.147043
761.525311	0.147147
761.720833	0.147322
761.916338	0.147060
762.111824	0.146817
762.307292	0.146737
762.502741	0.146536
762.698173	0.146666
762.893586	0.146712
763.088981	0.146756
763.284358	0.146809
763.479716	0.146884
763.675057	0.146946
763.870379	0.146944
764.065683	0.147074
764.260968	0.147245
764.456236	0.147411
764.651485	0.147253
764.846716	0.147330
765.041929	0.147364
765.237123	0.147262
765.432299	0.147233
765.627457	0.147169
765.822597	0.147066
766.017719	0.146970
766.212822	0.146751
766.407907	0.146810
766.602974	0.146779
766.798023	0.146484
766.993054	0.146512
767.188066	0.146504
767.383060	0.146484
767.578036	0.146389
767.772993	0.146431
767.967933	0.146067
768.162854	0.145942
768.357757	0.145623
768.552642	0.145751
768.747508	0.145714
768.942356	0.145595
769.137186	0.145358
769.331998	0.145430
769.526792	0.145207
769.721567	0.145351
769.916324	0.145197
770.111063	0.145183
770.305784	0.145085
770.500486	0.144931
770.695171	0.144891
770.889837	0.144918
771.084484	0.144973
771.279114	0.145323
771.473725	0.145478
771.668318	0.145402
771.862893	0.145564
772.057450	0.145558
772.251988	0.145660
772.446509	0.145791
772.641011	0.145852
772.835494	0.145824
773.029960	0.145512
773.224407	0.145417
773.418836	0.145377
773.613247	0.145304
773.807640	0.145229
774.002014	0.145164
774.196370	0.145049
774.390708	0.145085
774.585028	0.144871
774.779330	0.144856
774.973613	0.145110
775.167878	0.145284
775.362125	0.145086
775.556354	0.145261
775.750564	0.145317
775.944756	0.145102
776.138930	0.145055
776.333086	0.145036
776.527223	0.144974
776.721343	0.144665
776.915444	0.144561
777.109526	0.144465
777.303591	0.144442
777.497637	0.144318
777.691666	0.144444
777.885676	0.144279
778.079667	0.144329
778.273641	0.143936
778.467596	0.143997
778.661533	0.144136
778.855452	0.144360
779.049352	0.144266
779.243235	0.144356
779.437099	0.144368
779.630945	0.144516
779.824773	0.144654
780.018582	0.145049
780.212373	0.145076
780.406146	0.145071
780.599901	0.145127
780.793638	0.145036
780.987356	0.144973
781.181056	0.145065
781.374738	0.145143
781.568402	0.145037
781.762047	0.145234
781.955674	0.145249
782.149283	0.145329
782.342874	0.145418
782.536447	0.145528
782.730001	0.145534
782.923537	0.145354
783.117055	0.145337
783.310555	0.145499
783.504036	0.145261
783.697499	0.145164
783.890944	0.145024
784.084371	0.144956
784.277780	0.144823
784.471170	0.144619
784.664542	0.144556
784.857896	0.144519
785.051231	0.144235
785.244549	0.144419
785.437848	0.144324
785.631129	0.144192
785.824392	0.144025
786.017636	0.144014
786.210863	0.144124
786.404071	0.144299
786.597260	0.144294
786.790432	0.144175
786.983585	0.144120
787.176721	0.144364
787.369838	0.144558
787.562936	0.144653
787.756017	0.144575
787.949079	0.144690
788.142123	0.144543
788.335149	0.144219
788.528156	0.144237
788.721146	0.144158
788.914117	0.143813
789.107070	0.143504
789.300005	0.143530
789.492921	0.143377
789.685819	0.143188
789.878699	0.143150
790.071561	0.143286
790.264405	0.143364
790.457230	0.143375
790.650037	0.143532
790.842826	0.143725
791.035597	0.143512
791.228349	0.143744
791.421084	0.143909
791.613800	0.144018
791.806497	0.144134
791.999177	0.144213
792.191838	0.144155
792.384481	0.144273
792.577106	0.144341
792.769713	0.144537
792.962301	0.144738
793.154871	0.144946
793.347423	0.144984
793.539957	0.145184
793.732473	0.145176
793.924970	0.145538
794.117449	0.145707
794.309910	0.145982
794.502353	0.146135
794.694777	0.146351
794.887183	0.146294
795.079571	0.146440
795.271941	0.146228
795.464293	0.146457
795.656626	0.146205
795.848941	0.146061
796.041238	0.146052
796.233516	0.146085
796.425777	0.145890
796.618019	0.146096
796.810243	0.146140
797.002449	0.146738
797.194636	0.146808
797.386805	0.146878
797.578956	0.147139
797.771089	0.147099
797.963204	0.147178
798.155300	0.147301
798.347378	0.147269
798.539438	0.147197
798.731480	0.146964
798.923503	0.147134
799.115509	0.147345
799.307496	0.147372
799.499465	0.147318
799.691415	0.147355
799.883348	0.147493
800.075262	0.147410
800.267158	0.147564
800.459035	0.147709
800.650895	0.147697
800.842736	0.147690
801.034559	0.147643
801.226364	0.147864
801.418150	0.147922
801.609919	0.147811
801.801669	0.147931
801.993401	0.148350
802.185114	0.148348
802.376810	0.148602
802.568487	0.148810
802.760146	0.148839
802.951787	0.148964
803.143409	0.149278
803.335014	0.149454
803.526600	0.149475
803.718168	0.149365
803.909717	0.149367
804.101249	0.149063
804.292762	0.149253
804.484257	0.149326
804.675734	0.149140
804.867192	0.148898
805.058632	0.149033
805.250054	0.149408
805.441458	0.149221
805.632844	0.149292
805.824211	0.149616
806.015561	0.149386
806.206891	0.149704
806.398204	0.149868
806.589499	0.149841
806.780775	0.149724
806.972033	0.149486
807.163273	0.149980
807.354495	0.150186
807.545698	0.150204
807.736883	0.150155
807.928050	0.150190
808.119199	0.150195
808.310329	0.150501
808.501441	0.150863
808.692535	0.150858
808.883611	0.150822
809.074669	0.150821
809.265708	0.150964
809.456729	0.151283
809.647732	0.151249
809.838717	0.151539
810.029683	0.151608
810.220632	0.151548
810.411562	0.151730
810.602474	0.151747
810.793367	0.151794
810.984242	0.151718
811.175100	0.151861
811.365938	0.152045
811.556759	0.152070
811.747562	0.152107
811.938346	0.152145
812.129112	0.152238
812.319860	0.152555
812.510589	0.152735
812.701300	0.153022
812.891994	0.152919
813.082668	0.152942
813.273325	0.153123
813.463964	0.153411
813.654584	0.153628
813.845186	0.153771
814.035769	0.153729
814.226335	0.153941
814.416882	0.153953
814.607411	0.154264
814.797922	0.154443
814.988415	0.154464
815.178889	0.154427
815.369345	0.154477
815.559783	0.154599
815.750203	0.154629
815.940605	0.154597
816.130988	0.154639
816.321353	0.154663
816.511700	0.154732
816.702028	0.154770
816.892339	0.155087
817.082631	0.155369
817.272905	0.155638
817.463161	0.155694
817.653398	0.155772
817.843617	0.155924
818.033819	0.156034
818.224001	0.156193
818.414166	0.156295
818.604312	0.156300
818.794440	0.156258
818.984550	0.156377
819.174642	0.156761
819.364716	0.156955
819.554771	0.157355
819.744808	0.157606
819.934827	0.157679
820.124827	0.158003
820.314810	0.158173
820.504774	0.158244
820.694720	0.158305
820.884647	0.158050
821.074557	0.158048
821.264448	0.157804
821.454321	0.157994
821.644176	0.158187
821.834012	0.158142
822.023831	0.158133
822.213631	0.157997
822.403413	0.158097
822.593176	0.158519
822.782922	0.158912
822.972649	0.159096
823.162358	0.158909
823.352049	0.159006
823.541721	0.159273
823.731376	0.159502
823.921012	0.159896
824.110629	0.159910
824.300229	0.159870
824.489811	0.159738
824.679374	0.160030
824.868919	0.160353
825.058445	0.160444
825.247954	0.160621
825.437444	0.160734
825.626916	0.160814
825.816370	0.160931
826.005806	0.161204
826.195223	0.161466
826.384622	0.161293
826.574003	0.161238
826.763366	0.161316
826.952711	0.161257
827.142037	0.161275
827.331345	0.161566
827.520635	0.161801
827.709906	0.161828
827.899160	0.161874
828.088395	0.162232
828.277612	0.162583
828.466810	0.162631
828.655991	0.162798
828.845153	0.162972
829.034297	0.162997
829.223423	0.163222
829.412531	0.163246
829.601620	0.163397
829.790691	0.163598
829.979744	0.163741
830.168779	0.164029
830.357795	0.164462
830.546793	0.164800
830.735773	0.165286
830.924735	0.165218
831.113679	0.165239
831.302604	0.165490
831.491511	0.165493
831.680400	0.165381
831.869271	0.165627
832.058123	0.165800
832.246957	0.165945
832.435773	0.165766
832.624571	0.166062
832.813351	0.166413
833.002112	0.166666
833.190855	0.167029
833.379580	0.167379
833.568287	0.167489
833.756975	0.167349
833.945645	0.167490
834.134297	0.167614
834.322931	0.168007
834.511547	0.168165
834.700144	0.167983
834.888723	0.167858
835.077284	0.167874
835.265826	0.167986
835.454351	0.167950
835.642857	0.167869
835.831345	0.168064
836.019815	0.168118
836.208266	0.168401
836.396699	0.168698
836.585114	0.168959
836.773511	0.169422
836.961890	0.169786
837.150250	0.170149
837.338592	0.170656
837.526916	0.170567
837.715222	0.170520
837.903510	0.170739
838.091779	0.170954
838.280030	0.171258
838.468263	0.171471
838.656477	0.171404
838.844674	0.171513
839.032852	0.171422
839.221012	0.171773
839.409153	0.172141
839.597277	0.172239
839.785382	0.172401
839.973469	0.172304
840.161538	0.171966
840.349589	0.172262
840.537621	0.172230
840.725635	0.172365
840.913631	0.172607
841.101609	0.172868
841.289568	0.172990
841.477509	0.172953
841.665432	0.173580
841.853337	0.174073
842.041224	0.174194
842.229092	0.174742
842.416942	0.175096
842.604774	0.175559
842.792588	0.175621
842.980383	0.175668
843.168160	0.176176
843.355919	0.175989
843.543660	0.176421
843.731382	0.176805
843.919087	0.177023
844.106773	0.176973
844.294441	0.177178
844.482090	0.177201
844.669722	0.177504
844.857335	0.177775
845.044930	0.177908
845.232507	0.177887
845.420065	0.178020
845.607605	0.178217
845.795127	0.178595
845.982631	0.178439
846.170117	0.178789
846.357584	0.178987
846.545033	0.179352
846.732464	0.179605
846.919877	0.179709
847.107272	0.179959
847.294648	0.180068
847.482006	0.180123
847.669346	0.180725
847.856667	0.180836
848.043971	0.180908
848.231256	0.180788
848.418523	0.181215
848.605771	0.181252
848.793002	0.181231
848.980214	0.181492
849.167408	0.181833
849.354584	0.181550
849.541742	0.181482
849.728881	0.181723
849.916002	0.181731
850.103105	0.181889
850.290190	0.182165
850.477256	0.182156
850.664304	0.182305
850.851334	0.182697
851.038346	0.182951
851.225340	0.183290
851.412315	0.183581
851.599272	0.183855
851.786211	0.184074
851.973132	0.184233
852.160034	0.184443
852.346918	0.184528
852.533784	0.184339
852.720632	0.184497
852.907462	0.184652
853.094273	0.184593
853.281066	0.184547
853.467841	0.184425
853.654598	0.184606
853.841336	0.184945
854.028056	0.185162
854.214758	0.185278
854.401442	0.185280
854.588107	0.185440
854.774755	0.185765
854.961384	0.185954
855.147995	0.186165
855.334587	0.186575
855.521162	0.186605
855.707718	0.186703
855.894256	0.186913
856.080775	0.187283
856.267277	0.187508
856.453760	0.187751
856.640225	0.188130
856.826672	0.188333
857.013101	0.188075
857.199511	0.188026
857.385903	0.188031
857.572277	0.188063
857.758633	0.188193
857.944970	0.188434
858.131290	0.188436
858.317591	0.188425
858.503873	0.188488
858.690138	0.188784
858.876384	0.189110
859.062612	0.189510
859.248822	0.189802
859.435014	0.189916
859.621188	0.189959
859.807343	0.190348
859.993480	0.190542
860.179599	0.191140
860.365699	0.191470
860.551781	0.191736
860.737846	0.191868
860.923891	0.191958
861.109919	0.192374
861.295929	0.192625
861.481920	0.192673
861.667893	0.192878
861.853848	0.192791
862.039784	0.192482
862.225702	0.192674
862.411603	0.192624
862.597484	0.192749
862.783348	0.192588
862.969193	0.192525
863.155021	0.192891
863.340830	0.192954
863.526620	0.192839
863.712393	0.193534
863.898147	0.193841
864.083883	0.193903
864.269601	0.193892
864.455301	0.194087
864.640982	0.194273
864.826645	0.193865
865.012290	0.193966
865.197917	0.194397
865.383526	0.194221
865.569116	0.194027
865.754688	0.194281
865.940242	0.194666
866.125777	0.194802
866.311295	0.195113
866.496794	0.195485
866.682275	0.196020
866.867737	0.196188
867.053182	0.196400
867.238608	0.196541
867.424016	0.196593
867.609406	0.196611
867.794778	0.196494
867.980131	0.196280
868.165466	0.196430
868.350783	0.196061
868.536082	0.195539
868.721362	0.195470
868.906625	0.195795
869.091869	0.196141
869.277094	0.195987
869.462302	0.196586
869.647491	0.196978
869.832662	0.196793
870.017815	0.196995
870.202950	0.197558
870.388066	0.197858
870.573165	0.197824
870.758245	0.197837
870.943306	0.197990
871.128350	0.197762
871.313375	0.197896
871.498382	0.198242
871.683371	0.198493
871.868342	0.198406
872.053294	0.198569
872.238229	0.198657
872.423144	0.198685
872.608042	0.199085
872.792922	0.199371
872.977783	0.199248
873.162626	0.199458
873.347451	0.199615
873.532258	0.199843
873.717046	0.199876
873.901816	0.199730
874.086568	0.199961
874.271302	0.200103
874.456017	0.200003
874.640715	0.200614
874.825394	0.200514
875.010055	0.200418
875.194697	0.200485
875.379322	0.200675
875.563928	0.200814
875.748516	0.200572
875.933085	0.200315
876.117637	0.200510
876.302170	0.199780
876.486685	0.199680
876.671182	0.199657
876.855661	0.199604
877.040121	0.199602
877.224563	0.199680
877.408987	0.199815
877.593393	0.200127
877.777780	0.199936
877.962150	0.200356
878.146501	0.200448
878.330833	0.200588
878.515148	0.200909
878.699444	0.200857
878.883722	0.201269
879.067982	0.201585
879.252224	0.201614
879.436447	0.201810
879.620653	0.201573
879.804840	0.201817
879.989008	0.202044
880.173159	0.202121
880.357291	0.201862
880.541405	0.201392
880.725501	0.201149
880.909579	0.200980
881.093638	0.201041
881.277680	0.201304
881.461703	0.201219
881.645707	0.201378
881.829694	0.201193
882.013662	0.201434
882.197612	0.201582
882.381544	0.201426
882.565458	0.201118
882.749353	0.200851
882.933230	0.201266
883.117089	0.201180
883.300930	0.201058
883.484753	0.201461
883.668557	0.201637
883.852343	0.201690
884.036111	0.201805
884.219861	0.202135
884.403592	0.202394
884.587305	0.202032
884.771000	0.202153
884.954677	0.202045
885.138335	0.201599
885.321976	0.201603
885.505598	0.201645
885.689201	0.201630
885.872787	0.202009
886.056354	0.201933
886.239904	0.201761
886.423434	0.201881
886.606947	0.201660
886.790442	0.201686
886.973918	0.201642
887.157376	0.201662
887.340816	0.201961
887.524237	0.201578
887.707641	0.201790
887.891026	0.202090
888.074393	0.201788
888.257741	0.201742
888.441072	0.201721
888.624384	0.201685
888.807678	0.201646
888.990954	0.201513
889.174211	0.202038
889.357451	0.201594
889.540672	0.201391
889.723875	0.201705
889.907059	0.201867
890.090226	0.202081
890.273374	0.202245
890.456504	0.202243
890.639616	0.202385
890.822709	0.202002
891.005785	0.202262
891.188842	0.202100
891.371881	0.201848
891.554901	0.201797
891.737904	0.201648
891.920888	0.201305
892.103854	0.201391
892.286802	0.201281
892.469731	0.201302
892.652643	0.201454
892.835536	0.201578
893.018410	0.201879
893.201267	0.201942
893.384106	0.201718
893.566926	0.201985
893.749728	0.202109
893.932511	0.201861
894.115277	0.201817
894.298024	0.201564
894.480753	0.201224
894.663464	0.200749
894.846157	0.200717
895.028831	0.200932
895.211487	0.200962
895.394125	0.200899
895.576745	0.201292
895.759346	0.201151
895.941930	0.200956
896.124495	0.201397
896.307041	0.201793
896.489570	0.201561
896.672080	0.201550
896.854573	0.201135
897.037046	0.200655
897.219502	0.200072
897.401940	0.200026
897.584359	0.200196
897.766760	0.199923
897.949143	0.199825
898.131507	0.200237
898.313854	0.199940
898.496182	0.199900
898.678492	0.199935
898.860783	0.199811
899.043057	0.199944
899.225312	0.199588
899.407549	0.199243
899.589768	0.198599
899.771968	0.197954
899.954151	0.197669
900.136315	0.197395
900.318461	0.197115
900.500588	0.197010
900.682698	0.196533
900.864789	0.196216
901.046862	0.195856
901.228917	0.195878
901.410953	0.195888
901.592971	0.195741
901.774972	0.195970
901.956953	0.195961
902.138917	0.196017
902.320862	0.196044
902.502790	0.196358
902.684699	0.196926
902.866589	0.196953
903.048462	0.196415
903.230316	0.196219
903.412152	0.195259
903.593970	0.195115
903.775770	0.194800
903.957551	0.194539
904.139314	0.193754
904.321059	0.193231
904.502786	0.192857
904.684494	0.192992
904.866185	0.192807
905.047857	0.193211
905.229510	0.192954
905.411146	0.193065
905.592763	0.192696
905.774363	0.192820
905.955943	0.192457
906.137506	0.192299
906.319051	0.192134
906.500577	0.192031
906.682085	0.191971
906.863575	0.191364
907.045046	0.191017
907.226500	0.190619
907.407935	0.190538
907.589352	0.190242
907.770750	0.190140
907.952131	0.189894
908.133493	0.189482
908.314837	0.189459
908.496163	0.189408
908.677470	0.189146
908.858760	0.189191
909.040031	0.189007
909.221284	0.188972
909.402518	0.188822
909.583735	0.188537
909.764933	0.188369
909.946113	0.187642
910.127275	0.187349
910.308418	0.187330
910.489544	0.187660
910.670651	0.187466
910.851740	0.187231
911.032810	0.186770
911.213863	0.186455
911.394897	0.186002
911.575913	0.185773
911.756911	0.185697
911.937890	0.185203
912.118851	0.184588
912.299794	0.184114
912.480719	0.183799
912.661626	0.183486
912.842514	0.183651
913.023384	0.183830
913.204236	0.183848
913.385070	0.183718
913.565886	0.184058
913.746683	0.183742
913.927462	0.183667
914.108223	0.184049
914.288965	0.184283
914.469690	0.183946
914.650396	0.183632
914.831084	0.183227
915.011754	0.182986
915.192405	0.182198
915.373038	0.182121
915.553653	0.182132
915.734250	0.181879
915.914829	0.181222
916.095389	0.180815
916.275931	0.180951
916.456455	0.180702
916.636961	0.180359
916.817448	0.180338
916.997917	0.179930
917.178368	0.179535
917.358801	0.178700
917.539216	0.178523
917.719612	0.178274
917.899990	0.177679
918.080350	0.177821
918.260692	0.177187
918.441015	0.176534
918.621320	0.175894
918.801607	0.175826
918.981876	0.175710
919.162127	0.175376
919.342359	0.174700
919.522573	0.174014
919.702769	0.173463
919.882947	0.173857
920.063106	0.173178
920.243247	0.172882
920.423370	0.171901
920.603475	0.171482
920.783562	0.170900
920.963630	0.170764
921.143680	0.170535
921.323712	0.169895
921.503725	0.168902
921.683721	0.168912
921.863698	0.168598
922.043657	0.168015
922.223598	0.167557
922.403520	0.167506
922.583424	0.167055
922.763311	0.166549
922.943178	0.166189
923.123028	0.166238
923.302859	0.165950
923.482673	0.165707
923.662467	0.165367
923.842244	0.164512
924.022003	0.163556
924.201743	0.163189
924.381465	0.162650
924.561169	0.162062
924.740854	0.161560
924.920522	0.160725
925.100171	0.160588
925.279802	0.159992
925.459414	0.159848
925.639009	0.159547
925.818585	0.159048
925.998143	0.158871
926.177683	0.158677
926.357205	0.158338
926.536708	0.157940
926.716193	0.157216
926.895660	0.157738
927.075109	0.157209
927.254539	0.157043
927.433951	0.156793
927.613345	0.156639
927.792721	0.155952
927.972079	0.155180
928.151418	0.154781
928.330739	0.154074
928.510042	0.153070
928.689327	0.152352
928.868593	0.151700
929.047841	0.151479
929.227071	0.151070
929.406283	0.150395
929.585476	0.150218
929.764652	0.150000
929.943809	0.149980
930.122948	0.149468
930.302068	0.149296
930.481171	0.148828
930.660255	0.147976
930.839321	0.147179
931.018369	0.146920
931.197398	0.145757
931.376409	0.144748
931.555402	0.143684
931.734377	0.142587
931.913334	0.142189
932.092272	0.141556
932.271192	0.141036
932.450094	0.140032
932.628978	0.139797
932.807844	0.139655
932.986691	0.140200
933.165520	0.139467
933.344331	0.140010
933.523123	0.139525
933.701898	0.139186
933.880654	0.138827
934.059392	0.138710
934.238111	0.137769
934.416813	0.137468
934.595496	0.136190
934.774161	0.135571
934.952808	0.135126
935.131437	0.134497
935.310047	0.133582
935.488639	0.133059
935.667213	0.133315
935.845769	0.132736
936.024306	0.131983
936.202825	0.131514
936.381326	0.132521
936.559809	0.131961
936.738274	0.132396
936.916720	0.132374
937.095148	0.131697
937.273558	0.130746
937.451950	0.130225
937.630323	0.129755
937.808678	0.129450
937.987015	0.128224
938.165334	0.127854
938.343635	0.126413
938.521917	0.126234
938.700181	0.126018
938.878427	0.125164
939.056655	0.125537
939.234864	0.124713
939.413055	0.124044
939.591228	0.123569
939.769383	0.122433
939.947519	0.121430
940.125638	0.120840
940.303738	0.121011
940.481820	0.121214
940.659883	0.120804
940.837929	0.121240
941.015956	0.120770
941.193965	0.119643
941.371955	0.119554
941.549928	0.121218
941.727882	0.120319
941.905818	0.118531
942.083736	0.117410
942.261636	0.115615
942.439517	0.114305
942.617380	0.114802
942.795225	0.114109
942.973052	0.113136
943.150860	0.110834
943.328651	0.110722
943.506423	0.108977
943.684176	0.108286
943.861912	0.108227
944.039629	0.108476
944.217328	0.107381
944.395009	0.107177
944.572672	0.106308
944.750317	0.105361
944.927943	0.103368
945.105551	0.104538
945.283141	0.105019
945.460712	0.105543
945.638265	0.104471
945.815801	0.103715
945.993317	0.104050
946.170816	0.103821
946.348297	0.104807
946.525759	0.105480
946.703203	0.104932
946.880629	0.103443
947.058036	0.102075
947.235425	0.102060
947.412797	0.102046
947.590149	0.100938
947.767484	0.101218
947.944800	0.099574
948.122099	0.099469
948.299379	0.099413
948.476640	0.099216
948.653884	0.098617
948.831109	0.097033
949.008316	0.095181
949.185505	0.094331
949.362676	0.092710
949.539828	0.092365
949.716962	0.092127
949.894078	0.090318
950.071176	0.089419
950.248256	0.088329
950.425317	0.088929
950.602360	0.090007
950.779385	0.089463
950.956391	0.088053
951.133380	0.087537
951.310350	0.086155
951.487302	0.086224
951.664235	0.085834
951.841151	0.086846
952.018048	0.085560
952.194927	0.083160
952.371788	0.084408
952.548631	0.085101
952.725455	0.085950
952.902261	0.085271
953.079049	0.085869
953.255819	0.085739
953.432570	0.085155
953.609303	0.085225
953.786018	0.085067
953.962715	0.082876
954.139394	0.082630
954.316054	0.080322
954.492696	0.081805
954.669320	0.081488
954.845926	0.081998
955.022513	0.080609
955.199083	0.080275
955.375634	0.081174
955.552166	0.081734
955.728681	0.080870
955.905177	0.080939
956.081655	0.078240
956.258115	0.076333
956.434557	0.074904
956.610980	0.074430
956.787385	0.074384
956.963772	0.073134
957.140141	0.072285
957.316492	0.072019
957.492824	0.071651
957.669138	0.074219
957.845434	0.073498
958.021712	0.073448
958.197971	0.071883
958.374212	0.071054
958.550435	0.070883
958.726640	0.069855
958.902826	0.070167
959.078995	0.069674
959.255145	0.067233
959.431277	0.066801
959.607390	0.066586
959.783486	0.068233
959.959563	0.068865
960.135622	0.068853
960.311662	0.069366
960.487685	0.068475
960.663689	0.069294
960.839675	0.070858
961.015643	0.071024
961.191593	0.072037
961.367524	0.071225
961.543437	0.069736
961.719332	0.070281
961.895209	0.070238
962.071067	0.071063
962.246907	0.072077
962.422730	0.071332
962.598533	0.071787
962.774319	0.071412
962.950086	0.071709
963.125835	0.071312
963.301566	0.071368
963.477279	0.071658
963.652973	0.070794
963.828650	0.071129
964.004308	0.068509
964.179947	0.069877
964.355569	0.067306
964.531172	0.067472
964.706757	0.069464
964.882324	0.069293
965.057873	0.069115
965.233403	0.069175
965.408916	0.067274
965.584410	0.068347
965.759885	0.068318
965.935343	0.068852
966.110782	0.069828
966.286203	0.068408
966.461606	0.069400
966.636991	0.069612
966.812357	0.069773
966.987705	0.069527
967.163035	0.070929
967.338347	0.070298
967.513641	0.071386
967.688916	0.070246
967.864173	0.070619
968.039412	0.069489
968.214632	0.070316
968.389835	0.071598
968.565019	0.071666
968.740185	0.070798
968.915333	0.070879
969.090462	0.071219
969.265573	0.072783
969.440667	0.071518
969.615741	0.070938
969.790798	0.070237
969.965836	0.069475
970.140856	0.069273
970.315858	0.070240
970.490842	0.069376
970.665808	0.068660
970.840755	0.068499
971.015684	0.069711
971.190595	0.070293
971.365487	0.070704
971.540362	0.071954
971.715218	0.073255
971.890056	0.072746
972.064875	0.073440
972.239677	0.073766
972.414460	0.072863
972.589225	0.074159
972.763972	0.074417
972.938700	0.072090
973.113411	0.070620
973.288103	0.069652
973.462777	0.069033
973.637432	0.068933
973.812070	0.068881
973.986689	0.070034
974.161290	0.069077
974.335873	0.068971
974.510437	0.069769
974.684984	0.070031
974.859512	0.070271
975.034022	0.069983
975.208513	0.069723
975.382987	0.070257
975.557442	0.068538
975.731879	0.069512
975.906298	0.069487
976.080698	0.070723
976.255080	0.071468
976.429445	0.070565
976.603790	0.071802
976.778118	0.072607
976.952427	0.070496
977.126719	0.069789
977.300992	0.070618
977.475246	0.071158
977.649483	0.070882
977.823701	0.069984
977.997901	0.070773
978.172083	0.070200
978.346247	0.068150
978.520392	0.069885
978.694519	0.070670
978.868628	0.067487
979.042719	0.066044
979.216791	0.065253
979.390845	0.066089
979.564882	0.066002
979.738899	0.064192
979.912899	0.066364
980.086880	0.066194
980.260843	0.065899
980.434788	0.067568
980.608715	0.068768
980.782623	0.069973
980.956514	0.068693
981.130386	0.067718
981.304240	0.069124
981.478075	0.069159
981.651892	0.068515
981.825692	0.068423
981.999472	0.067101
982.173235	0.066422
982.346980	0.065291
982.520706	0.067695
982.694414	0.068707
982.868104	0.070326
983.041775	0.069595
983.215428	0.068859
983.389064	0.068597
983.562680	0.070580
983.736279	0.070588
983.909860	0.072290
984.083422	0.070719
984.256966	0.069471
984.430491	0.069450
984.603999	0.069666
984.777488	0.069320
984.950959	0.069330
985.124412	0.069602
985.297847	0.069471
985.471263	0.069241
985.644661	0.070626
985.818041	0.070262
985.991403	0.068669
986.164747	0.067535
986.338072	0.068484
986.511379	0.070507
986.684668	0.068582
986.857938	0.069640
987.031191	0.068475
987.204425	0.066060
987.377641	0.068128
987.550839	0.069666
987.724018	0.068209
987.897179	0.068508
988.070322	0.065180
988.243447	0.065972
988.416554	0.064853
988.589642	0.066490
988.762712	0.067173
988.935764	0.068254
989.108798	0.068680
989.281813	0.070787
989.454811	0.070653
989.627790	0.073073
989.800751	0.073730
989.973693	0.074776
990.146617	0.074969
990.319524	0.076729
990.492412	0.076898
990.665281	0.075953
990.838133	0.074118
991.010966	0.075123
991.183781	0.074918
991.356578	0.075357
991.529356	0.073694
991.702117	0.072186
991.874859	0.071134
992.047583	0.068905
992.220288	0.068576
992.392976	0.070825
992.565645	0.070421
992.738296	0.070203
992.910929	0.069590
993.083543	0.069724
993.256139	0.069613
993.428718	0.068982
993.601277	0.068781
993.773819	0.067091
993.946342	0.068387
994.118848	0.067832
994.291335	0.066625
994.463803	0.066783
994.636254	0.067402
994.808686	0.068133
994.981100	0.069374
995.153496	0.070253
995.325874	0.070156
995.498233	0.069795
995.670574	0.070141
995.842897	0.070854
996.015202	0.070954
996.187488	0.070853
996.359757	0.071532
996.532007	0.069734
996.704239	0.068913
996.876452	0.070442
997.048648	0.069655
997.220825	0.069684
997.392984	0.070239
997.565124	0.068122
997.737247	0.067946
997.909351	0.068477
998.081437	0.069620
998.253505	0.070160
998.425554	0.070087
998.597586	0.070384
998.769599	0.070846
998.941594	0.070446
999.113571	0.070580
999.285529	0.070730
999.457469	0.070027
999.629391	0.068535
999.801295	0.068021
999.973181	0.068189
1000.145048	0.068220
1000.316897	0.067948
1000.488728	0.067788
1000.660541	0.069418
1000.832335	0.070158
1001.004111	0.069030
1001.175869	0.071589
1001.347609	0.071349
1001.519331	0.071301
1001.691034	0.070897
1001.862719	0.072002
1002.034386	0.071395
1002.206035	0.071217
1002.377665	0.070851
1002.549277	0.071738
1002.720871	0.070671
1002.892447	0.072175
1003.064004	0.071699
1003.235544	0.071100
1003.407065	0.070292
1003.578568	0.071183
1003.750052	0.070887
1003.921519	0.071021
1004.092967	0.069896
1004.264397	0.068830
1004.435809	0.069076
1004.607202	0.070487
1004.778577	0.070913
1004.949934	0.070852
1005.121273	0.069774
1005.292594	0.070843
1005.463896	0.069784
1005.635180	0.070212
1005.806446	0.071160
1005.977694	0.070237
1006.148923	0.068470
1006.320135	0.068366
1006.491328	0.068312
1006.662503	0.069576
1006.833659	0.068444
1007.004798	0.069062
1007.175918	0.069816
1007.347020	0.069672
1007.518103	0.070499
1007.689169	0.071729
1007.860216	0.071928
1008.031245	0.073300
1008.202256	0.073503
1008.373248	0.073411
1008.544223	0.075257
1008.715179	0.074754
1008.886117	0.072878
1009.057036	0.071162
1009.227938	0.070681
1009.398821	0.070280
1009.569686	0.070263
1009.740533	0.069630
1009.911361	0.070415
1010.082172	0.069916
1010.252964	0.069203
1010.423738	0.070386
1010.594493	0.070070
1010.765231	0.068600
1010.935950	0.068375
1011.106651	0.066400
1011.277334	0.068339
1011.447998	0.066764
1011.618645	0.066378
1011.789273	0.065364
1011.959882	0.065530
1012.130474	0.065792
1012.301048	0.067609
1012.471603	0.068400
1012.642140	0.068365
1012.812658	0.066790
1012.983159	0.066152
1013.153641	0.064389
1013.324105	0.066696
1013.494551	0.066328
1013.664979	0.066533
1013.835388	0.066178
1014.005779	0.065200
1014.176152	0.066544
1014.346507	0.065208
1014.516843	0.066392
1014.687162	0.066967
1014.857462	0.065674
1015.027744	0.066458
1015.198007	0.066712
1015.368252	0.066431
1015.538480	0.066649
1015.708689	0.066963
1015.878879	0.068216
1016.049052	0.068931
1016.219206	0.068086
1016.389342	0.067835
1016.559460	0.069345
1016.729559	0.069635
1016.899641	0.069352
1017.069704	0.069267
1017.239749	0.067232
1017.409775	0.068256
1017.579784	0.067373
1017.749774	0.069280
1017.919746	0.070074
1018.089700	0.068528
1018.259635	0.069280
1018.429553	0.069014
1018.599452	0.070169
1018.769333	0.071440
1018.939195	0.072171
1019.109040	0.073184
1019.278866	0.071722
1019.448674	0.072140
1019.618464	0.071748
1019.788235	0.070400
1019.957989	0.070889
1020.127724	0.069783
1020.297441	0.068953
1020.467139	0.068057
1020.636820	0.067006
1020.806482	0.066945
1020.976126	0.065951
1021.145752	0.066169
1021.315359	0.067891
1021.484948	0.069807
1021.654519	0.069495
1021.824072	0.068542
1021.993607	0.067430
1022.163123	0.069386
1022.332621	0.070164
1022.502101	0.070949
1022.671563	0.070268
1022.841007	0.070381
1023.010432	0.068833
1023.179839	0.069862
1023.349228	0.072036
1023.518598	0.071675
1023.687951	0.070547
1023.857285	0.070593
1024.026601	0.069849
1024.195899	0.072215
1024.365178	0.069892
1024.534439	0.069608
1024.703682	0.069320
1024.872907	0.067608
1025.042114	0.067254
1025.211302	0.066266
1025.380472	0.065227
1025.549624	0.066340
1025.718758	0.064083
1025.887873	0.065526
1026.056970	0.066165
1026.226049	0.066870
1026.395110	0.066974
1026.564153	0.066660
1026.733177	0.068031
1026.902183	0.069216
1027.071171	0.068158
1027.240141	0.069033
1027.409092	0.068929
1027.578026	0.068458
1027.746940	0.066743
1027.915837	0.066537
1028.084716	0.066691
1028.253576	0.066467
1028.422418	0.066246
1028.591242	0.067152
1028.760048	0.067548
1028.928835	0.068006
1029.097604	0.067499
1029.266355	0.067690
1029.435088	0.066984
1029.603803	0.067293
1029.772499	0.066921
1029.941177	0.066844
1030.109837	0.066623
1030.278478	0.066064
1030.447102	0.066566
1030.615707	0.066090
1030.784294	0.066681
1030.952863	0.068598
1031.121413	0.067776
1031.289945	0.067006
1031.458460	0.066035
1031.626955	0.065471
1031.795433	0.065456
1031.963892	0.065318
1032.132334	0.066233
1032.300756	0.065909
1032.469161	0.064713
1032.637548	0.065978
1032.805916	0.066627
1032.974266	0.068042
1033.142598	0.066886
1033.310911	0.066293
1033.479207	0.064893
1033.647484	0.063311
1033.815743	0.061973
1033.983983	0.063579
1034.152206	0.063264
1034.320410	0.064319
1034.488596	0.063311
1034.656764	0.064089
1034.824914	0.065153
1034.993045	0.065587
1035.161158	0.067001
1035.329253	0.066615
1035.497330	0.067050
1035.665388	0.066793
1035.833428	0.066628
1036.001450	0.066388
1036.169454	0.065996
1036.337440	0.063898
1036.505407	0.064133
1036.673356	0.063863
1036.841287	0.064173
1037.009200	0.061767
1037.177094	0.063436
1037.344970	0.063713
1037.512828	0.063817
1037.680668	0.064583
1037.848489	0.065758
1038.016293	0.066294
1038.184078	0.066076
1038.351845	0.067635
1038.519593	0.067784
1038.687324	0.067070
1038.855036	0.067022
1039.022730	0.067521
1039.190406	0.067447
1039.358063	0.067742
1039.525702	0.067322
1039.693323	0.067742
1039.860926	0.069770
1040.028511	0.070414
1040.196077	0.070688
1040.363625	0.068897
1040.531155	0.069307
1040.698667	0.068245
1040.866161	0.069311
1041.033636	0.069871
1041.201093	0.069165
1041.368532	0.067320
1041.535952	0.067549
1041.703355	0.066864
1041.870739	0.066939
1042.038105	0.065644
1042.205452	0.065807
1042.372782	0.063826
1042.540093	0.062419
1042.707386	0.062895
1042.874661	0.062221
1043.041918	0.062843
1043.209156	0.061774
1043.376376	0.060998
1043.543578	0.062103
1043.710762	0.063961
1043.877927	0.065603
1044.045074	0.066799
1044.212203	0.067661
1044.379314	0.068294
1044.546407	0.066168
1044.713481	0.066760
1044.880537	0.067872
1045.047575	0.068697
1045.214595	0.066823
1045.381596	0.066470
1045.548579	0.064610
1045.715544	0.064286
1045.882491	0.065071
1046.049420	0.065792
1046.216330	0.065883
1046.383222	0.065597
1046.550096	0.065296
1046.716951	0.067190
1046.883789	0.066700
1047.050608	0.067693
1047.217409	0.068523
1047.384192	0.068398
1047.550956	0.069155
1047.717703	0.070936
1047.884431	0.071802
1048.051140	0.071214
1048.217832	0.070042
1048.384505	0.069432
1048.551161	0.069308
1048.717798	0.066625
1048.884416	0.066584
1049.051017	0.066863
1049.217599	0.064622
1049.384163	0.063588
1049.550709	0.062949
1049.717237	0.063170
1049.883746	0.063097
1050.050237	0.062730
1050.216710	0.064007
1050.383165	0.062229
1050.549601	0.063201
1050.716019	0.066048
1050.882420	0.066850
1051.048801	0.067408
1051.215165	0.066396
1051.381510	0.067542
1051.547837	0.067652
1051.714146	0.068250
1051.880437	0.069777
1052.046709	0.068027
1052.212964	0.066476
1052.379200	0.066609
1052.545417	0.066593
1052.711617	0.067527
1052.877798	0.067768
1053.043961	0.068889
1053.210106	0.067995
1053.376233	0.067859
1053.542341	0.066728
1053.708432	0.066319
1053.874504	0.066326
1054.040557	0.067610
1054.206593	0.067641
1054.372610	0.067037
1054.538609	0.067161
1054.704590	0.068646
1054.870553	0.067122
1055.036497	0.068176
1055.202424	0.066290
1055.368331	0.066444
1055.534221	0.065322
1055.700093	0.064475
1055.865946	0.063265
1056.031781	0.063878
1056.197598	0.061328
1056.363397	0.061268
1056.529177	0.062137
1056.694939	0.063666
1056.860683	0.063521
1057.026409	0.062877
1057.192116	0.062945
1057.357806	0.063451
1057.523477	0.061554
1057.689130	0.063361
1057.854764	0.063602
1058.020381	0.062696
1058.185979	0.063767
1058.351559	0.063615
1058.517120	0.064527
1058.682664	0.066866
1058.848189	0.068710
1059.013696	0.069005
1059.179185	0.069707
1059.344656	0.069575
1059.510108	0.069994
1059.675542	0.069264
1059.840958	0.069984
1060.006356	0.069412
1060.171735	0.068070
1060.337096	0.066303
1060.502439	0.066273
1060.667764	0.064956
1060.833071	0.064203
1060.998359	0.065860
1061.163629	0.065797
1061.328881	0.063599
1061.494115	0.065273
1061.659330	0.063633
1061.824527	0.064262
1061.989706	0.063030
1062.154867	0.062286
1062.320010	0.063909
1062.485134	0.061552
1062.650240	0.062469
1062.815328	0.063446
1062.980398	0.060641
1063.145449	0.062761
1063.310482	0.063692
1063.475497	0.065109
1063.640494	0.065039
1063.805473	0.066624
1063.970433	0.068252
1064.135375	0.067639
1064.300299	0.066737
1064.465204	0.066719
1064.630092	0.065483
1064.794961	0.063268
1064.959812	0.064792
1065.124645	0.065444
1065.289459	0.063470
1065.454256	0.063038
1065.619034	0.062816
1065.783793	0.064844
1065.948535	0.067317
1066.113258	0.069778
1066.277964	0.072624
1066.442651	0.071518
1066.607319	0.071899
1066.771970	0.073439
1066.936602	0.073739
1067.101216	0.073785
1067.265812	0.073307
1067.430389	0.071337
1067.594949	0.068946
1067.759490	0.070185
1067.924013	0.069030
1068.088518	0.069389
1068.253004	0.067663
1068.417472	0.067203
1068.581922	0.067603
1068.746354	0.068830
1068.910768	0.069701
1069.075163	0.071167
1069.239540	0.066590
1069.403899	0.067530
1069.568240	0.066713
1069.732562	0.067585
1069.896866	0.067791
1070.061152	0.066613
1070.225420	0.066537
1070.389670	0.067623
1070.553901	0.067537
1070.718114	0.070340
1070.882309	0.070947
1071.046486	0.070662
1071.210644	0.070415
1071.374784	0.070228
1071.538906	0.071913
1071.703010	0.070271
1071.867096	0.068576
1072.031163	0.067648
1072.195212	0.065972
1072.359243	0.065847
1072.523256	0.067822
1072.687250	0.068623
1072.851226	0.069806
1073.015184	0.068849
1073.179124	0.067538
1073.343045	0.066855
1073.506949	0.066833
1073.670834	0.067814
1073.834701	0.066309
1073.998549	0.065178
1074.162380	0.064290
1074.326192	0.062784
1074.489986	0.063447
1074.653761	0.064042
1074.817519	0.065652
1074.981258	0.066499
1075.144979	0.066722
1075.308682	0.068340
1075.472367	0.070778
1075.636033	0.072315
1075.799681	0.074517
1075.963311	0.074688
1076.126923	0.076038
1076.290516	0.076127
1076.454092	0.075906
1076.617649	0.075953
1076.781187	0.075406
1076.944708	0.073636
1077.108210	0.073818
1077.271695	0.071530
1077.435160	0.070158
1077.598608	0.069567
1077.762038	0.069760
1077.925449	0.069641
1078.088842	0.070187
1078.252217	0.070468
1078.415573	0.070334
1078.578912	0.069480
1078.742232	0.068141
1078.905534	0.070434
1079.068817	0.070042
1079.232083	0.070003
1079.395330	0.071194
1079.558559	0.071122
1079.721770	0.070121
1079.884962	0.072987
1080.048136	0.073237
1080.211293	0.076242
1080.374430	0.075927
1080.537550	0.076306
1080.700651	0.076568
1080.863735	0.077432
1081.026800	0.074562
1081.189846	0.074382
1081.352875	0.070137
1081.515885	0.068692
1081.678877	0.067370
1081.841851	0.067137
1082.004807	0.069115
1082.167744	0.068857
1082.330663	0.066414
1082.493564	0.068319
1082.656447	0.068827
1082.819312	0.072089
1082.982158	0.072937
1083.144986	0.072703
1083.307796	0.073406
1083.470587	0.072119
1083.633361	0.071764
1083.796116	0.072098
1083.958853	0.072439
1084.121571	0.073508
1084.284272	0.071569
1084.446954	0.070783
1084.609618	0.071892
1084.772264	0.069477
1084.934892	0.068514
1085.097501	0.070752
1085.260092	0.071217
1085.422665	0.071432
1085.585220	0.071093
1085.747756	0.071415
1085.910274	0.070761
1086.072774	0.071052
1086.235256	0.073449
1086.397720	0.075593
1086.560165	0.075321
1086.722592	0.074464
1086.885001	0.072941
1087.047392	0.074804
1087.209764	0.072832
1087.372119	0.074330
1087.534455	0.076458
1087.696772	0.074162
1087.859072	0.073254
1088.021353	0.072119
1088.183616	0.072716
1088.345861	0.074405
1088.508088	0.071469
1088.670296	0.073482
1088.832486	0.075226
1088.994658	0.073853
1089.156812	0.074491
1089.318948	0.075866
1089.481065	0.073791
1089.643164	0.074322
1089.805245	0.074724
1089.967308	0.075118
1090.129352	0.076206
1090.291378	0.076435
1090.453386	0.074827
1090.615376	0.076294
1090.777347	0.073735
1090.939301	0.074837
1091.101236	0.073567
1091.263153	0.073533
1091.425051	0.075254
1091.586932	0.076104
1091.748794	0.076581
1091.910638	0.075384
1092.072463	0.075006
1092.234271	0.079576
1092.396060	0.080087
1092.557831	0.082756
1092.719584	0.082196
1092.881319	0.080120
1093.043035	0.078299
1093.204733	0.075084
1093.366413	0.076663
1093.528075	0.075140
1093.689718	0.072443
1093.851343	0.071094
1094.012950	0.068099
1094.174539	0.069350
1094.336110	0.071167
1094.497662	0.073486
1094.659196	0.072078
1094.820712	0.073264
1094.982210	0.076845
1095.143689	0.075929
1095.305151	0.078798
1095.466594	0.079087
1095.628018	0.076129
1095.789425	0.077451
1095.950813	0.076390
1096.112183	0.078106
1096.273535	0.078826
1096.434869	0.076142
1096.596184	0.078634
1096.757482	0.077324
1096.918761	0.078560
1097.080021	0.079784
1097.241264	0.074983
1097.402488	0.073302
1097.563694	0.077984
1097.724882	0.076113
1097.886052	0.075446
1098.047203	0.072206
1098.208336	0.072152
1098.369451	0.070241
1098.530548	0.066863
1098.691627	0.071358
1098.852687	0.072299
1099.013729	0.069216
1099.174753	0.070758
1099.335758	0.070498
1099.496746	0.070324
1099.657715	0.069089
1099.818666	0.073363
1099.979599	0.076400
1100.140513	0.073733
1100.301409	0.073556
1100.462287	0.072483
1100.623147	0.070158
1100.783989	0.071558
1100.944812	0.071198
1101.105617	0.073205
1101.266404	0.071064
1101.427173	0.073570
1101.587923	0.073705
1101.748656	0.076124
1101.909370	0.077698
1102.070066	0.077858
1102.230743	0.077976
1102.391403	0.078182
1102.552044	0.079680
1102.712667	0.079068
1102.873271	0.078347
1103.033858	0.081086
1103.194426	0.077690
1103.354976	0.077325
1103.515508	0.080148
1103.676021	0.080811
1103.836517	0.080853
1103.996994	0.077478
1104.157453	0.077050
1104.317893	0.077925
1104.478316	0.078498
1104.638720	0.078752
1104.799106	0.075520
1104.959474	0.073987
1105.119823	0.074005
1105.280155	0.072749
1105.440468	0.073648
1105.600763	0.072137
1105.761039	0.067866
1105.921298	0.064337
1106.081538	0.063055
1106.241760	0.065928
1106.401964	0.064889
1106.562149	0.065573
1106.722316	0.067097
1106.882465	0.068005
1107.042596	0.068611
1107.202709	0.071251
1107.362803	0.072244
1107.522879	0.073162
1107.682937	0.072962
1107.842977	0.071302
1108.002999	0.068221
1108.163002	0.071618
1108.322987	0.071038
1108.482954	0.075533
1108.642902	0.077801
1108.802833	0.076696
1108.962745	0.080197
1109.122639	0.082630
1109.282515	0.082837
1109.442372	0.086656
1109.602211	0.084004
1109.762032	0.085234
1109.921835	0.081732
1110.081620	0.078434
1110.241386	0.080079
1110.401134	0.079331
1110.560864	0.076231
1110.720576	0.076402
1110.880269	0.074433
1111.039945	0.074191
1111.199602	0.075144
1111.359240	0.075974
1111.518861	0.077919
1111.678463	0.075930
1111.838047	0.073881
1111.997613	0.072555
1112.157161	0.075331
1112.316690	0.076094
1112.476202	0.076139
1112.635695	0.072030
1112.795169	0.071295
1112.954626	0.070304
1113.114064	0.074085
1113.273484	0.074380
1113.432886	0.073506
1113.592270	0.073315
1113.751635	0.070421
1113.910983	0.072806
1114.070312	0.072186
1114.229622	0.073632
1114.388915	0.074362
1114.548189	0.072330
1114.707445	0.074625
1114.866683	0.081205
1115.025903	0.079944
1115.185104	0.082988
1115.344287	0.079785
1115.503452	0.079777
1115.662599	0.083296
1115.821727	0.082366
1115.980838	0.082872
1116.139930	0.078621
1116.299004	0.075040
1116.458059	0.077190
1116.617097	0.077478
1116.776116	0.076803
1116.935117	0.079005
1117.094099	0.074091
1117.253064	0.073331
1117.412010	0.073814
1117.570938	0.074244
1117.729848	0.075136
1117.888740	0.075090
1118.047613	0.071170
1118.206468	0.070553
1118.365305	0.070083
1118.524124	0.066974
1118.682924	0.070147
1118.841707	0.067705
1119.000471	0.070900
1119.159216	0.070518
1119.317944	0.071754
1119.476653	0.072303
1119.635344	0.078056
1119.794017	0.082868
1119.952672	0.089568
1120.111308	0.088961
1120.269927	0.092165
1120.428527	0.090151
1120.587108	0.089899
1120.745672	0.087458
1120.904217	0.090686
1121.062744	0.090457
1121.221253	0.086736
1121.379744	0.086951
1121.538216	0.087694
1121.696671	0.088688
1121.855107	0.088172
1122.013524	0.091015
1122.171924	0.090717
1122.330305	0.087833
1122.488668	0.083985
1122.647013	0.083082
1122.805340	0.077089
1122.963648	0.078854
1123.121938	0.076828
1123.280210	0.077949
1123.438464	0.076619
1123.596700	0.073217
1123.754917	0.073244
1123.913116	0.068122
1124.071297	0.061899
1124.229459	0.063432
1124.387604	0.059251
1124.545730	0.058808
1124.703838	0.061028
1124.861928	0.061724
1125.019999	0.065819
1125.178052	0.065797
1125.336088	0.070136
1125.494104	0.080228
1125.652103	0.079478
1125.810083	0.081975
1125.968045	0.080676
1126.125989	0.075015
1126.283915	0.075585
1126.441823	0.075391
1126.599712	0.076743
1126.757583	0.078904
1126.915436	0.073739
1127.073270	0.076555
1127.231087	0.075529
1127.388885	0.077009
1127.546665	0.082279
1127.704426	0.079568
1127.862170	0.077023
1128.019895	0.078005
1128.177602	0.076985
1128.335291	0.078500
1128.492961	0.079371
1128.650614	0.076824
1128.808248	0.074200
1128.965864	0.071711
1129.123461	0.071033
1129.281041	0.073568
1129.438602	0.071769
1129.596145	0.071817
1129.753670	0.074202
1129.911176	0.074332
1130.068665	0.074717
1130.226135	0.080062
1130.383587	0.076851
1130.541020	0.075865
1130.698436	0.077697
1130.855833	0.078967
1131.013212	0.076292
1131.170573	0.076133
1131.327915	0.074476
1131.485239	0.071597
1131.642545	0.067605
1131.799833	0.073015
1131.957103	0.074600
1132.114354	0.072952
1132.271588	0.072914
1132.428803	0.079801
1132.585999	0.084555
1132.743178	0.084850
1132.900338	0.091619
1133.057480	0.090756
1133.214604	0.088489
1133.371710	0.091240
1133.528797	0.088297
1133.685866	0.084944
1133.842917	0.085089
1133.999950	0.077092
1134.156964	0.073667
1134.313960	0.066969
1134.470938	0.069635
1134.627898	0.070474
1134.784840	0.070421
1134.941763	0.074299
1135.098668	0.079870
1135.255555	0.075968
1135.412424	0.079084
1135.569274	0.079855
1135.726107	0.088025
1135.882921	0.087919
1136.039716	0.089009
1136.196494	0.088391
1136.353253	0.085602
1136.509995	0.081994
1136.666717	0.084657
1136.823422	0.081685
1136.980109	0.085233
1137.136777	0.079164
1137.293427	0.074826
1137.450059	0.075332
1137.606672	0.072480
1137.763267	0.080466
1137.919844	0.082372
1138.076403	0.077578
1138.232944	0.076607
1138.389466	0.075472
1138.545971	0.080340
1138.702457	0.082754
1138.858924	0.085417
1139.015374	0.084319
1139.171805	0.081558
1139.328218	0.085288
1139.484613	0.084252
1139.640990	0.087691
1139.797348	0.089893
1139.953688	0.090686
1140.110010	0.095853
1140.266314	0.088257
1140.422600	0.091236
1140.578867	0.086481
1140.735116	0.077317
1140.891347	0.080179
1141.047559	0.083818
1141.203754	0.086174
1141.359930	0.083847
1141.516088	0.083022
1141.672228	0.086295
1141.828349	0.087244
1141.984452	0.084982
1142.140537	0.092560
1142.296604	0.089433
1142.452653	0.078687
1142.608683	0.076520
1142.764695	0.074929
1142.920689	0.072217
1143.076665	0.073161
1143.232622	0.067715
1143.388562	0.067920
1143.544483	0.062695
1143.700385	0.064698
1143.856270	0.067916
1144.012136	0.064314
1144.167985	0.064435
1144.323814	0.067514
1144.479626	0.064314
1144.635420	0.069698
1144.791195	0.069872
1144.946952	0.074419
1145.102691	0.070393
1145.258411	0.076245
1145.414113	0.077303
1145.569798	0.077808
1145.725463	0.075296
1145.881111	0.078801
1146.036741	0.070806
1146.192352	0.072935
1146.347945	0.066344
1146.503519	0.070440
1146.659076	0.071107
1146.814614	0.071571
1146.970134	0.065626
1147.125636	0.066560
1147.281120	0.060816
1147.436585	0.062632
1147.592032	0.057283
1147.747461	0.060006
1147.902872	0.064518
1148.058265	0.058771
1148.213639	0.056246
1148.368995	0.063741
1148.524333	0.064229
1148.679653	0.065610
1148.834954	0.067922
1148.990237	0.075187
1149.145502	0.079276
1149.300749	0.072466
1149.455977	0.071572
1149.611188	0.079703
1149.766380	0.079487
1149.921553	0.075523
1150.076709	0.088536
1150.231846	0.085105
1150.386966	0.080637
1150.542066	0.080581
1150.697149	0.081575
1150.852214	0.081574
1151.007260	0.068756
1151.162288	0.067316
1151.317298	0.068996
1151.472289	0.058424
1151.627263	0.061594
1151.782218	0.068361
1151.937155	0.066351
1152.092073	0.069548
1152.246974	0.078096
1152.401856	0.086942
1152.556720	0.086145
1152.711566	0.081670
1152.866393	0.080757
1153.021203	0.084876
1153.175994	0.083602
1153.330767	0.081587
1153.485521	0.085212
1153.640258	0.075111
1153.794976	0.071181
1153.949676	0.068381
1154.104358	0.073862
1154.259021	0.069375
1154.413667	0.068746
1154.568294	0.069043
1154.722903	0.072873
1154.877493	0.060502
1155.032066	0.066183
1155.186620	0.071273
1155.341156	0.078326
1155.495674	0.074182
1155.650173	0.081010
1155.804654	0.077721
1155.959118	0.077785
1156.113562	0.081072
1156.267989	0.090475
1156.422397	0.082116
1156.576788	0.083992
1156.731160	0.077490
1156.885513	0.080907
1157.039849	0.079682
1157.194166	0.078560
1157.348465	0.072642
1157.502746	0.069858
1157.657009	0.069001
1157.811253	0.076525
1157.965479	0.070783
1158.119687	0.067834
1158.273877	0.068495
1158.428048	0.070053
1158.582201	0.075739
1158.736337	0.079236
1158.890453	0.078597
1159.044552	0.070264
1159.198632	0.065950
1159.352694	0.061297
1159.506738	0.066748
1159.660764	0.066449
1159.814771	0.073773
1159.968761	0.075852
1160.122732	0.071980
1160.276685	0.067095
1160.430619	0.081228
1160.584535	0.080262
1160.738434	0.074531
1160.892313	0.075925
1161.046175	0.078743
1161.200019	0.068468
1161.353844	0.059860
1161.507651	0.058263
1161.661440	0.056151
1161.815210	0.048118
1161.968962	0.049390
1162.122697	0.064142
1162.276412	0.066913
1162.430110	0.059042
1162.583789	0.058174
1162.737451	0.058915
1162.891094	0.055568
1163.044718	0.058816
1163.198325	0.066550
1163.351913	0.067135
1163.505483	0.068799
1163.659035	0.056328
1163.812569	0.058953
1163.966084	0.056126
1164.119581	0.058575
1164.273060	0.068175
1164.426521	0.075111
1164.579964	0.069583
1164.733388	0.072925
1164.886794	0.065958
1165.040182	0.069702
1165.193551	0.060641
1165.346903	0.066345
1165.500236	0.069957
1165.653551	0.065545
1165.806848	0.065491
1165.960126	0.063322
1166.113386	0.067242
1166.266628	0.063907
1166.419852	0.065523
1166.573058	0.077454
1166.726245	0.075854
1166.879414	0.067847
1167.032565	0.067610
1167.185698	0.054276
1167.338812	0.065602
1167.491909	0.055497
1167.644987	0.051988
1167.798046	0.047710
1167.951088	0.036501
1168.104111	0.033988
1168.257117	0.033217
1168.410103	0.029318
1168.563072	0.037284
1168.716023	0.032907
1168.868955	0.044132
1169.021869	0.042370
1169.174765	0.050304
1169.327642	0.055156
1169.480501	0.067530
1169.633343	0.071939
1169.786165	0.076211
1169.938970	0.078351
1170.091757	0.070244
1170.244525	0.058214
1170.397275	0.061365
1170.550007	0.052262
1170.702720	0.063233
1170.855415	0.044111
1171.008092	0.034800
1171.160751	0.026881
1171.313392	0.015723
1171.466014	-0.012832
1171.618619	-0.018811
1171.771205	-0.018811
1171.923772	-0.018811
