sample name	sample
index	783
start time	 03-31-2021  01:53:55 PM


Wavelength (nm)	Absorbance
494.344910	-0.158104
494.563924	-0.158104
494.782919	-0.158104
495.001897	-0.112406
495.220856	-0.022114
495.439797	0.007169
495.658719	0.069659
495.877624	0.091166
496.096510	0.064005
496.315378	0.081150
496.534227	0.046273
496.753059	-0.005625
496.971872	-0.034687
497.190667	0.037654
497.409444	0.045493
497.628203	0.049877
497.846943	0.052314
498.065665	0.053675
498.284369	0.054653
498.503055	0.056185
498.721723	0.055984
498.940372	0.055979
499.159003	0.056257
499.377616	0.056166
499.596210	0.056287
499.814787	0.056843
500.033345	0.056636
500.251885	0.055673
500.470406	0.054688
500.688910	0.055256
500.907395	0.056126
501.125862	0.055918
501.344311	0.056699
501.562742	0.055967
501.781154	0.055905
501.999548	0.055866
502.217924	0.055881
502.436282	0.056478
502.654621	0.056555
502.872942	0.056016
503.091245	0.056709
503.309530	0.056783
503.527797	0.057008
503.746045	0.056346
503.964275	0.056345
504.182487	0.057371
504.400681	0.057660
504.618856	0.057155
504.837013	0.056864
505.055152	0.055940
505.273273	0.055997
505.491376	0.056578
505.709460	0.056452
505.927526	0.057034
506.145574	0.056487
506.363604	0.056096
506.581615	0.056062
506.799608	0.056354
507.017583	0.057115
507.235540	0.056321
507.453478	0.055544
507.671399	0.055935
507.889301	0.055325
508.107185	0.055463
508.325050	0.055708
508.542898	0.056178
508.760727	0.055732
508.978538	0.055786
509.196330	0.056773
509.414105	0.056957
509.631861	0.057241
509.849599	0.057279
510.067319	0.057819
510.285021	0.057414
510.502704	0.056944
510.720369	0.057179
510.938016	0.057342
511.155645	0.056787
511.373255	0.056792
511.590848	0.056547
511.808422	0.056991
512.025977	0.056135
512.243515	0.056594
512.461034	0.057094
512.678536	0.057881
512.896018	0.057927
513.113483	0.057693
513.330930	0.058281
513.548358	0.057468
513.765768	0.057329
513.983160	0.057587
514.200533	0.058142
514.417889	0.058046
514.635226	0.058179
514.852545	0.057710
515.069845	0.058309
515.287128	0.058753
515.504392	0.060167
515.721638	0.060489
515.938866	0.061125
516.156075	0.061337
516.373267	0.061421
516.590440	0.060775
516.807594	0.060558
517.024731	0.060247
517.241850	0.059436
517.458950	0.058465
517.676032	0.058657
517.893095	0.058473
518.110141	0.058091
518.327168	0.057666
518.544177	0.057089
518.761168	0.057676
518.978141	0.057738
519.195095	0.058269
519.412031	0.058389
519.628949	0.058262
519.845849	0.057735
520.062731	0.058076
520.279594	0.058431
520.496439	0.059592
520.713266	0.059367
520.930074	0.058787
521.146865	0.058695
521.363637	0.058920
521.580391	0.058900
521.797127	0.059309
522.013844	0.058373
522.230543	0.058955
522.447224	0.058669
522.663887	0.058627
522.880532	0.060049
523.097158	0.060148
523.313766	0.060636
523.530356	0.061380
523.746928	0.061572
523.963481	0.062428
524.180017	0.061648
524.396534	0.060934
524.613032	0.061305
524.829513	0.061015
525.045975	0.060475
525.262420	0.059936
525.478845	0.059352
525.695253	0.059041
525.911643	0.058397
526.128014	0.059384
526.344367	0.060389
526.560702	0.060390
526.777018	0.060039
526.993316	0.060972
527.209597	0.062086
527.425858	0.062442
527.642102	0.062473
527.858328	0.063199
528.074535	0.063477
528.290724	0.063581
528.506894	0.064176
528.723047	0.064833
528.939181	0.064383
529.155297	0.064142
529.371395	0.064661
529.587475	0.065390
529.803536	0.065437
530.019579	0.064908
530.235604	0.064869
530.451611	0.064643
530.667600	0.064921
530.883570	0.065369
531.099522	0.064828
531.315456	0.064400
531.531372	0.064204
531.747269	0.064410
531.963148	0.064308
532.179009	0.065075
532.394852	0.065499
532.610676	0.065463
532.826482	0.065925
533.042271	0.066970
533.258040	0.067226
533.473792	0.067770
533.689525	0.068276
533.905240	0.069241
534.120937	0.068822
534.336616	0.068751
534.552277	0.068449
534.767919	0.068206
534.983543	0.067976
535.199149	0.068039
535.414736	0.067581
535.630306	0.067332
535.845857	0.067444
536.061390	0.067683
536.276904	0.068243
536.492401	0.069081
536.707879	0.068602
536.923339	0.068840
537.138781	0.068994
537.354204	0.069579
537.569610	0.069668
537.784997	0.069420
538.000366	0.069930
538.215716	0.069365
538.431049	0.069631
538.646363	0.070469
538.861659	0.070780
539.076937	0.071389
539.292196	0.070960
539.507438	0.071349
539.722661	0.071549
539.937866	0.070789
540.153052	0.071122
540.368221	0.070821
540.583371	0.071099
540.798503	0.071141
541.013617	0.071170
541.228712	0.071615
541.443789	0.071441
541.658848	0.071818
541.873889	0.072834
542.088912	0.073339
542.303916	0.073462
542.518902	0.073761
542.733870	0.073792
542.948820	0.073684
543.163752	0.073905
543.378665	0.074321
543.593560	0.074894
543.808437	0.074750
544.023295	0.074761
544.238136	0.075203
544.452958	0.074800
544.667762	0.075173
544.882548	0.075200
545.097315	0.075499
545.312064	0.075398
545.526795	0.075204
545.741508	0.075607
545.956203	0.075657
546.170879	0.075601
546.385537	0.076288
546.600177	0.076287
546.814799	0.076625
547.029402	0.076610
547.243988	0.076850
547.458555	0.076684
547.673103	0.076779
547.887634	0.076773
548.102146	0.076870
548.316640	0.076918
548.531116	0.076979
548.745574	0.076929
548.960013	0.077269
549.174435	0.077761
549.388838	0.078570
549.603222	0.078643
549.817589	0.078864
550.031937	0.079049
550.246267	0.078962
550.460579	0.079122
550.674873	0.078915
550.889148	0.079321
551.103405	0.078962
551.317644	0.078884
551.531865	0.079141
551.746068	0.079440
551.960252	0.079538
552.174418	0.080019
552.388566	0.080473
552.602696	0.080806
552.816807	0.080909
553.030900	0.081048
553.244975	0.081002
553.459032	0.081089
553.673070	0.081076
553.887091	0.081487
554.101093	0.081572
554.315077	0.080917
554.529042	0.081136
554.742990	0.080960
554.956919	0.081481
555.170830	0.081821
555.384722	0.081909
555.598597	0.082170
555.812453	0.082026
556.026291	0.081997
556.240111	0.082298
556.453913	0.082719
556.667696	0.083197
556.881461	0.083285
557.095208	0.083278
557.308937	0.083576
557.522647	0.083900
557.736339	0.084245
557.950013	0.084394
558.163669	0.085193
558.377307	0.085273
558.590926	0.085008
558.804527	0.085080
559.018110	0.085135
559.231675	0.085445
559.445221	0.085360
559.658749	0.085405
559.872259	0.085761
560.085751	0.085836
560.299225	0.085541
560.512680	0.085755
560.726117	0.085299
560.939536	0.085066
561.152937	0.084938
561.366319	0.084943
561.579683	0.085012
561.793029	0.084828
562.006357	0.084720
562.219667	0.085208
562.432958	0.085363
562.646231	0.085677
562.859486	0.086019
563.072723	0.086008
563.285941	0.086188
563.499141	0.086365
563.712323	0.086365
563.925487	0.086661
564.138632	0.086816
564.351760	0.086814
564.564869	0.086977
564.777960	0.087333
564.991032	0.087527
565.204087	0.087792
565.417123	0.087994
565.630141	0.087994
565.843140	0.087771
566.056122	0.087719
566.269085	0.088097
566.482030	0.088165
566.694957	0.088564
566.907866	0.088310
567.120756	0.088301
567.333628	0.088000
567.546482	0.088436
567.759318	0.088730
567.972135	0.088804
568.184935	0.088553
568.397716	0.089002
568.610478	0.088673
568.823223	0.089305
569.035949	0.089483
569.248657	0.089822
569.461347	0.089644
569.674019	0.089693
569.886672	0.090209
570.099308	0.090852
570.311925	0.090935
570.524523	0.090888
570.737104	0.090815
570.949666	0.090635
571.162210	0.090677
571.374736	0.091118
571.587244	0.091207
571.799733	0.091101
572.012205	0.090946
572.224658	0.090728
572.437092	0.091058
572.649509	0.091334
572.861907	0.091617
573.074287	0.092062
573.286649	0.092195
573.498993	0.092610
573.711318	0.092771
573.923625	0.092951
574.135914	0.093301
574.348185	0.093065
574.560438	0.093103
574.772672	0.093345
574.984888	0.093033
575.197086	0.093169
575.409266	0.093046
575.621427	0.093025
575.833570	0.092959
576.045695	0.093045
576.257802	0.093604
576.469890	0.093657
576.681961	0.093667
576.894013	0.093833
577.106046	0.093599
577.318062	0.093614
577.530059	0.093941
577.742039	0.093815
577.954000	0.094280
578.165942	0.094086
578.377867	0.094391
578.589773	0.094221
578.801661	0.094484
579.013531	0.094895
579.225382	0.095522
579.437216	0.095394
579.649031	0.096185
579.860828	0.096074
580.072606	0.096367
580.284367	0.096324
580.496109	0.096812
580.707833	0.097098
580.919539	0.097200
581.131227	0.096992
581.342896	0.097286
581.554547	0.096904
581.766180	0.096998
581.977795	0.096958
582.189391	0.096987
582.400969	0.096899
582.612529	0.097053
582.824071	0.097122
583.035595	0.097400
583.247100	0.097365
583.458587	0.097426
583.670056	0.097606
583.881506	0.097674
584.092939	0.097679
584.304353	0.097995
584.515749	0.097967
584.727127	0.098136
584.938486	0.097810
585.149828	0.097925
585.361151	0.098432
585.572456	0.098294
585.783742	0.098600
585.995011	0.098867
586.206261	0.098977
586.417493	0.098985
586.628706	0.099077
586.839902	0.099474
587.051079	0.099460
587.262238	0.099376
587.473379	0.099881
587.684502	0.099599
587.895606	0.099598
588.106692	0.099675
588.317760	0.099919
588.528810	0.100067
588.739841	0.100151
588.950855	0.100646
589.161850	0.100929
589.372827	0.100955
589.583785	0.101447
589.794726	0.101550
590.005648	0.101452
590.216552	0.101598
590.427437	0.101817
590.638305	0.101932
590.849154	0.101956
591.059985	0.101695
591.270798	0.101768
591.481592	0.102066
591.692369	0.101982
591.903127	0.102089
592.113867	0.102190
592.324588	0.102273
592.535292	0.102176
592.745977	0.102224
592.956644	0.102544
593.167293	0.102776
593.377923	0.102877
593.588536	0.103466
593.799130	0.103986
594.009706	0.103901
594.220263	0.103860
594.430803	0.104180
594.641324	0.104151
594.851827	0.104246
595.062312	0.104534
595.272778	0.104281
595.483227	0.104160
595.693657	0.103753
595.904069	0.103850
596.114462	0.103986
596.324838	0.103678
596.535195	0.103958
596.745534	0.104230
596.955855	0.103899
597.166157	0.103990
597.376441	0.103944
597.586707	0.104257
597.796955	0.104990
598.007185	0.105153
598.217396	0.105601
598.427589	0.105621
598.637764	0.105560
598.847921	0.105627
599.058060	0.105706
599.268180	0.106002
599.478282	0.106288
599.688366	0.105751
599.898431	0.105659
600.108479	0.105801
600.318508	0.105759
600.528519	0.105980
600.738511	0.106012
600.948486	0.106449
601.158442	0.106478
601.368380	0.106507
601.578300	0.106503
601.788202	0.106691
601.998085	0.106365
602.207950	0.106259
602.417797	0.106402
602.627626	0.106706
602.837436	0.106671
603.047228	0.106915
603.257002	0.106868
603.466758	0.107082
603.676496	0.107246
603.886215	0.107382
604.095916	0.107855
604.305599	0.108012
604.515264	0.107907
604.724910	0.108018
604.934538	0.107947
605.144148	0.108081
605.353740	0.108234
605.563314	0.108183
605.772869	0.108543
605.982406	0.108378
606.191925	0.107984
606.401425	0.108195
606.610908	0.108293
606.820372	0.108212
607.029818	0.108471
607.239246	0.108448
607.448655	0.108355
607.658047	0.108454
607.867420	0.108825
608.076775	0.109046
608.286111	0.109040
608.495430	0.108776
608.704730	0.108757
608.914012	0.108713
609.123275	0.108901
609.332521	0.109105
609.541748	0.109257
609.750957	0.109075
609.960148	0.109211
610.169321	0.109350
610.378475	0.109592
610.587611	0.109985
610.796729	0.109848
611.005829	0.109964
611.214910	0.110008
611.423974	0.109725
611.633019	0.109876
611.842045	0.110203
612.051054	0.110228
612.260044	0.110467
612.469017	0.110435
612.677970	0.110566
612.886906	0.110771
613.095824	0.110773
613.304723	0.111202
613.513604	0.111395
613.722467	0.111277
613.931311	0.111203
614.140138	0.110799
614.348946	0.110771
614.557736	0.111222
614.766507	0.111146
614.975261	0.111325
615.183996	0.111288
615.392713	0.111303
615.601412	0.111305
615.810092	0.111692
616.018754	0.112023
616.227399	0.112379
616.436024	0.112283
616.644632	0.112578
616.853222	0.112800
617.061793	0.112940
617.270346	0.113185
617.478880	0.113324
617.687397	0.113421
617.895895	0.113740
618.104375	0.113749
618.312837	0.113867
618.521281	0.113886
618.729706	0.114036
618.938113	0.114140
619.146502	0.113987
619.354873	0.114076
619.563226	0.114378
619.771560	0.114426
619.979876	0.114393
620.188174	0.114424
620.396453	0.114430
620.604715	0.114459
620.812958	0.114661
621.021183	0.114863
621.229390	0.115006
621.437578	0.114722
621.645748	0.114861
621.853900	0.115138
622.062034	0.115212
622.270150	0.115225
622.478247	0.115190
622.686326	0.115082
622.894387	0.115066
623.102430	0.114879
623.310454	0.115065
623.518461	0.115086
623.726449	0.114805
623.934418	0.114832
624.142370	0.115085
624.350303	0.115389
624.558218	0.115604
624.766115	0.115699
624.973994	0.116124
625.181855	0.115889
625.389697	0.116057
625.597521	0.116248
625.805327	0.116431
626.013114	0.116245
626.220883	0.116106
626.428634	0.116083
626.636367	0.116294
626.844082	0.115927
627.051778	0.116502
627.259457	0.116575
627.467117	0.116746
627.674758	0.116892
627.882382	0.117038
628.089987	0.117432
628.297574	0.117676
628.505143	0.117642
628.712694	0.118263
628.920226	0.118254
629.127740	0.118266
629.335236	0.118414
629.542714	0.118405
629.750174	0.118400
629.957615	0.118380
630.165038	0.118342
630.372443	0.118538
630.579829	0.118494
630.787198	0.118539
630.994548	0.118774
631.201880	0.119099
631.409194	0.119450
631.616489	0.119780
631.823766	0.119874
632.031025	0.119879
632.238266	0.120117
632.445489	0.120152
632.652693	0.120034
632.859879	0.120013
633.067047	0.119990
633.274197	0.119701
633.481329	0.119865
633.688442	0.119816
633.895537	0.119881
634.102614	0.119838
634.309672	0.119756
634.516713	0.120038
634.723735	0.120125
634.930739	0.120077
635.137724	0.120424
635.344692	0.120407
635.551641	0.120478
635.758572	0.120818
635.965485	0.120915
636.172379	0.121110
636.379256	0.121049
636.586114	0.121203
636.792954	0.121458
636.999775	0.121448
637.206579	0.121845
637.413364	0.122060
637.620131	0.122111
637.826880	0.122365
638.033610	0.122631
638.240323	0.122950
638.447017	0.123070
638.653692	0.122943
638.860350	0.123146
639.066990	0.123207
639.273611	0.123285
639.480214	0.123271
639.686798	0.123248
639.893365	0.123026
640.099913	0.122829
640.306443	0.122908
640.512955	0.123019
640.719449	0.123066
640.925924	0.122846
641.132381	0.122796
641.338820	0.122969
641.545241	0.123008
641.751644	0.123313
641.958028	0.123465
642.164394	0.123432
642.370742	0.123763
642.577071	0.123855
642.783383	0.124122
642.989676	0.124234
643.195951	0.124288
643.402207	0.124236
643.608446	0.124324
643.814666	0.124686
644.020868	0.124773
644.227052	0.124536
644.433218	0.124365
644.639365	0.124516
644.845494	0.124696
645.051605	0.124816
645.257698	0.124874
645.463772	0.125131
645.669828	0.125138
645.875866	0.125325
646.081886	0.125517
646.287888	0.125829
646.493871	0.125722
646.699836	0.125995
646.905783	0.126325
647.111712	0.126489
647.317622	0.126374
647.523514	0.126362
647.729388	0.126248
647.935244	0.126384
648.141082	0.126449
648.346901	0.126811
648.552702	0.126576
648.758485	0.126397
648.964250	0.126557
649.169996	0.126721
649.375724	0.126838
649.581434	0.127138
649.787126	0.127156
649.992800	0.127312
650.198455	0.127099
650.404092	0.127134
650.609711	0.127272
650.815311	0.127396
651.020894	0.127405
651.226458	0.127710
651.432004	0.127749
651.637532	0.127863
651.843041	0.127919
652.048532	0.128073
652.254006	0.128490
652.459460	0.128563
652.664897	0.128724
652.870315	0.128997
653.075716	0.129000
653.281097	0.129087
653.486461	0.129319
653.691807	0.129474
653.897134	0.129452
654.102443	0.129572
654.307734	0.129886
654.513006	0.129966
654.718261	0.129907
654.923497	0.129890
655.128715	0.130150
655.333915	0.130444
655.539096	0.130595
655.744259	0.130843
655.949404	0.130952
656.154531	0.130814
656.359640	0.131027
656.564730	0.131102
656.769802	0.131207
656.974856	0.131291
657.179892	0.131325
657.384909	0.131346
657.589908	0.131423
657.794889	0.131387
657.999852	0.131569
658.204797	0.131776
658.409723	0.131981
658.614631	0.132222
658.819521	0.132355
659.024393	0.132365
659.229246	0.132616
659.434081	0.132813
659.638898	0.132913
659.843697	0.133054
660.048478	0.133011
660.253240	0.133112
660.457984	0.133118
660.662710	0.133558
660.867417	0.133580
661.072107	0.133522
661.276778	0.133649
661.481431	0.133907
661.686066	0.134112
661.890682	0.134164
662.095281	0.134478
662.299861	0.134961
662.504422	0.134656
662.708966	0.134971
662.913491	0.135220
663.117999	0.135200
663.322488	0.135237
663.526958	0.135307
663.731411	0.135499
663.935845	0.135564
664.140261	0.135612
664.344659	0.135767
664.549038	0.135899
664.753400	0.135981
664.957743	0.136172
665.162068	0.136337
665.366375	0.136775
665.570663	0.136934
665.774933	0.137096
665.979185	0.137134
666.183419	0.137389
666.387635	0.137557
666.591832	0.137669
666.796011	0.138000
667.000172	0.138172
667.204315	0.137851
667.408439	0.137766
667.612545	0.137884
667.816634	0.137980
668.020703	0.137834
668.224755	0.137937
668.428788	0.138136
668.632803	0.138150
668.836800	0.138358
669.040779	0.138710
669.244739	0.139084
669.448681	0.139061
669.652605	0.139236
669.856511	0.139594
670.060399	0.139768
670.264268	0.139826
670.468119	0.139826
670.671952	0.140009
670.875767	0.139880
671.079563	0.140081
671.283341	0.140430
671.487101	0.140693
671.690843	0.140875
671.894567	0.141076
672.098272	0.141318
672.301959	0.141607
672.505628	0.141681
672.709278	0.141911
672.912911	0.141905
673.116525	0.141994
673.320121	0.142027
673.523699	0.142096
673.727258	0.141946
673.930799	0.141940
674.134322	0.141955
674.337827	0.141878
674.541314	0.141992
674.744782	0.142273
674.948232	0.142073
675.151664	0.142000
675.355078	0.141935
675.558474	0.142016
675.761851	0.142325
675.965210	0.142614
676.168551	0.142873
676.371873	0.143083
676.575178	0.143264
676.778464	0.143710
676.981732	0.143877
677.184981	0.144052
677.388213	0.144408
677.591426	0.144412
677.794621	0.144566
677.997798	0.144675
678.200956	0.144884
678.404097	0.145071
678.607219	0.145176
678.810323	0.145250
679.013408	0.145410
679.216476	0.145298
679.419525	0.145400
679.622556	0.145289
679.825569	0.145305
680.028563	0.145159
680.231540	0.145157
680.434498	0.145268
680.637438	0.145381
680.840359	0.145497
681.043263	0.145709
681.246148	0.145738
681.449015	0.146059
681.651864	0.146371
681.854694	0.146684
682.057506	0.146572
682.260301	0.146771
682.463076	0.146953
682.665834	0.147051
682.868573	0.147283
683.071295	0.147544
683.273998	0.147754
683.476682	0.147780
683.679349	0.148049
683.881997	0.148480
684.084627	0.148544
684.287239	0.148858
684.489833	0.149035
684.692408	0.149284
684.894965	0.149372
685.097504	0.149563
685.300025	0.149492
685.502527	0.149402
685.705012	0.149376
685.907478	0.149424
686.109925	0.149388
686.312355	0.149613
686.514766	0.149388
686.717159	0.149578
686.919534	0.149344
687.121891	0.149539
687.324230	0.149680
687.526550	0.149648
687.728852	0.149806
687.931136	0.149795
688.133401	0.149982
688.335649	0.150135
688.537878	0.149987
688.740089	0.150275
688.942281	0.150740
689.144456	0.150870
689.346612	0.151086
689.548750	0.151001
689.750870	0.151139
689.952971	0.151017
690.155055	0.151042
690.357120	0.151467
690.559167	0.151383
690.761195	0.151098
690.963206	0.151070
691.165198	0.151119
691.367172	0.151354
691.569128	0.151525
691.771065	0.151820
691.972984	0.152137
692.174885	0.152096
692.376768	0.152474
692.578633	0.152693
692.780479	0.152898
692.982308	0.152981
693.184118	0.153095
693.385909	0.153199
693.587683	0.153099
693.789438	0.153152
693.991175	0.153281
694.192894	0.153116
694.394595	0.153280
694.596277	0.153249
694.797941	0.153409
694.999587	0.153601
695.201215	0.153881
695.402824	0.154189
695.604416	0.154376
695.805989	0.154204
696.007543	0.154173
696.209080	0.154408
696.410598	0.154865
696.612099	0.154985
696.813580	0.154970
697.015044	0.155148
697.216490	0.155351
697.417917	0.155497
697.619326	0.156143
697.820717	0.156642
698.022089	0.156651
698.223444	0.156662
698.424780	0.156933
698.626098	0.157206
698.827397	0.157155
699.028679	0.157297
699.229942	0.157537
699.431187	0.157388
699.632414	0.157555
699.833622	0.157621
700.034813	0.157881
700.235985	0.157985
700.437139	0.158237
700.638274	0.158428
700.839392	0.158533
701.040491	0.158482
701.241572	0.158561
701.442635	0.158612
701.643679	0.158880
701.844706	0.158734
702.045714	0.158790
702.246704	0.158774
702.447675	0.158852
702.648629	0.158867
702.849564	0.159055
703.050481	0.159271
703.251380	0.159152
703.452260	0.159112
703.653122	0.159219
703.853966	0.159250
704.054792	0.159073
704.255600	0.159003
704.456389	0.158926
704.657160	0.158959
704.857913	0.159082
705.058648	0.159294
705.259365	0.159293
705.460063	0.159363
705.660743	0.159294
705.861405	0.159399
706.062048	0.159442
706.262674	0.159442
706.463281	0.159396
706.663870	0.159492
706.864441	0.159413
707.064993	0.159483
707.265527	0.159374
707.466043	0.159567
707.666541	0.159673
707.867021	0.159666
708.067482	0.159831
708.267925	0.159943
708.468350	0.159857
708.668757	0.160004
708.869145	0.160403
709.069516	0.160807
709.269868	0.160833
709.470201	0.161002
709.670517	0.161356
709.870814	0.161364
710.071093	0.161484
710.271354	0.161679
710.471597	0.161539
710.671821	0.161436
710.872028	0.161399
711.072216	0.161363
711.272385	0.161408
711.472537	0.161297
711.672670	0.161384
711.872785	0.161230
712.072882	0.161232
712.272961	0.161538
712.473021	0.161424
712.673063	0.161409
712.873087	0.161399
713.073093	0.161242
713.273081	0.161247
713.473050	0.161365
713.673001	0.161337
713.872934	0.161163
714.072849	0.161172
714.272745	0.161069
714.472623	0.160847
714.672483	0.160795
714.872325	0.161024
715.072148	0.160954
715.271954	0.160841
715.471741	0.160978
715.671509	0.161146
715.871260	0.161014
716.070992	0.161125
716.270707	0.161296
716.470403	0.161582
716.670080	0.161638
716.869740	0.161570
717.069381	0.161679
717.269004	0.161711
717.468609	0.161668
717.668195	0.161870
717.867764	0.162095
718.067314	0.162039
718.266846	0.161988
718.466360	0.161955
718.665855	0.162229
718.865332	0.162376
719.064791	0.162354
719.264232	0.162349
719.463655	0.162219
719.663059	0.161858
719.862445	0.161982
720.061813	0.162026
720.261163	0.162015
720.460494	0.161939
720.659807	0.161689
720.859102	0.161680
721.058379	0.161691
721.257638	0.161681
721.456878	0.162038
721.656100	0.161986
721.855304	0.162003
722.054490	0.161894
722.253657	0.161776
722.452806	0.161807
722.651937	0.161933
722.851050	0.162008
723.050145	0.162120
723.249221	0.162039
723.448279	0.162204
723.647319	0.162038
723.846340	0.161939
724.045344	0.161938
724.244329	0.161909
724.443296	0.161768
724.642245	0.161657
724.841175	0.161613
725.040088	0.161513
725.238982	0.161482
725.437857	0.161741
725.636715	0.161763
725.835554	0.162051
726.034376	0.162241
726.233179	0.162043
726.431963	0.161951
726.630730	0.161912
726.829478	0.161913
727.028208	0.161803
727.226920	0.161643
727.425614	0.161747
727.624289	0.161550
727.822946	0.161242
728.021585	0.161725
728.220206	0.161750
728.418808	0.161896
728.617392	0.161759
728.815958	0.161757
729.014506	0.161858
729.213036	0.161932
729.411547	0.161910
729.610040	0.162144
729.808515	0.162081
730.006972	0.162218
730.205410	0.162110
730.403831	0.162212
730.602233	0.162181
730.800616	0.162101
730.998982	0.162037
731.197329	0.162002
731.395658	0.162102
731.593969	0.161919
731.792262	0.161843
731.990536	0.161882
732.188793	0.161802
732.387031	0.162009
732.585250	0.162011
732.783452	0.162134
732.981635	0.162163
733.179800	0.162135
733.377947	0.161967
733.576076	0.162080
733.774186	0.161938
733.972278	0.161977
734.170352	0.161943
734.368408	0.161911
734.566446	0.161707
734.764465	0.161881
734.962466	0.161887
735.160449	0.162083
735.358413	0.161972
735.556360	0.161978
735.754288	0.162234
735.952198	0.161997
736.150090	0.161971
736.347963	0.162113
736.545818	0.161984
736.743655	0.161593
736.941474	0.161742
737.139275	0.161850
737.337057	0.162230
737.534821	0.162205
737.732567	0.162437
737.930295	0.162289
738.128005	0.162271
738.325696	0.162344
738.523369	0.162528
738.721024	0.162330
738.918660	0.162186
739.116279	0.161858
739.313879	0.161504
739.511461	0.161212
739.709024	0.161125
739.906570	0.161158
740.104097	0.160937
740.301606	0.160846
740.499097	0.160860
740.696569	0.160647
740.894024	0.160773
741.091460	0.160884
741.288878	0.161023
741.486277	0.161248
741.683659	0.161249
741.881022	0.161693
742.078367	0.161951
742.275694	0.161924
742.473002	0.162336
742.670293	0.162253
742.867565	0.162381
743.064819	0.162621
743.262054	0.162664
743.459272	0.162382
743.656471	0.162260
743.853652	0.162093
744.050815	0.162252
744.247959	0.162125
744.445085	0.161948
744.642194	0.162006
744.839283	0.161993
745.036355	0.161876
745.233408	0.162189
745.430444	0.162025
745.627461	0.161810
745.824459	0.161510
746.021440	0.161712
746.218402	0.161936
746.415346	0.161817
746.612272	0.161510
746.809180	0.161541
747.006069	0.161300
747.202940	0.161104
747.399793	0.161139
747.596628	0.161284
747.793444	0.160899
747.990243	0.160960
748.187023	0.160792
748.383784	0.160964
748.580528	0.160918
748.777253	0.160897
748.973960	0.160914
749.170649	0.160959
749.367320	0.160625
749.563973	0.160757
749.760607	0.160647
749.957223	0.160712
750.153821	0.160405
750.350400	0.160205
750.546962	0.160281
750.743505	0.160200
750.940030	0.159955
751.136536	0.160066
751.333025	0.159774
751.529495	0.159681
751.725947	0.159619
751.922381	0.159664
752.118796	0.159743
752.315194	0.159780
752.511573	0.159783
752.707934	0.160081
752.904276	0.160366
753.100601	0.160492
753.296907	0.160332
753.493195	0.160270
753.689465	0.160210
753.885716	0.160383
754.081949	0.160419
754.278164	0.160554
754.474361	0.160500
754.670540	0.160381
754.866700	0.160519
755.062843	0.160623
755.258967	0.160939
755.455072	0.161022
755.651160	0.160895
755.847229	0.160690
756.043280	0.160761
756.239313	0.160910
756.435328	0.160794
756.631324	0.160729
756.827302	0.160486
757.023262	0.160156
757.219204	0.160355
757.415127	0.160498
757.611033	0.160577
757.806920	0.160566
758.002788	0.160449
758.198639	0.160442
758.394471	0.160673
758.590286	0.160952
758.786081	0.160815
758.981859	0.160626
759.177619	0.160640
759.373360	0.160479
759.569083	0.160278
759.764788	0.160237
759.960474	0.160117
760.156143	0.159693
760.351793	0.159439
760.547425	0.159616
760.743038	0.159504
760.938634	0.159449
761.134211	0.159595
761.329770	0.159417
761.525311	0.159315
761.720833	0.159493
761.916338	0.159461
762.111824	0.159525
762.307292	0.159325
762.502741	0.159316
762.698173	0.159114
762.893586	0.158983
763.088981	0.159103
763.284358	0.159308
763.479716	0.158923
763.675057	0.159006
763.870379	0.158846
764.065683	0.158983
764.260968	0.158852
764.456236	0.158872
764.651485	0.159025
764.846716	0.158884
765.041929	0.158622
765.237123	0.158662
765.432299	0.158717
765.627457	0.158959
765.822597	0.159061
766.017719	0.158780
766.212822	0.158519
766.407907	0.158284
766.602974	0.158355
766.798023	0.158430
766.993054	0.158562
767.188066	0.158587
767.383060	0.158627
767.578036	0.158499
767.772993	0.158806
767.967933	0.159191
768.162854	0.159526
768.357757	0.159587
768.552642	0.159656
768.747508	0.159913
768.942356	0.159780
769.137186	0.159639
769.331998	0.159699
769.526792	0.159940
769.721567	0.159922
769.916324	0.159740
770.111063	0.159734
770.305784	0.159627
770.500486	0.159587
770.695171	0.159730
770.889837	0.159800
771.084484	0.159993
771.279114	0.159983
771.473725	0.159889
771.668318	0.159968
771.862893	0.160186
772.057450	0.160443
772.251988	0.160442
772.446509	0.160427
772.641011	0.160336
772.835494	0.160173
773.029960	0.160048
773.224407	0.160164
773.418836	0.159970
773.613247	0.159866
773.807640	0.159767
774.002014	0.159857
774.196370	0.160018
774.390708	0.160167
774.585028	0.160266
774.779330	0.160367
774.973613	0.160198
775.167878	0.160428
775.362125	0.160496
775.556354	0.160723
775.750564	0.160279
775.944756	0.160333
776.138930	0.160351
776.333086	0.160429
776.527223	0.160432
776.721343	0.160623
776.915444	0.160653
777.109526	0.160676
777.303591	0.160761
777.497637	0.161404
777.691666	0.161211
777.885676	0.161188
778.079667	0.161395
778.273641	0.161630
778.467596	0.161951
778.661533	0.162146
778.855452	0.162362
779.049352	0.162181
779.243235	0.162302
779.437099	0.162510
779.630945	0.162489
779.824773	0.162392
780.018582	0.162331
780.212373	0.162018
780.406146	0.162046
780.599901	0.162001
780.793638	0.161975
780.987356	0.161829
781.181056	0.162119
781.374738	0.162360
781.568402	0.162439
781.762047	0.162574
781.955674	0.162842
782.149283	0.162706
782.342874	0.162712
782.536447	0.162894
782.730001	0.162862
782.923537	0.162677
783.117055	0.162623
783.310555	0.162501
783.504036	0.162834
783.697499	0.162709
783.890944	0.162532
784.084371	0.162432
784.277780	0.162450
784.471170	0.162521
784.664542	0.162623
784.857896	0.162805
785.051231	0.162926
785.244549	0.162715
785.437848	0.162797
785.631129	0.163065
785.824392	0.163433
786.017636	0.163354
786.210863	0.163333
786.404071	0.163403
786.597260	0.163310
786.790432	0.163290
786.983585	0.163100
787.176721	0.163164
787.369838	0.163326
787.562936	0.163164
787.756017	0.163297
787.949079	0.163471
788.142123	0.163327
788.335149	0.163478
788.528156	0.163504
788.721146	0.163386
788.914117	0.163380
789.107070	0.163272
789.300005	0.163328
789.492921	0.163457
789.685819	0.163288
789.878699	0.163444
790.071561	0.163485
790.264405	0.163636
790.457230	0.163971
790.650037	0.164175
790.842826	0.164338
791.035597	0.164476
791.228349	0.164372
791.421084	0.164540
791.613800	0.164574
791.806497	0.164737
791.999177	0.164842
792.191838	0.164959
792.384481	0.164864
792.577106	0.164900
792.769713	0.164895
792.962301	0.165165
793.154871	0.165229
793.347423	0.165209
793.539957	0.165054
793.732473	0.164934
793.924970	0.164942
794.117449	0.164870
794.309910	0.164982
794.502353	0.165054
794.694777	0.165220
794.887183	0.165413
795.079571	0.165642
795.271941	0.165786
795.464293	0.166124
795.656626	0.166279
795.848941	0.166667
796.041238	0.166745
796.233516	0.166883
796.425777	0.166957
796.618019	0.167177
796.810243	0.167426
797.002449	0.167662
797.194636	0.167602
797.386805	0.167847
797.578956	0.167685
797.771089	0.167838
797.963204	0.168006
798.155300	0.167723
798.347378	0.167646
798.539438	0.167554
798.731480	0.167598
798.923503	0.167846
799.115509	0.167775
799.307496	0.168236
799.499465	0.168142
799.691415	0.168104
799.883348	0.168436
800.075262	0.168583
800.267158	0.168553
800.459035	0.168597
800.650895	0.168238
800.842736	0.168187
801.034559	0.167872
801.226364	0.168065
801.418150	0.168353
801.609919	0.168542
801.801669	0.168477
801.993401	0.168520
802.185114	0.168685
802.376810	0.168987
802.568487	0.169312
802.760146	0.169746
802.951787	0.169855
803.143409	0.169792
803.335014	0.170031
803.526600	0.170190
803.718168	0.170159
803.909717	0.170309
804.101249	0.170496
804.292762	0.170514
804.484257	0.170535
804.675734	0.170644
804.867192	0.170848
805.058632	0.170752
805.250054	0.170863
805.441458	0.171272
805.632844	0.171332
805.824211	0.171389
806.015561	0.171301
806.206891	0.171165
806.398204	0.171488
806.589499	0.171521
806.780775	0.171471
806.972033	0.171525
807.163273	0.171539
807.354495	0.171508
807.545698	0.171559
807.736883	0.171722
807.928050	0.172001
808.119199	0.171784
808.310329	0.171835
808.501441	0.172018
808.692535	0.171959
808.883611	0.171959
809.074669	0.172156
809.265708	0.172626
809.456729	0.172824
809.647732	0.173061
809.838717	0.173165
810.029683	0.173199
810.220632	0.173317
810.411562	0.173330
810.602474	0.173572
810.793367	0.173604
810.984242	0.173509
811.175100	0.173470
811.365938	0.173464
811.556759	0.173503
811.747562	0.173713
811.938346	0.173906
812.129112	0.174316
812.319860	0.174107
812.510589	0.174182
812.701300	0.174131
812.891994	0.174153
813.082668	0.174131
813.273325	0.174505
813.463964	0.174574
813.654584	0.174454
813.845186	0.174543
814.035769	0.174939
814.226335	0.175001
814.416882	0.175091
814.607411	0.175501
814.797922	0.175765
814.988415	0.175842
815.178889	0.175794
815.369345	0.175837
815.559783	0.176053
815.750203	0.176086
815.940605	0.176201
816.130988	0.176424
816.321353	0.176325
816.511700	0.176489
816.702028	0.176441
816.892339	0.176819
817.082631	0.176901
817.272905	0.176733
817.463161	0.176710
817.653398	0.176737
817.843617	0.176546
818.033819	0.176775
818.224001	0.176775
818.414166	0.176795
818.604312	0.176672
818.794440	0.177044
818.984550	0.177204
819.174642	0.177145
819.364716	0.176985
819.554771	0.177372
819.744808	0.177175
819.934827	0.177154
820.124827	0.177301
820.314810	0.177433
820.504774	0.177380
820.694720	0.177559
820.884647	0.177976
821.074557	0.178499
821.264448	0.178507
821.454321	0.178838
821.644176	0.178883
821.834012	0.178979
822.023831	0.179256
822.213631	0.179225
822.403413	0.179180
822.593176	0.179148
822.782922	0.179021
822.972649	0.179176
823.162358	0.179012
823.352049	0.179084
823.541721	0.179079
823.731376	0.178900
823.921012	0.179183
824.110629	0.179254
824.300229	0.179556
824.489811	0.179740
824.679374	0.179738
824.868919	0.179817
825.058445	0.180030
825.247954	0.180149
825.437444	0.180351
825.626916	0.180351
825.816370	0.180714
826.005806	0.180606
826.195223	0.180645
826.384622	0.180656
826.574003	0.180875
826.763366	0.181206
826.952711	0.181304
827.142037	0.181421
827.331345	0.181247
827.520635	0.181115
827.709906	0.181223
827.899160	0.181647
828.088395	0.182121
828.277612	0.182092
828.466810	0.181572
828.655991	0.181647
828.845153	0.181517
829.034297	0.181881
829.223423	0.182035
829.412531	0.182384
829.601620	0.182376
829.790691	0.182256
829.979744	0.182877
830.168779	0.183352
830.357795	0.183495
830.546793	0.183805
830.735773	0.183939
830.924735	0.183982
831.113679	0.183958
831.302604	0.183791
831.491511	0.183969
831.680400	0.183726
831.869271	0.183796
832.058123	0.183766
832.246957	0.183941
832.435773	0.184091
832.624571	0.184264
832.813351	0.184173
833.002112	0.184180
833.190855	0.184010
833.379580	0.184250
833.568287	0.184298
833.756975	0.184628
833.945645	0.184547
834.134297	0.184447
834.322931	0.184622
834.511547	0.184924
834.700144	0.185339
834.888723	0.185476
835.077284	0.185547
835.265826	0.185367
835.454351	0.185510
835.642857	0.185517
835.831345	0.185580
836.019815	0.185396
836.208266	0.185185
836.396699	0.185380
836.585114	0.185438
836.773511	0.185348
836.961890	0.185905
837.150250	0.185870
837.338592	0.186078
837.526916	0.186063
837.715222	0.186435
837.903510	0.186833
838.091779	0.186664
838.280030	0.187173
838.468263	0.187473
838.656477	0.187534
838.844674	0.187377
839.032852	0.187414
839.221012	0.188013
839.409153	0.188027
839.597277	0.188090
839.785382	0.188097
839.973469	0.188048
840.161538	0.187851
840.349589	0.187414
840.537621	0.187583
840.725635	0.187760
840.913631	0.187482
841.101609	0.187449
841.289568	0.187438
841.477509	0.187423
841.665432	0.187071
841.853337	0.187168
842.041224	0.187780
842.229092	0.187957
842.416942	0.187973
842.604774	0.188083
842.792588	0.188160
842.980383	0.188083
843.168160	0.188208
843.355919	0.188567
843.543660	0.188637
843.731382	0.188429
843.919087	0.188674
844.106773	0.188716
844.294441	0.188783
844.482090	0.188819
844.669722	0.189084
844.857335	0.189105
845.044930	0.189284
845.232507	0.189344
845.420065	0.189670
845.607605	0.189412
845.795127	0.189282
845.982631	0.189311
846.170117	0.189447
846.357584	0.189442
846.545033	0.189757
846.732464	0.189570
846.919877	0.189718
847.107272	0.189641
847.294648	0.189999
847.482006	0.190296
847.669346	0.190405
847.856667	0.190425
848.043971	0.190664
848.231256	0.190833
848.418523	0.190860
848.605771	0.190887
848.793002	0.190720
848.980214	0.190702
849.167408	0.190752
849.354584	0.191063
849.541742	0.191284
849.728881	0.190870
849.916002	0.190878
850.103105	0.190979
850.290190	0.191161
850.477256	0.191356
850.664304	0.191361
850.851334	0.191545
851.038346	0.191210
851.225340	0.191354
851.412315	0.191688
851.599272	0.191465
851.786211	0.191683
851.973132	0.191888
852.160034	0.191822
852.346918	0.191675
852.533784	0.191337
852.720632	0.191447
852.907462	0.191155
853.094273	0.191101
853.281066	0.191420
853.467841	0.191303
853.654598	0.191051
853.841336	0.191191
854.028056	0.191261
854.214758	0.191302
854.401442	0.191289
854.588107	0.191253
854.774755	0.191587
854.961384	0.191332
855.147995	0.191358
855.334587	0.191318
855.521162	0.191301
855.707718	0.191337
855.894256	0.191605
856.080775	0.191874
856.267277	0.191751
856.453760	0.191273
856.640225	0.191667
856.826672	0.191534
857.013101	0.191892
857.199511	0.192178
857.385903	0.192335
857.572277	0.192341
857.758633	0.192147
857.944970	0.192663
858.131290	0.193204
858.317591	0.193260
858.503873	0.193793
858.690138	0.193472
858.876384	0.193638
859.062612	0.193916
859.248822	0.194002
859.435014	0.194150
859.621188	0.194031
859.807343	0.193621
859.993480	0.193606
860.179599	0.193416
860.365699	0.193676
860.551781	0.193187
860.737846	0.193191
860.923891	0.192935
861.109919	0.192984
861.295929	0.192863
861.481920	0.192814
861.667893	0.192527
861.853848	0.192691
862.039784	0.192605
862.225702	0.192639
862.411603	0.192641
862.597484	0.192788
862.783348	0.192656
862.969193	0.192586
863.155021	0.193118
863.340830	0.193251
863.526620	0.193109
863.712393	0.193089
863.898147	0.193271
864.083883	0.192768
864.269601	0.192974
864.455301	0.192881
864.640982	0.193058
864.826645	0.192904
865.012290	0.192748
865.197917	0.192864
865.383526	0.193074
865.569116	0.193176
865.754688	0.193323
865.940242	0.193222
866.125777	0.193331
866.311295	0.193742
866.496794	0.193647
866.682275	0.193841
866.867737	0.193223
867.053182	0.193146
867.238608	0.193324
867.424016	0.193450
867.609406	0.193588
867.794778	0.194048
867.980131	0.193718
868.165466	0.193398
868.350783	0.193300
868.536082	0.193880
868.721362	0.194056
868.906625	0.193462
869.091869	0.193512
869.277094	0.193291
869.462302	0.192766
869.647491	0.192656
869.832662	0.193064
870.017815	0.193118
870.202950	0.193168
870.388066	0.192720
870.573165	0.192741
870.758245	0.192746
870.943306	0.192915
871.128350	0.193257
871.313375	0.193795
871.498382	0.193707
871.683371	0.193694
871.868342	0.193671
872.053294	0.194059
872.238229	0.194479
872.423144	0.194717
872.608042	0.194811
872.792922	0.194583
872.977783	0.193976
873.162626	0.193880
873.347451	0.193946
873.532258	0.193666
873.717046	0.193486
873.901816	0.193684
874.086568	0.193368
874.271302	0.192836
874.456017	0.192896
874.640715	0.192784
874.825394	0.192768
875.010055	0.192834
875.194697	0.193166
875.379322	0.192986
875.563928	0.192435
875.748516	0.191944
875.933085	0.192106
876.117637	0.191990
876.302170	0.192059
876.486685	0.192257
876.671182	0.192149
876.855661	0.191792
877.040121	0.191986
877.224563	0.192069
877.408987	0.192694
877.593393	0.192574
877.777780	0.192744
877.962150	0.192707
878.146501	0.192363
878.330833	0.192163
878.515148	0.191995
878.699444	0.191433
878.883722	0.191499
879.067982	0.191552
879.252224	0.191671
879.436447	0.191279
879.620653	0.191362
879.804840	0.191507
879.989008	0.191138
880.173159	0.191103
880.357291	0.191112
880.541405	0.191051
880.725501	0.190420
880.909579	0.190119
881.093638	0.190121
881.277680	0.189701
881.461703	0.189517
881.645707	0.189667
881.829694	0.189534
882.013662	0.189743
882.197612	0.189535
882.381544	0.189729
882.565458	0.190145
882.749353	0.190230
882.933230	0.190484
883.117089	0.190239
883.300930	0.190249
883.484753	0.190410
883.668557	0.190660
883.852343	0.190510
884.036111	0.190313
884.219861	0.189959
884.403592	0.189899
884.587305	0.189664
884.771000	0.189828
884.954677	0.190041
885.138335	0.189915
885.321976	0.189687
885.505598	0.189782
885.689201	0.189547
885.872787	0.189622
886.056354	0.189557
886.239904	0.189822
886.423434	0.189591
886.606947	0.189156
886.790442	0.189575
886.973918	0.189199
887.157376	0.189050
887.340816	0.189387
887.524237	0.189523
887.707641	0.189158
887.891026	0.189021
888.074393	0.188856
888.257741	0.189081
888.441072	0.188363
888.624384	0.188486
888.807678	0.188657
888.990954	0.188662
889.174211	0.188329
889.357451	0.188616
889.540672	0.188211
889.723875	0.188040
889.907059	0.188137
890.090226	0.188176
890.273374	0.187965
890.456504	0.187689
890.639616	0.187323
890.822709	0.187001
891.005785	0.186536
891.188842	0.186525
891.371881	0.186430
891.554901	0.186000
891.737904	0.185787
891.920888	0.185967
892.103854	0.185662
892.286802	0.185347
892.469731	0.185675
892.652643	0.185511
892.835536	0.184984
893.018410	0.185147
893.201267	0.184585
893.384106	0.184413
893.566926	0.183709
893.749728	0.183707
893.932511	0.183666
894.115277	0.182942
894.298024	0.182668
894.480753	0.182897
894.663464	0.182604
894.846157	0.182350
895.028831	0.182346
895.211487	0.182607
895.394125	0.182015
895.576745	0.182166
895.759346	0.182008
895.941930	0.181992
896.124495	0.181806
896.307041	0.181631
896.489570	0.181989
896.672080	0.181724
896.854573	0.181514
897.037046	0.181797
897.219502	0.181355
897.401940	0.181587
897.584359	0.181402
897.766760	0.181157
897.949143	0.180902
898.131507	0.180254
898.313854	0.179972
898.496182	0.179603
898.678492	0.179307
898.860783	0.178840
899.043057	0.178329
899.225312	0.178033
899.407549	0.177899
899.589768	0.178071
899.771968	0.178366
899.954151	0.178080
900.136315	0.177982
900.318461	0.177581
900.500588	0.177843
900.682698	0.177354
900.864789	0.177229
901.046862	0.176894
901.228917	0.176613
901.410953	0.176182
901.592971	0.176131
901.774972	0.175795
901.956953	0.175629
902.138917	0.175069
902.320862	0.175272
902.502790	0.175240
902.684699	0.175265
902.866589	0.174867
903.048462	0.174828
903.230316	0.174845
903.412152	0.174741
903.593970	0.174435
903.775770	0.174387
903.957551	0.173959
904.139314	0.173496
904.321059	0.173109
904.502786	0.173034
904.684494	0.172439
904.866185	0.171961
905.047857	0.171657
905.229510	0.171939
905.411146	0.171601
905.592763	0.171613
905.774363	0.171459
905.955943	0.171604
906.137506	0.171273
906.319051	0.171243
906.500577	0.170998
906.682085	0.170889
906.863575	0.170165
907.045046	0.170296
907.226500	0.169766
907.407935	0.169739
907.589352	0.168965
907.770750	0.168740
907.952131	0.168441
908.133493	0.168421
908.314837	0.168518
908.496163	0.168424
908.677470	0.168397
908.858760	0.168651
909.040031	0.168528
909.221284	0.168647
909.402518	0.168532
909.583735	0.168275
909.764933	0.168135
909.946113	0.167522
910.127275	0.167787
910.308418	0.167057
910.489544	0.166647
910.670651	0.166469
910.851740	0.166106
911.032810	0.165739
911.213863	0.165226
911.394897	0.164635
911.575913	0.164052
911.756911	0.163094
911.937890	0.162784
912.118851	0.162449
912.299794	0.162300
912.480719	0.161804
912.661626	0.161355
912.842514	0.161659
913.023384	0.161324
913.204236	0.161302
913.385070	0.161053
913.565886	0.160751
913.746683	0.160404
913.927462	0.159276
914.108223	0.159107
914.288965	0.158526
914.469690	0.157884
914.650396	0.157715
914.831084	0.157791
915.011754	0.157848
915.192405	0.157184
915.373038	0.156968
915.553653	0.157091
915.734250	0.157072
915.914829	0.156953
916.095389	0.156854
916.275931	0.156404
916.456455	0.155722
916.636961	0.155218
916.817448	0.155882
916.997917	0.155695
917.178368	0.155207
917.358801	0.154560
917.539216	0.154453
917.719612	0.154083
917.899990	0.153817
918.080350	0.153138
918.260692	0.153148
918.441015	0.152387
918.621320	0.151808
918.801607	0.152052
918.981876	0.151825
919.162127	0.152041
919.342359	0.151446
919.522573	0.151308
919.702769	0.151539
919.882947	0.150925
920.063106	0.150256
920.243247	0.150525
920.423370	0.150224
920.603475	0.149412
920.783562	0.148575
920.963630	0.148542
921.143680	0.147517
921.323712	0.146874
921.503725	0.146414
921.683721	0.146254
921.863698	0.145328
922.043657	0.144466
922.223598	0.144690
922.403520	0.144357
922.583424	0.143866
922.763311	0.143876
922.943178	0.143684
923.123028	0.143751
923.302859	0.143706
923.482673	0.143353
923.662467	0.143503
923.842244	0.143254
924.022003	0.142811
924.201743	0.142828
924.381465	0.142573
924.561169	0.142116
924.740854	0.141004
924.920522	0.140533
925.100171	0.140389
925.279802	0.139882
925.459414	0.139278
925.639009	0.139003
925.818585	0.138100
925.998143	0.138120
926.177683	0.137699
926.357205	0.137983
926.536708	0.137913
926.716193	0.137372
926.895660	0.136218
927.075109	0.135479
927.254539	0.134399
927.433951	0.133973
927.613345	0.133139
927.792721	0.133057
927.972079	0.132604
928.151418	0.131399
928.330739	0.131136
928.510042	0.130910
928.689327	0.130500
928.868593	0.130393
929.047841	0.129932
929.227071	0.129257
929.406283	0.128385
929.585476	0.127687
929.764652	0.127544
929.943809	0.127261
930.122948	0.126927
930.302068	0.127149
930.481171	0.126949
930.660255	0.126131
930.839321	0.126253
931.018369	0.125179
931.197398	0.124534
931.376409	0.123892
931.555402	0.122753
931.734377	0.122394
931.913334	0.121342
932.092272	0.121013
932.271192	0.121364
932.450094	0.121118
932.628978	0.121231
932.807844	0.120600
932.986691	0.120333
933.165520	0.120500
933.344331	0.119716
933.523123	0.118847
933.701898	0.118385
933.880654	0.117162
934.059392	0.115939
934.238111	0.115406
934.416813	0.115571
934.595496	0.115360
934.774161	0.114624
934.952808	0.114401
935.131437	0.114571
935.310047	0.114125
935.488639	0.114394
935.667213	0.114218
935.845769	0.114394
936.024306	0.113169
936.202825	0.112205
936.381326	0.111923
936.559809	0.111615
936.738274	0.111258
936.916720	0.110313
937.095148	0.110255
937.273558	0.109890
937.451950	0.109155
937.630323	0.108986
937.808678	0.108982
937.987015	0.107453
938.165334	0.106626
938.343635	0.105728
938.521917	0.105590
938.700181	0.104332
938.878427	0.104338
939.056655	0.103566
939.234864	0.103993
939.413055	0.103378
939.591228	0.103935
939.769383	0.104001
939.947519	0.103640
940.125638	0.103430
940.303738	0.102888
940.481820	0.101100
940.659883	0.100353
940.837929	0.098825
941.015956	0.098357
941.193965	0.098214
941.371955	0.098066
941.549928	0.098251
941.727882	0.097968
941.905818	0.097919
942.083736	0.098114
942.261636	0.097998
942.439517	0.098954
942.617380	0.098119
942.795225	0.097122
942.973052	0.095271
943.150860	0.093910
943.328651	0.092394
943.506423	0.091795
943.684176	0.091263
943.861912	0.090270
944.039629	0.088609
944.217328	0.088102
944.395009	0.087293
944.572672	0.087031
944.750317	0.086842
944.927943	0.086217
945.105551	0.084776
945.283141	0.083666
945.460712	0.083726
945.638265	0.084190
945.815801	0.083598
945.993317	0.082216
946.170816	0.082431
946.348297	0.081552
946.525759	0.081744
946.703203	0.082200
946.880629	0.082042
947.058036	0.081291
947.235425	0.080349
947.412797	0.078524
947.590149	0.078870
947.767484	0.078907
947.944800	0.077929
948.122099	0.076121
948.299379	0.075228
948.476640	0.074323
948.653884	0.074677
948.831109	0.074244
949.008316	0.073852
949.185505	0.072296
949.362676	0.070517
949.539828	0.070939
949.716962	0.072565
949.894078	0.071020
950.071176	0.070586
950.248256	0.069953
950.425317	0.069786
950.602360	0.070803
950.779385	0.071839
950.956391	0.070493
951.133380	0.070103
951.310350	0.069042
951.487302	0.069946
951.664235	0.069997
951.841151	0.069747
952.018048	0.068335
952.194927	0.067942
952.371788	0.067249
952.548631	0.067844
952.725455	0.065976
952.902261	0.064158
953.079049	0.065090
953.255819	0.064528
953.432570	0.063526
953.609303	0.063832
953.786018	0.063608
953.962715	0.063696
954.139394	0.062224
954.316054	0.063845
954.492696	0.064165
954.669320	0.063090
954.845926	0.062910
955.022513	0.061538
955.199083	0.059361
955.375634	0.058530
955.552166	0.056728
955.728681	0.057003
955.905177	0.056444
956.081655	0.055866
956.258115	0.055904
956.434557	0.054543
956.610980	0.055051
956.787385	0.056767
956.963772	0.055447
957.140141	0.058058
957.316492	0.056541
957.492824	0.056292
957.669138	0.057130
957.845434	0.054895
958.021712	0.055435
958.197971	0.055575
958.374212	0.055098
958.550435	0.057541
958.726640	0.054938
958.902826	0.057167
959.078995	0.057070
959.255145	0.056487
959.431277	0.057354
959.607390	0.057343
959.783486	0.057172
959.959563	0.057029
960.135622	0.055471
960.311662	0.056926
960.487685	0.058172
960.663689	0.058380
960.839675	0.058961
961.015643	0.057891
961.191593	0.058974
961.367524	0.060507
961.543437	0.056878
961.719332	0.057136
961.895209	0.055337
962.071067	0.052179
962.246907	0.048844
962.422730	0.048817
962.598533	0.049963
962.774319	0.049404
962.950086	0.046415
963.125835	0.048755
963.301566	0.047145
963.477279	0.045993
963.652973	0.048529
963.828650	0.051080
964.004308	0.049534
964.179947	0.049650
964.355569	0.050599
964.531172	0.050062
964.706757	0.051987
964.882324	0.051134
965.057873	0.052952
965.233403	0.051909
965.408916	0.051521
965.584410	0.050936
965.759885	0.049751
965.935343	0.048082
966.110782	0.050998
966.286203	0.049601
966.461606	0.050501
966.636991	0.050214
966.812357	0.050929
966.987705	0.049421
967.163035	0.052265
967.338347	0.052280
967.513641	0.051897
967.688916	0.049849
967.864173	0.048608
968.039412	0.050340
968.214632	0.049954
968.389835	0.048764
968.565019	0.050008
968.740185	0.046568
968.915333	0.046100
969.090462	0.046399
969.265573	0.046311
969.440667	0.044630
969.615741	0.043001
969.790798	0.042362
969.965836	0.041598
970.140856	0.042048
970.315858	0.044644
970.490842	0.045471
970.665808	0.046500
970.840755	0.045721
971.015684	0.045926
971.190595	0.046730
971.365487	0.046474
971.540362	0.046266
971.715218	0.047008
971.890056	0.045354
972.064875	0.044641
972.239677	0.043208
972.414460	0.043543
972.589225	0.047259
972.763972	0.047730
972.938700	0.048451
973.113411	0.049940
973.288103	0.048972
973.462777	0.049965
973.637432	0.051425
973.812070	0.054443
973.986689	0.054376
974.161290	0.053289
974.335873	0.054401
974.510437	0.053912
974.684984	0.052836
974.859512	0.051754
975.034022	0.051730
975.208513	0.051723
975.382987	0.049796
975.557442	0.051767
975.731879	0.050981
975.906298	0.050477
976.080698	0.050962
976.255080	0.051949
976.429445	0.054687
976.603790	0.056128
976.778118	0.054255
976.952427	0.054208
977.126719	0.052723
977.300992	0.052478
977.475246	0.052289
977.649483	0.050707
977.823701	0.051787
977.997901	0.048783
978.172083	0.048391
978.346247	0.049090
978.520392	0.049809
978.694519	0.049847
978.868628	0.050947
979.042719	0.049445
979.216791	0.051245
979.390845	0.049836
979.564882	0.049851
979.738899	0.049097
979.912899	0.047017
980.086880	0.045462
980.260843	0.045967
980.434788	0.044500
980.608715	0.044455
980.782623	0.042277
980.956514	0.041319
981.130386	0.041748
981.304240	0.039607
981.478075	0.038288
981.651892	0.037866
981.825692	0.036450
981.999472	0.037021
982.173235	0.037539
982.346980	0.039750
982.520706	0.039672
982.694414	0.039962
982.868104	0.040792
983.041775	0.043023
983.215428	0.043757
983.389064	0.045711
983.562680	0.046950
983.736279	0.044985
983.909860	0.043778
984.083422	0.042203
984.256966	0.042714
984.430491	0.043358
984.603999	0.044824
984.777488	0.043173
984.950959	0.042210
985.124412	0.041377
985.297847	0.041773
985.471263	0.042924
985.644661	0.044959
985.818041	0.044459
985.991403	0.043388
986.164747	0.044002
986.338072	0.046228
986.511379	0.045421
986.684668	0.044232
986.857938	0.045628
987.031191	0.045506
987.204425	0.044196
987.377641	0.044229
987.550839	0.046214
987.724018	0.046729
987.897179	0.048395
988.070322	0.049598
988.243447	0.050038
988.416554	0.048325
988.589642	0.046944
988.762712	0.048306
988.935764	0.048371
989.108798	0.045057
989.281813	0.043755
989.454811	0.041655
989.627790	0.039530
989.800751	0.036452
989.973693	0.036461
990.146617	0.037850
990.319524	0.038158
990.492412	0.037817
990.665281	0.041436
990.838133	0.041039
991.010966	0.040357
991.183781	0.042045
991.356578	0.044504
991.529356	0.046573
991.702117	0.047481
991.874859	0.047063
992.047583	0.046212
992.220288	0.045013
992.392976	0.043114
992.565645	0.043190
992.738296	0.041993
992.910929	0.042468
993.083543	0.043112
993.256139	0.041048
993.428718	0.041830
993.601277	0.041887
993.773819	0.041185
993.946342	0.042524
994.118848	0.043813
994.291335	0.044893
994.463803	0.044707
994.636254	0.043339
994.808686	0.044512
994.981100	0.043412
995.153496	0.042787
995.325874	0.043057
995.498233	0.043593
995.670574	0.043242
995.842897	0.041904
996.015202	0.041576
996.187488	0.040507
996.359757	0.040109
996.532007	0.040267
996.704239	0.041995
996.876452	0.041401
997.048648	0.042074
997.220825	0.042060
997.392984	0.043378
997.565124	0.044117
997.737247	0.044836
997.909351	0.045280
998.081437	0.044262
998.253505	0.044487
998.425554	0.045541
998.597586	0.043941
998.769599	0.043987
998.941594	0.044190
999.113571	0.045681
999.285529	0.045037
999.457469	0.044513
999.629391	0.043975
999.801295	0.044758
999.973181	0.043217
1000.145048	0.043783
1000.316897	0.043588
1000.488728	0.042735
1000.660541	0.041710
1000.832335	0.042034
1001.004111	0.041058
1001.175869	0.041500
1001.347609	0.039117
1001.519331	0.039512
1001.691034	0.040437
1001.862719	0.039682
1002.034386	0.041566
1002.206035	0.041281
1002.377665	0.042579
1002.549277	0.043745
1002.720871	0.044691
1002.892447	0.046131
1003.064004	0.045979
1003.235544	0.046339
1003.407065	0.045917
1003.578568	0.043959
1003.750052	0.043719
1003.921519	0.044615
1004.092967	0.042648
1004.264397	0.042353
1004.435809	0.043036
1004.607202	0.043036
1004.778577	0.042256
1004.949934	0.040534
1005.121273	0.040511
1005.292594	0.038842
1005.463896	0.035333
1005.635180	0.035652
1005.806446	0.034485
1005.977694	0.032774
1006.148923	0.035336
1006.320135	0.034569
1006.491328	0.035333
1006.662503	0.035061
1006.833659	0.036734
1007.004798	0.037581
1007.175918	0.038367
1007.347020	0.038438
1007.518103	0.038569
1007.689169	0.036364
1007.860216	0.036687
1008.031245	0.037829
1008.202256	0.038679
1008.373248	0.038720
1008.544223	0.039622
1008.715179	0.041359
1008.886117	0.041398
1009.057036	0.041847
1009.227938	0.042181
1009.398821	0.042112
1009.569686	0.041868
1009.740533	0.038786
1009.911361	0.037818
1010.082172	0.038130
1010.252964	0.034919
1010.423738	0.035838
1010.594493	0.035458
1010.765231	0.035807
1010.935950	0.035716
1011.106651	0.037140
1011.277334	0.039631
1011.447998	0.038970
1011.618645	0.039056
1011.789273	0.040692
1011.959882	0.040862
1012.130474	0.040766
1012.301048	0.039424
1012.471603	0.039824
1012.642140	0.038779
1012.812658	0.038731
1012.983159	0.039721
1013.153641	0.038967
1013.324105	0.039134
1013.494551	0.038882
1013.664979	0.039194
1013.835388	0.038899
1014.005779	0.038237
1014.176152	0.038452
1014.346507	0.038980
1014.516843	0.038720
1014.687162	0.038852
1014.857462	0.039126
1015.027744	0.040549
1015.198007	0.041241
1015.368252	0.041457
1015.538480	0.041490
1015.708689	0.041489
1015.878879	0.041438
1016.049052	0.041942
1016.219206	0.042455
1016.389342	0.041383
1016.559460	0.039636
1016.729559	0.038897
1016.899641	0.039621
1017.069704	0.040506
1017.239749	0.041119
1017.409775	0.039036
1017.579784	0.040199
1017.749774	0.040073
1017.919746	0.040908
1018.089700	0.040527
1018.259635	0.039982
1018.429553	0.041311
1018.599452	0.039656
1018.769333	0.037582
1018.939195	0.039268
1019.109040	0.037870
1019.278866	0.037541
1019.448674	0.034976
1019.618464	0.036872
1019.788235	0.036425
1019.957989	0.035724
1020.127724	0.035093
1020.297441	0.035627
1020.467139	0.035703
1020.636820	0.034562
1020.806482	0.035081
1020.976126	0.037420
1021.145752	0.035867
1021.315359	0.036835
1021.484948	0.037786
1021.654519	0.039056
1021.824072	0.039346
1021.993607	0.039691
1022.163123	0.040244
1022.332621	0.040648
1022.502101	0.040530
1022.671563	0.042504
1022.841007	0.041474
1023.010432	0.038364
1023.179839	0.038256
1023.349228	0.038108
1023.518598	0.037220
1023.687951	0.037100
1023.857285	0.036667
1024.026601	0.036408
1024.195899	0.033298
1024.365178	0.035154
1024.534439	0.035308
1024.703682	0.034976
1024.872907	0.033732
1025.042114	0.033792
1025.211302	0.034385
1025.380472	0.033223
1025.549624	0.031425
1025.718758	0.031272
1025.887873	0.030795
1026.056970	0.030934
1026.226049	0.031743
1026.395110	0.033441
1026.564153	0.032018
1026.733177	0.033742
1026.902183	0.034637
1027.071171	0.037932
1027.240141	0.039464
1027.409092	0.039165
1027.578026	0.040049
1027.746940	0.038991
1027.915837	0.037174
1028.084716	0.039287
1028.253576	0.037003
1028.422418	0.035201
1028.591242	0.033127
1028.760048	0.033778
1028.928835	0.033989
1029.097604	0.034285
1029.266355	0.035243
1029.435088	0.036902
1029.603803	0.034693
1029.772499	0.034608
1029.941177	0.035499
1030.109837	0.034856
1030.278478	0.034487
1030.447102	0.033513
1030.615707	0.033032
1030.784294	0.032643
1030.952863	0.032037
1031.121413	0.033820
1031.289945	0.034276
1031.458460	0.033819
1031.626955	0.034191
1031.795433	0.034522
1031.963892	0.035004
1032.132334	0.034695
1032.300756	0.034292
1032.469161	0.032672
1032.637548	0.031991
1032.805916	0.033204
1032.974266	0.034443
1033.142598	0.034323
1033.310911	0.033104
1033.479207	0.033702
1033.647484	0.034426
1033.815743	0.034333
1033.983983	0.038139
1034.152206	0.037567
1034.320410	0.034993
1034.488596	0.034986
1034.656764	0.037163
1034.824914	0.037816
1034.993045	0.036750
1035.161158	0.036532
1035.329253	0.037826
1035.497330	0.036639
1035.665388	0.037354
1035.833428	0.039560
1036.001450	0.039281
1036.169454	0.037654
1036.337440	0.037480
1036.505407	0.038047
1036.673356	0.037928
1036.841287	0.036938
1037.009200	0.037335
1037.177094	0.037732
1037.344970	0.035482
1037.512828	0.036161
1037.680668	0.035258
1037.848489	0.033870
1038.016293	0.032816
1038.184078	0.032067
1038.351845	0.031676
1038.519593	0.031796
1038.687324	0.030582
1038.855036	0.032353
1039.022730	0.032312
1039.190406	0.033192
1039.358063	0.035357
1039.525702	0.035825
1039.693323	0.036774
1039.860926	0.038219
1040.028511	0.036957
1040.196077	0.038084
1040.363625	0.037570
1040.531155	0.036100
1040.698667	0.037579
1040.866161	0.036640
1041.033636	0.036141
1041.201093	0.036303
1041.368532	0.035819
1041.535952	0.036494
1041.703355	0.036785
1041.870739	0.036462
1042.038105	0.037206
1042.205452	0.037029
1042.372782	0.039103
1042.540093	0.040473
1042.707386	0.039520
1042.874661	0.038839
1043.041918	0.038101
1043.209156	0.038137
1043.376376	0.038575
1043.543578	0.038187
1043.710762	0.038549
1043.877927	0.036822
1044.045074	0.036883
1044.212203	0.039264
1044.379314	0.040540
1044.546407	0.040633
1044.713481	0.041788
1044.880537	0.040605
1045.047575	0.041533
1045.214595	0.040560
1045.381596	0.040022
1045.548579	0.039408
1045.715544	0.036652
1045.882491	0.037524
1046.049420	0.037825
1046.216330	0.035707
1046.383222	0.034963
1046.550096	0.034812
1046.716951	0.034738
1046.883789	0.035206
1047.050608	0.034933
1047.217409	0.036743
1047.384192	0.036008
1047.550956	0.034623
1047.717703	0.034304
1047.884431	0.036379
1048.051140	0.035355
1048.217832	0.034891
1048.384505	0.034654
1048.551161	0.035079
1048.717798	0.035066
1048.884416	0.033373
1049.051017	0.034999
1049.217599	0.035429
1049.384163	0.035163
1049.550709	0.035676
1049.717237	0.036746
1049.883746	0.036304
1050.050237	0.036169
1050.216710	0.034890
1050.383165	0.035033
1050.549601	0.035048
1050.716019	0.035433
1050.882420	0.035431
1051.048801	0.035827
1051.215165	0.035616
1051.381510	0.037371
1051.547837	0.035535
1051.714146	0.035867
1051.880437	0.036735
1052.046709	0.037018
1052.212964	0.039156
1052.379200	0.038843
1052.545417	0.041088
1052.711617	0.040345
1052.877798	0.038439
1053.043961	0.041250
1053.210106	0.043279
1053.376233	0.043163
1053.542341	0.041693
1053.708432	0.039846
1053.874504	0.039351
1054.040557	0.036623
1054.206593	0.038227
1054.372610	0.040042
1054.538609	0.038400
1054.704590	0.036589
1054.870553	0.037674
1055.036497	0.039637
1055.202424	0.039508
1055.368331	0.039800
1055.534221	0.039171
1055.700093	0.036333
1055.865946	0.036120
1056.031781	0.037562
1056.197598	0.038533
1056.363397	0.038399
1056.529177	0.037705
1056.694939	0.037729
1056.860683	0.037651
1057.026409	0.038465
1057.192116	0.039612
1057.357806	0.038045
1057.523477	0.036032
1057.689130	0.034626
1057.854764	0.033291
1058.020381	0.033177
1058.185979	0.033149
1058.351559	0.032402
1058.517120	0.033272
1058.682664	0.035236
1058.848189	0.037424
1059.013696	0.039798
1059.179185	0.041371
1059.344656	0.041509
1059.510108	0.040391
1059.675542	0.039484
1059.840958	0.039234
1060.006356	0.038391
1060.171735	0.037103
1060.337096	0.036464
1060.502439	0.036762
1060.667764	0.034162
1060.833071	0.035818
1060.998359	0.035301
1061.163629	0.034749
1061.328881	0.037500
1061.494115	0.037349
1061.659330	0.037403
1061.824527	0.036802
1061.989706	0.035216
1062.154867	0.035583
1062.320010	0.033322
1062.485134	0.036139
1062.650240	0.037486
1062.815328	0.036611
1062.980398	0.038632
1063.145449	0.037477
1063.310482	0.036694
1063.475497	0.036720
1063.640494	0.039807
1063.805473	0.041725
1063.970433	0.039437
1064.135375	0.041499
1064.300299	0.041775
1064.465204	0.040935
1064.630092	0.041067
1064.794961	0.041410
1064.959812	0.042039
1065.124645	0.039394
1065.289459	0.039175
1065.454256	0.040884
1065.619034	0.038179
1065.783793	0.037517
1065.948535	0.035609
1066.113258	0.036632
1066.277964	0.037109
1066.442651	0.037266
1066.607319	0.038472
1066.771970	0.037080
1066.936602	0.036621
1067.101216	0.039414
1067.265812	0.041312
1067.430389	0.041041
1067.594949	0.040678
1067.759490	0.041318
1067.924013	0.039971
1068.088518	0.038745
1068.253004	0.039470
1068.417472	0.038909
1068.581922	0.037198
1068.746354	0.035544
1068.910768	0.035697
1069.075163	0.035069
1069.239540	0.034294
1069.403899	0.036120
1069.568240	0.036494
1069.732562	0.037602
1069.896866	0.036776
1070.061152	0.037532
1070.225420	0.038072
1070.389670	0.038101
1070.553901	0.038369
1070.718114	0.041497
1070.882309	0.039146
1071.046486	0.038473
1071.210644	0.036559
1071.374784	0.038073
1071.538906	0.038910
1071.703010	0.039834
1071.867096	0.040622
1072.031163	0.041266
1072.195212	0.038270
1072.359243	0.040383
1072.523256	0.040517
1072.687250	0.041549
1072.851226	0.040722
1073.015184	0.037978
1073.179124	0.036113
1073.343045	0.037374
1073.506949	0.038136
1073.670834	0.038974
1073.834701	0.038636
1073.998549	0.038963
1074.162380	0.037973
1074.326192	0.037976
1074.489986	0.040219
1074.653761	0.040797
1074.817519	0.040854
1074.981258	0.041604
1075.144979	0.039809
1075.308682	0.037251
1075.472367	0.036831
1075.636033	0.039607
1075.799681	0.040052
1075.963311	0.038828
1076.126923	0.040022
1076.290516	0.039683
1076.454092	0.037818
1076.617649	0.039801
1076.781187	0.041116
1076.944708	0.040877
1077.108210	0.037471
1077.271695	0.037748
1077.435160	0.038579
1077.598608	0.041267
1077.762038	0.041844
1077.925449	0.045430
1078.088842	0.045115
1078.252217	0.047497
1078.415573	0.048768
1078.578912	0.051525
1078.742232	0.050878
1078.905534	0.049199
1079.068817	0.047112
1079.232083	0.044788
1079.395330	0.040335
1079.558559	0.041352
1079.721770	0.039725
1079.884962	0.043257
1080.048136	0.042577
1080.211293	0.043114
1080.374430	0.043546
1080.537550	0.040816
1080.700651	0.044324
1080.863735	0.046232
1081.026800	0.044606
1081.189846	0.046436
1081.352875	0.045044
1081.515885	0.046330
1081.678877	0.048384
1081.841851	0.051748
1082.004807	0.053421
1082.167744	0.050158
1082.330663	0.051263
1082.493564	0.053291
1082.656447	0.051680
1082.819312	0.049797
1082.982158	0.048075
1083.144986	0.044732
1083.307796	0.042310
1083.470587	0.042698
1083.633361	0.045035
1083.796116	0.044409
1083.958853	0.044351
1084.121571	0.045681
1084.284272	0.044985
1084.446954	0.044619
1084.609618	0.046490
1084.772264	0.047428
1084.934892	0.048010
1085.097501	0.047427
1085.260092	0.046292
1085.422665	0.044185
1085.585220	0.043032
1085.747756	0.045777
1085.910274	0.043730
1086.072774	0.044798
1086.235256	0.044686
1086.397720	0.044858
1086.560165	0.045271
1086.722592	0.048782
1086.885001	0.048755
1087.047392	0.050829
1087.209764	0.048621
1087.372119	0.051979
1087.534455	0.051627
1087.696772	0.050674
1087.859072	0.048646
1088.021353	0.046938
1088.183616	0.042942
1088.345861	0.044999
1088.508088	0.044598
1088.670296	0.046461
1088.832486	0.047166
1088.994658	0.045937
1089.156812	0.047505
1089.318948	0.050284
1089.481065	0.051705
1089.643164	0.053426
1089.805245	0.050326
1089.967308	0.050930
1090.129352	0.049215
1090.291378	0.050328
1090.453386	0.049201
1090.615376	0.048727
1090.777347	0.047503
1090.939301	0.046889
1091.101236	0.045630
1091.263153	0.048455
1091.425051	0.046212
1091.586932	0.046860
1091.748794	0.045313
1091.910638	0.047538
1092.072463	0.048779
1092.234271	0.047511
1092.396060	0.048518
1092.557831	0.050177
1092.719584	0.050474
1092.881319	0.050689
1093.043035	0.052021
1093.204733	0.052478
1093.366413	0.051675
1093.528075	0.051377
1093.689718	0.054317
1093.851343	0.054041
1094.012950	0.052562
1094.174539	0.047409
1094.336110	0.050428
1094.497662	0.047731
1094.659196	0.048655
1094.820712	0.049168
1094.982210	0.048476
1095.143689	0.044341
1095.305151	0.042826
1095.466594	0.043999
1095.628018	0.047436
1095.789425	0.046436
1095.950813	0.046241
1096.112183	0.043868
1096.273535	0.042719
1096.434869	0.041436
1096.596184	0.044265
1096.757482	0.045458
1096.918761	0.046143
1097.080021	0.047970
1097.241264	0.046120
1097.402488	0.046856
1097.563694	0.046779
1097.724882	0.047135
1097.886052	0.049739
1098.047203	0.048378
1098.208336	0.048200
1098.369451	0.043657
1098.530548	0.040969
1098.691627	0.040697
1098.852687	0.044050
1099.013729	0.043024
1099.174753	0.044950
1099.335758	0.044688
1099.496746	0.047165
1099.657715	0.048106
1099.818666	0.053542
1099.979599	0.055222
1100.140513	0.056182
1100.301409	0.055378
1100.462287	0.055630
1100.623147	0.055084
1100.783989	0.054024
1100.944812	0.051192
1101.105617	0.052998
1101.266404	0.052410
1101.427173	0.053053
1101.587923	0.052972
1101.748656	0.052325
1101.909370	0.054494
1102.070066	0.058926
1102.230743	0.059893
1102.391403	0.061730
1102.552044	0.060238
1102.712667	0.059209
1102.873271	0.058957
1103.033858	0.058673
1103.194426	0.058137
1103.354976	0.059601
1103.515508	0.053667
1103.676021	0.051288
1103.836517	0.052488
1103.996994	0.052156
1104.157453	0.052773
1104.317893	0.052154
1104.478316	0.052509
1104.638720	0.050189
1104.799106	0.047160
1104.959474	0.048088
1105.119823	0.049328
1105.280155	0.048540
1105.440468	0.048971
1105.600763	0.049194
1105.761039	0.052220
1105.921298	0.053801
1106.081538	0.053367
1106.241760	0.055115
1106.401964	0.054837
1106.562149	0.058923
1106.722316	0.061019
1106.882465	0.060738
1107.042596	0.060196
1107.202709	0.058588
1107.362803	0.061293
1107.522879	0.060473
1107.682937	0.058493
1107.842977	0.058883
1108.002999	0.055461
1108.163002	0.053612
1108.322987	0.055008
1108.482954	0.056681
1108.642902	0.055023
1108.802833	0.053179
1108.962745	0.056707
1109.122639	0.058332
1109.282515	0.058533
1109.442372	0.059334
1109.602211	0.060963
1109.762032	0.061731
1109.921835	0.063232
1110.081620	0.065783
1110.241386	0.063385
1110.401134	0.065262
1110.560864	0.064963
1110.720576	0.065748
1110.880269	0.063248
1111.039945	0.060497
1111.199602	0.061587
1111.359240	0.059691
1111.518861	0.059244
1111.678463	0.058715
1111.838047	0.059370
1111.997613	0.059369
1112.157161	0.057642
1112.316690	0.057765
1112.476202	0.058645
1112.635695	0.055642
1112.795169	0.058472
1112.954626	0.057448
1113.114064	0.060941
1113.273484	0.056221
1113.432886	0.057535
1113.592270	0.061246
1113.751635	0.062161
1113.910983	0.058736
1114.070312	0.058829
1114.229622	0.058823
1114.388915	0.062126
1114.548189	0.058432
1114.707445	0.061086
1114.866683	0.058742
1115.025903	0.058438
1115.185104	0.057927
1115.344287	0.059880
1115.503452	0.062279
1115.662599	0.057793
1115.821727	0.057206
1115.980838	0.057554
1116.139930	0.060727
1116.299004	0.057793
1116.458059	0.055800
1116.617097	0.058210
1116.776116	0.058793
1116.935117	0.058080
1117.094099	0.056997
1117.253064	0.056740
1117.412010	0.056879
1117.570938	0.054663
1117.729848	0.060163
1117.888740	0.064692
1118.047613	0.066533
1118.206468	0.067517
1118.365305	0.067555
1118.524124	0.067843
1118.682924	0.068912
1118.841707	0.071191
1119.000471	0.071356
1119.159216	0.072124
1119.317944	0.071698
1119.476653	0.069725
1119.635344	0.072990
1119.794017	0.070761
1119.952672	0.073145
1120.111308	0.069180
1120.269927	0.070077
1120.428527	0.070124
1120.587108	0.065251
1120.745672	0.059700
1120.904217	0.056489
1121.062744	0.055330
1121.221253	0.057940
1121.379744	0.056067
1121.538216	0.057164
1121.696671	0.053826
1121.855107	0.053887
1122.013524	0.061104
1122.171924	0.063916
1122.330305	0.067403
1122.488668	0.065808
1122.647013	0.064989
1122.805340	0.067365
1122.963648	0.074816
1123.121938	0.077451
1123.280210	0.076197
1123.438464	0.070715
1123.596700	0.062919
1123.754917	0.060076
1123.913116	0.058618
1124.071297	0.060868
1124.229459	0.058672
1124.387604	0.050707
1124.545730	0.053272
1124.703838	0.056521
1124.861928	0.059858
1125.019999	0.066849
1125.178052	0.068360
1125.336088	0.071653
1125.494104	0.068085
1125.652103	0.064426
1125.810083	0.068801
1125.968045	0.066715
1126.125989	0.064630
1126.283915	0.062757
1126.441823	0.058614
1126.599712	0.059929
1126.757583	0.058579
1126.915436	0.057897
1127.073270	0.063928
1127.231087	0.059662
1127.388885	0.062657
1127.546665	0.064395
1127.704426	0.066632
1127.862170	0.069714
1128.019895	0.071993
1128.177602	0.074942
1128.335291	0.074740
1128.492961	0.072262
1128.650614	0.072573
1128.808248	0.064142
1128.965864	0.061233
1129.123461	0.063425
1129.281041	0.063970
1129.438602	0.064601
1129.596145	0.058991
1129.753670	0.060996
1129.911176	0.062249
1130.068665	0.066264
1130.226135	0.067645
1130.383587	0.069779
1130.541020	0.066348
1130.698436	0.068788
1130.855833	0.066143
1131.013212	0.063209
1131.170573	0.063760
1131.327915	0.072011
1131.485239	0.066926
1131.642545	0.068968
1131.799833	0.071066
1131.957103	0.069435
1132.114354	0.065230
1132.271588	0.065339
1132.428803	0.072871
1132.585999	0.072577
1132.743178	0.065235
1132.900338	0.067433
1133.057480	0.068523
1133.214604	0.061632
1133.371710	0.063408
1133.528797	0.064684
1133.685866	0.063680
1133.842917	0.057515
1133.999950	0.055424
1134.156964	0.049961
1134.313960	0.046410
1134.470938	0.052739
1134.627898	0.059791
1134.784840	0.058483
1134.941763	0.060195
1135.098668	0.057719
1135.255555	0.066208
1135.412424	0.072042
1135.569274	0.078971
1135.726107	0.083992
1135.882921	0.078168
1136.039716	0.073969
1136.196494	0.071983
1136.353253	0.078614
1136.509995	0.081615
1136.666717	0.079737
1136.823422	0.071734
1136.980109	0.069147
1137.136777	0.064504
1137.293427	0.066717
1137.450059	0.067228
1137.606672	0.074179
1137.763267	0.063410
1137.919844	0.062337
1138.076403	0.058993
1138.232944	0.062444
1138.389466	0.065229
1138.545971	0.063310
1138.702457	0.057043
1138.858924	0.055791
1139.015374	0.055296
1139.171805	0.060369
1139.328218	0.060309
1139.484613	0.058213
1139.640990	0.060425
1139.797348	0.059867
1139.953688	0.068581
1140.110010	0.071293
1140.266314	0.070947
1140.422600	0.063399
1140.578867	0.058589
1140.735116	0.057251
1140.891347	0.054935
1141.047559	0.052880
1141.203754	0.053969
1141.359930	0.046761
1141.516088	0.051588
1141.672228	0.055022
1141.828349	0.060685
1141.984452	0.070516
1142.140537	0.071449
1142.296604	0.075247
1142.452653	0.078363
1142.608683	0.067706
1142.764695	0.069865
1142.920689	0.064362
1143.076665	0.061636
1143.232622	0.067496
1143.388562	0.064365
1143.544483	0.068111
1143.700385	0.066542
1143.856270	0.061637
1144.012136	0.069808
1144.167985	0.072612
1144.323814	0.070455
1144.479626	0.075036
1144.635420	0.072483
1144.791195	0.065587
1144.946952	0.066555
1145.102691	0.068338
1145.258411	0.071701
1145.414113	0.073644
1145.569798	0.070949
1145.725463	0.074954
1145.881111	0.078385
1146.036741	0.076300
1146.192352	0.083533
1146.347945	0.075256
1146.503519	0.080263
1146.659076	0.070374
1146.814614	0.070122
1146.970134	0.075104
1147.125636	0.078678
1147.281120	0.069446
1147.436585	0.068953
1147.592032	0.065334
1147.747461	0.078633
1147.902872	0.079769
1148.058265	0.086871
1148.213639	0.081375
1148.368995	0.084387
1148.524333	0.082323
1148.679653	0.087243
1148.834954	0.085999
1148.990237	0.090253
1149.145502	0.082070
1149.300749	0.078957
1149.455977	0.079791
1149.611188	0.084078
1149.766380	0.083357
1149.921553	0.079567
1150.076709	0.075845
1150.231846	0.076455
1150.386966	0.071990
1150.542066	0.073331
1150.697149	0.065056
1150.852214	0.068048
1151.007260	0.071311
1151.162288	0.070783
1151.317298	0.072693
1151.472289	0.077876
1151.627263	0.077987
1151.782218	0.073150
1151.937155	0.070890
1152.092073	0.080123
1152.246974	0.075419
1152.401856	0.075986
1152.556720	0.070430
1152.711566	0.074369
1152.866393	0.073487
1153.021203	0.076460
1153.175994	0.089655
1153.330767	0.089107
1153.485521	0.086950
1153.640258	0.089288
1153.794976	0.094140
1153.949676	0.097923
1154.104358	0.104336
1154.259021	0.111473
1154.413667	0.108824
1154.568294	0.094467
1154.722903	0.095289
1154.877493	0.097205
1155.032066	0.095159
1155.186620	0.088257
1155.341156	0.081607
1155.495674	0.075048
1155.650173	0.068104
1155.804654	0.061538
1155.959118	0.063022
1156.113562	0.062294
1156.267989	0.064433
1156.422397	0.069184
1156.576788	0.071639
1156.731160	0.070864
1156.885513	0.059151
1157.039849	0.058422
1157.194166	0.058846
1157.348465	0.063330
1157.502746	0.068014
1157.657009	0.059546
1157.811253	0.057915
1157.965479	0.059204
1158.119687	0.068177
1158.273877	0.075738
1158.428048	0.079099
1158.582201	0.085576
1158.736337	0.083127
1158.890453	0.083563
1159.044552	0.087672
1159.198632	0.091954
1159.352694	0.089986
1159.506738	0.076161
1159.660764	0.074462
1159.814771	0.078440
1159.968761	0.076346
1160.122732	0.083791
1160.276685	0.080824
1160.430619	0.089042
1160.584535	0.083255
1160.738434	0.084606
1160.892313	0.088937
1161.046175	0.095106
1161.200019	0.082088
1161.353844	0.091124
1161.507651	0.085114
1161.661440	0.082713
1161.815210	0.083639
1161.968962	0.090917
1162.122697	0.079294
1162.276412	0.080587
1162.430110	0.080555
1162.583789	0.079868
1162.737451	0.062166
1162.891094	0.064123
1163.044718	0.069540
1163.198325	0.059498
1163.351913	0.059192
1163.505483	0.065518
1163.659035	0.080607
1163.812569	0.069830
1163.966084	0.078944
1164.119581	0.091109
1164.273060	0.087567
1164.426521	0.080772
1164.579964	0.081865
1164.733388	0.078443
1164.886794	0.086476
1165.040182	0.073496
1165.193551	0.086406
1165.346903	0.084551
1165.500236	0.075877
1165.653551	0.078119
1165.806848	0.075742
1165.960126	0.076107
1166.113386	0.078484
1166.266628	0.066486
1166.419852	0.075100
1166.573058	0.071425
1166.726245	0.072271
1166.879414	0.078350
1167.032565	0.083012
1167.185698	0.084130
1167.338812	0.081194
1167.491909	0.068661
1167.644987	0.073858
1167.798046	0.068277
1167.951088	0.060027
1168.104111	0.056006
1168.257117	0.052845
1168.410103	0.053627
1168.563072	0.067390
1168.716023	0.077578
1168.868955	0.083727
1169.021869	0.085698
1169.174765	0.087505
1169.327642	0.091824
1169.480501	0.092360
1169.633343	0.097114
1169.786165	0.097866
1169.938970	0.079656
1170.091757	0.080332
1170.244525	0.087606
1170.397275	0.090381
1170.550007	0.097605
1170.702720	0.095919
1170.855415	0.105200
1171.008092	0.112391
1171.160751	0.115516
1171.313392	0.131413
1171.466014	0.167222
1171.618619	0.139800
1171.771205	0.139800
1171.923772	0.139800
