sample name	sample
index	1463
start time	 05-10-2021  02:01:38 PM


Wavelength (nm)	Absorbance
494.344910	-0.048115
494.563924	-0.048115
494.782919	-0.048115
495.001897	0.003802
495.220856	-0.032134
495.439797	-0.030652
495.658719	-0.029944
495.877624	-0.025294
496.096510	-0.030638
496.315378	-0.019127
496.534227	-0.008605
496.753059	-0.005749
496.971872	-0.006210
497.190667	0.046262
497.409444	0.076425
497.628203	0.086240
497.846943	0.088822
498.065665	0.092654
498.284369	0.095470
498.503055	0.097853
498.721723	0.098890
498.940372	0.099271
499.159003	0.099733
499.377616	0.099794
499.596210	0.100653
499.814787	0.102402
500.033345	0.103115
500.251885	0.103401
500.470406	0.104031
500.688910	0.104181
500.907395	0.103954
501.125862	0.103841
501.344311	0.103414
501.562742	0.103048
501.781154	0.102597
501.999548	0.101910
502.217924	0.101776
502.436282	0.101561
502.654621	0.102045
502.872942	0.102714
503.091245	0.103319
503.309530	0.103924
503.527797	0.104998
503.746045	0.104972
503.964275	0.105085
504.182487	0.104015
504.400681	0.103955
504.618856	0.104162
504.837013	0.104193
505.055152	0.104199
505.273273	0.103615
505.491376	0.103156
505.709460	0.102755
505.927526	0.103594
506.145574	0.104591
506.363604	0.103719
506.581615	0.103618
506.799608	0.102820
507.017583	0.103436
507.235540	0.103765
507.453478	0.103801
507.671399	0.104850
507.889301	0.104160
508.107185	0.104833
508.325050	0.106291
508.542898	0.106753
508.760727	0.108055
508.978538	0.106998
509.196330	0.107670
509.414105	0.108261
509.631861	0.108470
509.849599	0.109277
510.067319	0.109688
510.285021	0.109657
510.502704	0.109362
510.720369	0.109602
510.938016	0.110343
511.155645	0.110031
511.373255	0.109041
511.590848	0.108422
511.808422	0.108200
512.025977	0.107454
512.243515	0.107763
512.461034	0.107320
512.678536	0.106888
512.896018	0.106612
513.113483	0.106188
513.330930	0.106649
513.548358	0.107169
513.765768	0.106549
513.983160	0.107189
514.200533	0.106411
514.417889	0.107288
514.635226	0.107710
514.852545	0.108171
515.069845	0.108818
515.287128	0.110037
515.504392	0.110483
515.721638	0.112690
515.938866	0.112111
516.156075	0.112706
516.373267	0.113814
516.590440	0.113830
516.807594	0.114489
517.024731	0.114797
517.241850	0.114377
517.458950	0.114401
517.676032	0.113419
517.893095	0.114133
518.110141	0.114607
518.327168	0.113618
518.544177	0.114013
518.761168	0.114050
518.978141	0.114613
519.195095	0.114181
519.412031	0.114771
519.628949	0.115042
519.845849	0.115057
520.062731	0.115552
520.279594	0.116176
520.496439	0.116371
520.713266	0.116530
520.930074	0.117611
521.146865	0.118649
521.363637	0.118192
521.580391	0.119179
521.797127	0.119907
522.013844	0.120655
522.230543	0.121083
522.447224	0.121182
522.663887	0.121310
522.880532	0.121250
523.097158	0.120682
523.313766	0.121431
523.530356	0.120981
523.746928	0.121266
523.963481	0.120630
524.180017	0.120959
524.396534	0.121272
524.613032	0.121563
524.829513	0.120892
525.045975	0.121874
525.262420	0.121549
525.478845	0.121853
525.695253	0.121822
525.911643	0.122016
526.128014	0.122408
526.344367	0.123007
526.560702	0.123179
526.777018	0.123237
526.993316	0.123480
527.209597	0.124008
527.425858	0.124770
527.642102	0.125259
527.858328	0.125618
528.074535	0.125907
528.290724	0.125806
528.506894	0.126832
528.723047	0.127578
528.939181	0.127469
529.155297	0.127735
529.371395	0.127568
529.587475	0.127675
529.803536	0.127678
530.019579	0.127405
530.235604	0.128078
530.451611	0.127390
530.667600	0.127827
530.883570	0.127839
531.099522	0.127733
531.315456	0.128525
531.531372	0.128578
531.747269	0.128989
531.963148	0.130029
532.179009	0.129850
532.394852	0.130539
532.610676	0.130768
532.826482	0.131220
533.042271	0.131850
533.258040	0.131651
533.473792	0.132022
533.689525	0.132038
533.905240	0.131555
534.120937	0.132238
534.336616	0.132282
534.552277	0.132562
534.767919	0.133536
534.983543	0.133793
535.199149	0.134114
535.414736	0.134100
535.630306	0.134728
535.845857	0.135132
536.061390	0.135069
536.276904	0.135376
536.492401	0.135379
536.707879	0.135059
536.923339	0.135569
537.138781	0.136106
537.354204	0.137368
537.569610	0.137731
537.784997	0.138328
538.000366	0.139047
538.215716	0.139407
538.431049	0.139763
538.646363	0.140094
538.861659	0.140124
539.076937	0.140024
539.292196	0.139724
539.507438	0.139779
539.722661	0.140058
539.937866	0.140105
540.153052	0.140384
540.368221	0.140769
540.583371	0.140977
540.798503	0.141598
541.013617	0.141742
541.228712	0.141703
541.443789	0.141846
541.658848	0.141632
541.873889	0.142136
542.088912	0.142288
542.303916	0.142919
542.518902	0.143155
542.733870	0.143208
542.948820	0.143768
543.163752	0.144393
543.378665	0.144763
543.593560	0.145287
543.808437	0.145016
544.023295	0.145553
544.238136	0.145426
544.452958	0.145685
544.667762	0.145882
544.882548	0.146228
545.097315	0.145549
545.312064	0.145717
545.526795	0.145984
545.741508	0.146182
545.956203	0.146450
546.170879	0.146541
546.385537	0.146768
546.600177	0.146908
546.814799	0.146817
547.029402	0.147649
547.243988	0.147785
547.458555	0.147793
547.673103	0.148225
547.887634	0.148484
548.102146	0.148428
548.316640	0.148832
548.531116	0.148932
548.745574	0.149299
548.960013	0.149548
549.174435	0.150189
549.388838	0.150605
549.603222	0.150874
549.817589	0.150852
550.031937	0.151308
550.246267	0.151598
550.460579	0.152498
550.674873	0.152787
550.889148	0.153306
551.103405	0.153295
551.317644	0.153511
551.531865	0.153702
551.746068	0.154038
551.960252	0.154535
552.174418	0.154099
552.388566	0.153549
552.602696	0.153410
552.816807	0.153481
553.030900	0.153323
553.244975	0.153555
553.459032	0.153547
553.673070	0.153483
553.887091	0.153452
554.101093	0.153679
554.315077	0.154002
554.529042	0.154040
554.742990	0.154319
554.956919	0.154752
555.170830	0.154440
555.384722	0.154650
555.598597	0.154740
555.812453	0.154648
556.026291	0.154970
556.240111	0.155416
556.453913	0.155643
556.667696	0.155212
556.881461	0.155514
557.095208	0.155774
557.308937	0.155978
557.522647	0.156523
557.736339	0.156567
557.950013	0.156422
558.163669	0.156056
558.377307	0.156110
558.590926	0.156082
558.804527	0.155784
559.018110	0.155705
559.231675	0.155779
559.445221	0.155449
559.658749	0.155434
559.872259	0.156137
560.085751	0.156596
560.299225	0.156856
560.512680	0.157265
560.726117	0.157599
560.939536	0.157847
561.152937	0.157377
561.366319	0.157302
561.579683	0.157390
561.793029	0.157221
562.006357	0.157130
562.219667	0.157426
562.432958	0.157202
562.646231	0.157145
562.859486	0.157546
563.072723	0.158342
563.285941	0.158653
563.499141	0.159021
563.712323	0.158836
563.925487	0.159214
564.138632	0.158714
564.351760	0.159281
564.564869	0.159582
564.777960	0.159410
564.991032	0.159560
565.204087	0.159348
565.417123	0.159643
565.630141	0.160264
565.843140	0.160128
566.056122	0.160800
566.269085	0.160854
566.482030	0.160926
566.694957	0.161206
566.907866	0.161233
567.120756	0.161594
567.333628	0.161428
567.546482	0.161040
567.759318	0.161341
567.972135	0.161169
568.184935	0.161254
568.397716	0.161331
568.610478	0.161176
568.823223	0.161220
569.035949	0.161683
569.248657	0.161694
569.461347	0.162515
569.674019	0.162508
569.886672	0.162522
570.099308	0.162634
570.311925	0.162434
570.524523	0.162717
570.737104	0.162742
570.949666	0.162603
571.162210	0.163279
571.374736	0.162856
571.587244	0.162833
571.799733	0.163214
572.012205	0.163462
572.224658	0.164179
572.437092	0.164380
572.649509	0.164288
572.861907	0.164537
573.074287	0.164003
573.286649	0.164259
573.498993	0.164408
573.711318	0.164345
573.923625	0.164669
574.135914	0.164421
574.348185	0.164773
574.560438	0.165070
574.772672	0.165142
574.984888	0.165777
575.197086	0.165999
575.409266	0.166478
575.621427	0.166681
575.833570	0.166460
576.045695	0.166453
576.257802	0.166235
576.469890	0.165930
576.681961	0.165830
576.894013	0.165644
577.106046	0.165571
577.318062	0.165128
577.530059	0.165122
577.742039	0.165086
577.954000	0.165316
578.165942	0.165638
578.377867	0.166472
578.589773	0.166246
578.801661	0.166673
579.013531	0.166835
579.225382	0.167192
579.437216	0.167577
579.649031	0.167820
579.860828	0.168307
580.072606	0.167875
580.284367	0.167573
580.496109	0.168306
580.707833	0.168118
580.919539	0.168071
581.131227	0.168217
581.342896	0.168384
581.554547	0.168369
581.766180	0.168361
581.977795	0.168522
582.189391	0.168880
582.400969	0.168788
582.612529	0.169130
582.824071	0.169545
583.035595	0.169617
583.247100	0.169614
583.458587	0.170000
583.670056	0.169915
583.881506	0.170877
584.092939	0.170976
584.304353	0.171534
584.515749	0.171603
584.727127	0.171460
584.938486	0.171521
585.149828	0.171493
585.361151	0.171609
585.572456	0.172125
585.783742	0.172062
585.995011	0.172276
586.206261	0.172024
586.417493	0.172280
586.628706	0.172447
586.839902	0.172546
587.051079	0.172914
587.262238	0.172881
587.473379	0.172796
587.684502	0.172753
587.895606	0.172751
588.106692	0.173328
588.317760	0.173157
588.528810	0.173644
588.739841	0.173859
588.950855	0.174069
589.161850	0.174313
589.372827	0.174541
589.583785	0.174514
589.794726	0.174975
590.005648	0.174662
590.216552	0.175033
590.427437	0.175136
590.638305	0.175315
590.849154	0.175555
591.059985	0.175779
591.270798	0.175795
591.481592	0.175867
591.692369	0.175833
591.903127	0.176664
592.113867	0.176746
592.324588	0.176996
592.535292	0.177264
592.745977	0.177233
592.956644	0.177144
593.167293	0.177067
593.377923	0.177305
593.588536	0.177213
593.799130	0.176714
594.009706	0.177068
594.220263	0.177177
594.430803	0.177266
594.641324	0.177373
594.851827	0.177695
595.062312	0.177599
595.272778	0.177879
595.483227	0.178056
595.693657	0.178274
595.904069	0.178103
596.114462	0.178301
596.324838	0.178664
596.535195	0.178737
596.745534	0.179103
596.955855	0.179754
597.166157	0.179676
597.376441	0.179917
597.586707	0.180117
597.796955	0.180440
598.007185	0.180146
598.217396	0.180326
598.427589	0.180564
598.637764	0.180533
598.847921	0.180367
599.058060	0.180709
599.268180	0.180900
599.478282	0.180987
599.688366	0.180905
599.898431	0.181413
600.108479	0.181458
600.318508	0.181445
600.528519	0.181526
600.738511	0.181800
600.948486	0.181857
601.158442	0.182065
601.368380	0.182379
601.578300	0.183059
601.788202	0.183198
601.998085	0.182802
602.207950	0.183301
602.417797	0.183590
602.627626	0.183678
602.837436	0.183876
603.047228	0.183843
603.257002	0.184131
603.466758	0.183833
603.676496	0.184038
603.886215	0.184581
604.095916	0.184364
604.305599	0.184341
604.515264	0.184861
604.724910	0.184941
604.934538	0.185420
605.144148	0.185340
605.353740	0.185478
605.563314	0.185571
605.772869	0.185782
605.982406	0.186151
606.191925	0.186165
606.401425	0.186106
606.610908	0.186340
606.820372	0.186234
607.029818	0.186274
607.239246	0.186508
607.448655	0.186805
607.658047	0.187124
607.867420	0.187436
608.076775	0.188138
608.286111	0.188105
608.495430	0.188386
608.704730	0.188531
608.914012	0.188626
609.123275	0.189008
609.332521	0.189069
609.541748	0.189286
609.750957	0.189194
609.960148	0.189206
610.169321	0.189504
610.378475	0.189539
610.587611	0.189786
610.796729	0.190015
611.005829	0.189724
611.214910	0.189893
611.423974	0.189531
611.633019	0.189718
611.842045	0.189898
612.051054	0.190263
612.260044	0.190356
612.469017	0.190465
612.677970	0.190638
612.886906	0.191109
613.095824	0.191172
613.304723	0.191625
613.513604	0.191889
613.722467	0.191981
613.931311	0.192047
614.140138	0.192353
614.348946	0.192436
614.557736	0.192654
614.766507	0.192819
614.975261	0.192897
615.183996	0.192872
615.392713	0.193043
615.601412	0.193217
615.810092	0.193542
616.018754	0.193610
616.227399	0.193602
616.436024	0.193805
616.644632	0.194016
616.853222	0.194211
617.061793	0.194552
617.270346	0.194685
617.478880	0.194631
617.687397	0.194593
617.895895	0.194870
618.104375	0.195634
618.312837	0.195911
618.521281	0.195648
618.729706	0.195713
618.938113	0.195795
619.146502	0.195956
619.354873	0.196155
619.563226	0.196256
619.771560	0.196417
619.979876	0.195950
620.188174	0.195911
620.396453	0.196235
620.604715	0.196267
620.812958	0.196124
621.021183	0.196092
621.229390	0.196063
621.437578	0.195956
621.645748	0.195747
621.853900	0.195975
622.062034	0.195955
622.270150	0.196102
622.478247	0.196400
622.686326	0.196695
622.894387	0.197101
623.102430	0.197244
623.310454	0.197341
623.518461	0.197354
623.726449	0.197474
623.934418	0.197575
624.142370	0.197760
624.350303	0.197588
624.558218	0.197690
624.766115	0.197501
624.973994	0.197739
625.181855	0.198142
625.389697	0.198554
625.597521	0.198480
625.805327	0.198532
626.013114	0.198370
626.220883	0.198627
626.428634	0.199020
626.636367	0.199057
626.844082	0.199266
627.051778	0.199452
627.259457	0.199581
627.467117	0.199607
627.674758	0.199707
627.882382	0.199755
628.089987	0.199775
628.297574	0.199824
628.505143	0.200141
628.712694	0.200218
628.920226	0.200030
629.127740	0.200110
629.335236	0.200721
629.542714	0.201055
629.750174	0.201634
629.957615	0.202018
630.165038	0.201899
630.372443	0.201632
630.579829	0.201850
630.787198	0.202086
630.994548	0.201884
631.201880	0.201869
631.409194	0.202018
631.616489	0.202069
631.823766	0.201909
632.031025	0.202268
632.238266	0.202685
632.445489	0.202583
632.652693	0.202794
632.859879	0.203351
633.067047	0.203507
633.274197	0.203696
633.481329	0.203902
633.688442	0.204121
633.895537	0.204284
634.102614	0.204428
634.309672	0.204442
634.516713	0.204678
634.723735	0.204705
634.930739	0.204878
635.137724	0.204597
635.344692	0.204526
635.551641	0.204899
635.758572	0.204989
635.965485	0.205423
636.172379	0.205628
636.379256	0.205763
636.586114	0.206035
636.792954	0.205939
636.999775	0.206291
637.206579	0.206610
637.413364	0.206784
637.620131	0.206891
637.826880	0.206602
638.033610	0.207015
638.240323	0.207024
638.447017	0.207256
638.653692	0.207548
638.860350	0.207800
639.066990	0.207878
639.273611	0.207875
639.480214	0.208117
639.686798	0.208463
639.893365	0.208508
640.099913	0.208604
640.306443	0.208328
640.512955	0.208455
640.719449	0.208603
640.925924	0.208944
641.132381	0.209110
641.338820	0.209012
641.545241	0.209159
641.751644	0.209412
641.958028	0.209749
642.164394	0.210072
642.370742	0.210248
642.577071	0.210360
642.783383	0.210290
642.989676	0.210539
643.195951	0.210751
643.402207	0.211024
643.608446	0.211018
643.814666	0.210964
644.020868	0.211249
644.227052	0.211452
644.433218	0.211710
644.639365	0.211542
644.845494	0.211733
645.051605	0.211955
645.257698	0.212094
645.463772	0.212511
645.669828	0.212779
645.875866	0.212680
646.081886	0.212805
646.287888	0.212800
646.493871	0.213246
646.699836	0.213161
646.905783	0.213278
647.111712	0.213203
647.317622	0.213139
647.523514	0.213164
647.729388	0.213553
647.935244	0.213717
648.141082	0.213920
648.346901	0.213941
648.552702	0.214242
648.758485	0.214522
648.964250	0.214614
649.169996	0.214699
649.375724	0.215090
649.581434	0.214853
649.787126	0.215063
649.992800	0.215232
650.198455	0.215492
650.404092	0.215581
650.609711	0.215582
650.815311	0.215689
651.020894	0.215736
651.226458	0.215762
651.432004	0.216352
651.637532	0.216308
651.843041	0.216209
652.048532	0.216411
652.254006	0.216491
652.459460	0.216669
652.664897	0.216946
652.870315	0.216960
653.075716	0.217021
653.281097	0.217060
653.486461	0.217151
653.691807	0.217543
653.897134	0.217758
654.102443	0.218125
654.307734	0.218253
654.513006	0.218713
654.718261	0.218976
654.923497	0.219249
655.128715	0.219443
655.333915	0.219693
655.539096	0.219754
655.744259	0.220033
655.949404	0.220133
656.154531	0.220211
656.359640	0.220222
656.564730	0.220410
656.769802	0.220603
656.974856	0.220638
657.179892	0.220861
657.384909	0.221159
657.589908	0.221013
657.794889	0.221330
657.999852	0.221654
658.204797	0.221898
658.409723	0.222101
658.614631	0.222381
658.819521	0.222789
659.024393	0.223081
659.229246	0.223340
659.434081	0.223887
659.638898	0.223855
659.843697	0.224125
660.048478	0.224258
660.253240	0.224551
660.457984	0.224510
660.662710	0.224502
660.867417	0.224527
661.072107	0.224601
661.276778	0.224394
661.481431	0.224666
661.686066	0.224849
661.890682	0.224949
662.095281	0.225370
662.299861	0.225428
662.504422	0.225648
662.708966	0.226020
662.913491	0.226223
663.117999	0.226412
663.322488	0.226658
663.526958	0.226577
663.731411	0.226905
663.935845	0.226883
664.140261	0.227406
664.344659	0.227477
664.549038	0.227505
664.753400	0.227646
664.957743	0.227983
665.162068	0.227968
665.366375	0.228179
665.570663	0.228212
665.774933	0.228574
665.979185	0.228498
666.183419	0.228528
666.387635	0.228976
666.591832	0.229109
666.796011	0.229188
667.000172	0.229349
667.204315	0.229761
667.408439	0.229978
667.612545	0.230186
667.816634	0.230432
668.020703	0.230767
668.224755	0.230847
668.428788	0.230841
668.632803	0.231058
668.836800	0.231008
669.040779	0.231017
669.244739	0.231063
669.448681	0.230929
669.652605	0.230957
669.856511	0.230985
670.060399	0.231279
670.264268	0.231592
670.468119	0.231804
670.671952	0.232130
670.875767	0.232419
671.079563	0.232940
671.283341	0.233177
671.487101	0.233477
671.690843	0.233858
671.894567	0.233586
672.098272	0.233886
672.301959	0.234053
672.505628	0.234464
672.709278	0.234720
672.912911	0.234663
673.116525	0.234892
673.320121	0.235140
673.523699	0.235350
673.727258	0.235580
673.930799	0.235602
674.134322	0.235870
674.337827	0.235950
674.541314	0.236294
674.744782	0.236389
674.948232	0.236431
675.151664	0.236691
675.355078	0.236825
675.558474	0.236972
675.761851	0.237314
675.965210	0.237382
676.168551	0.237266
676.371873	0.236965
676.575178	0.237183
676.778464	0.237445
676.981732	0.237461
677.184981	0.237602
677.388213	0.237985
677.591426	0.237911
677.794621	0.238019
677.997798	0.238469
678.200956	0.238784
678.404097	0.238987
678.607219	0.239080
678.810323	0.239280
679.013408	0.239358
679.216476	0.239337
679.419525	0.239741
679.622556	0.239751
679.825569	0.240027
680.028563	0.240096
680.231540	0.240173
680.434498	0.240368
680.637438	0.240545
680.840359	0.240849
681.043263	0.241120
681.246148	0.241262
681.449015	0.241651
681.651864	0.241727
681.854694	0.242013
682.057506	0.241960
682.260301	0.241994
682.463076	0.241998
682.665834	0.242097
682.868573	0.242212
683.071295	0.242350
683.273998	0.242391
683.476682	0.242504
683.679349	0.242524
683.881997	0.242920
684.084627	0.242911
684.287239	0.243098
684.489833	0.243147
684.692408	0.243394
684.894965	0.243471
685.097504	0.243554
685.300025	0.243607
685.502527	0.243665
685.705012	0.243662
685.907478	0.243921
686.109925	0.243803
686.312355	0.244192
686.514766	0.244171
686.717159	0.244147
686.919534	0.244231
687.121891	0.244306
687.324230	0.244401
687.526550	0.244415
687.728852	0.244484
687.931136	0.244862
688.133401	0.244763
688.335649	0.244682
688.537878	0.244804
688.740089	0.245007
688.942281	0.245057
689.144456	0.245262
689.346612	0.245619
689.548750	0.245839
689.750870	0.245943
689.952971	0.246088
690.155055	0.246364
690.357120	0.246488
690.559167	0.246618
690.761195	0.246700
690.963206	0.246542
691.165198	0.246631
691.367172	0.246966
691.569128	0.246988
691.771065	0.247193
691.972984	0.247183
692.174885	0.247408
692.376768	0.247623
692.578633	0.247822
692.780479	0.248013
692.982308	0.248114
693.184118	0.248050
693.385909	0.248399
693.587683	0.248415
693.789438	0.248762
693.991175	0.249064
694.192894	0.249103
694.394595	0.249412
694.596277	0.249995
694.797941	0.250207
694.999587	0.250577
695.201215	0.250572
695.402824	0.250708
695.604416	0.250865
695.805989	0.250609
696.007543	0.250705
696.209080	0.250617
696.410598	0.250773
696.612099	0.251018
696.813580	0.250948
697.015044	0.251173
697.216490	0.251274
697.417917	0.251343
697.619326	0.251623
697.820717	0.251637
698.022089	0.251875
698.223444	0.252013
698.424780	0.251815
698.626098	0.251814
698.827397	0.251875
699.028679	0.252241
699.229942	0.252361
699.431187	0.252453
699.632414	0.252742
699.833622	0.252891
700.034813	0.252868
700.235985	0.253151
700.437139	0.253326
700.638274	0.253495
700.839392	0.253513
701.040491	0.253839
701.241572	0.254251
701.442635	0.254329
701.643679	0.254501
701.844706	0.254569
702.045714	0.254719
702.246704	0.255070
702.447675	0.255372
702.648629	0.255469
702.849564	0.255369
703.050481	0.255579
703.251380	0.255548
703.452260	0.255529
703.653122	0.255621
703.853966	0.255608
704.054792	0.255677
704.255600	0.255361
704.456389	0.255552
704.657160	0.255409
704.857913	0.255115
705.058648	0.255492
705.259365	0.255666
705.460063	0.255696
705.660743	0.255566
705.861405	0.255530
706.062048	0.255826
706.262674	0.255465
706.463281	0.255697
706.663870	0.255581
706.864441	0.255363
707.064993	0.255108
707.265527	0.254766
707.466043	0.254994
707.666541	0.254837
707.867021	0.254580
708.067482	0.254692
708.267925	0.254739
708.468350	0.255045
708.668757	0.255073
708.869145	0.255295
709.069516	0.255647
709.269868	0.255495
709.470201	0.255691
709.670517	0.255778
709.870814	0.255874
710.071093	0.255729
710.271354	0.255730
710.471597	0.255634
710.671821	0.255447
710.872028	0.255457
711.072216	0.255778
711.272385	0.255920
711.472537	0.256132
711.672670	0.256184
711.872785	0.256380
712.072882	0.256471
712.272961	0.256632
712.473021	0.256943
712.673063	0.256948
712.873087	0.256863
713.073093	0.256794
713.273081	0.256521
713.473050	0.256584
713.673001	0.256532
713.872934	0.256430
714.072849	0.256529
714.272745	0.256381
714.472623	0.256226
714.672483	0.256223
714.872325	0.256218
715.072148	0.256517
715.271954	0.256594
715.471741	0.256627
715.671509	0.256658
715.871260	0.256706
716.070992	0.256789
716.270707	0.257031
716.470403	0.257085
716.670080	0.257021
716.869740	0.256794
717.069381	0.256642
717.269004	0.256611
717.468609	0.256654
717.668195	0.256563
717.867764	0.256581
718.067314	0.256210
718.266846	0.256131
718.466360	0.255910
718.665855	0.255935
718.865332	0.255897
719.064791	0.255809
719.264232	0.255533
719.463655	0.255572
719.663059	0.255407
719.862445	0.255475
720.061813	0.255448
720.261163	0.255598
720.460494	0.255298
720.659807	0.255026
720.859102	0.254939
721.058379	0.255157
721.257638	0.255014
721.456878	0.255330
721.656100	0.255461
721.855304	0.255141
722.054490	0.254942
722.253657	0.255322
722.452806	0.255519
722.651937	0.255494
722.851050	0.255174
723.050145	0.255068
723.249221	0.254604
723.448279	0.254533
723.647319	0.254561
723.846340	0.254483
724.045344	0.254183
724.244329	0.253977
724.443296	0.253645
724.642245	0.253756
724.841175	0.253369
725.040088	0.253046
725.238982	0.252916
725.437857	0.252749
725.636715	0.252714
725.835554	0.252491
726.034376	0.252394
726.233179	0.252410
726.431963	0.252141
726.630730	0.252395
726.829478	0.252420
727.028208	0.252178
727.226920	0.252186
727.425614	0.251815
727.624289	0.251788
727.822946	0.251638
728.021585	0.251585
728.220206	0.251174
728.418808	0.250685
728.617392	0.250549
728.815958	0.250469
729.014506	0.250350
729.213036	0.250318
729.411547	0.250058
729.610040	0.249973
729.808515	0.249849
730.006972	0.249852
730.205410	0.249794
730.403831	0.249549
730.602233	0.249338
730.800616	0.248987
730.998982	0.248796
731.197329	0.248730
731.395658	0.248480
731.593969	0.248394
731.792262	0.248403
731.990536	0.248240
732.188793	0.248190
732.387031	0.248066
732.585250	0.247867
732.783452	0.247776
732.981635	0.247695
733.179800	0.247671
733.377947	0.247526
733.576076	0.247566
733.774186	0.247675
733.972278	0.247608
734.170352	0.247292
734.368408	0.247420
734.566446	0.247230
734.764465	0.247144
734.962466	0.246784
735.160449	0.246683
735.358413	0.246176
735.556360	0.245963
735.754288	0.245849
735.952198	0.245874
736.150090	0.245560
736.347963	0.245416
736.545818	0.245323
736.743655	0.245231
736.941474	0.245040
737.139275	0.245070
737.337057	0.244883
737.534821	0.244655
737.732567	0.244386
737.930295	0.244424
738.128005	0.244597
738.325696	0.244399
738.523369	0.244294
738.721024	0.244238
738.918660	0.244016
739.116279	0.243925
739.313879	0.243943
739.511461	0.243907
739.709024	0.243733
739.906570	0.243508
740.104097	0.243519
740.301606	0.243422
740.499097	0.243006
740.696569	0.242860
740.894024	0.242968
741.091460	0.242463
741.288878	0.242236
741.486277	0.241737
741.683659	0.241321
741.881022	0.241024
742.078367	0.240864
742.275694	0.241044
742.473002	0.240813
742.670293	0.240513
742.867565	0.240842
743.064819	0.240804
743.262054	0.240719
743.459272	0.240831
743.656471	0.240779
743.853652	0.240693
744.050815	0.240420
744.247959	0.240571
744.445085	0.240328
744.642194	0.239951
744.839283	0.239543
745.036355	0.239731
745.233408	0.239433
745.430444	0.239100
745.627461	0.238763
745.824459	0.238635
746.021440	0.238337
746.218402	0.238031
746.415346	0.237536
746.612272	0.237751
746.809180	0.237290
747.006069	0.237003
747.202940	0.236770
747.399793	0.236714
747.596628	0.236342
747.793444	0.236249
747.990243	0.236091
748.187023	0.236340
748.383784	0.235948
748.580528	0.236065
748.777253	0.236060
748.973960	0.236141
749.170649	0.236140
749.367320	0.236127
749.563973	0.235979
749.760607	0.236189
749.957223	0.236052
750.153821	0.236066
750.350400	0.235748
750.546962	0.235423
750.743505	0.235121
750.940030	0.234764
751.136536	0.234754
751.333025	0.234431
751.529495	0.233931
751.725947	0.233914
751.922381	0.233856
752.118796	0.233711
752.315194	0.233636
752.511573	0.233596
752.707934	0.233624
752.904276	0.233379
753.100601	0.233312
753.296907	0.233410
753.493195	0.233004
753.689465	0.232570
753.885716	0.232524
754.081949	0.232469
754.278164	0.232144
754.474361	0.231916
754.670540	0.231861
754.866700	0.232049
755.062843	0.231914
755.258967	0.231944
755.455072	0.232319
755.651160	0.232246
755.847229	0.232222
756.043280	0.232371
756.239313	0.232338
756.435328	0.232192
756.631324	0.231902
756.827302	0.231740
757.023262	0.231787
757.219204	0.231390
757.415127	0.231316
757.611033	0.231245
757.806920	0.231210
758.002788	0.231083
758.198639	0.230726
758.394471	0.230471
758.590286	0.230494
758.786081	0.230030
758.981859	0.229754
759.177619	0.229646
759.373360	0.229424
759.569083	0.228943
759.764788	0.228822
759.960474	0.228928
760.156143	0.228828
760.351793	0.228564
760.547425	0.228705
760.743038	0.228749
760.938634	0.228385
761.134211	0.228153
761.329770	0.228026
761.525311	0.227807
761.720833	0.227645
761.916338	0.227633
762.111824	0.227474
762.307292	0.227375
762.502741	0.227481
762.698173	0.227546
762.893586	0.227487
763.088981	0.227516
763.284358	0.227615
763.479716	0.227582
763.675057	0.227469
763.870379	0.227348
764.065683	0.227019
764.260968	0.226698
764.456236	0.226395
764.651485	0.226716
764.846716	0.226891
765.041929	0.226650
765.237123	0.226398
765.432299	0.226120
765.627457	0.225992
765.822597	0.225953
766.017719	0.225916
766.212822	0.225913
766.407907	0.225332
766.602974	0.224867
766.798023	0.224742
766.993054	0.224832
767.188066	0.224695
767.383060	0.224444
767.578036	0.224287
767.772993	0.223863
767.967933	0.223931
768.162854	0.223655
768.357757	0.223554
768.552642	0.223426
768.747508	0.223124
768.942356	0.223170
769.137186	0.223211
769.331998	0.223342
769.526792	0.223508
769.721567	0.223258
769.916324	0.223555
770.111063	0.223625
770.305784	0.223592
770.500486	0.223630
770.695171	0.223458
770.889837	0.223478
771.084484	0.223194
771.279114	0.223200
771.473725	0.223266
771.668318	0.223117
771.862893	0.222905
772.057450	0.222859
772.251988	0.222729
772.446509	0.222497
772.641011	0.222392
772.835494	0.222488
773.029960	0.222240
773.224407	0.222236
773.418836	0.222035
773.613247	0.222202
773.807640	0.222098
774.002014	0.222171
774.196370	0.222545
774.390708	0.222516
774.585028	0.222398
774.779330	0.222332
774.973613	0.222037
775.167878	0.222223
775.362125	0.222071
775.556354	0.222130
775.750564	0.222069
775.944756	0.222121
776.138930	0.221943
776.333086	0.221983
776.527223	0.221910
776.721343	0.222113
776.915444	0.222062
777.109526	0.222132
777.303591	0.222278
777.497637	0.222196
777.691666	0.221936
777.885676	0.221925
778.079667	0.221759
778.273641	0.221861
778.467596	0.221715
778.661533	0.221565
778.855452	0.221566
779.049352	0.221424
779.243235	0.221624
779.437099	0.221672
779.630945	0.221717
779.824773	0.221730
780.018582	0.221499
780.212373	0.221462
780.406146	0.221312
780.599901	0.221103
780.793638	0.221073
780.987356	0.220514
781.181056	0.220444
781.374738	0.220403
781.568402	0.220420
781.762047	0.220524
781.955674	0.220522
782.149283	0.220649
782.342874	0.220712
782.536447	0.220641
782.730001	0.221055
782.923537	0.221032
783.117055	0.221029
783.310555	0.221085
783.504036	0.221053
783.697499	0.221122
783.890944	0.221315
784.084371	0.221388
784.277780	0.221320
784.471170	0.221152
784.664542	0.221054
784.857896	0.221160
785.051231	0.221084
785.244549	0.221396
785.437848	0.221696
785.631129	0.221575
785.824392	0.221647
786.017636	0.221962
786.210863	0.222083
786.404071	0.222161
786.597260	0.222286
786.790432	0.222643
786.983585	0.222558
787.176721	0.222447
787.369838	0.222573
787.562936	0.222643
787.756017	0.222673
787.949079	0.222923
788.142123	0.223226
788.335149	0.223489
788.528156	0.223422
788.721146	0.223699
788.914117	0.223665
789.107070	0.223792
789.300005	0.223919
789.492921	0.223954
789.685819	0.223973
789.878699	0.223859
790.071561	0.223742
790.264405	0.223720
790.457230	0.223820
790.650037	0.223799
790.842826	0.224036
791.035597	0.224101
791.228349	0.224225
791.421084	0.224347
791.613800	0.224527
791.806497	0.224378
791.999177	0.224306
792.191838	0.224254
792.384481	0.224467
792.577106	0.224356
792.769713	0.224314
792.962301	0.223942
793.154871	0.224189
793.347423	0.224310
793.539957	0.224598
793.732473	0.224970
793.924970	0.225383
794.117449	0.225427
794.309910	0.225569
794.502353	0.225936
794.694777	0.226384
794.887183	0.226418
795.079571	0.226593
795.271941	0.226526
795.464293	0.226553
795.656626	0.226094
795.848941	0.226099
796.041238	0.226484
796.233516	0.226467
796.425777	0.226639
796.618019	0.226732
796.810243	0.226743
797.002449	0.226994
797.194636	0.227194
797.386805	0.227857
797.578956	0.228294
797.771089	0.228322
797.963204	0.228239
798.155300	0.228492
798.347378	0.228431
798.539438	0.228802
798.731480	0.229258
798.923503	0.229535
799.115509	0.229512
799.307496	0.229570
799.499465	0.229738
799.691415	0.230067
799.883348	0.230134
800.075262	0.230320
800.267158	0.230137
800.459035	0.230118
800.650895	0.230266
800.842736	0.230364
801.034559	0.230797
801.226364	0.230772
801.418150	0.231034
801.609919	0.231300
801.801669	0.231649
801.993401	0.231975
802.185114	0.232205
802.376810	0.232184
802.568487	0.232403
802.760146	0.232411
802.951787	0.232729
803.143409	0.233066
803.335014	0.233445
803.526600	0.233637
803.718168	0.233758
803.909717	0.234095
804.101249	0.234385
804.292762	0.234709
804.484257	0.235195
804.675734	0.235248
804.867192	0.235292
805.058632	0.235441
805.250054	0.235724
805.441458	0.236154
805.632844	0.236107
805.824211	0.236230
806.015561	0.236503
806.206891	0.236414
806.398204	0.236757
806.589499	0.237082
806.780775	0.237331
806.972033	0.237551
807.163273	0.237746
807.354495	0.238154
807.545698	0.238726
807.736883	0.239032
807.928050	0.239359
808.119199	0.239775
808.310329	0.240120
808.501441	0.240530
808.692535	0.240883
808.883611	0.241145
809.074669	0.241622
809.265708	0.241745
809.456729	0.242025
809.647732	0.242547
809.838717	0.242801
810.029683	0.243057
810.220632	0.243038
810.411562	0.243175
810.602474	0.243539
810.793367	0.243635
810.984242	0.244103
811.175100	0.244276
811.365938	0.244425
811.556759	0.244652
811.747562	0.244662
811.938346	0.245073
812.129112	0.245625
812.319860	0.246098
812.510589	0.246400
812.701300	0.246544
812.891994	0.247105
813.082668	0.247496
813.273325	0.247831
813.463964	0.248450
813.654584	0.248652
813.845186	0.248562
814.035769	0.248849
814.226335	0.249355
814.416882	0.249616
814.607411	0.249873
814.797922	0.250163
814.988415	0.250627
815.178889	0.250777
815.369345	0.251296
815.559783	0.251890
815.750203	0.252178
815.940605	0.252222
816.130988	0.252502
816.321353	0.252853
816.511700	0.253096
816.702028	0.253276
816.892339	0.253504
817.082631	0.253526
817.272905	0.253580
817.463161	0.253751
817.653398	0.254287
817.843617	0.254521
818.033819	0.254507
818.224001	0.254695
818.414166	0.255109
818.604312	0.255391
818.794440	0.255617
818.984550	0.255901
819.174642	0.256031
819.364716	0.256026
819.554771	0.256360
819.744808	0.256659
819.934827	0.256634
820.124827	0.256788
820.314810	0.257099
820.504774	0.257332
820.694720	0.257550
820.884647	0.257800
821.074557	0.258172
821.264448	0.258365
821.454321	0.258609
821.644176	0.259330
821.834012	0.259702
822.023831	0.260013
822.213631	0.260360
822.403413	0.261161
822.593176	0.261686
822.782922	0.262325
822.972649	0.262677
823.162358	0.263073
823.352049	0.263407
823.541721	0.263368
823.731376	0.263781
823.921012	0.264115
824.110629	0.264113
824.300229	0.264476
824.489811	0.264527
824.679374	0.265379
824.868919	0.265798
825.058445	0.265963
825.247954	0.266552
825.437444	0.266846
825.626916	0.267217
825.816370	0.267778
826.005806	0.268034
826.195223	0.268444
826.384622	0.268472
826.574003	0.268751
826.763366	0.269439
826.952711	0.269720
827.142037	0.270076
827.331345	0.270775
827.520635	0.271273
827.709906	0.271429
827.899160	0.271788
828.088395	0.272235
828.277612	0.272637
828.466810	0.272570
828.655991	0.272841
828.845153	0.273142
829.034297	0.273072
829.223423	0.272970
829.412531	0.273287
829.601620	0.273558
829.790691	0.273654
829.979744	0.273513
830.168779	0.273890
830.357795	0.274044
830.546793	0.274262
830.735773	0.274716
830.924735	0.274873
831.113679	0.275145
831.302604	0.275266
831.491511	0.275376
831.680400	0.276084
831.869271	0.276266
832.058123	0.276826
832.246957	0.277184
832.435773	0.277444
832.624571	0.278108
832.813351	0.278478
833.002112	0.278970
833.190855	0.279572
833.379580	0.279826
833.568287	0.280369
833.756975	0.280753
833.945645	0.281354
834.134297	0.281791
834.322931	0.282172
834.511547	0.282829
834.700144	0.283255
834.888723	0.283833
835.077284	0.284341
835.265826	0.284796
835.454351	0.285367
835.642857	0.285702
835.831345	0.286367
836.019815	0.286749
836.208266	0.287324
836.396699	0.288008
836.585114	0.288448
836.773511	0.288916
836.961890	0.289508
837.150250	0.289641
837.338592	0.289941
837.526916	0.290427
837.715222	0.290987
837.903510	0.291152
838.091779	0.291590
838.280030	0.291596
838.468263	0.292199
838.656477	0.292474
838.844674	0.293415
839.032852	0.294209
839.221012	0.294613
839.409153	0.294802
839.597277	0.295324
839.785382	0.295303
839.973469	0.296049
840.161538	0.296482
840.349589	0.296945
840.537621	0.297304
840.725635	0.297870
840.913631	0.298176
841.101609	0.298656
841.289568	0.299057
841.477509	0.299878
841.665432	0.300312
841.853337	0.300708
842.041224	0.301023
842.229092	0.301514
842.416942	0.301726
842.604774	0.301913
842.792588	0.302517
842.980383	0.302898
843.168160	0.303187
843.355919	0.303835
843.543660	0.304077
843.731382	0.304755
843.919087	0.305177
844.106773	0.305921
844.294441	0.306663
844.482090	0.307338
844.669722	0.308143
844.857335	0.308736
845.044930	0.309138
845.232507	0.309850
845.420065	0.310251
845.607605	0.310335
845.795127	0.310969
845.982631	0.311128
846.170117	0.311589
846.357584	0.311792
846.545033	0.312168
846.732464	0.312345
846.919877	0.312311
847.107272	0.312798
847.294648	0.313305
847.482006	0.313441
847.669346	0.314144
847.856667	0.314301
848.043971	0.314498
848.231256	0.314731
848.418523	0.315115
848.605771	0.315864
848.793002	0.316422
848.980214	0.317009
849.167408	0.316790
849.354584	0.317196
849.541742	0.317641
849.728881	0.317905
849.916002	0.318365
850.103105	0.318992
850.290190	0.319243
850.477256	0.319298
850.664304	0.319528
850.851334	0.320179
851.038346	0.320604
851.225340	0.320901
851.412315	0.321670
851.599272	0.322408
851.786211	0.322653
851.973132	0.323188
852.160034	0.323587
852.346918	0.323755
852.533784	0.324172
852.720632	0.324339
852.907462	0.324721
853.094273	0.325134
853.281066	0.325209
853.467841	0.325623
853.654598	0.325762
853.841336	0.326037
854.028056	0.326462
854.214758	0.327204
854.401442	0.327658
854.588107	0.327909
854.774755	0.327953
854.961384	0.328533
855.147995	0.328951
855.334587	0.329438
855.521162	0.329701
855.707718	0.330159
855.894256	0.329988
856.080775	0.330906
856.267277	0.331185
856.453760	0.332177
856.640225	0.332501
856.826672	0.332848
857.013101	0.333740
857.199511	0.334643
857.385903	0.335090
857.572277	0.335555
857.758633	0.335317
857.944970	0.336274
858.131290	0.336157
858.317591	0.336465
858.503873	0.337248
858.690138	0.337480
858.876384	0.337722
859.062612	0.338151
859.248822	0.338571
859.435014	0.339008
859.621188	0.339312
859.807343	0.340263
859.993480	0.340665
860.179599	0.340916
860.365699	0.340789
860.551781	0.341202
860.737846	0.341956
860.923891	0.342238
861.109919	0.342722
861.295929	0.343229
861.481920	0.343454
861.667893	0.343831
861.853848	0.343887
862.039784	0.344589
862.225702	0.345042
862.411603	0.345263
862.597484	0.345967
862.783348	0.346528
862.969193	0.346650
863.155021	0.347110
863.340830	0.347642
863.526620	0.347981
863.712393	0.348601
863.898147	0.348953
864.083883	0.349322
864.269601	0.349511
864.455301	0.349440
864.640982	0.349877
864.826645	0.350178
865.012290	0.350061
865.197917	0.350464
865.383526	0.350652
865.569116	0.350983
865.754688	0.351137
865.940242	0.351611
866.125777	0.352092
866.311295	0.352189
866.496794	0.352159
866.682275	0.352387
866.867737	0.352766
867.053182	0.352896
867.238608	0.352816
867.424016	0.352786
867.609406	0.352810
867.794778	0.352903
867.980131	0.353201
868.165466	0.353421
868.350783	0.353941
868.536082	0.354173
868.721362	0.354964
868.906625	0.355133
869.091869	0.355556
869.277094	0.355602
869.462302	0.356180
869.647491	0.356222
869.832662	0.356528
870.017815	0.356710
870.202950	0.356784
870.388066	0.356202
870.573165	0.356480
870.758245	0.356893
870.943306	0.357378
871.128350	0.357511
871.313375	0.357827
871.498382	0.358657
871.683371	0.358885
871.868342	0.359557
872.053294	0.359973
872.238229	0.360611
872.423144	0.360846
872.608042	0.361160
872.792922	0.361320
872.977783	0.361682
873.162626	0.361464
873.347451	0.362055
873.532258	0.362059
873.717046	0.362556
873.901816	0.362992
874.086568	0.363272
874.271302	0.363654
874.456017	0.364372
874.640715	0.364742
874.825394	0.364914
875.010055	0.364984
875.194697	0.365418
875.379322	0.365522
875.563928	0.365531
875.748516	0.365815
875.933085	0.365947
876.117637	0.366166
876.302170	0.366531
876.486685	0.366873
876.671182	0.367332
876.855661	0.367224
877.040121	0.367667
877.224563	0.368037
877.408987	0.368611
877.593393	0.369298
877.777780	0.369538
877.962150	0.369873
878.146501	0.370148
878.330833	0.370125
878.515148	0.369689
878.699444	0.369566
878.883722	0.369295
879.067982	0.368978
879.252224	0.368860
879.436447	0.368755
879.620653	0.368517
879.804840	0.368641
879.989008	0.369122
880.173159	0.370287
880.357291	0.370574
880.541405	0.370944
880.725501	0.371240
880.909579	0.370917
881.093638	0.370712
881.277680	0.370954
881.461703	0.371150
881.645707	0.370779
881.829694	0.370618
882.013662	0.370596
882.197612	0.370922
882.381544	0.371604
882.565458	0.371934
882.749353	0.371968
882.933230	0.371613
883.117089	0.371681
883.300930	0.371679
883.484753	0.371900
883.668557	0.371612
883.852343	0.371416
884.036111	0.370360
884.219861	0.370166
884.403592	0.370450
884.587305	0.371181
884.771000	0.371255
884.954677	0.371369
885.138335	0.371331
885.321976	0.371998
885.505598	0.372060
885.689201	0.372783
885.872787	0.373566
886.056354	0.373919
886.239904	0.373500
886.423434	0.373492
886.606947	0.373425
886.790442	0.373672
886.973918	0.373814
887.157376	0.373691
887.340816	0.373518
887.524237	0.372661
887.707641	0.372641
887.891026	0.372534
888.074393	0.372466
888.257741	0.372962
888.441072	0.372993
888.624384	0.372709
888.807678	0.373170
888.990954	0.372801
889.174211	0.373196
889.357451	0.373276
889.540672	0.373171
889.723875	0.373063
889.907059	0.372570
890.090226	0.372127
890.273374	0.372211
890.456504	0.372119
890.639616	0.372804
890.822709	0.373102
891.005785	0.373099
891.188842	0.373816
891.371881	0.373936
891.554901	0.373718
891.737904	0.373942
891.920888	0.373670
892.103854	0.373215
892.286802	0.372914
892.469731	0.372069
892.652643	0.371516
892.835536	0.371044
893.018410	0.371054
893.201267	0.371291
893.384106	0.370897
893.566926	0.371547
893.749728	0.372012
893.932511	0.371959
894.115277	0.372391
894.298024	0.372206
894.480753	0.372310
894.663464	0.371641
894.846157	0.371858
895.028831	0.371521
895.211487	0.370970
895.394125	0.371131
895.576745	0.370670
895.759346	0.370707
895.941930	0.370580
896.124495	0.370119
896.307041	0.370123
896.489570	0.369669
896.672080	0.370028
896.854573	0.369789
897.037046	0.369021
897.219502	0.369109
897.401940	0.368700
897.584359	0.368732
897.766760	0.368567
897.949143	0.368516
898.131507	0.368578
898.313854	0.368522
898.496182	0.367932
898.678492	0.367609
898.860783	0.367268
899.043057	0.367084
899.225312	0.367294
899.407549	0.367352
899.589768	0.367026
899.771968	0.367120
899.954151	0.366796
900.136315	0.366809
900.318461	0.366750
900.500588	0.366579
900.682698	0.366526
900.864789	0.366212
901.046862	0.365392
901.228917	0.365412
901.410953	0.364819
901.592971	0.363709
901.774972	0.363176
901.956953	0.362605
902.138917	0.361932
902.320862	0.361073
902.502790	0.360876
902.684699	0.360988
902.866589	0.360482
903.048462	0.360091
903.230316	0.360140
903.412152	0.360314
903.593970	0.360483
903.775770	0.360705
903.957551	0.360621
904.139314	0.359894
904.321059	0.359690
904.502786	0.359212
904.684494	0.358594
904.866185	0.358189
905.047857	0.357921
905.229510	0.356939
905.411146	0.356138
905.592763	0.355662
905.774363	0.355298
905.955943	0.354276
906.137506	0.354431
906.319051	0.354054
906.500577	0.354018
906.682085	0.352775
906.863575	0.352445
907.045046	0.352091
907.226500	0.352137
907.407935	0.351715
907.589352	0.351300
907.770750	0.350915
907.952131	0.350504
908.133493	0.350067
908.314837	0.349701
908.496163	0.349633
908.677470	0.349008
908.858760	0.347868
909.040031	0.347474
909.221284	0.347243
909.402518	0.346220
909.583735	0.345941
909.764933	0.345211
909.946113	0.344966
910.127275	0.344247
910.308418	0.343987
910.489544	0.343887
910.670651	0.343003
910.851740	0.342877
911.032810	0.342584
911.213863	0.341414
911.394897	0.340605
911.575913	0.339816
911.756911	0.339183
911.937890	0.338408
912.118851	0.337925
912.299794	0.337481
912.480719	0.336832
912.661626	0.336177
912.842514	0.335781
913.023384	0.335942
913.204236	0.334823
913.385070	0.333401
913.565886	0.333485
913.746683	0.332917
913.927462	0.332163
914.108223	0.330698
914.288965	0.329454
914.469690	0.328787
914.650396	0.327863
914.831084	0.328421
915.011754	0.329036
915.192405	0.328358
915.373038	0.327206
915.553653	0.326222
915.734250	0.325935
915.914829	0.326185
916.095389	0.325271
916.275931	0.324042
916.456455	0.322876
916.636961	0.321715
916.817448	0.320287
916.997917	0.320290
917.178368	0.320489
917.358801	0.320422
917.539216	0.319342
917.719612	0.319559
917.899990	0.318990
918.080350	0.318850
918.260692	0.318216
918.441015	0.317590
918.621320	0.317314
918.801607	0.315878
918.981876	0.314757
919.162127	0.313796
919.342359	0.312730
919.522573	0.312638
919.702769	0.311498
919.882947	0.310992
920.063106	0.310015
920.243247	0.308225
920.423370	0.307418
920.603475	0.306925
920.783562	0.306066
920.963630	0.304909
921.143680	0.304114
921.323712	0.303490
921.503725	0.302280
921.683721	0.301541
921.863698	0.300914
922.043657	0.300446
922.223598	0.299286
922.403520	0.298457
922.583424	0.297692
922.763311	0.297272
922.943178	0.296473
923.123028	0.295887
923.302859	0.295207
923.482673	0.294143
923.662467	0.293611
923.842244	0.292775
924.022003	0.291835
924.201743	0.290753
924.381465	0.288411
924.561169	0.287404
924.740854	0.286072
924.920522	0.285208
925.100171	0.284315
925.279802	0.282891
925.459414	0.282016
925.639009	0.280936
925.818585	0.280576
925.998143	0.280181
926.177683	0.279024
926.357205	0.278288
926.536708	0.277911
926.716193	0.277523
926.895660	0.276617
927.075109	0.275539
927.254539	0.274842
927.433951	0.273910
927.613345	0.273365
927.792721	0.272500
927.972079	0.271319
928.151418	0.270281
928.330739	0.269436
928.510042	0.268731
928.689327	0.268473
928.868593	0.267508
929.047841	0.267424
929.227071	0.265985
929.406283	0.264775
929.585476	0.264584
929.764652	0.263186
929.943809	0.262200
930.122948	0.260861
930.302068	0.258614
930.481171	0.258616
930.660255	0.256428
930.839321	0.255982
931.018369	0.254782
931.197398	0.253113
931.376409	0.252122
931.555402	0.249713
931.734377	0.249252
931.913334	0.249155
932.092272	0.247905
932.271192	0.247497
932.450094	0.245507
932.628978	0.245297
932.807844	0.244198
932.986691	0.243072
933.165520	0.243069
933.344331	0.242410
933.523123	0.241031
933.701898	0.239293
933.880654	0.238188
934.059392	0.238044
934.238111	0.236394
934.416813	0.235239
934.595496	0.234949
934.774161	0.234015
934.952808	0.232079
935.131437	0.230609
935.310047	0.229284
935.488639	0.227588
935.667213	0.226864
935.845769	0.225812
936.024306	0.224812
936.202825	0.223093
936.381326	0.221450
936.559809	0.220526
936.738274	0.219637
936.916720	0.219903
937.095148	0.220119
937.273558	0.218050
937.451950	0.217600
937.630323	0.216830
937.808678	0.215784
937.987015	0.214814
938.165334	0.214653
938.343635	0.214851
938.521917	0.213717
938.700181	0.211395
938.878427	0.210856
939.056655	0.209470
939.234864	0.208320
939.413055	0.206794
939.591228	0.207599
939.769383	0.205191
939.947519	0.202490
940.125638	0.201006
940.303738	0.200836
940.481820	0.198904
940.659883	0.197568
940.837929	0.195906
941.015956	0.194620
941.193965	0.191806
941.371955	0.190706
941.549928	0.189549
941.727882	0.187453
941.905818	0.185414
942.083736	0.184634
942.261636	0.182415
942.439517	0.181102
942.617380	0.181040
942.795225	0.180226
942.973052	0.179679
943.150860	0.179466
943.328651	0.179398
943.506423	0.178596
943.684176	0.177255
943.861912	0.178023
944.039629	0.178120
944.217328	0.176687
944.395009	0.175128
944.572672	0.174311
944.750317	0.172857
944.927943	0.171620
945.105551	0.170237
945.283141	0.169582
945.460712	0.168132
945.638265	0.166985
945.815801	0.164427
945.993317	0.163674
946.170816	0.162127
946.348297	0.161315
946.525759	0.159849
946.703203	0.158331
946.880629	0.156619
947.058036	0.155018
947.235425	0.153513
947.412797	0.153400
947.590149	0.151954
947.767484	0.150512
947.944800	0.148579
948.122099	0.146393
948.299379	0.145594
948.476640	0.146053
948.653884	0.144316
948.831109	0.142884
949.008316	0.142787
949.185505	0.140510
949.362676	0.139473
949.539828	0.138107
949.716962	0.138569
949.894078	0.137436
950.071176	0.136623
950.248256	0.136870
950.425317	0.136593
950.602360	0.135551
950.779385	0.134975
950.956391	0.133644
951.133380	0.133026
951.310350	0.131368
951.487302	0.129759
951.664235	0.128480
951.841151	0.127927
952.018048	0.126371
952.194927	0.124594
952.371788	0.124474
952.548631	0.123163
952.725455	0.123665
952.902261	0.122751
953.079049	0.121647
953.255819	0.120774
953.432570	0.119002
953.609303	0.118200
953.786018	0.118408
953.962715	0.118193
954.139394	0.117250
954.316054	0.114579
954.492696	0.114625
954.669320	0.116254
954.845926	0.114027
955.022513	0.112830
955.199083	0.113791
955.375634	0.112608
955.552166	0.110704
955.728681	0.111312
955.905177	0.111180
956.081655	0.110434
956.258115	0.108143
956.434557	0.107451
956.610980	0.108830
956.787385	0.107501
956.963772	0.106068
957.140141	0.106750
957.316492	0.106325
957.492824	0.105688
957.669138	0.104509
957.845434	0.102303
958.021712	0.102401
958.197971	0.100368
958.374212	0.098566
958.550435	0.097108
958.726640	0.096561
958.902826	0.094677
959.078995	0.096776
959.255145	0.094957
959.431277	0.096440
959.607390	0.095810
959.783486	0.096162
959.959563	0.098283
960.135622	0.099368
960.311662	0.098778
960.487685	0.100413
960.663689	0.100198
960.839675	0.102034
961.015643	0.101887
961.191593	0.101148
961.367524	0.100248
961.543437	0.096327
961.719332	0.093985
961.895209	0.094222
962.071067	0.093619
962.246907	0.089974
962.422730	0.088125
962.598533	0.087919
962.774319	0.088084
962.950086	0.087203
963.125835	0.086704
963.301566	0.089287
963.477279	0.088081
963.652973	0.085773
963.828650	0.084734
964.004308	0.086848
964.179947	0.086614
964.355569	0.086620
964.531172	0.085375
964.706757	0.086436
964.882324	0.085106
965.057873	0.085158
965.233403	0.087074
965.408916	0.087680
965.584410	0.085643
965.759885	0.084910
965.935343	0.085044
966.110782	0.088282
966.286203	0.089100
966.461606	0.087163
966.636991	0.088795
966.812357	0.089949
966.987705	0.088840
967.163035	0.089230
967.338347	0.088910
967.513641	0.089411
967.688916	0.087392
967.864173	0.085442
968.039412	0.089735
968.214632	0.089386
968.389835	0.086319
968.565019	0.088322
968.740185	0.089338
968.915333	0.089267
969.090462	0.085921
969.265573	0.084928
969.440667	0.086169
969.615741	0.083728
969.790798	0.084240
969.965836	0.087286
970.140856	0.088032
970.315858	0.087577
970.490842	0.087112
970.665808	0.088436
970.840755	0.088674
971.015684	0.087275
971.190595	0.088254
971.365487	0.088320
971.540362	0.088077
971.715218	0.087077
971.890056	0.086510
972.064875	0.087977
972.239677	0.090587
972.414460	0.091204
972.589225	0.092966
972.763972	0.090995
972.938700	0.088943
973.113411	0.088161
973.288103	0.088623
973.462777	0.087253
973.637432	0.085798
973.812070	0.084611
973.986689	0.084414
974.161290	0.086567
974.335873	0.086390
974.510437	0.086061
974.684984	0.084839
974.859512	0.084286
975.034022	0.084065
975.208513	0.083816
975.382987	0.084976
975.557442	0.084298
975.731879	0.083038
975.906298	0.083807
976.080698	0.085023
976.255080	0.086870
976.429445	0.087611
976.603790	0.089005
976.778118	0.091841
976.952427	0.089634
977.126719	0.091496
977.300992	0.090103
977.475246	0.089333
977.649483	0.088387
977.823701	0.086674
977.997901	0.086954
978.172083	0.086678
978.346247	0.085951
978.520392	0.088191
978.694519	0.089716
978.868628	0.090263
979.042719	0.091275
979.216791	0.090586
979.390845	0.091381
979.564882	0.090165
979.738899	0.089814
979.912899	0.089714
980.086880	0.087965
980.260843	0.086285
980.434788	0.087281
980.608715	0.087320
980.782623	0.087623
980.956514	0.090208
981.130386	0.091050
981.304240	0.090895
981.478075	0.088594
981.651892	0.089152
981.825692	0.089164
981.999472	0.088776
982.173235	0.088910
982.346980	0.088757
982.520706	0.086722
982.694414	0.085620
982.868104	0.084926
983.041775	0.086693
983.215428	0.086189
983.389064	0.085301
983.562680	0.083938
983.736279	0.083909
983.909860	0.083757
984.083422	0.082463
984.256966	0.083118
984.430491	0.085515
984.603999	0.086284
984.777488	0.087286
984.950959	0.086333
985.124412	0.086161
985.297847	0.086704
985.471263	0.087496
985.644661	0.087499
985.818041	0.087776
985.991403	0.086288
986.164747	0.084063
986.338072	0.082476
986.511379	0.086125
986.684668	0.087700
986.857938	0.085929
987.031191	0.085142
987.204425	0.083836
987.377641	0.085106
987.550839	0.085962
987.724018	0.088276
987.897179	0.087475
988.070322	0.086995
988.243447	0.085822
988.416554	0.087700
988.589642	0.088290
988.762712	0.089194
988.935764	0.087817
989.108798	0.085619
989.281813	0.086720
989.454811	0.088737
989.627790	0.089155
989.800751	0.091577
989.973693	0.089027
990.146617	0.089383
990.319524	0.089399
990.492412	0.089866
990.665281	0.092313
990.838133	0.091025
991.010966	0.090660
991.183781	0.089536
991.356578	0.087901
991.529356	0.089378
991.702117	0.086823
991.874859	0.088011
992.047583	0.087647
992.220288	0.087462
992.392976	0.087465
992.565645	0.088818
992.738296	0.088130
992.910929	0.088843
993.083543	0.088068
993.256139	0.091006
993.428718	0.090190
993.601277	0.089915
993.773819	0.088247
993.946342	0.088167
994.118848	0.086435
994.291335	0.085483
994.463803	0.084752
994.636254	0.085701
994.808686	0.084302
994.981100	0.085073
995.153496	0.085016
995.325874	0.088270
995.498233	0.087802
995.670574	0.087988
995.842897	0.087822
996.015202	0.086094
996.187488	0.086656
996.359757	0.088594
996.532007	0.088379
996.704239	0.086887
996.876452	0.084991
997.048648	0.086265
997.220825	0.086919
997.392984	0.087466
997.565124	0.088755
997.737247	0.088883
997.909351	0.087035
998.081437	0.087052
998.253505	0.088133
998.425554	0.086906
998.597586	0.084934
998.769599	0.085462
998.941594	0.086788
999.113571	0.087762
999.285529	0.087690
999.457469	0.087717
999.629391	0.087082
999.801295	0.086027
999.973181	0.088797
1000.145048	0.088682
1000.316897	0.087833
1000.488728	0.087298
1000.660541	0.085464
1000.832335	0.084341
1001.004111	0.084426
1001.175869	0.084721
1001.347609	0.085654
1001.519331	0.083264
1001.691034	0.083050
1001.862719	0.083328
1002.034386	0.083021
1002.206035	0.084772
1002.377665	0.083590
1002.549277	0.084842
1002.720871	0.084494
1002.892447	0.086869
1003.064004	0.088542
1003.235544	0.088343
1003.407065	0.089111
1003.578568	0.089677
1003.750052	0.088976
1003.921519	0.090812
1004.092967	0.091504
1004.264397	0.091141
1004.435809	0.089299
1004.607202	0.087534
1004.778577	0.088616
1004.949934	0.087008
1005.121273	0.085585
1005.292594	0.085613
1005.463896	0.085757
1005.635180	0.083824
1005.806446	0.084297
1005.977694	0.083014
1006.148923	0.084149
1006.320135	0.084194
1006.491328	0.085567
1006.662503	0.085413
1006.833659	0.085065
1007.004798	0.085004
1007.175918	0.085223
1007.347020	0.083508
1007.518103	0.084668
1007.689169	0.082719
1007.860216	0.082592
1008.031245	0.079628
1008.202256	0.080040
1008.373248	0.080902
1008.544223	0.081251
1008.715179	0.080511
1008.886117	0.081115
1009.057036	0.079388
1009.227938	0.080212
1009.398821	0.077565
1009.569686	0.079691
1009.740533	0.079939
1009.911361	0.078540
1010.082172	0.077751
1010.252964	0.078443
1010.423738	0.078685
1010.594493	0.080685
1010.765231	0.080091
1010.935950	0.084419
1011.106651	0.085328
1011.277334	0.086080
1011.447998	0.086902
1011.618645	0.086722
1011.789273	0.087231
1011.959882	0.087684
1012.130474	0.087624
1012.301048	0.088250
1012.471603	0.087595
1012.642140	0.086479
1012.812658	0.084217
1012.983159	0.082427
1013.153641	0.082335
1013.324105	0.082450
1013.494551	0.083454
1013.664979	0.082555
1013.835388	0.083153
1014.005779	0.083167
1014.176152	0.082413
1014.346507	0.083622
1014.516843	0.085318
1014.687162	0.085490
1014.857462	0.083810
1015.027744	0.083296
1015.198007	0.083849
1015.368252	0.083860
1015.538480	0.082599
1015.708689	0.082316
1015.878879	0.082562
1016.049052	0.081332
1016.219206	0.081020
1016.389342	0.083553
1016.559460	0.082309
1016.729559	0.083232
1016.899641	0.083302
1017.069704	0.083888
1017.239749	0.084457
1017.409775	0.084655
1017.579784	0.085061
1017.749774	0.084007
1017.919746	0.082580
1018.089700	0.083689
1018.259635	0.081954
1018.429553	0.080494
1018.599452	0.081598
1018.769333	0.081954
1018.939195	0.081342
1019.109040	0.081628
1019.278866	0.083024
1019.448674	0.084034
1019.618464	0.083591
1019.788235	0.084135
1019.957989	0.085422
1020.127724	0.083377
1020.297441	0.083212
1020.467139	0.082703
1020.636820	0.083524
1020.806482	0.083975
1020.976126	0.082810
1021.145752	0.082412
1021.315359	0.081548
1021.484948	0.082616
1021.654519	0.082632
1021.824072	0.083495
1021.993607	0.083316
1022.163123	0.083326
1022.332621	0.083473
1022.502101	0.083084
1022.671563	0.083851
1022.841007	0.085286
1023.010432	0.083244
1023.179839	0.084080
1023.349228	0.082173
1023.518598	0.083742
1023.687951	0.085149
1023.857285	0.084058
1024.026601	0.085124
1024.195899	0.084841
1024.365178	0.085044
1024.534439	0.086531
1024.703682	0.085701
1024.872907	0.086215
1025.042114	0.085914
1025.211302	0.082928
1025.380472	0.083621
1025.549624	0.082884
1025.718758	0.083210
1025.887873	0.082689
1026.056970	0.082126
1026.226049	0.083254
1026.395110	0.084837
1026.564153	0.084387
1026.733177	0.085780
1026.902183	0.083919
1027.071171	0.083792
1027.240141	0.082957
1027.409092	0.083476
1027.578026	0.082390
1027.746940	0.079765
1027.915837	0.079686
1028.084716	0.080961
1028.253576	0.080043
1028.422418	0.080783
1028.591242	0.081681
1028.760048	0.080288
1028.928835	0.079210
1029.097604	0.079288
1029.266355	0.081178
1029.435088	0.078568
1029.603803	0.077499
1029.772499	0.076623
1029.941177	0.076475
1030.109837	0.075637
1030.278478	0.077152
1030.447102	0.077198
1030.615707	0.078605
1030.784294	0.078741
1030.952863	0.080425
1031.121413	0.080584
1031.289945	0.082135
1031.458460	0.082683
1031.626955	0.082942
1031.795433	0.083362
1031.963892	0.083661
1032.132334	0.082481
1032.300756	0.080785
1032.469161	0.080751
1032.637548	0.080118
1032.805916	0.080006
1032.974266	0.079924
1033.142598	0.080160
1033.310911	0.079157
1033.479207	0.078232
1033.647484	0.080955
1033.815743	0.081045
1033.983983	0.079972
1034.152206	0.080419
1034.320410	0.081680
1034.488596	0.080909
1034.656764	0.080008
1034.824914	0.079678
1034.993045	0.078976
1035.161158	0.076881
1035.329253	0.077217
1035.497330	0.077916
1035.665388	0.077237
1035.833428	0.075493
1036.001450	0.075640
1036.169454	0.075977
1036.337440	0.076778
1036.505407	0.079113
1036.673356	0.079153
1036.841287	0.078672
1037.009200	0.079544
1037.177094	0.080615
1037.344970	0.080130
1037.512828	0.079719
1037.680668	0.077963
1037.848489	0.077748
1038.016293	0.078414
1038.184078	0.078401
1038.351845	0.079855
1038.519593	0.080025
1038.687324	0.078930
1038.855036	0.079940
1039.022730	0.080829
1039.190406	0.081839
1039.358063	0.081534
1039.525702	0.080360
1039.693323	0.078643
1039.860926	0.078484
1040.028511	0.076897
1040.196077	0.078056
1040.363625	0.078380
1040.531155	0.077220
1040.698667	0.078254
1040.866161	0.078632
1041.033636	0.078601
1041.201093	0.080782
1041.368532	0.080908
1041.535952	0.080737
1041.703355	0.078767
1041.870739	0.077782
1042.038105	0.079209
1042.205452	0.077377
1042.372782	0.079192
1042.540093	0.077480
1042.707386	0.077776
1042.874661	0.077097
1043.041918	0.079491
1043.209156	0.081331
1043.376376	0.082348
1043.543578	0.082533
1043.710762	0.085026
1043.877927	0.083056
1044.045074	0.083924
1044.212203	0.082627
1044.379314	0.082138
1044.546407	0.081202
1044.713481	0.080156
1044.880537	0.079453
1045.047575	0.079886
1045.214595	0.078292
1045.381596	0.079234
1045.548579	0.078930
1045.715544	0.078996
1045.882491	0.080551
1046.049420	0.081441
1046.216330	0.081454
1046.383222	0.083025
1046.550096	0.082615
1046.716951	0.083012
1046.883789	0.083066
1047.050608	0.083102
1047.217409	0.083966
1047.384192	0.084405
1047.550956	0.083220
1047.717703	0.082473
1047.884431	0.080636
1048.051140	0.080896
1048.217832	0.081080
1048.384505	0.080910
1048.551161	0.080436
1048.717798	0.078813
1048.884416	0.077148
1049.051017	0.078079
1049.217599	0.079398
1049.384163	0.079758
1049.550709	0.078573
1049.717237	0.078145
1049.883746	0.076734
1050.050237	0.077191
1050.216710	0.076783
1050.383165	0.076309
1050.549601	0.074739
1050.716019	0.073488
1050.882420	0.073670
1051.048801	0.074408
1051.215165	0.074527
1051.381510	0.075168
1051.547837	0.074997
1051.714146	0.076992
1051.880437	0.078391
1052.046709	0.077543
1052.212964	0.077261
1052.379200	0.075922
1052.545417	0.075273
1052.711617	0.075129
1052.877798	0.076792
1053.043961	0.078166
1053.210106	0.076565
1053.376233	0.076239
1053.542341	0.076142
1053.708432	0.077778
1053.874504	0.077276
1054.040557	0.076727
1054.206593	0.076893
1054.372610	0.073812
1054.538609	0.073094
1054.704590	0.071961
1054.870553	0.069934
1055.036497	0.070469
1055.202424	0.069531
1055.368331	0.070309
1055.534221	0.071284
1055.700093	0.072228
1055.865946	0.073536
1056.031781	0.074017
1056.197598	0.075803
1056.363397	0.079391
1056.529177	0.080852
1056.694939	0.080390
1056.860683	0.079633
1057.026409	0.080297
1057.192116	0.080547
1057.357806	0.079867
1057.523477	0.078218
1057.689130	0.077451
1057.854764	0.074261
1058.020381	0.074409
1058.185979	0.077658
1058.351559	0.078669
1058.517120	0.076994
1058.682664	0.076646
1058.848189	0.077100
1059.013696	0.079903
1059.179185	0.079380
1059.344656	0.079807
1059.510108	0.078846
1059.675542	0.076732
1059.840958	0.074938
1060.006356	0.075248
1060.171735	0.073530
1060.337096	0.074650
1060.502439	0.073941
1060.667764	0.075965
1060.833071	0.078157
1060.998359	0.078567
1061.163629	0.078521
1061.328881	0.079810
1061.494115	0.079397
1061.659330	0.080277
1061.824527	0.080140
1061.989706	0.079071
1062.154867	0.079827
1062.320010	0.080605
1062.485134	0.080459
1062.650240	0.080084
1062.815328	0.079586
1062.980398	0.081655
1063.145449	0.082518
1063.310482	0.082693
1063.475497	0.083564
1063.640494	0.082078
1063.805473	0.079476
1063.970433	0.078162
1064.135375	0.078036
1064.300299	0.080375
1064.465204	0.077860
1064.630092	0.077003
1064.794961	0.076505
1064.959812	0.077359
1065.124645	0.077532
1065.289459	0.078891
1065.454256	0.080634
1065.619034	0.083210
1065.783793	0.081959
1065.948535	0.086268
1066.113258	0.086202
1066.277964	0.085240
1066.442651	0.083728
1066.607319	0.085165
1066.771970	0.083673
1066.936602	0.082730
1067.101216	0.081806
1067.265812	0.082935
1067.430389	0.080566
1067.594949	0.081780
1067.759490	0.081171
1067.924013	0.081630
1068.088518	0.080358
1068.253004	0.082475
1068.417472	0.081992
1068.581922	0.080234
1068.746354	0.079962
1068.910768	0.079679
1069.075163	0.077276
1069.239540	0.077961
1069.403899	0.077949
1069.568240	0.078152
1069.732562	0.075801
1069.896866	0.077131
1070.061152	0.075776
1070.225420	0.076168
1070.389670	0.075871
1070.553901	0.078287
1070.718114	0.079549
1070.882309	0.078938
1071.046486	0.078840
1071.210644	0.081611
1071.374784	0.080596
1071.538906	0.081875
1071.703010	0.079910
1071.867096	0.079780
1072.031163	0.077778
1072.195212	0.079155
1072.359243	0.080983
1072.523256	0.080342
1072.687250	0.077441
1072.851226	0.077688
1073.015184	0.079889
1073.179124	0.080145
1073.343045	0.080991
1073.506949	0.080750
1073.670834	0.079288
1073.834701	0.076113
1073.998549	0.077596
1074.162380	0.079148
1074.326192	0.078954
1074.489986	0.075462
1074.653761	0.075019
1074.817519	0.075095
1074.981258	0.075806
1075.144979	0.074838
1075.308682	0.077476
1075.472367	0.077656
1075.636033	0.077387
1075.799681	0.078763
1075.963311	0.082174
1076.126923	0.084716
1076.290516	0.085268
1076.454092	0.086312
1076.617649	0.088101
1076.781187	0.088884
1076.944708	0.087670
1077.108210	0.088555
1077.271695	0.088510
1077.435160	0.086221
1077.598608	0.084650
1077.762038	0.083201
1077.925449	0.082805
1078.088842	0.081589
1078.252217	0.081251
1078.415573	0.081689
1078.578912	0.080834
1078.742232	0.078882
1078.905534	0.080317
1079.068817	0.082323
1079.232083	0.083739
1079.395330	0.085773
1079.558559	0.085265
1079.721770	0.084015
1079.884962	0.083071
1080.048136	0.082965
1080.211293	0.084438
1080.374430	0.086679
1080.537550	0.083471
1080.700651	0.081431
1080.863735	0.079854
1081.026800	0.084862
1081.189846	0.084325
1081.352875	0.084783
1081.515885	0.083743
1081.678877	0.084977
1081.841851	0.082416
1082.004807	0.084828
1082.167744	0.086773
1082.330663	0.089492
1082.493564	0.083114
1082.656447	0.083825
1082.819312	0.084851
1082.982158	0.085810
1083.144986	0.084444
1083.307796	0.082176
1083.470587	0.081609
1083.633361	0.079463
1083.796116	0.076013
1083.958853	0.078432
1084.121571	0.077050
1084.284272	0.075934
1084.446954	0.073729
1084.609618	0.073007
1084.772264	0.075986
1084.934892	0.076472
1085.097501	0.078598
1085.260092	0.080863
1085.422665	0.081762
1085.585220	0.082370
1085.747756	0.082345
1085.910274	0.085640
1086.072774	0.087323
1086.235256	0.087134
1086.397720	0.087271
1086.560165	0.085205
1086.722592	0.085327
1086.885001	0.083425
1087.047392	0.083455
1087.209764	0.082053
1087.372119	0.079129
1087.534455	0.077643
1087.696772	0.077563
1087.859072	0.078561
1088.021353	0.079390
1088.183616	0.077826
1088.345861	0.077373
1088.508088	0.077578
1088.670296	0.080897
1088.832486	0.082492
1088.994658	0.081607
1089.156812	0.081475
1089.318948	0.082074
1089.481065	0.084110
1089.643164	0.084861
1089.805245	0.085272
1089.967308	0.086892
1090.129352	0.083291
1090.291378	0.084263
1090.453386	0.085972
1090.615376	0.086868
1090.777347	0.083227
1090.939301	0.081022
1091.101236	0.081686
1091.263153	0.085135
1091.425051	0.083506
1091.586932	0.087002
1091.748794	0.087696
1091.910638	0.089623
1092.072463	0.089883
1092.234271	0.089751
1092.396060	0.089484
1092.557831	0.084585
1092.719584	0.082976
1092.881319	0.084615
1093.043035	0.084726
1093.204733	0.085181
1093.366413	0.082485
1093.528075	0.082441
1093.689718	0.083997
1093.851343	0.083664
1094.012950	0.086731
1094.174539	0.085693
1094.336110	0.085954
1094.497662	0.083751
1094.659196	0.082095
1094.820712	0.082125
1094.982210	0.080869
1095.143689	0.082282
1095.305151	0.082566
1095.466594	0.083254
1095.628018	0.080263
1095.789425	0.078067
1095.950813	0.077712
1096.112183	0.076390
1096.273535	0.076590
1096.434869	0.075417
1096.596184	0.073189
1096.757482	0.073964
1096.918761	0.073179
1097.080021	0.076775
1097.241264	0.075605
1097.402488	0.074243
1097.563694	0.075749
1097.724882	0.077830
1097.886052	0.081128
1098.047203	0.082670
1098.208336	0.083085
1098.369451	0.084737
1098.530548	0.083250
1098.691627	0.083346
1098.852687	0.084703
1099.013729	0.085243
1099.174753	0.084548
1099.335758	0.082912
1099.496746	0.083185
1099.657715	0.082469
1099.818666	0.078385
1099.979599	0.079435
1100.140513	0.080129
1100.301409	0.082238
1100.462287	0.082033
1100.623147	0.077933
1100.783989	0.077481
1100.944812	0.075685
1101.105617	0.078386
1101.266404	0.078716
1101.427173	0.078004
1101.587923	0.079383
1101.748656	0.079787
1101.909370	0.079036
1102.070066	0.080290
1102.230743	0.078909
1102.391403	0.079723
1102.552044	0.077724
1102.712667	0.079792
1102.873271	0.082083
1103.033858	0.082087
1103.194426	0.080209
1103.354976	0.082501
1103.515508	0.083450
1103.676021	0.082009
1103.836517	0.081085
1103.996994	0.079161
1104.157453	0.079497
1104.317893	0.073543
1104.478316	0.072758
1104.638720	0.074809
1104.799106	0.072592
1104.959474	0.074423
1105.119823	0.077439
1105.280155	0.077235
1105.440468	0.078902
1105.600763	0.077492
1105.761039	0.081720
1105.921298	0.086209
1106.081538	0.084892
1106.241760	0.087257
1106.401964	0.086019
1106.562149	0.083724
1106.722316	0.084373
1106.882465	0.084738
1107.042596	0.083873
1107.202709	0.081704
1107.362803	0.075622
1107.522879	0.078042
1107.682937	0.077233
1107.842977	0.077775
1108.002999	0.081223
1108.163002	0.079891
1108.322987	0.076467
1108.482954	0.078555
1108.642902	0.080785
1108.802833	0.081336
1108.962745	0.074675
1109.122639	0.073342
1109.282515	0.072470
1109.442372	0.068867
1109.602211	0.069877
1109.762032	0.073716
1109.921835	0.072661
1110.081620	0.070570
1110.241386	0.076313
1110.401134	0.079737
1110.560864	0.081518
1110.720576	0.078691
1110.880269	0.080477
1111.039945	0.080649
1111.199602	0.078330
1111.359240	0.079166
1111.518861	0.080943
1111.678463	0.075205
1111.838047	0.072355
1111.997613	0.068693
1112.157161	0.072491
1112.316690	0.069557
1112.476202	0.071797
1112.635695	0.073368
1112.795169	0.071838
1112.954626	0.071307
1113.114064	0.072215
1113.273484	0.071999
1113.432886	0.074212
1113.592270	0.074143
1113.751635	0.075937
1113.910983	0.075516
1114.070312	0.078010
1114.229622	0.080032
1114.388915	0.082266
1114.548189	0.082631
1114.707445	0.087087
1114.866683	0.087146
1115.025903	0.086548
1115.185104	0.087027
1115.344287	0.086138
1115.503452	0.084731
1115.662599	0.082188
1115.821727	0.080642
1115.980838	0.081942
1116.139930	0.077760
1116.299004	0.079522
1116.458059	0.078014
1116.617097	0.073354
1116.776116	0.071896
1116.935117	0.073510
1117.094099	0.073745
1117.253064	0.073633
1117.412010	0.072460
1117.570938	0.076550
1117.729848	0.073539
1117.888740	0.071058
1118.047613	0.078668
1118.206468	0.080707
1118.365305	0.080490
1118.524124	0.084212
1118.682924	0.080663
1118.841707	0.081807
1119.000471	0.081360
1119.159216	0.083885
1119.317944	0.084993
1119.476653	0.079450
1119.635344	0.077301
1119.794017	0.076031
1119.952672	0.073927
1120.111308	0.077226
1120.269927	0.076115
1120.428527	0.073413
1120.587108	0.069713
1120.745672	0.068514
1120.904217	0.073707
1121.062744	0.070364
1121.221253	0.067080
1121.379744	0.066860
1121.538216	0.065655
1121.696671	0.064530
1121.855107	0.063789
1122.013524	0.064412
1122.171924	0.070407
1122.330305	0.069153
1122.488668	0.069523
1122.647013	0.070214
1122.805340	0.069737
1122.963648	0.071709
1123.121938	0.070038
1123.280210	0.070834
1123.438464	0.068153
1123.596700	0.066149
1123.754917	0.059980
1123.913116	0.061053
1124.071297	0.060589
1124.229459	0.061470
1124.387604	0.058184
1124.545730	0.062803
1124.703838	0.060694
1124.861928	0.063122
1125.019999	0.061733
1125.178052	0.065903
1125.336088	0.074692
1125.494104	0.074515
1125.652103	0.073703
1125.810083	0.081330
1125.968045	0.074958
1126.125989	0.079589
1126.283915	0.078704
1126.441823	0.079355
1126.599712	0.080212
1126.757583	0.075385
1126.915436	0.076678
1127.073270	0.077850
1127.231087	0.071516
1127.388885	0.074024
1127.546665	0.077546
1127.704426	0.079287
1127.862170	0.075232
1128.019895	0.073301
1128.177602	0.069417
1128.335291	0.073287
1128.492961	0.072141
1128.650614	0.073250
1128.808248	0.076081
1128.965864	0.072417
1129.123461	0.071234
1129.281041	0.079652
1129.438602	0.080328
1129.596145	0.085343
1129.753670	0.080047
1129.911176	0.080934
1130.068665	0.079009
1130.226135	0.073665
1130.383587	0.076040
1130.541020	0.079476
1130.698436	0.072107
1130.855833	0.070686
1131.013212	0.067427
1131.170573	0.069890
1131.327915	0.071695
1131.485239	0.071316
1131.642545	0.072341
1131.799833	0.070328
1131.957103	0.067125
1132.114354	0.071663
1132.271588	0.073131
1132.428803	0.072683
1132.585999	0.069128
1132.743178	0.066744
1132.900338	0.065656
1133.057480	0.068559
1133.214604	0.069024
1133.371710	0.068530
1133.528797	0.066948
1133.685866	0.068861
1133.842917	0.070086
1133.999950	0.074908
1134.156964	0.079122
1134.313960	0.087186
1134.470938	0.086965
1134.627898	0.084124
1134.784840	0.082619
1134.941763	0.083125
1135.098668	0.082815
1135.255555	0.079390
1135.412424	0.076896
1135.569274	0.070034
1135.726107	0.064378
1135.882921	0.060369
1136.039716	0.064919
1136.196494	0.072081
1136.353253	0.072566
1136.509995	0.069349
1136.666717	0.071452
1136.823422	0.071093
1136.980109	0.072010
1137.136777	0.075585
1137.293427	0.079519
1137.450059	0.074165
1137.606672	0.073359
1137.763267	0.071665
1137.919844	0.076543
1138.076403	0.073718
1138.232944	0.072874
1138.389466	0.074864
1138.545971	0.070834
1138.702457	0.071148
1138.858924	0.071492
1139.015374	0.070834
1139.171805	0.074454
1139.328218	0.077553
1139.484613	0.078050
1139.640990	0.074646
1139.797348	0.070820
1139.953688	0.074902
1140.110010	0.072069
1140.266314	0.072762
1140.422600	0.068124
1140.578867	0.063867
1140.735116	0.055545
1140.891347	0.054174
1141.047559	0.054065
1141.203754	0.055631
1141.359930	0.053528
1141.516088	0.052888
1141.672228	0.050455
1141.828349	0.051346
1141.984452	0.052370
1142.140537	0.055847
1142.296604	0.060450
1142.452653	0.065376
1142.608683	0.063999
1142.764695	0.059612
1142.920689	0.063922
1143.076665	0.066518
1143.232622	0.066750
1143.388562	0.068598
1143.544483	0.068084
1143.700385	0.066146
1143.856270	0.066857
1144.012136	0.068739
1144.167985	0.076491
1144.323814	0.075165
1144.479626	0.078061
1144.635420	0.078356
1144.791195	0.078652
1144.946952	0.069243
1145.102691	0.069006
1145.258411	0.066241
1145.414113	0.063089
1145.569798	0.066115
1145.725463	0.062362
1145.881111	0.059332
1146.036741	0.062043
1146.192352	0.058811
1146.347945	0.068678
1146.503519	0.069469
1146.659076	0.074778
1146.814614	0.082120
1146.970134	0.074120
1147.125636	0.073481
1147.281120	0.077738
1147.436585	0.072906
1147.592032	0.071943
1147.747461	0.066935
1147.902872	0.070305
1148.058265	0.069516
1148.213639	0.069805
1148.368995	0.072248
1148.524333	0.082654
1148.679653	0.078921
1148.834954	0.080386
1148.990237	0.084173
1149.145502	0.085647
1149.300749	0.083444
1149.455977	0.079402
1149.611188	0.078006
1149.766380	0.076064
1149.921553	0.069634
1150.076709	0.066637
1150.231846	0.064533
1150.386966	0.062594
1150.542066	0.065332
1150.697149	0.070936
1150.852214	0.075057
1151.007260	0.078965
1151.162288	0.077154
1151.317298	0.079044
1151.472289	0.084898
1151.627263	0.092078
1151.782218	0.086984
1151.937155	0.088319
1152.092073	0.081952
1152.246974	0.072660
1152.401856	0.065056
1152.556720	0.065841
1152.711566	0.064224
1152.866393	0.059600
1153.021203	0.058178
1153.175994	0.063630
1153.330767	0.060155
1153.485521	0.060666
1153.640258	0.065349
1153.794976	0.068874
1153.949676	0.067521
1154.104358	0.071233
1154.259021	0.070053
1154.413667	0.071511
1154.568294	0.066606
1154.722903	0.062947
1154.877493	0.062954
1155.032066	0.063195
1155.186620	0.058321
1155.341156	0.060353
1155.495674	0.047840
1155.650173	0.050218
1155.804654	0.043701
1155.959118	0.048191
1156.113562	0.049304
1156.267989	0.052537
1156.422397	0.053510
1156.576788	0.050730
1156.731160	0.049239
1156.885513	0.055176
1157.039849	0.052619
1157.194166	0.055609
1157.348465	0.055149
1157.502746	0.058908
1157.657009	0.051477
1157.811253	0.043948
1157.965479	0.050803
1158.119687	0.051221
1158.273877	0.047729
1158.428048	0.044383
1158.582201	0.043858
1158.736337	0.041116
1158.890453	0.036461
1159.044552	0.035035
1159.198632	0.042400
1159.352694	0.040701
1159.506738	0.044487
1159.660764	0.048127
1159.814771	0.051537
1159.968761	0.050611
1160.122732	0.045793
1160.276685	0.053146
1160.430619	0.059490
1160.584535	0.058325
1160.738434	0.058357
1160.892313	0.056049
1161.046175	0.055099
1161.200019	0.055651
1161.353844	0.055198
1161.507651	0.059253
1161.661440	0.056372
1161.815210	0.055318
1161.968962	0.051837
1162.122697	0.053596
1162.276412	0.046756
1162.430110	0.052461
1162.583789	0.057759
1162.737451	0.051849
1162.891094	0.051873
1163.044718	0.050387
1163.198325	0.046304
1163.351913	0.050224
1163.505483	0.040489
1163.659035	0.042495
1163.812569	0.037982
1163.966084	0.032648
1164.119581	0.044008
1164.273060	0.042431
1164.426521	0.039968
1164.579964	0.046016
1164.733388	0.040367
1164.886794	0.051486
1165.040182	0.051468
1165.193551	0.046837
1165.346903	0.049551
1165.500236	0.044403
1165.653551	0.049114
1165.806848	0.057608
1165.960126	0.056963
1166.113386	0.061579
1166.266628	0.054931
1166.419852	0.063534
1166.573058	0.069131
1166.726245	0.064131
1166.879414	0.064351
1167.032565	0.067846
1167.185698	0.061013
1167.338812	0.056649
1167.491909	0.057639
1167.644987	0.058124
1167.798046	0.058433
1167.951088	0.062984
1168.104111	0.066399
1168.257117	0.068272
1168.410103	0.066252
1168.563072	0.063131
1168.716023	0.068046
1168.868955	0.071155
1169.021869	0.063184
1169.174765	0.050294
1169.327642	0.038845
1169.480501	0.037031
1169.633343	0.028288
1169.786165	0.023572
1169.938970	0.019513
1170.091757	0.011500
1170.244525	0.004681
1170.397275	0.011962
1170.550007	0.012503
1170.702720	0.020087
1170.855415	0.022212
1171.008092	0.028965
1171.160751	0.031622
1171.313392	0.040549
1171.466014	0.063205
1171.618619	0.057429
1171.771205	0.057429
1171.923772	0.057429
