sample name	sample
index	53
start time	 02-11-2021  02:36:01 PM
880	0.353296
Peak Time (s)	92.537
Peak Height 	0.3533
calc peak height	90,93
Baseline Time (s)	11.037
Baseline Value 	-9.998E-4
subtract baseline	10,4
Abs	0.240199
Peak Time (s)	92.537
Peak Height 	0.2402
calc peak height	90,93
Baseline Time (s)	10.037
Baseline Value 	0.00808
subtract baseline	10,3
PK_550	0.121043
Peak Time (s)	91.037
Peak Height 	0.121
calc peak height	90,93
Baseline Time (s)	10.537
Baseline Value 	0.001192
subtract baseline	10,2
PK_880	0.221642
Peak Time (s)	92.537
Peak Height 	0.2216
calc peak height	90,93
Baseline Time (s)	9.536
Baseline Value 	0.005709
subtract baseline	10,1


Time (s)	A880-A510	A880-A775	A880-A975	A880	I510	I775	I975	I880	
0.036000	0.000717	0.000240	0.001303	-0.000587	4563.511866	19507.741290	3302.315843	10653.161519
0.536000	-0.004176	-0.000676	-0.003068	0.000874	4540.289251	19417.625946	3297.304570	10627.292088
1.036500	-0.004782	-0.003002	-0.002639	-0.000145	4541.788798	19368.272735	3298.541930	10645.315922
1.538500	-0.001554	-0.001839	-0.011183	-0.002042	4560.511390	19484.019806	3292.893541	10679.000239
2.034000	-0.003188	-0.000027	-0.003947	-0.000139	4547.569636	19480.590052	3297.418697	10645.222009
2.537500	-0.003323	-0.001578	-0.001103	-0.002158	4554.448577	19498.355072	3301.593966	10681.063018
3.035500	-0.003470	-0.001792	0.001662	-0.000875	4549.224128	19441.595924	3302.875875	10658.268338
3.535500	-0.001689	-0.000749	-0.013531	-0.001851	4559.311011	19518.165944	3290.758122	10675.592045
4.036000	-0.002015	0.000208	-0.011112	-0.001396	4556.448730	19537.296575	3292.409163	10667.511094
4.536000	-0.000827	0.000489	-0.005335	-0.000332	4556.903338	19507.470073	3296.399900	10648.629394
5.036500	-0.002819	-0.001027	-0.003292	-0.001695	4554.602040	19501.690838	3299.311816	10672.832958
5.536500	-0.005062	-0.000933	0.004905	-0.001750	4546.610816	19507.352555	3306.460074	10673.808772
6.037000	-0.000482	0.000912	-0.008468	-0.000410	4558.455751	19526.564045	3293.808505	10650.026217
6.537000	-0.002744	0.000951	0.005851	-0.000187	4549.360149	19519.544061	3305.920940	10646.062401
7.037500	-0.004062	-0.001180	-0.007087	-0.002520	4553.068056	19527.235553	3296.771803	10687.504154
7.535000	-0.000712	0.001130	0.001910	0.000241	4555.221819	19510.064641	3302.124253	10638.483105
8.035500	-0.003506	-0.001200	0.008395	-0.001827	4552.567548	19500.142231	3309.592809	10675.172028
8.536000	0.001245	0.000260	0.003505	0.000031	4563.180879	19485.027150	3303.688365	10642.207268
9.035500	-0.002532	0.000137	-0.002156	-0.000559	4551.493260	19502.763478	3299.311437	10652.658963
9.536000	0.000000	-0.002474	-0.009663	-0.002088	4566.402656	19461.695098	3294.216850	10679.821078
10.036500	-0.004371	-0.002316	0.000000	-0.001885	4549.621767	19460.003722	3302.311556	10676.210532
10.536500	0.000528	0.000000	-0.007254	0.000411	4559.146481	19460.725694	3294.140593	10635.473450
11.037000	0.000769	-0.000771	0.014854	0.000000	4561.545410	19447.106797	3313.698654	10642.754978
11.537500	-0.000092	0.000006	0.005876	0.001942	4551.270873	19403.022246	3304.087845	10608.439357
12.035000	-0.004648	-0.001065	-0.004905	-0.000208	4542.505270	19443.851909	3296.660913	10646.441418
12.535500	-0.003743	-0.001034	0.000228	-0.000011	4545.078758	19437.560012	3300.890129	10642.950891
13.035500	-0.001935	0.000152	0.006535	-0.001499	4557.118066	19539.092102	3307.668361	10669.343874
13.535500	-0.004725	0.000094	0.001682	0.003988	4527.057026	19329.268335	3298.703085	10572.461062
14.036000	-0.002661	-0.001320	-0.003035	0.000978	4545.419677	19389.386668	3297.244167	10625.465235
14.536500	-0.002335	-0.001321	-0.001242	0.003266	4538.293842	19303.270614	3296.822068	10585.153103
15.036500	-0.001273	-0.000201	0.007711	0.001418	4548.871549	19415.005468	3306.143169	10617.686353
15.542500	-0.002519	-0.000440	-0.002923	0.003122	4538.145715	19341.740928	3295.514011	10587.669374
16.036500	-0.004200	0.000056	0.007970	0.001182	4539.087786	19433.674596	3306.576388	10621.862778
16.534500	-0.001903	-0.000600	0.008776	0.001313	4546.959244	19403.937469	3307.167526	10619.550538
17.035000	-0.001672	-0.001875	0.002640	0.000442	4550.978424	19388.679784	3302.582260	10634.939580
17.535000	-0.008148	-0.001390	-0.001646	0.002726	4519.301183	19320.897059	3296.937245	10594.631236
18.035500	0.000462	0.000474	-0.005620	0.001469	4555.027694	19438.624376	3294.628053	10616.785257
18.536000	-0.001546	-0.001878	0.009352	0.001041	4549.251500	19365.990602	3307.911041	10624.348613
19.036000	-0.001292	-0.001465	-0.005689	0.002111	4546.276567	19341.218945	3294.026689	10605.468203
19.536500	-0.002871	-0.000807	-0.003628	0.003110	4536.915988	19328.374426	3294.925420	10587.880028
20.036500	-0.000050	-0.000323	-0.013121	0.002538	4549.247399	19368.161882	3287.438016	10597.952681
20.537000	-0.002255	-0.000935	-0.003437	0.003118	4539.119902	19323.301324	3295.081170	10587.745811
21.042500	-0.002491	-0.001203	-0.005182	0.002045	4542.155112	19353.587351	3294.511670	10606.633889
21.540500	-0.003829	-0.000369	-0.007809	0.003676	4531.411639	19323.608669	3290.922961	10577.949212
22.035000	-0.005249	-0.000816	-0.006368	0.002897	4529.095124	19336.076355	3292.788882	10591.624438
22.535500	-0.001666	-0.000191	-0.010713	0.003961	4538.200064	19319.570926	3288.257116	10572.944066
23.035500	0.000801	-0.000389	0.001501	0.003825	4547.659115	19317.221666	3298.687541	10575.324555
23.536000	-0.002421	-0.001178	-0.000572	0.003204	4538.207031	19310.932095	3297.446274	10586.232545
24.035500	-0.001203	-0.000284	-0.003363	0.004403	4538.276153	19299.503210	3294.055540	10565.197613
24.536000	0.000136	-0.001331	-0.002439	0.003738	4545.552190	19285.130371	3295.401915	10576.850157
25.037000	0.003020	0.000897	-0.006703	0.005025	4551.377793	19320.470218	3290.718754	10554.292724
25.537000	-0.003353	-0.000103	-0.002998	0.004295	4530.894037	19310.342143	3294.455622	10567.082916
26.037500	-0.000360	0.000139	0.000673	0.004641	4540.468357	19306.426093	3297.282037	10561.018178
26.535000	-0.001464	-0.000161	-0.011108	0.005840	4532.132163	19250.242395	3286.368576	10540.039680
27.035500	0.001171	-0.000960	-0.006313	0.003851	4548.914435	19294.836605	3292.031992	10574.874248
27.535500	0.001673	-0.001402	0.011741	0.004119	4549.766385	19268.212549	3307.306372	10570.167473
28.036000	0.002901	0.001386	0.009785	0.002662	4559.596296	19427.981861	3306.869401	10595.766509
28.535500	0.000654	0.000055	0.007623	0.003706	4547.557580	19338.412047	3304.073265	10577.420306
29.036500	0.000555	-0.001103	-0.002821	0.002367	4552.080331	19345.198662	3296.241826	10600.952140
29.536500	0.001655	0.000077	0.008279	0.003575	4551.688967	19344.179361	3304.757650	10579.719607
30.036500	-0.002222	-0.000024	0.003770	0.003446	4538.049616	19345.217155	3300.963529	10581.985128
30.537000	-0.003492	-0.000048	0.010194	0.006522	4522.383678	19228.977673	3303.859591	10528.136354
31.034500	0.001308	-0.000263	0.006381	0.003734	4549.840893	19325.424850	3302.971377	10576.929389
31.557000	0.000278	-0.000683	0.003160	0.003367	4547.422448	19323.410364	3300.506503	10583.374764
32.035500	0.001114	-0.000391	-0.004580	0.005755	4541.774124	19244.830527	3291.888188	10541.525032
32.538500	-0.003936	-0.001352	0.001944	0.006748	4519.982180	19171.900523	3296.569697	10524.197628
33.044000	-0.000747	-0.000858	0.003556	0.003274	4544.029471	19320.344919	3300.927621	10585.005437
33.536500	-0.003444	-0.000408	0.003742	0.002904	4535.585863	19351.162193	3301.406439	10591.503183
34.036500	-0.000435	0.000163	0.003405	0.003504	4544.326614	19350.064871	3300.599440	10580.964885
34.537000	-0.003394	-0.000692	-0.014710	0.006647	4522.284465	19200.240858	3282.735094	10525.953855
35.037000	0.000557	-0.000329	-0.005750	0.001763	4554.296202	19397.151549	3294.268990	10611.600260
35.537500	-0.000759	-0.000470	-0.011985	0.004628	4539.069900	19284.083110	3286.646045	10561.250163
36.035000	-0.002830	-0.000777	0.005393	0.005590	4528.113922	19236.584698	3300.514766	10544.420321
36.535500	-0.002061	-0.000464	0.004940	0.006574	4527.340235	19211.516445	3299.279884	10527.238207
37.035500	-0.000089	0.000467	0.000374	0.006207	4535.779643	19260.039505	3295.694256	10533.643454
37.536000	0.000260	-0.001024	0.002379	0.005623	4539.155229	19226.116629	3297.900373	10543.837661
38.036000	-0.000775	0.001066	-0.006550	0.006412	4532.555396	19274.776525	3289.685377	10530.051888
38.536500	-0.002819	-0.000635	0.011089	0.007771	4520.320578	19160.536184	3303.552824	10506.388151
39.036500	-0.002555	-0.000913	0.002410	0.005568	4529.181490	19232.319115	3297.973927	10544.799277
39.537000	-0.000686	-0.001531	0.008156	0.005128	4537.520155	19225.645587	3303.301055	10552.491976
40.037000	-0.002740	-0.001110	-0.012712	0.005283	4529.541184	19235.584074	3285.502448	10549.784359
40.535000	0.000573	-0.000406	0.002637	0.006494	4537.134966	19216.652847	3297.376850	10528.627240
41.035000	0.000835	-0.000236	0.008927	0.006692	4537.366445	19215.606337	3302.613968	10525.172510
41.535000	0.001303	0.000541	0.000415	0.006525	4539.666408	19250.903538	3295.459168	10528.094783
42.035000	-0.003986	-0.000123	0.002653	0.006322	4521.328708	19233.611776	3297.536732	10531.620383
42.536000	0.001823	0.000087	0.001914	0.007025	4539.739039	19215.242100	3296.307789	10519.371851
43.036000	-0.001785	0.001044	-0.009749	0.007288	4525.764105	19241.163045	3286.295400	10514.794603
43.536500	-0.000362	0.000099	0.004621	0.006557	4533.524938	19233.175799	3299.020680	10527.536518
44.036500	-0.004387	-0.000027	-0.003441	0.006309	4519.940578	19237.725837	3292.380313	10531.858471
44.537500	0.002206	0.000918	0.017313	0.007296	4540.145522	19236.138503	3309.411737	10514.650275
45.037500	0.002786	-0.000499	0.003449	0.006090	4546.639324	19228.280604	3298.416614	10535.684695
45.535000	0.003911	0.000903	0.004628	0.008289	4542.731659	19198.518207	3297.544323	10497.384208
46.039500	0.000710	0.000313	0.005342	0.005902	4539.774366	19265.658961	3300.201613	10538.953678
46.554500	0.000692	-0.000044	0.005914	0.005151	4542.435307	19280.440091	3301.341750	10552.089557
47.035500	0.004211	0.000517	0.005778	0.005217	4555.031548	19299.006569	3301.167219	10550.934915
47.536000	-0.000333	-0.000765	0.000794	0.006185	4534.973890	19214.780617	3296.069241	10534.013237
48.046000	0.001191	0.000475	-0.001239	0.006248	4540.266820	19258.793335	3294.291609	10532.921820
48.576000	-0.005357	-0.000691	0.001357	0.009847	4503.879570	19081.381208	3293.443435	10470.367620
49.036500	-0.001595	0.000516	0.007679	0.006917	4527.779179	19235.275777	3301.340321	10521.246958
49.540500	-0.002322	-0.001468	0.003919	0.006546	4526.499945	19175.124430	3298.428474	10527.720340
50.035500	-0.000833	0.000443	-0.000419	0.005507	4535.614569	19285.343929	3295.614918	10545.858418
50.535000	0.001866	0.000441	0.007095	0.011350	4524.286002	19067.659809	3297.037705	10444.396128
51.038000	0.003383	0.000820	-0.001977	0.005750	4550.053646	19290.370155	3294.087850	10541.611933
51.536000	0.000300	0.001875	-0.000861	0.006309	4536.813910	19308.984644	3294.559232	10531.850138
52.036500	0.001373	0.000979	0.005104	0.004422	4547.564300	19346.228436	3301.272171	10564.852315
52.539000	-0.021585	-0.012584	0.020276	0.099932	4169.662075	15716.225667	3238.003856	9062.184061
53.420000	-0.032066	-0.009083	-0.005518	-0.046451	4612.400986	20956.600820	3337.652424	11510.801703
53.889500	-0.033674	-0.008916	-0.008574	-0.090883	4783.160401	22898.484888	3378.736562	12432.676535
54.040000	-0.031801	-0.010221	-0.012364	-0.107632	4862.826638	23618.719841	3392.430082	12805.400752
54.537000	-0.028748	-0.007508	-0.006691	-0.144398	5045.097530	25580.755378	3440.244976	13675.797073
55.037500	-0.018924	-0.007004	0.000251	-0.120735	4979.842108	24408.249634	3420.845815	13107.182152
55.534500	-0.011780	-0.005234	0.005092	-0.097821	4907.982406	23391.037193	3400.701728	12585.339181
56.035000	-0.002149	-0.002684	-0.003766	-0.075947	4853.964540	22503.675643	3368.315828	12112.208324
56.536000	-0.004928	-0.005527	0.000546	-0.045024	4712.898074	21044.879347	3342.065105	11482.743785
57.036000	0.005793	-0.006170	0.015977	-0.030871	4699.133126	20440.476775	3343.289158	11209.243528
57.536500	0.001310	-0.004704	0.011162	-0.010854	4603.996015	19711.273655	3320.134280	10837.354349
58.036500	0.000544	-0.006011	0.006025	-0.003091	4572.115804	19365.932062	3308.618113	10697.671767
58.537000	0.000462	-0.004935	0.008916	0.004978	4542.229817	19104.557254	3304.091374	10555.116901
59.037000	0.010270	-0.005171	0.014776	0.013530	4546.799852	18781.966277	3301.759184	10406.887449
59.535000	0.012717	-0.004035	0.018955	0.023753	4518.721869	18455.201747	3296.574207	10233.477504
60.035000	0.017968	-0.003928	0.013622	0.032430	4506.511410	18153.277282	3284.831438	10089.470740
60.535500	0.019702	-0.001586	0.029755	0.050610	4449.213071	17610.663453	3283.147036	9796.895993
61.035500	0.027441	-0.000741	0.033769	0.054386	4462.827372	17512.432010	3283.342756	9737.663659
61.535000	0.033638	0.001085	0.038816	0.064243	4450.250945	17246.528787	3279.413404	9585.404754
62.036000	0.042318	0.004811	0.052892	0.078294	4431.992990	16911.879130	3279.433768	9374.265128
62.536000	0.051643	0.008836	0.046297	0.101035	4387.359420	16325.169983	3256.391278	9046.693530
63.036000	0.066197	0.015507	0.066854	0.111885	4399.545323	16197.570061	3263.844358	8896.342130
63.539500	0.073356	0.021496	0.080318	0.123753	4384.068620	16020.128089	3265.084800	8736.123621
64.034500	0.082143	0.027485	0.082308	0.126542	4403.806851	16116.394521	3264.463297	8699.108716
64.534500	0.088301	0.031358	0.094709	0.138752	4383.892429	15867.051879	3264.611679	8539.813833
65.035000	0.093362	0.035439	0.115043	0.144814	4380.626827	15808.502478	3275.902604	8462.379770
65.536000	0.100870	0.038285	0.107527	0.154687	4372.935413	15602.966284	3262.194901	8338.551392
66.038500	0.105525	0.039611	0.105254	0.160985	4367.616198	15459.499006	3255.637625	8261.009760
66.536000	0.109521	0.042422	0.112307	0.168208	4357.233407	15333.610290	3255.509072	8173.470651
67.036000	0.115628	0.046515	0.117886	0.177981	4345.523999	15173.349758	3252.347798	8057.300168
67.535500	0.115005	0.049738	0.123653	0.186868	4315.618298	15015.629521	3250.016279	7953.918525
68.037000	0.125499	0.053630	0.135860	0.193776	4326.817811	14932.483623	3253.986136	7875.000012
68.537000	0.128675	0.056195	0.131817	0.201078	4313.939251	14803.071878	3245.545519	7792.942317
69.034500	0.128894	0.059280	0.139276	0.207568	4294.598856	14710.907386	3246.258375	7721.161575
69.535000	0.135297	0.061299	0.163476	0.215507	4289.900013	14552.377798	3258.452162	7634.789596
70.035500	0.141243	0.066169	0.151338	0.221348	4290.221761	14526.581824	3244.996520	7572.249954
70.535500	0.142696	0.067545	0.153693	0.227387	4276.295742	14403.505080	3242.307299	7508.459443
71.035500	0.152226	0.071395	0.150587	0.234449	4283.772130	14319.507406	3235.002842	7434.990334
71.536000	0.149709	0.073233	0.174758	0.240552	4257.847565	14208.887214	3248.101901	7372.442122
72.036000	0.155649	0.075491	0.159594	0.245921	4259.549883	14128.878924	3233.257280	7318.148274
72.536500	0.163741	0.079853	0.169604	0.251464	4267.170594	14098.659658	3236.427350	7262.788938
73.040000	0.167336	0.081908	0.169373	0.257535	4259.767083	13996.517915	3231.964698	7202.966360
73.534500	0.165050	0.083634	0.175926	0.260902	4243.018211	13955.061807	3234.212592	7170.146019
74.034500	0.165132	0.084009	0.193788	0.263578	4235.405850	13897.184902	3245.157451	7144.241004
74.535000	0.165205	0.085954	0.175818	0.274385	4204.385692	13677.123030	3224.736946	7041.242107
75.035500	0.173457	0.088729	0.175339	0.272549	4233.518596	13791.058114	3225.669639	7058.562171
75.535500	0.176301	0.089512	0.180401	0.276097	4231.460487	13722.562334	3226.713758	7025.151136
76.036000	0.176042	0.090207	0.184938	0.279444	4220.989452	13657.316534	3227.537592	6993.898327
76.536000	0.177707	0.091603	0.183433	0.285798	4207.495559	13536.352787	3222.141040	6935.207082
77.036500	0.182170	0.095381	0.195448	0.288490	4212.574995	13562.733475	3228.553531	6910.601007
77.537000	0.184757	0.096118	0.193584	0.292498	4208.500478	13483.508224	3224.498776	6874.250072
78.036500	0.185104	0.096083	0.195756	0.292089	4210.666989	13492.530499	3226.274084	6877.942171
78.534500	0.185853	0.098225	0.190634	0.301055	4187.311317	13328.974869	3216.709942	6797.742041
79.035000	0.192035	0.100311	0.198731	0.299972	4207.935443	13404.597055	3222.906864	6807.340168
79.535000	0.191312	0.101896	0.200814	0.301852	4200.507524	13397.539332	3223.045263	6790.697791
80.035500	0.193312	0.102214	0.204814	0.304816	4197.766739	13334.384740	3223.753162	6764.591716
80.535500	0.190177	0.102937	0.201381	0.311502	4170.196625	13193.495569	3216.910533	6706.366328
81.036000	0.194065	0.106034	0.206701	0.311164	4181.982813	13274.420455	3220.716532	6709.285774
81.536500	0.194000	0.105974	0.210706	0.312339	4178.513302	13245.252441	3222.639775	6699.142044
82.036500	0.196480	0.107135	0.207504	0.315304	4177.157782	13202.789648	3218.466004	6673.649645
82.540000	0.199679	0.107951	0.216177	0.321009	4170.184421	13088.596183	3220.467690	6625.103031
83.036500	0.202756	0.109902	0.213935	0.322201	4175.424187	13106.224330	3218.153230	6615.032217
83.537500	0.204762	0.109200	0.216177	0.321470	4183.080027	13106.914551	3220.155363	6621.202477
84.035000	0.207361	0.110506	0.199943	0.323880	4183.608895	13081.264569	3207.821904	6600.903438
84.535000	0.203579	0.112237	0.219577	0.330583	4154.533553	12966.508910	3216.319464	6545.035107
85.035000	0.205775	0.111963	0.214975	0.327347	4169.510934	13034.709595	3215.410439	6571.901982
85.535500	0.215120	0.114702	0.228196	0.331620	4183.662948	12999.347501	3221.421195	6536.471213
86.036000	0.210565	0.112260	0.211698	0.330976	4172.735182	12958.040844	3210.854557	6541.786730
86.536500	0.209439	0.114492	0.224341	0.337057	4152.853418	12870.185092	3215.181290	6491.887422
87.039500	0.208282	0.113996	0.212237	0.333969	4158.148769	12929.265851	3209.253401	6517.144651
87.539500	0.208743	0.114277	0.220374	0.335910	4154.086950	12891.382705	3213.313716	6501.250136
88.037000	0.214346	0.117845	0.231397	0.340238	4157.583882	12874.104841	3217.767193	6466.065337
88.535000	0.211927	0.115473	0.206621	0.341756	4146.819510	12786.067722	3200.664694	6453.810008
89.035000	0.216325	0.117369	0.223903	0.342123	4157.842288	12820.566156	3211.547652	6450.851579
89.535000	0.214210	0.118822	0.227346	0.343203	4149.096597	12829.018512	3213.102142	6442.166041
90.035500	0.219011	0.120066	0.230063	0.346125	4154.234384	12791.119802	3212.967134	6418.768934
90.539000	0.213192	0.118259	0.220617	0.347831	4133.799790	12712.261259	3205.708569	6405.184825
91.036500	0.218403	0.121043	0.234799	0.347925	4147.656489	12772.589249	3214.909157	6404.437322
91.536000	0.217780	0.119328	0.225480	0.349879	4140.658226	12690.377050	3207.522953	6388.944233
92.036500	0.219443	0.118476	0.208520	0.348219	4149.691178	12708.436048	3197.799892	6402.101681
92.537000	0.221642	0.120984	0.240199	0.353296	4141.863990	12651.182768	3214.928764	6362.017861
93.034500	0.223792	0.124509	0.238986	0.354696	4143.897593	12698.506588	3213.199141	6351.047334
93.537500	0.224337	0.123794	0.226468	0.356112	4141.535375	12651.045053	3204.150999	6339.983140
94.035500	0.222012	0.121997	0.236081	0.354958	4138.365674	12636.755968	3211.117136	6348.995355
94.538500	0.226482	0.124322	0.252324	0.357304	4144.118943	12636.286628	3220.366627	6330.697429
95.036000	0.221697	0.123324	0.251007	0.357075	4131.810606	12619.241218	3219.632133	6332.480640
95.536000	0.223378	0.124251	0.241374	0.360284	4127.712916	12568.861712	3211.095722	6307.608532
96.036500	0.226570	0.125570	0.245230	0.361212	4133.789859	12577.466723	3213.019498	6300.442936
96.542000	0.228901	0.125410	0.239666	0.361271	4139.921843	12572.626717	3209.335373	6299.988298
97.037000	0.221912	0.123040	0.235008	0.359652	4125.480790	12556.090544	3207.364121	6312.486076
97.537000	0.231801	0.124226	0.240967	0.363271	4142.359952	12502.713580	3208.880740	6284.610147
98.034000	0.230358	0.126609	0.237743	0.363907	4136.737814	12541.030341	3206.384313	6279.741027
