sample name	sample
index	192
start time	 02-18-2021  11:57:11 AM
880	0.462719
Peak Time (s)	92.535
Peak Height 	0.4627
calc peak height	90,93
Baseline Time (s)	9.034
Baseline Value 	-0.002184
subtract baseline	10,4
Abs	0.324077
Peak Time (s)	92.535
Peak Height 	0.3241
calc peak height	90,93
Baseline Time (s)	9.535
Baseline Value 	0.003596
subtract baseline	10,3
PK_550	0.151496
Peak Time (s)	90.037
Peak Height 	0.1515
calc peak height	90,93
Baseline Time (s)	11.036
Baseline Value 	7.1621E-4
subtract baseline	10,2
PK_880	0.311019
Peak Time (s)	91.035
Peak Height 	0.311
calc peak height	90,93
Baseline Time (s)	9.535
Baseline Value 	3.063E-5
subtract baseline	10,1


Time (s)	A880-A510	A880-A775	A880-A975	A880	I510	I775	I975	I880	
0.035000	-0.003864	-0.000875	-0.002445	0.004887	6636.087285	43156.819961	3896.839253	22793.272579
0.535000	-0.001545	-0.000574	-0.000309	0.004219	6662.002068	43246.734658	3903.628897	22823.927834
1.036000	0.000074	-0.000033	-0.004200	0.003892	6678.995018	43327.478505	3895.008792	22839.003283
1.538500	0.000340	0.000399	-0.002252	0.002946	6689.607113	43455.888089	3902.001611	22882.520447
2.036500	0.000235	0.000272	-0.001089	0.002304	6694.317320	43504.006226	3906.389641	22912.137772
2.539500	0.001175	-0.000567	0.000843	0.000964	6714.392715	43550.869148	3914.385782	22974.086957
3.036500	0.002072	-0.000401	0.000274	-0.001161	6741.168539	43765.846748	3918.212661	23072.733916
3.537500	0.000261	-0.000832	-0.003288	0.002239	6695.115860	43406.994659	3901.206403	22915.148121
4.037500	0.001115	0.000087	0.000319	0.000783	6715.466558	43629.097567	3913.544752	22982.479125
4.537500	0.000615	-0.000726	-0.002899	-0.000211	6719.828139	43646.061495	3908.107559	23028.578711
5.035000	0.000447	-0.000087	-0.002121	0.000543	6711.687355	43635.339860	3908.165862	22993.619062
5.535500	-0.000270	-0.000279	-0.006411	0.000557	6705.244839	43616.057031	3897.719272	22992.963188
6.036000	-0.000608	-0.000705	0.001096	-0.000013	6707.290892	43629.512359	3917.408967	23019.397292
6.539000	-0.000993	-0.000566	-0.003914	0.000073	6703.134703	43634.391769	3904.943117	23015.380142
7.036500	0.001585	0.000103	-0.003345	0.000117	6725.508332	43693.111918	3906.220602	23013.352137
7.536500	-0.000376	-0.000190	-0.003570	-0.000167	6710.692961	43692.244541	3906.364630	23026.531811
8.037000	-0.000509	-0.000148	-0.005639	0.000288	6705.507544	43653.494238	3900.235616	23005.408625
8.537500	-0.000100	0.000143	0.001159	0.000226	6709.653160	43686.642041	3916.974027	23008.279672
9.034500	-0.000555	-0.000004	-0.004842	0.000000	6707.639173	43694.064879	3902.865329	23018.782172
9.535000	0.000000	0.000449	0.000000	0.000294	6709.938395	43708.969515	3913.962185	23005.135672
10.035500	0.000740	0.000162	-0.000144	0.000105	6718.138073	43699.747855	3914.071665	23013.889559
10.535500	0.001904	-0.000105	-0.002798	-0.000077	6730.056281	43691.811036	3908.028065	23022.374341
11.036000	-0.000335	0.000000	0.003624	-0.000383	6712.957745	43730.431406	3924.563544	23036.565780
11.536500	0.000090	-0.000648	0.001323	-0.000723	6719.706693	43701.413980	3919.715768	23052.341263
12.037500	0.002978	0.000024	0.000084	-0.000745	6745.525327	43766.748018	3916.720451	23053.384341
12.539500	0.000798	-0.000308	0.000855	-0.000648	6725.316133	43726.348802	3918.378034	23048.874259
13.037000	0.002633	-0.000480	-0.002326	-0.002447	6757.622047	43879.665358	3914.982635	23132.664902
13.537000	0.000789	0.000613	-0.004109	0.000600	6714.197651	43695.611088	3903.187502	22990.936535
14.037500	0.000251	-0.000092	-0.002926	0.000012	6714.646131	43684.718468	3907.498312	23018.241985
14.535000	-0.001184	-0.000101	-0.002428	0.003150	6674.482890	43390.264320	3901.082292	22873.159774
15.035000	0.001295	0.001145	-0.001198	0.001152	6713.799567	43693.783957	3908.933182	22965.397240
15.535500	-0.000875	0.000118	-0.002681	-0.000223	6706.785148	43726.452111	3908.668951	23029.128826
16.039000	0.001705	0.000499	-0.002980	0.000793	6720.589326	43666.849645	3905.465744	22982.036097
16.536500	0.000793	-0.000168	0.002741	0.000330	6716.616985	43647.713283	3920.616977	23003.472997
17.037000	0.001536	0.000313	0.002599	0.000741	6719.555898	43654.238897	3919.254369	22984.422544
17.536500	-0.000025	0.000319	-0.000214	0.003468	6681.834225	43399.749270	3905.685960	22858.500462
18.037000	-0.000477	0.000717	0.002027	0.000122	6707.251564	43750.376862	3919.369994	23013.125719
18.534500	0.000166	0.000270	-0.000960	0.001790	6698.229284	43551.943180	3907.955113	22935.876410
19.037500	-0.001672	-0.000590	-0.003087	0.001298	6686.413895	43517.448846	3903.975186	22958.618482
19.535000	-0.002345	-0.000669	-0.008884	0.001044	6682.744477	43533.869954	3890.595956	22970.416432
20.035500	-0.002554	-0.001553	-0.005004	0.000387	6686.668793	43512.632295	3901.533534	23000.827077
20.536000	0.001277	-0.000160	-0.003681	0.001339	6711.980002	43553.893853	3902.433693	22956.724901
21.036000	-0.001920	-0.000481	-0.001242	0.001106	6685.921589	43545.626069	3908.937848	22967.532363
21.536500	-0.000501	-0.000285	0.003503	0.001077	6698.633988	43566.715832	3920.654021	22968.851245
22.037000	-0.000908	-0.000115	-0.002849	0.001194	6694.033963	43571.640526	3904.808333	22963.454120
22.537000	-0.001517	-0.000302	-0.002083	0.001475	6686.216607	43527.836146	3905.987614	22950.439106
23.037000	-0.000253	0.000762	-0.003307	0.002137	6691.495010	43565.468252	3901.405653	22919.847946
23.534500	-0.000181	0.000056	-0.004691	0.001331	6699.214044	43574.831198	3900.005708	22957.099618
24.035000	0.000776	0.000568	0.000574	0.001981	6701.915154	43562.009200	3911.237125	22927.081616
24.534500	-0.000669	-0.000243	-0.005124	0.001230	6695.815483	43556.353746	3899.203754	22961.800710
25.035500	-0.002403	0.000008	-0.006366	0.001335	6679.688367	43569.976707	3895.950351	22956.921539
25.536000	-0.000169	-0.000170	-0.004539	0.001252	6700.011990	43561.085353	3900.565896	22960.770088
26.036000	-0.000180	-0.000311	-0.004517	0.001323	6699.292553	43541.266754	3900.446811	22957.494490
26.535500	-0.000219	-0.000098	0.001923	0.001502	6697.380051	43544.416502	3915.717955	22949.205949
27.037000	-0.000950	-0.000037	0.001911	0.001400	6691.852876	43559.667209	3915.940202	22953.925540
27.537000	-0.001597	-0.000407	-0.008661	0.003690	6666.166756	43311.424655	3884.798651	22848.279187
28.037500	-0.000187	0.000191	0.007133	-0.001916	6727.818770	43892.851262	3937.124810	23107.887912
28.535000	0.001479	0.000119	0.000439	-0.000001	6725.616685	43705.724075	3915.764467	23018.826119
29.040500	-0.000050	-0.001183	-0.006242	-0.000795	6719.109197	43657.980593	3901.397837	23055.694954
29.535500	-0.003053	-0.000648	-0.005270	0.005375	6638.879209	43132.573858	3888.874373	22770.877461
30.035500	0.001528	-0.000267	-0.000834	0.000102	6725.136435	43659.801223	3912.389432	23014.055960
30.536000	0.001015	-0.000300	-0.005129	-0.000339	6724.501190	43698.131626	3902.993279	23034.535728
31.036500	0.000648	-0.000377	0.000446	-0.000126	6719.370123	43670.877408	3916.090548	23024.645368
31.536500	-0.000336	-0.000102	0.000300	0.002850	6684.516314	43418.075274	3908.443175	22886.953703
32.037000	-0.001569	-0.000708	-0.001855	0.001968	6681.455213	43443.908327	3905.343957	22927.678840
32.546000	0.001400	0.000017	0.000522	-0.000223	6726.882925	43717.050878	3916.515641	23029.155749
33.034500	0.001143	0.000170	-0.000328	0.000247	6720.454984	43687.218516	3913.274048	23007.342420
33.535500	-0.002367	-0.000387	-0.001662	0.005499	6643.744854	43145.256145	3897.252177	22765.197606
34.035500	-0.000488	0.000926	-0.002245	0.000985	6699.551849	43688.917546	3906.785076	22973.118634
34.541000	0.002169	0.000628	0.003143	0.000895	6723.791636	43669.409074	3920.216447	22977.311664
35.036000	0.002717	0.000217	-0.002665	0.002399	6715.335972	43490.016904	3902.327381	22907.753312
35.539000	-0.000160	-0.000435	-0.001982	0.003545	6679.976418	43322.290980	3901.205422	22854.949475
36.036500	-0.001421	-0.000412	-0.001488	0.002260	6680.190554	43444.271355	3905.526147	22914.184672
36.537000	-0.000077	-0.000439	-0.005984	0.002028	6694.003329	43463.404439	3895.201810	22924.914010
37.037000	0.000297	-0.000013	-0.002092	0.002862	6689.970463	43425.308834	3902.594849	22886.411798
37.537500	-0.000492	-0.000437	-0.000040	0.003609	6676.515158	43316.145843	3905.765298	22851.986867
38.034500	-0.000367	0.000684	-0.003211	0.003554	6678.095339	43425.840906	3898.211018	22854.549346
38.534500	-0.001243	-0.000252	-0.000169	0.002403	6680.498912	43445.860832	3908.391861	22907.600079
39.035000	-0.001845	0.000099	-0.003406	0.002641	6673.149060	43456.371106	3899.944927	22896.601339
39.538500	0.000061	-0.000479	0.000716	0.002086	6694.704435	43454.235861	3911.326465	22922.197755
40.036000	-0.000822	-0.000167	0.000345	0.002532	6683.051155	43441.685264	3909.331096	22901.627359
40.536500	0.001338	0.000483	-0.001443	0.003132	6696.729194	43446.367048	3903.512825	22873.951078
41.036500	0.000678	-0.000758	-0.003242	0.002048	6700.469364	43431.813502	3901.781842	22923.987916
41.537000	-0.002365	-0.000313	-0.001241	0.002497	6669.867300	43431.350589	3905.547630	22903.220821
42.037500	-0.000029	-0.001089	-0.005626	0.001494	6699.122786	43452.531998	3897.352103	22949.581117
42.534500	0.000556	0.000290	-0.001271	0.002651	6694.086286	43473.293927	3905.102551	22896.132350
43.035000	-0.000909	0.000223	-0.003337	0.002349	6683.893471	43495.230522	3900.819472	22910.081522
43.535500	-0.000246	0.001041	-0.002573	0.003650	6678.301965	43450.070017	3899.520504	22850.104688
44.038500	-0.000614	0.000218	-0.000721	0.002473	6685.385310	43483.201615	3906.872832	22904.345928
44.536000	-0.002023	0.000070	-0.004150	0.002246	6675.039180	43490.496883	3899.100884	22914.806948
45.036500	-0.000324	0.000062	-0.002887	-0.001494	6722.876047	43840.887589	3911.271846	23088.249499
45.536500	-0.002871	-0.000906	-0.003015	0.003900	6653.243975	43245.527929	3897.848203	22838.610189
46.036500	0.000806	0.000130	-0.001688	0.000539	6714.885169	43655.988867	3909.232891	22993.779574
46.537000	0.000659	0.000614	-0.003178	0.001273	6707.117172	43632.566927	3903.814634	22959.772942
47.037500	0.000460	-0.000278	0.000337	0.001045	6707.376913	43570.341346	3912.947675	22970.354255
47.535500	-0.002495	0.000255	0.000947	0.006406	6634.788386	43120.844276	3901.370863	22723.706644
48.035000	0.001362	0.000803	0.004597	0.001119	6714.683632	43664.803939	3923.254815	22966.943112
48.536000	0.002530	0.000413	-0.000000	0.000569	6729.879992	43679.784179	3913.288025	22992.403265
49.036000	-0.000817	-0.000541	-0.005260	0.002762	6681.081636	43385.378885	3895.177539	22891.033566
49.536000	-0.000997	-0.000230	-0.001635	0.004957	6660.352517	43210.179970	3898.626955	22790.061199
50.036000	0.000300	-0.000355	-0.000105	0.000239	6713.076326	43638.735649	3913.841827	23007.713464
50.536500	0.000157	-0.000116	0.003571	0.000398	6710.407232	43646.167752	3922.500628	23000.317930
51.036500	0.001056	-0.000020	0.000953	0.000702	6715.656040	43626.668765	3915.300745	22986.233761
51.537000	-0.000572	-0.000047	-0.002133	0.002804	6682.859846	43427.539845	3902.634974	22889.086237
52.037500	0.002472	0.000271	-0.002276	-0.000087	6735.177122	43728.085424	3909.324176	23022.805188
52.535000	-0.000522	-0.000138	0.000055	0.000770	6701.145963	43609.216327	3912.929342	22983.071232
53.035000	0.007377	0.000513	0.004439	-0.003787	6812.321749	44100.265545	3935.065492	23195.276827
53.535000	-0.008557	-0.010571	0.003114	0.121909	5718.097615	32970.184122	3659.608512	18086.298558
54.036000	-0.007496	-0.019489	0.014046	-0.076741	7374.981594	49442.225028	4162.496847	26913.908982
54.535500	0.000339	-0.038383	0.026000	-0.190937	8833.248685	60861.903288	4605.280172	34146.613501
55.036500	0.038230	-0.012343	0.059878	-0.133460	8570.737282	56814.761018	4512.381743	30268.935503
55.536000	0.065927	0.008584	0.083948	-0.059905	8000.497439	50662.116536	4333.232086	25999.478978
56.039500	0.099198	0.031490	0.116449	0.011396	7571.203951	45626.086632	4206.364504	22496.830487
56.534500	0.114418	0.051444	0.129858	0.099523	6846.257253	39419.684105	3991.795106	18891.434446
57.034500	0.142076	0.067829	0.145035	0.113838	6969.996422	39594.107892	3994.067185	18371.808327
57.535000	0.166831	0.083532	0.166530	0.162565	6750.365675	36907.644586	3924.459108	16726.079733
58.034500	0.183824	0.092377	0.184204	0.205612	6525.014615	34332.495264	3863.418323	15418.132463
58.538500	0.200166	0.102675	0.204578	0.255854	6251.326426	31570.807571	3795.985859	14046.820802
59.036000	0.215056	0.111422	0.221328	0.297726	6048.257688	29465.583042	3742.751726	13019.122921
59.536000	0.222672	0.118098	0.233442	0.333923	5846.472730	27720.019348	3694.528176	12207.157348
60.036500	0.238511	0.128073	0.253538	0.359294	5782.081610	26855.709953	3684.319688	11677.079169
60.536500	0.249752	0.132857	0.263174	0.378844	5727.092176	26055.082296	3665.462468	11289.222053
61.037000	0.259622	0.139541	0.266189	0.391513	5708.798944	25738.185482	3647.510365	11047.032177
61.535000	0.263213	0.144292	0.268763	0.393691	5718.023107	25873.889545	3648.239299	11006.108447
62.034500	0.272181	0.148805	0.274881	0.392061	5788.121941	26201.077217	3662.627188	11036.715425
62.535000	0.277352	0.152911	0.276671	0.393103	5815.903029	26366.050002	3664.031866	11017.138111
63.035500	0.276387	0.153422	0.293607	0.392277	5814.963527	26438.417191	3698.064814	11032.663172
63.535500	0.276073	0.153983	0.287073	0.386808	5850.003161	26767.434978	3695.982826	11136.152688
64.038500	0.277643	0.155127	0.286762	0.392936	5819.000099	26495.135305	3683.514428	11020.266798
64.536000	0.276652	0.155109	0.288770	0.397909	5778.920210	26225.567383	3677.836655	10927.430007
65.036500	0.284582	0.158756	0.289935	0.399707	5820.140545	26325.067005	3676.628903	10894.126151
65.538500	0.282745	0.158343	0.297498	0.402466	5789.185507	26154.588968	3685.835412	10843.267510
66.037500	0.283322	0.158790	0.291234	0.406121	5768.640979	25983.494392	3666.936414	10776.417044
66.537500	0.285334	0.158883	0.292003	0.410155	5755.226881	25775.049437	3660.810481	10703.283968
67.035000	0.286689	0.160250	0.301157	0.413695	5740.796895	25660.829201	3671.372093	10639.641573
67.535500	0.286051	0.159173	0.297924	0.417067	5714.503100	25428.952346	3658.958159	10579.523274
68.035500	0.287743	0.160864	0.294862	0.421977	5693.581437	25262.591886	3644.223241	10492.801904
68.538500	0.291894	0.160657	0.297942	0.426379	5691.958370	25026.596392	3641.805171	10415.891064
69.036000	0.290385	0.159034	0.300820	0.428045	5671.474713	24859.682033	3644.021134	10386.973714
69.536500	0.290047	0.159860	0.294175	0.435618	5621.093111	24521.208063	3618.409713	10256.961719
70.037000	0.288544	0.158455	0.300257	0.435001	5615.510253	24482.024657	3630.374126	10267.474208
70.537000	0.295708	0.160843	0.305467	0.440804	5624.088993	24312.999865	3629.306494	10169.223298
71.040500	0.294182	0.160300	0.302941	0.443094	5600.088739	24173.836567	3620.699230	10130.812952
71.535000	0.294648	0.158645	0.308681	0.443722	5599.067861	24062.256822	3629.837297	10120.305189
72.035000	0.296873	0.159860	0.303500	0.446880	5593.232871	23967.822813	3614.983742	10067.747833
72.538500	0.295171	0.158899	0.308159	0.448804	5570.677864	23828.370315	3619.824306	10035.909385
73.035500	0.297679	0.158482	0.300162	0.450311	5576.886233	23735.859604	3603.134885	10011.073044
73.536000	0.296920	0.159157	0.304165	0.454147	5548.509625	23584.804619	3603.427003	9948.244599
74.036000	0.295866	0.157935	0.314540	0.452524	5552.002753	23603.923714	3624.563670	9974.755890
74.536500	0.295442	0.158384	0.306558	0.454115	5539.639128	23549.564657	3607.651554	9948.760781
75.037000	0.295214	0.157523	0.305033	0.453844	5539.895212	23521.500118	3605.463168	9953.177792
75.537000	0.295886	0.156747	0.302846	0.455707	5532.617742	23396.651669	3598.440225	9922.848969
76.035000	0.296290	0.157571	0.305597	0.454742	5540.994155	23481.250610	3604.882995	9938.550665
76.537500	0.297751	0.158467	0.316072	0.458259	5528.424595	23357.418971	3617.091809	9881.497852
77.035000	0.297898	0.156540	0.315724	0.456754	5538.515036	23337.520152	3619.140747	9905.844721
77.536000	0.295050	0.156285	0.310723	0.457559	5516.248129	23287.683814	3608.911826	9892.805129
78.036000	0.300742	0.158219	0.308963	0.459027	5542.009350	23309.584612	3603.283268	9869.094254
78.536000	0.300656	0.155280	0.308078	0.456806	5555.127492	23275.914094	3605.607351	9905.005620
79.036000	0.299846	0.156218	0.307331	0.458076	5542.350911	23260.321929	3602.101060	9884.445963
79.536500	0.300068	0.155142	0.309556	0.460102	5531.312470	23115.450881	3602.444940	9851.778161
80.037000	0.299482	0.156767	0.308836	0.459734	5529.986594	23208.396251	3601.835848	9857.707323
80.537000	0.300214	0.155760	0.306725	0.460191	5531.666728	23140.115273	3597.397536	9850.361243
81.034500	0.299108	0.154122	0.304675	0.459006	5532.147028	23118.985428	3595.907202	9869.435189
81.535000	0.297512	0.154240	0.309326	0.460849	5511.230108	23038.874104	3600.753704	9839.784864
82.035500	0.303082	0.154702	0.312294	0.460129	5549.610050	23093.716033	3607.165145	9851.344159
82.535500	0.300907	0.153759	0.308943	0.459676	5539.053638	23070.963092	3602.122027	9858.647401
83.036000	0.303960	0.154556	0.313883	0.460595	5552.145988	23065.283266	3609.129942	9843.860366
83.536500	0.300645	0.153016	0.316201	0.460044	5535.196172	23019.406063	3614.168773	9852.715894
84.036500	0.303790	0.155675	0.312123	0.461309	5546.710960	23084.077108	3604.809441	9832.390956
84.537000	0.303458	0.153184	0.317460	0.459873	5553.495728	23035.150609	3616.691727	9855.466648
85.040000	0.305356	0.152377	0.317284	0.459144	5569.714498	23031.531522	3617.670330	9867.207567
85.534500	0.303830	0.153472	0.317764	0.461735	5544.342467	22962.300770	3613.943755	9825.567617
86.035000	0.301792	0.151171	0.311015	0.458293	5552.970862	23015.098329	3608.138411	9880.945422
86.535000	0.304443	0.152689	0.321004	0.459896	5559.430524	23011.155326	3622.944491	9855.105801
87.035000	0.305625	0.152366	0.316290	0.459471	5569.359102	23015.867323	3615.335213	9861.938885
87.535500	0.303825	0.150959	0.310105	0.458593	5563.657762	22991.378731	3606.026282	9876.103071
88.036000	0.305665	0.152030	0.316391	0.459475	5569.585097	23000.143577	3615.507420	9861.882786
88.536000	0.306545	0.151122	0.314933	0.459312	5576.050489	22965.721461	3613.224512	9864.509215
89.039500	0.307763	0.151983	0.318727	0.459988	5579.417527	22974.228529	3618.730973	9853.616088
89.537000	0.310408	0.151523	0.320645	0.460964	5589.812028	22907.982106	3620.405374	9837.939146
90.036500	0.310044	0.151496	0.318750	0.460430	5590.869121	22931.347428	3617.990471	9846.511464
90.534500	0.307752	0.150514	0.319527	0.461621	5569.217695	22831.362775	3617.256580	9827.388185
91.035500	0.311019	0.150544	0.314128	0.460081	5599.149731	22903.583368	3610.459034	9852.130255
91.535500	0.309879	0.149216	0.317507	0.460150	5591.586335	22839.320870	3616.285792	9851.007768
92.035500	0.308766	0.150555	0.320821	0.460389	5583.160267	22889.845818	3621.737857	9847.162770
92.535500	0.310757	0.149932	0.324077	0.462719	5581.055417	22754.452341	3623.388899	9809.820287
93.036500	0.311517	0.150010	0.319835	0.460794	5597.803647	22846.222238	3619.268628	9840.666437
93.536500	0.312627	0.149227	0.325477	0.462234	5595.735953	22744.400785	3626.758822	9817.574019
94.036500	0.311042	0.148221	0.325654	0.461048	5593.243099	22752.603804	3629.203934	9836.579472
94.537500	0.308846	0.147077	0.318339	0.461625	5575.973412	22674.129748	3615.149631	9827.326282
95.034500	0.312821	0.149334	0.322585	0.463035	5591.948153	22712.743014	3620.172472	9804.768757
95.606500	0.308385	0.146564	0.321047	0.460357	5580.990247	22708.509823	3622.198274	9847.681090
96.035000	0.312402	0.147861	0.321330	0.462471	5592.844669	22671.309830	3618.944510	9813.776130
96.535500	0.311071	0.146980	0.318335	0.463496	5578.171742	22584.716838	3611.848082	9797.398641
97.036000	0.314473	0.148378	0.326908	0.463524	5599.213764	22646.909423	3627.010366	9796.952969
97.536000	0.309966	0.147362	0.328040	0.462805	5575.601514	22633.417035	3630.334001	9808.435615
98.036000	0.312542	0.148198	0.322356	0.464332	5582.118885	22602.036121	3617.465073	9784.066818
98.566500	0.312463	0.146932	0.317401	0.466146	5570.367628	22462.855116	3605.578948	9755.233062
99.034000	0.309711	0.145964	0.316793	0.463279	5571.079752	22548.567256	3609.524309	9800.865103
