sample name	sample
index	1129
start time	 04-22-2021  02:14:34 PM


Wavelength (nm)	Absorbance
494.344910	0.216769
494.563924	0.216769
494.782919	0.216769
495.001897	NaN
495.220856	0.399341
495.439797	0.341101
495.658719	0.250542
495.877624	0.258037
496.096510	0.024194
496.315378	0.008248
496.534227	0.088932
496.753059	0.047925
496.971872	0.105550
497.190667	0.123419
497.409444	0.134191
497.628203	0.136533
497.846943	0.138495
498.065665	0.141534
498.284369	0.142626
498.503055	0.141601
498.721723	0.144131
498.940372	0.144119
499.159003	0.143767
499.377616	0.143762
499.596210	0.144090
499.814787	0.143434
500.033345	0.143123
500.251885	0.142942
500.470406	0.143224
500.688910	0.141890
500.907395	0.142389
501.125862	0.142295
501.344311	0.142126
501.562742	0.143428
501.781154	0.143219
501.999548	0.141550
502.217924	0.140639
502.436282	0.140008
502.654621	0.140091
502.872942	0.139936
503.091245	0.140416
503.309530	0.141358
503.527797	0.140704
503.746045	0.141305
503.964275	0.143881
504.182487	0.145211
504.400681	0.146401
504.618856	0.146054
504.837013	0.145664
505.055152	0.146326
505.273273	0.147161
505.491376	0.146668
505.709460	0.147554
505.927526	0.146812
506.145574	0.146684
506.363604	0.146341
506.581615	0.147249
506.799608	0.147931
507.017583	0.147585
507.235540	0.146462
507.453478	0.148759
507.671399	0.148781
507.889301	0.148454
508.107185	0.147525
508.325050	0.147768
508.542898	0.147978
508.760727	0.146335
508.978538	0.147680
509.196330	0.147361
509.414105	0.145400
509.631861	0.144838
509.849599	0.145077
510.067319	0.146027
510.285021	0.146844
510.502704	0.146771
510.720369	0.148723
510.938016	0.148194
511.155645	0.149231
511.373255	0.150195
511.590848	0.150868
511.808422	0.151033
512.025977	0.151510
512.243515	0.151220
512.461034	0.151814
512.678536	0.152098
512.896018	0.152895
513.113483	0.152684
513.330930	0.152464
513.548358	0.152601
513.765768	0.152995
513.983160	0.153272
514.200533	0.153081
514.417889	0.152798
514.635226	0.152963
514.852545	0.152597
515.069845	0.153394
515.287128	0.153919
515.504392	0.152944
515.721638	0.153361
515.938866	0.152880
516.156075	0.153409
516.373267	0.153919
516.590440	0.153618
516.807594	0.153342
517.024731	0.152901
517.241850	0.153397
517.458950	0.154287
517.676032	0.153424
517.893095	0.154608
518.110141	0.155410
518.327168	0.156066
518.544177	0.156481
518.761168	0.157091
518.978141	0.157558
519.195095	0.156724
519.412031	0.157641
519.628949	0.159328
519.845849	0.159031
520.062731	0.158391
520.279594	0.157615
520.496439	0.158449
520.713266	0.157907
520.930074	0.158694
521.146865	0.159332
521.363637	0.159408
521.580391	0.158435
521.797127	0.158336
522.013844	0.159109
522.230543	0.159503
522.447224	0.159458
522.663887	0.160459
522.880532	0.160003
523.097158	0.160072
523.313766	0.159998
523.530356	0.161157
523.746928	0.161759
523.963481	0.161486
524.180017	0.162205
524.396534	0.162451
524.613032	0.162911
524.829513	0.163393
525.045975	0.163693
525.262420	0.163683
525.478845	0.163970
525.695253	0.164008
525.911643	0.164378
526.128014	0.164394
526.344367	0.164717
526.560702	0.164838
526.777018	0.164916
526.993316	0.165220
527.209597	0.165952
527.425858	0.165990
527.642102	0.166666
527.858328	0.166854
528.074535	0.166764
528.290724	0.166293
528.506894	0.166769
528.723047	0.166766
528.939181	0.167353
529.155297	0.168024
529.371395	0.168268
529.587475	0.168409
529.803536	0.168650
530.019579	0.169620
530.235604	0.170850
530.451611	0.171135
530.667600	0.172014
530.883570	0.172038
531.099522	0.171854
531.315456	0.172609
531.531372	0.172218
531.747269	0.173433
531.963148	0.173498
532.179009	0.173703
532.394852	0.173772
532.610676	0.173759
532.826482	0.174443
533.042271	0.174930
533.258040	0.175194
533.473792	0.176108
533.689525	0.175749
533.905240	0.175691
534.120937	0.176374
534.336616	0.176063
534.552277	0.176721
534.767919	0.176440
534.983543	0.176503
535.199149	0.176555
535.414736	0.176981
535.630306	0.177395
535.845857	0.178093
536.061390	0.177994
536.276904	0.178776
536.492401	0.179318
536.707879	0.179931
536.923339	0.179649
537.138781	0.179981
537.354204	0.179898
537.569610	0.179765
537.784997	0.179761
538.000366	0.179764
538.215716	0.180563
538.431049	0.179854
538.646363	0.180202
538.861659	0.180603
539.076937	0.181154
539.292196	0.181391
539.507438	0.181792
539.722661	0.182246
539.937866	0.182523
540.153052	0.181963
540.368221	0.182518
540.583371	0.182060
540.798503	0.183017
541.013617	0.183112
541.228712	0.183952
541.443789	0.184685
541.658848	0.185164
541.873889	0.185898
542.088912	0.186591
542.303916	0.187517
542.518902	0.188294
542.733870	0.188594
542.948820	0.188926
543.163752	0.188797
543.378665	0.188803
543.593560	0.189014
543.808437	0.188986
544.023295	0.189338
544.238136	0.189637
544.452958	0.190080
544.667762	0.189381
544.882548	0.189468
545.097315	0.189989
545.312064	0.190124
545.526795	0.190272
545.741508	0.190514
545.956203	0.190738
546.170879	0.190532
546.385537	0.190759
546.600177	0.191929
546.814799	0.191987
547.029402	0.192341
547.243988	0.192544
547.458555	0.192544
547.673103	0.192881
547.887634	0.193017
548.102146	0.193206
548.316640	0.193475
548.531116	0.193756
548.745574	0.193970
548.960013	0.194399
549.174435	0.194447
549.388838	0.194972
549.603222	0.194912
549.817589	0.195099
550.031937	0.195243
550.246267	0.195487
550.460579	0.195682
550.674873	0.195954
550.889148	0.196045
551.103405	0.196483
551.317644	0.196659
551.531865	0.196510
551.746068	0.196925
551.960252	0.197501
552.174418	0.197571
552.388566	0.197537
552.602696	0.197427
552.816807	0.197201
553.030900	0.197483
553.244975	0.197599
553.459032	0.198105
553.673070	0.198092
553.887091	0.198006
554.101093	0.197986
554.315077	0.198001
554.529042	0.198840
554.742990	0.198870
554.956919	0.198626
555.170830	0.198909
555.384722	0.198943
555.598597	0.198991
555.812453	0.199276
556.026291	0.199763
556.240111	0.200171
556.453913	0.200724
556.667696	0.201171
556.881461	0.201397
557.095208	0.201485
557.308937	0.202076
557.522647	0.202564
557.736339	0.202526
557.950013	0.203005
558.163669	0.203463
558.377307	0.202838
558.590926	0.203210
558.804527	0.204001
559.018110	0.204211
559.231675	0.204190
559.445221	0.204097
559.658749	0.204256
559.872259	0.204180
560.085751	0.203906
560.299225	0.204389
560.512680	0.204317
560.726117	0.204403
560.939536	0.204813
561.152937	0.204915
561.366319	0.205301
561.579683	0.205478
561.793029	0.205215
562.006357	0.205481
562.219667	0.205006
562.432958	0.205372
562.646231	0.204934
562.859486	0.204691
563.072723	0.204908
563.285941	0.204711
563.499141	0.204724
563.712323	0.205154
563.925487	0.205461
564.138632	0.205731
564.351760	0.205429
564.564869	0.205937
564.777960	0.206126
564.991032	0.206341
565.204087	0.206702
565.417123	0.206841
565.630141	0.207083
565.843140	0.206969
566.056122	0.206929
566.269085	0.206892
566.482030	0.206962
566.694957	0.206940
566.907866	0.207040
567.120756	0.206752
567.333628	0.206692
567.546482	0.206359
567.759318	0.206448
567.972135	0.206704
568.184935	0.207396
568.397716	0.207548
568.610478	0.207787
568.823223	0.207819
569.035949	0.208067
569.248657	0.208659
569.461347	0.209006
569.674019	0.208683
569.886672	0.208958
570.099308	0.208830
570.311925	0.209102
570.524523	0.209290
570.737104	0.209577
570.949666	0.210172
571.162210	0.210129
571.374736	0.210359
571.587244	0.210977
571.799733	0.210845
572.012205	0.211148
572.224658	0.210994
572.437092	0.211308
572.649509	0.211163
572.861907	0.211310
573.074287	0.211616
573.286649	0.211943
573.498993	0.211840
573.711318	0.212376
573.923625	0.212589
574.135914	0.212637
574.348185	0.212600
574.560438	0.213162
574.772672	0.213221
574.984888	0.213364
575.197086	0.213641
575.409266	0.213821
575.621427	0.214052
575.833570	0.213999
576.045695	0.214339
576.257802	0.214153
576.469890	0.214018
576.681961	0.214056
576.894013	0.213822
577.106046	0.213590
577.318062	0.214237
577.530059	0.214131
577.742039	0.214217
577.954000	0.214033
578.165942	0.214832
578.377867	0.214995
578.589773	0.214968
578.801661	0.215097
579.013531	0.215258
579.225382	0.215367
579.437216	0.215462
579.649031	0.215633
579.860828	0.216140
580.072606	0.215697
580.284367	0.215830
580.496109	0.216137
580.707833	0.216486
580.919539	0.216480
581.131227	0.215991
581.342896	0.216327
581.554547	0.216750
581.766180	0.216781
581.977795	0.217152
582.189391	0.217328
582.400969	0.217265
582.612529	0.217294
582.824071	0.217758
583.035595	0.217923
583.247100	0.217687
583.458587	0.217146
583.670056	0.217232
583.881506	0.217222
584.092939	0.216941
584.304353	0.217114
584.515749	0.217370
584.727127	0.217462
584.938486	0.218001
585.149828	0.218135
585.361151	0.218765
585.572456	0.218935
585.783742	0.218878
585.995011	0.219144
586.206261	0.219528
586.417493	0.219777
586.628706	0.219754
586.839902	0.219553
587.051079	0.220101
587.262238	0.220221
587.473379	0.220171
587.684502	0.220315
587.895606	0.220427
588.106692	0.220105
588.317760	0.220254
588.528810	0.220483
588.739841	0.220848
588.950855	0.220831
589.161850	0.220794
589.372827	0.221155
589.583785	0.221474
589.794726	0.221503
590.005648	0.221790
590.216552	0.221886
590.427437	0.221780
590.638305	0.221874
590.849154	0.221870
591.059985	0.222363
591.270798	0.222685
591.481592	0.222725
591.692369	0.223126
591.903127	0.223297
592.113867	0.223398
592.324588	0.223773
592.535292	0.224283
592.745977	0.225120
592.956644	0.225295
593.167293	0.225429
593.377923	0.226045
593.588536	0.226484
593.799130	0.226761
594.009706	0.226984
594.220263	0.227516
594.430803	0.227497
594.641324	0.227444
594.851827	0.227382
595.062312	0.227187
595.272778	0.227117
595.483227	0.226878
595.693657	0.226886
595.904069	0.227572
596.114462	0.227399
596.324838	0.227812
596.535195	0.227423
596.745534	0.227903
596.955855	0.228174
597.166157	0.228403
597.376441	0.228757
597.586707	0.228505
597.796955	0.227850
598.007185	0.227764
598.217396	0.227482
598.427589	0.227765
598.637764	0.227183
598.847921	0.227579
599.058060	0.227888
599.268180	0.227778
599.478282	0.228338
599.688366	0.228723
599.898431	0.228849
600.108479	0.229070
600.318508	0.228905
600.528519	0.229535
600.738511	0.229569
600.948486	0.229410
601.158442	0.229880
601.368380	0.230141
601.578300	0.230389
601.788202	0.230640
601.998085	0.230460
602.207950	0.230723
602.417797	0.230717
602.627626	0.230829
602.837436	0.230920
603.047228	0.230833
603.257002	0.230793
603.466758	0.231024
603.676496	0.231188
603.886215	0.231346
604.095916	0.231485
604.305599	0.231247
604.515264	0.231317
604.724910	0.231480
604.934538	0.231708
605.144148	0.231961
605.353740	0.231889
605.563314	0.231852
605.772869	0.232115
605.982406	0.232110
606.191925	0.232497
606.401425	0.232712
606.610908	0.232643
606.820372	0.232721
607.029818	0.232751
607.239246	0.232837
607.448655	0.232951
607.658047	0.233145
607.867420	0.233319
608.076775	0.233175
608.286111	0.232875
608.495430	0.232768
608.704730	0.232844
608.914012	0.233112
609.123275	0.233056
609.332521	0.233267
609.541748	0.233311
609.750957	0.233703
609.960148	0.234163
610.169321	0.234389
610.378475	0.234759
610.587611	0.234744
610.796729	0.234697
611.005829	0.234847
611.214910	0.235011
611.423974	0.235336
611.633019	0.235425
611.842045	0.235207
612.051054	0.235351
612.260044	0.235514
612.469017	0.235837
612.677970	0.236082
612.886906	0.236087
613.095824	0.235857
613.304723	0.235747
613.513604	0.235460
613.722467	0.235869
613.931311	0.236107
614.140138	0.236344
614.348946	0.236277
614.557736	0.236081
614.766507	0.236333
614.975261	0.236731
615.183996	0.236874
615.392713	0.237465
615.601412	0.237830
615.810092	0.238109
616.018754	0.237984
616.227399	0.237910
616.436024	0.238170
616.644632	0.238444
616.853222	0.238498
617.061793	0.238537
617.270346	0.238387
617.478880	0.238404
617.687397	0.238224
617.895895	0.238240
618.104375	0.238505
618.312837	0.238647
618.521281	0.238476
618.729706	0.238644
618.938113	0.238988
619.146502	0.238786
619.354873	0.238629
619.563226	0.238756
619.771560	0.239151
619.979876	0.239266
620.188174	0.239263
620.396453	0.239568
620.604715	0.239541
620.812958	0.239420
621.021183	0.239979
621.229390	0.240224
621.437578	0.240372
621.645748	0.240556
621.853900	0.240764
622.062034	0.240980
622.270150	0.241113
622.478247	0.241125
622.686326	0.241287
622.894387	0.241706
623.102430	0.241948
623.310454	0.242219
623.518461	0.242211
623.726449	0.242298
623.934418	0.242591
624.142370	0.242567
624.350303	0.242805
624.558218	0.242755
624.766115	0.242493
624.973994	0.242304
625.181855	0.242583
625.389697	0.242843
625.597521	0.243133
625.805327	0.243185
626.013114	0.243343
626.220883	0.243446
626.428634	0.243777
626.636367	0.243995
626.844082	0.244455
627.051778	0.244446
627.259457	0.244498
627.467117	0.244295
627.674758	0.244401
627.882382	0.244469
628.089987	0.244859
628.297574	0.245044
628.505143	0.245185
628.712694	0.244944
628.920226	0.244869
629.127740	0.245037
629.335236	0.245166
629.542714	0.245179
629.750174	0.245323
629.957615	0.245214
630.165038	0.245461
630.372443	0.245632
630.579829	0.245846
630.787198	0.246044
630.994548	0.246081
631.201880	0.246379
631.409194	0.246795
631.616489	0.247044
631.823766	0.247426
632.031025	0.247362
632.238266	0.247199
632.445489	0.247521
632.652693	0.247476
632.859879	0.247706
633.067047	0.247893
633.274197	0.247691
633.481329	0.247837
633.688442	0.247610
633.895537	0.247846
634.102614	0.248216
634.309672	0.248349
634.516713	0.249053
634.723735	0.249124
634.930739	0.249184
635.137724	0.249496
635.344692	0.249956
635.551641	0.250343
635.758572	0.250587
635.965485	0.251072
636.172379	0.251207
636.379256	0.251050
636.586114	0.251037
636.792954	0.251380
636.999775	0.251278
637.206579	0.251053
637.413364	0.251313
637.620131	0.251462
637.826880	0.251546
638.033610	0.251576
638.240323	0.251742
638.447017	0.252492
638.653692	0.252806
638.860350	0.253362
639.066990	0.253684
639.273611	0.253883
639.480214	0.253966
639.686798	0.254142
639.893365	0.254641
640.099913	0.254893
640.306443	0.254668
640.512955	0.254511
640.719449	0.254681
640.925924	0.254773
641.132381	0.254990
641.338820	0.255247
641.545241	0.255190
641.751644	0.255182
641.958028	0.255198
642.164394	0.255433
642.370742	0.255342
642.577071	0.255353
642.783383	0.255498
642.989676	0.255508
643.195951	0.255542
643.402207	0.255624
643.608446	0.255466
643.814666	0.255676
644.020868	0.255652
644.227052	0.256178
644.433218	0.256211
644.639365	0.256458
644.845494	0.256588
645.051605	0.256791
645.257698	0.257081
645.463772	0.257399
645.669828	0.257699
645.875866	0.257889
646.081886	0.257916
646.287888	0.258092
646.493871	0.258299
646.699836	0.258172
646.905783	0.258446
647.111712	0.258723
647.317622	0.258916
647.523514	0.258787
647.729388	0.258753
647.935244	0.258895
648.141082	0.259081
648.346901	0.259038
648.552702	0.259422
648.758485	0.259445
648.964250	0.259436
649.169996	0.259392
649.375724	0.259751
649.581434	0.260116
649.787126	0.260417
649.992800	0.260636
650.198455	0.260911
650.404092	0.261231
650.609711	0.261338
650.815311	0.261585
651.020894	0.261976
651.226458	0.261934
651.432004	0.262258
651.637532	0.262438
651.843041	0.262778
652.048532	0.262997
652.254006	0.262958
652.459460	0.263052
652.664897	0.263493
652.870315	0.263894
653.075716	0.264167
653.281097	0.264440
653.486461	0.264579
653.691807	0.264458
653.897134	0.264611
654.102443	0.264965
654.307734	0.265392
654.513006	0.265428
654.718261	0.265337
654.923497	0.265605
655.128715	0.265610
655.333915	0.265819
655.539096	0.266095
655.744259	0.265983
655.949404	0.265938
656.154531	0.266052
656.359640	0.266145
656.564730	0.266202
656.769802	0.266580
656.974856	0.266652
657.179892	0.266854
657.384909	0.267110
657.589908	0.267579
657.794889	0.268228
657.999852	0.268230
658.204797	0.268288
658.409723	0.268632
658.614631	0.268360
658.819521	0.268549
659.024393	0.268707
659.229246	0.268809
659.434081	0.268842
659.638898	0.268554
659.843697	0.268826
660.048478	0.269148
660.253240	0.269463
660.457984	0.269850
660.662710	0.270031
660.867417	0.270178
661.072107	0.270459
661.276778	0.270810
661.481431	0.271033
661.686066	0.271214
661.890682	0.271115
662.095281	0.271182
662.299861	0.271337
662.504422	0.271779
662.708966	0.271936
662.913491	0.271993
663.117999	0.271978
663.322488	0.272258
663.526958	0.272450
663.731411	0.272429
663.935845	0.272550
664.140261	0.272789
664.344659	0.272673
664.549038	0.272942
664.753400	0.273089
664.957743	0.273345
665.162068	0.273463
665.366375	0.273560
665.570663	0.274117
665.774933	0.274540
665.979185	0.274813
666.183419	0.275309
666.387635	0.275543
666.591832	0.275815
666.796011	0.276188
667.000172	0.276804
667.204315	0.276947
667.408439	0.277373
667.612545	0.277526
667.816634	0.277681
668.020703	0.277659
668.224755	0.278096
668.428788	0.278598
668.632803	0.278652
668.836800	0.278528
669.040779	0.278935
669.244739	0.278656
669.448681	0.278747
669.652605	0.278832
669.856511	0.279321
670.060399	0.279259
670.264268	0.279151
670.468119	0.279301
670.671952	0.279277
670.875767	0.279180
671.079563	0.279448
671.283341	0.279722
671.487101	0.279866
671.690843	0.279587
671.894567	0.279848
672.098272	0.279972
672.301959	0.280335
672.505628	0.280932
672.709278	0.281440
672.912911	0.281921
673.116525	0.281770
673.320121	0.282132
673.523699	0.282564
673.727258	0.282736
673.930799	0.283196
674.134322	0.283243
674.337827	0.283158
674.541314	0.283434
674.744782	0.283230
674.948232	0.283624
675.151664	0.283737
675.355078	0.283827
675.558474	0.283642
675.761851	0.283637
675.965210	0.283868
676.168551	0.284240
676.371873	0.284271
676.575178	0.284768
676.778464	0.284957
676.981732	0.284979
677.184981	0.285384
677.388213	0.285826
677.591426	0.285913
677.794621	0.286266
677.997798	0.286458
678.200956	0.286659
678.404097	0.286950
678.607219	0.287379
678.810323	0.287832
679.013408	0.288263
679.216476	0.288751
679.419525	0.289088
679.622556	0.289324
679.825569	0.289567
680.028563	0.289901
680.231540	0.290103
680.434498	0.290361
680.637438	0.290554
680.840359	0.290535
681.043263	0.290584
681.246148	0.290867
681.449015	0.290867
681.651864	0.290889
681.854694	0.291095
682.057506	0.291128
682.260301	0.291134
682.463076	0.291562
682.665834	0.291854
682.868573	0.291964
683.071295	0.292124
683.273998	0.292384
683.476682	0.292882
683.679349	0.292905
683.881997	0.293074
684.084627	0.293205
684.287239	0.292848
684.489833	0.292770
684.692408	0.292850
684.894965	0.292887
685.097504	0.293028
685.300025	0.292943
685.502527	0.293165
685.705012	0.293495
685.907478	0.293660
686.109925	0.294078
686.312355	0.294246
686.514766	0.294509
686.717159	0.294813
686.919534	0.294966
687.121891	0.295229
687.324230	0.295252
687.526550	0.295267
687.728852	0.295218
687.931136	0.295199
688.133401	0.295307
688.335649	0.295469
688.537878	0.295671
688.740089	0.296037
688.942281	0.296396
689.144456	0.296651
689.346612	0.296907
689.548750	0.297333
689.750870	0.297599
689.952971	0.297687
690.155055	0.297807
690.357120	0.298120
690.559167	0.297940
690.761195	0.297593
690.963206	0.297695
691.165198	0.297808
691.367172	0.297924
691.569128	0.297800
691.771065	0.298207
691.972984	0.298423
692.174885	0.298473
692.376768	0.298390
692.578633	0.298581
692.780479	0.298798
692.982308	0.298841
693.184118	0.298876
693.385909	0.299239
693.587683	0.299408
693.789438	0.299336
693.991175	0.299479
694.192894	0.299977
694.394595	0.300286
694.596277	0.300177
694.797941	0.300335
694.999587	0.300356
695.201215	0.300403
695.402824	0.300453
695.604416	0.300671
695.805989	0.300695
696.007543	0.300704
696.209080	0.300596
696.410598	0.300902
696.612099	0.300813
696.813580	0.300987
697.015044	0.301329
697.216490	0.301378
697.417917	0.301411
697.619326	0.301515
697.820717	0.301643
698.022089	0.301814
698.223444	0.301590
698.424780	0.302005
698.626098	0.302264
698.827397	0.302413
699.028679	0.302542
699.229942	0.302529
699.431187	0.302281
699.632414	0.302376
699.833622	0.302367
700.034813	0.302706
700.235985	0.302538
700.437139	0.302624
700.638274	0.302535
700.839392	0.302447
701.040491	0.302818
701.241572	0.303142
701.442635	0.303344
701.643679	0.303522
701.844706	0.303757
702.045714	0.303757
702.246704	0.303965
702.447675	0.304104
702.648629	0.304219
702.849564	0.304119
703.050481	0.303862
703.251380	0.303678
703.452260	0.303902
703.653122	0.303685
703.853966	0.303926
704.054792	0.303669
704.255600	0.303451
704.456389	0.303675
704.657160	0.303851
704.857913	0.304134
705.058648	0.304358
705.259365	0.303984
705.460063	0.303916
705.660743	0.303831
705.861405	0.303950
706.062048	0.304147
706.262674	0.303727
706.463281	0.303415
706.663870	0.303421
706.864441	0.303404
707.064993	0.303683
707.265527	0.303807
707.466043	0.303753
707.666541	0.303912
707.867021	0.303758
708.067482	0.303977
708.267925	0.304346
708.468350	0.304725
708.668757	0.304682
708.869145	0.304725
709.069516	0.305099
709.269868	0.305319
709.470201	0.305111
709.670517	0.305279
709.870814	0.305364
710.071093	0.305354
710.271354	0.305449
710.471597	0.305521
710.671821	0.305641
710.872028	0.305387
711.072216	0.305560
711.272385	0.305577
711.472537	0.305543
711.672670	0.305594
711.872785	0.305379
712.072882	0.305185
712.272961	0.305034
712.473021	0.304960
712.673063	0.304968
712.873087	0.304905
713.073093	0.304910
713.273081	0.304988
713.473050	0.304739
713.673001	0.305024
713.872934	0.304910
714.072849	0.305032
714.272745	0.305095
714.472623	0.305087
714.672483	0.305116
714.872325	0.305078
715.072148	0.305322
715.271954	0.305523
715.471741	0.305516
715.671509	0.305222
715.871260	0.305200
716.070992	0.305047
716.270707	0.305036
716.470403	0.304883
716.670080	0.304886
716.869740	0.304571
717.069381	0.304602
717.269004	0.304401
717.468609	0.304477
717.668195	0.304134
717.867764	0.304022
718.067314	0.303782
718.266846	0.303533
718.466360	0.303434
718.665855	0.303462
718.865332	0.303591
719.064791	0.303297
719.264232	0.303180
719.463655	0.303395
719.663059	0.303359
719.862445	0.303623
720.061813	0.303651
720.261163	0.303814
720.460494	0.303489
720.659807	0.303315
720.859102	0.303284
721.058379	0.303474
721.257638	0.303265
721.456878	0.303308
721.656100	0.303094
721.855304	0.302744
722.054490	0.302549
722.253657	0.302389
722.452806	0.301966
722.651937	0.301982
722.851050	0.301593
723.050145	0.301595
723.249221	0.301134
723.448279	0.300841
723.647319	0.300852
723.846340	0.300355
724.045344	0.300325
724.244329	0.300196
724.443296	0.299919
724.642245	0.299822
724.841175	0.299620
725.040088	0.299542
725.238982	0.299336
725.437857	0.299265
725.636715	0.299500
725.835554	0.299395
726.034376	0.299429
726.233179	0.299502
726.431963	0.299371
726.630730	0.299256
726.829478	0.299042
727.028208	0.298946
727.226920	0.299001
727.425614	0.298656
727.624289	0.298491
727.822946	0.298287
728.021585	0.297956
728.220206	0.297661
728.418808	0.297481
728.617392	0.297679
728.815958	0.297598
729.014506	0.297292
729.213036	0.297120
729.411547	0.297097
729.610040	0.296779
729.808515	0.296674
730.006972	0.296509
730.205410	0.296296
730.403831	0.295690
730.602233	0.295667
730.800616	0.295547
730.998982	0.295383
731.197329	0.295068
731.395658	0.294940
731.593969	0.294887
731.792262	0.295061
731.990536	0.295194
732.188793	0.295472
732.387031	0.295297
732.585250	0.295312
732.783452	0.295140
732.981635	0.294873
733.179800	0.294760
733.377947	0.294486
733.576076	0.294277
733.774186	0.293862
733.972278	0.293591
734.170352	0.293212
734.368408	0.292707
734.566446	0.292455
734.764465	0.292229
734.962466	0.292269
735.160449	0.291903
735.358413	0.291644
735.556360	0.291483
735.754288	0.291330
735.952198	0.291214
736.150090	0.290805
736.347963	0.290917
736.545818	0.291035
736.743655	0.290642
736.941474	0.290684
737.139275	0.290556
737.337057	0.290313
737.534821	0.290075
737.732567	0.290126
737.930295	0.290356
738.128005	0.289867
738.325696	0.289503
738.523369	0.289358
738.721024	0.289224
738.918660	0.288866
739.116279	0.288620
739.313879	0.288690
739.511461	0.288449
739.709024	0.288070
739.906570	0.288294
740.104097	0.288253
740.301606	0.287944
740.499097	0.287714
740.696569	0.287723
740.894024	0.287655
741.091460	0.287622
741.288878	0.287701
741.486277	0.287617
741.683659	0.287269
741.881022	0.287072
742.078367	0.287025
742.275694	0.286901
742.473002	0.286479
742.670293	0.286331
742.867565	0.285885
743.064819	0.285181
743.262054	0.285027
743.459272	0.284681
743.656471	0.284411
743.853652	0.284092
744.050815	0.283647
744.247959	0.283426
744.445085	0.282953
744.642194	0.282581
744.839283	0.282484
745.036355	0.282493
745.233408	0.282323
745.430444	0.282243
745.627461	0.282021
745.824459	0.281718
746.021440	0.281636
746.218402	0.281875
746.415346	0.281565
746.612272	0.281551
746.809180	0.281314
747.006069	0.281204
747.202940	0.281165
747.399793	0.281278
747.596628	0.281323
747.793444	0.281246
747.990243	0.280812
748.187023	0.280851
748.383784	0.280271
748.580528	0.280024
748.777253	0.279813
748.973960	0.279504
749.170649	0.279013
749.367320	0.278970
749.563973	0.278658
749.760607	0.278527
749.957223	0.278292
750.153821	0.278363
750.350400	0.278118
750.546962	0.277859
750.743505	0.277606
750.940030	0.277403
751.136536	0.277184
751.333025	0.277016
751.529495	0.276816
751.725947	0.276718
751.922381	0.276646
752.118796	0.276470
752.315194	0.276261
752.511573	0.275880
752.707934	0.275721
752.904276	0.275451
753.100601	0.275345
753.296907	0.274965
753.493195	0.275042
753.689465	0.274793
753.885716	0.274754
754.081949	0.274699
754.278164	0.274790
754.474361	0.274920
754.670540	0.274837
754.866700	0.274717
755.062843	0.274504
755.258967	0.274014
755.455072	0.273794
755.651160	0.273345
755.847229	0.273339
756.043280	0.273123
756.239313	0.272683
756.435328	0.272732
756.631324	0.272549
756.827302	0.272938
757.023262	0.272746
757.219204	0.272726
757.415127	0.272737
757.611033	0.272328
757.806920	0.272436
758.002788	0.272496
758.198639	0.272203
758.394471	0.272028
758.590286	0.271450
758.786081	0.271395
758.981859	0.271018
759.177619	0.270505
759.373360	0.270404
759.569083	0.270087
759.764788	0.270062
759.960474	0.270078
760.156143	0.269730
760.351793	0.269661
760.547425	0.269309
760.743038	0.269174
760.938634	0.269391
761.134211	0.269189
761.329770	0.269065
761.525311	0.268606
761.720833	0.267829
761.916338	0.267900
762.111824	0.267799
762.307292	0.267662
762.502741	0.267645
762.698173	0.267374
762.893586	0.267453
763.088981	0.267049
763.284358	0.266934
763.479716	0.266993
763.675057	0.266874
763.870379	0.266590
764.065683	0.266594
764.260968	0.266608
764.456236	0.266495
764.651485	0.266302
764.846716	0.266314
765.041929	0.266198
765.237123	0.266046
765.432299	0.265891
765.627457	0.265877
765.822597	0.265596
766.017719	0.265354
766.212822	0.265296
766.407907	0.265412
766.602974	0.265439
766.798023	0.265196
766.993054	0.265527
767.188066	0.265526
767.383060	0.265469
767.578036	0.265379
767.772993	0.265379
767.967933	0.265201
768.162854	0.265047
768.357757	0.264842
768.552642	0.265202
768.747508	0.264744
768.942356	0.264460
769.137186	0.264274
769.331998	0.264323
769.526792	0.264031
769.721567	0.264139
769.916324	0.263784
770.111063	0.263817
770.305784	0.263483
770.500486	0.263593
770.695171	0.263822
770.889837	0.263907
771.084484	0.263760
771.279114	0.263605
771.473725	0.263287
771.668318	0.262980
771.862893	0.262698
772.057450	0.262734
772.251988	0.262552
772.446509	0.262163
772.641011	0.262183
772.835494	0.262337
773.029960	0.262402
773.224407	0.262367
773.418836	0.262498
773.613247	0.262623
773.807640	0.262615
774.002014	0.262615
774.196370	0.262680
774.390708	0.262558
774.585028	0.262333
774.779330	0.262174
774.973613	0.262186
775.167878	0.262174
775.362125	0.262062
775.556354	0.261823
775.750564	0.261669
775.944756	0.261577
776.138930	0.261276
776.333086	0.261018
776.527223	0.261062
776.721343	0.260977
776.915444	0.260828
777.109526	0.260706
777.303591	0.260665
777.497637	0.260456
777.691666	0.260202
777.885676	0.260062
778.079667	0.260145
778.273641	0.260197
778.467596	0.260419
778.661533	0.260465
778.855452	0.260494
779.049352	0.260450
779.243235	0.260663
779.437099	0.260739
779.630945	0.260917
779.824773	0.261132
780.018582	0.261060
780.212373	0.260983
780.406146	0.261013
780.599901	0.261094
780.793638	0.261268
780.987356	0.261150
781.181056	0.261287
781.374738	0.261162
781.568402	0.261319
781.762047	0.261323
781.955674	0.261568
782.149283	0.261467
782.342874	0.261467
782.536447	0.261431
782.730001	0.261738
782.923537	0.261716
783.117055	0.262069
783.310555	0.261632
783.504036	0.261403
783.697499	0.261112
783.890944	0.261457
784.084371	0.261436
784.277780	0.261397
784.471170	0.261284
784.664542	0.261396
784.857896	0.261272
785.051231	0.261639
785.244549	0.262146
785.437848	0.261978
785.631129	0.261760
785.824392	0.261608
786.017636	0.261610
786.210863	0.261845
786.404071	0.262074
786.597260	0.262341
786.790432	0.262323
786.983585	0.262276
787.176721	0.262502
787.369838	0.262976
787.562936	0.263280
787.756017	0.263565
787.949079	0.263482
788.142123	0.263526
788.335149	0.263761
788.528156	0.264021
788.721146	0.264089
788.914117	0.264140
789.107070	0.264002
789.300005	0.264045
789.492921	0.264057
789.685819	0.264095
789.878699	0.264067
790.071561	0.263945
790.264405	0.264010
790.457230	0.264035
790.650037	0.264147
790.842826	0.264589
791.035597	0.264688
791.228349	0.264757
791.421084	0.264970
791.613800	0.265130
791.806497	0.265296
791.999177	0.265262
792.191838	0.265704
792.384481	0.266233
792.577106	0.266130
792.769713	0.266387
792.962301	0.266748
793.154871	0.266837
793.347423	0.267202
793.539957	0.267569
793.732473	0.267972
793.924970	0.268036
794.117449	0.267893
794.309910	0.268245
794.502353	0.268631
794.694777	0.268659
794.887183	0.269143
795.079571	0.269032
795.271941	0.268965
795.464293	0.268987
795.656626	0.269069
795.848941	0.269422
796.041238	0.269473
796.233516	0.269423
796.425777	0.269601
796.618019	0.269587
796.810243	0.269783
797.002449	0.269906
797.194636	0.269907
797.386805	0.269938
797.578956	0.269992
797.771089	0.270518
797.963204	0.270691
798.155300	0.270810
798.347378	0.270960
798.539438	0.271035
798.731480	0.271243
798.923503	0.271849
799.115509	0.272116
799.307496	0.272558
799.499465	0.272462
799.691415	0.272737
799.883348	0.273070
800.075262	0.273329
800.267158	0.273772
800.459035	0.273914
800.650895	0.273912
800.842736	0.274197
801.034559	0.274027
801.226364	0.274199
801.418150	0.274459
801.609919	0.274470
801.801669	0.274505
801.993401	0.274677
802.185114	0.274652
802.376810	0.274726
802.568487	0.275118
802.760146	0.275600
802.951787	0.275637
803.143409	0.275711
803.335014	0.276024
803.526600	0.276256
803.718168	0.276436
803.909717	0.276978
804.101249	0.276943
804.292762	0.276754
804.484257	0.276998
804.675734	0.277414
804.867192	0.277635
805.058632	0.278001
805.250054	0.278512
805.441458	0.278924
805.632844	0.279225
805.824211	0.280129
806.015561	0.280965
806.206891	0.281399
806.398204	0.281765
806.589499	0.282505
806.780775	0.282996
806.972033	0.283511
807.163273	0.283792
807.354495	0.284245
807.545698	0.284421
807.736883	0.284339
807.928050	0.284230
808.119199	0.284240
808.310329	0.284276
808.501441	0.284438
808.692535	0.284510
808.883611	0.284842
809.074669	0.285113
809.265708	0.285367
809.456729	0.285693
809.647732	0.286010
809.838717	0.286482
810.029683	0.286644
810.220632	0.286811
810.411562	0.287223
810.602474	0.287412
810.793367	0.287536
810.984242	0.287841
811.175100	0.288236
811.365938	0.289067
811.556759	0.289428
811.747562	0.289736
811.938346	0.290149
812.129112	0.290297
812.319860	0.290623
812.510589	0.290958
812.701300	0.291435
812.891994	0.291775
813.082668	0.291892
813.273325	0.292017
813.463964	0.292214
813.654584	0.292440
813.845186	0.292515
814.035769	0.293090
814.226335	0.293645
814.416882	0.293561
814.607411	0.293937
814.797922	0.294383
814.988415	0.294634
815.178889	0.295262
815.369345	0.295529
815.559783	0.296041
815.750203	0.296181
815.940605	0.296406
816.130988	0.296922
816.321353	0.297356
816.511700	0.297347
816.702028	0.297978
816.892339	0.298260
817.082631	0.298743
817.272905	0.299018
817.463161	0.299239
817.653398	0.299658
817.843617	0.300053
818.033819	0.300501
818.224001	0.300923
818.414166	0.301142
818.604312	0.301484
818.794440	0.301855
818.984550	0.302485
819.174642	0.303024
819.364716	0.303479
819.554771	0.303988
819.744808	0.304241
819.934827	0.304595
820.124827	0.305040
820.314810	0.305413
820.504774	0.305488
820.694720	0.305963
820.884647	0.306255
821.074557	0.306403
821.264448	0.306775
821.454321	0.306875
821.644176	0.307592
821.834012	0.307906
822.023831	0.308357
822.213631	0.309231
822.403413	0.309467
822.593176	0.309965
822.782922	0.310551
822.972649	0.310692
823.162358	0.311290
823.352049	0.311664
823.541721	0.311974
823.731376	0.312309
823.921012	0.312238
824.110629	0.312549
824.300229	0.313054
824.489811	0.313231
824.679374	0.313933
824.868919	0.314294
825.058445	0.314423
825.247954	0.315256
825.437444	0.315299
825.626916	0.316128
825.816370	0.316653
826.005806	0.317194
826.195223	0.317728
826.384622	0.318100
826.574003	0.318661
826.763366	0.319300
826.952711	0.319526
827.142037	0.320466
827.331345	0.320991
827.520635	0.321291
827.709906	0.321369
827.899160	0.321637
828.088395	0.321835
828.277612	0.322257
828.466810	0.322668
828.655991	0.323100
828.845153	0.323507
829.034297	0.323649
829.223423	0.324355
829.412531	0.324766
829.601620	0.325239
829.790691	0.325915
829.979744	0.326476
830.168779	0.326883
830.357795	0.327288
830.546793	0.327831
830.735773	0.328369
830.924735	0.328788
831.113679	0.329493
831.302604	0.330087
831.491511	0.330187
831.680400	0.330386
831.869271	0.330723
832.058123	0.331332
832.246957	0.331694
832.435773	0.332402
832.624571	0.333051
832.813351	0.333113
833.002112	0.333389
833.190855	0.334086
833.379580	0.334977
833.568287	0.335497
833.756975	0.335949
833.945645	0.336482
834.134297	0.336770
834.322931	0.336901
834.511547	0.337258
834.700144	0.338019
834.888723	0.338525
835.077284	0.338888
835.265826	0.339317
835.454351	0.339782
835.642857	0.340192
835.831345	0.340661
836.019815	0.341154
836.208266	0.342252
836.396699	0.342727
836.585114	0.343396
836.773511	0.343465
836.961890	0.344264
837.150250	0.344919
837.338592	0.345542
837.526916	0.345878
837.715222	0.346727
837.903510	0.346814
838.091779	0.347254
838.280030	0.347892
838.468263	0.349086
838.656477	0.349106
838.844674	0.349306
839.032852	0.349773
839.221012	0.350745
839.409153	0.350968
839.597277	0.351771
839.785382	0.352393
839.973469	0.352767
840.161538	0.352855
840.349589	0.353657
840.537621	0.354481
840.725635	0.354939
840.913631	0.355331
841.101609	0.356099
841.289568	0.356618
841.477509	0.357168
841.665432	0.357496
841.853337	0.357984
842.041224	0.358444
842.229092	0.358754
842.416942	0.359206
842.604774	0.359440
842.792588	0.359760
842.980383	0.359880
843.168160	0.360297
843.355919	0.360716
843.543660	0.360864
843.731382	0.361491
843.919087	0.361683
844.106773	0.362014
844.294441	0.362453
844.482090	0.362942
844.669722	0.363349
844.857335	0.363848
845.044930	0.364325
845.232507	0.365349
845.420065	0.365769
845.607605	0.366261
845.795127	0.366902
845.982631	0.367557
846.170117	0.367707
846.357584	0.368417
846.545033	0.369088
846.732464	0.369729
846.919877	0.370079
847.107272	0.370720
847.294648	0.371499
847.482006	0.372269
847.669346	0.372608
847.856667	0.373185
848.043971	0.374323
848.231256	0.375023
848.418523	0.375241
848.605771	0.375706
848.793002	0.376273
848.980214	0.377091
849.167408	0.377415
849.354584	0.378172
849.541742	0.378722
849.728881	0.378849
849.916002	0.378895
850.103105	0.379704
850.290190	0.380067
850.477256	0.380371
850.664304	0.380602
850.851334	0.380905
851.038346	0.381491
851.225340	0.382330
851.412315	0.382727
851.599272	0.383436
851.786211	0.383834
851.973132	0.384307
852.160034	0.384479
852.346918	0.384990
852.533784	0.385467
852.720632	0.385799
852.907462	0.385934
853.094273	0.386307
853.281066	0.386763
853.467841	0.387251
853.654598	0.387602
853.841336	0.388229
854.028056	0.388444
854.214758	0.389041
854.401442	0.389787
854.588107	0.390468
854.774755	0.391178
854.961384	0.391523
855.147995	0.392130
855.334587	0.392813
855.521162	0.393617
855.707718	0.394232
855.894256	0.394818
856.080775	0.395041
856.267277	0.395784
856.453760	0.395756
856.640225	0.396292
856.826672	0.396797
857.013101	0.396993
857.199511	0.397728
857.385903	0.398357
857.572277	0.398572
857.758633	0.398981
857.944970	0.399247
858.131290	0.400382
858.317591	0.400698
858.503873	0.401288
858.690138	0.402562
858.876384	0.402545
859.062612	0.403062
859.248822	0.403851
859.435014	0.404779
859.621188	0.405016
859.807343	0.405340
859.993480	0.405888
860.179599	0.406065
860.365699	0.406361
860.551781	0.406972
860.737846	0.407332
860.923891	0.407859
861.109919	0.407768
861.295929	0.408469
861.481920	0.408653
861.667893	0.409029
861.853848	0.409342
862.039784	0.409768
862.225702	0.409693
862.411603	0.410102
862.597484	0.409969
862.783348	0.410275
862.969193	0.410691
863.155021	0.411411
863.340830	0.411682
863.526620	0.412573
863.712393	0.412413
863.898147	0.412968
864.083883	0.413408
864.269601	0.414017
864.455301	0.414345
864.640982	0.414481
864.826645	0.414532
865.012290	0.415253
865.197917	0.415391
865.383526	0.416118
865.569116	0.416714
865.754688	0.416717
865.940242	0.417280
866.125777	0.417518
866.311295	0.418126
866.496794	0.418575
866.682275	0.418611
866.867737	0.418890
867.053182	0.419123
867.238608	0.419001
867.424016	0.419629
867.609406	0.419588
867.794778	0.420444
867.980131	0.421025
868.165466	0.421749
868.350783	0.422058
868.536082	0.422394
868.721362	0.422445
868.906625	0.422747
869.091869	0.422867
869.277094	0.423282
869.462302	0.423378
869.647491	0.423395
869.832662	0.423510
870.017815	0.423790
870.202950	0.423812
870.388066	0.424283
870.573165	0.424755
870.758245	0.425198
870.943306	0.425477
871.128350	0.425688
871.313375	0.425851
871.498382	0.426137
871.683371	0.426542
871.868342	0.427311
872.053294	0.427859
872.238229	0.428334
872.423144	0.429000
872.608042	0.429534
872.792922	0.429759
872.977783	0.430036
873.162626	0.430396
873.347451	0.430803
873.532258	0.430954
873.717046	0.431205
873.901816	0.431505
874.086568	0.431632
874.271302	0.432101
874.456017	0.432639
874.640715	0.433265
874.825394	0.433510
875.010055	0.434099
875.194697	0.434397
875.379322	0.434533
875.563928	0.434642
875.748516	0.435214
875.933085	0.435530
876.117637	0.435888
876.302170	0.435750
876.486685	0.435771
876.671182	0.436048
876.855661	0.436653
877.040121	0.437011
877.224563	0.437466
877.408987	0.437387
877.593393	0.437232
877.777780	0.437869
877.962150	0.438545
878.146501	0.439115
878.330833	0.438912
878.515148	0.439175
878.699444	0.439275
878.883722	0.440016
879.067982	0.439944
879.252224	0.440650
879.436447	0.440143
879.620653	0.439936
879.804840	0.440049
879.989008	0.440566
880.173159	0.440007
880.357291	0.440344
880.541405	0.440639
880.725501	0.441345
880.909579	0.441200
881.093638	0.441479
881.277680	0.441836
881.461703	0.442059
881.645707	0.442111
881.829694	0.442645
882.013662	0.442910
882.197612	0.442455
882.381544	0.441942
882.565458	0.441926
882.749353	0.442106
882.933230	0.441964
883.117089	0.441732
883.300930	0.441379
883.484753	0.441799
883.668557	0.441426
883.852343	0.441340
884.036111	0.441957
884.219861	0.441906
884.403592	0.442574
884.587305	0.442787
884.771000	0.442637
884.954677	0.443064
885.138335	0.442932
885.321976	0.443438
885.505598	0.443664
885.689201	0.443070
885.872787	0.443276
886.056354	0.443103
886.239904	0.443255
886.423434	0.443234
886.606947	0.443091
886.790442	0.443164
886.973918	0.443258
887.157376	0.443118
887.340816	0.443985
887.524237	0.444046
887.707641	0.443693
887.891026	0.443423
888.074393	0.443922
888.257741	0.443594
888.441072	0.443228
888.624384	0.442744
888.807678	0.442926
888.990954	0.442309
889.174211	0.442361
889.357451	0.441836
889.540672	0.442237
889.723875	0.441910
889.907059	0.442601
890.090226	0.442923
890.273374	0.443291
890.456504	0.443316
890.639616	0.443423
890.822709	0.443033
891.005785	0.443472
891.188842	0.442726
891.371881	0.442628
891.554901	0.441524
891.737904	0.441554
891.920888	0.440797
892.103854	0.440792
892.286802	0.440325
892.469731	0.440726
892.652643	0.440871
892.835536	0.441033
893.018410	0.441224
893.201267	0.441813
893.384106	0.441337
893.566926	0.441959
893.749728	0.441073
893.932511	0.441177
894.115277	0.440807
894.298024	0.440562
894.480753	0.440565
894.663464	0.440458
894.846157	0.440887
895.028831	0.441169
895.211487	0.440773
895.394125	0.441487
895.576745	0.442363
895.759346	0.442911
895.941930	0.443063
896.124495	0.443094
896.307041	0.443430
896.489570	0.443365
896.672080	0.442655
896.854573	0.442467
897.037046	0.442234
897.219502	0.441498
897.401940	0.441045
897.584359	0.440771
897.766760	0.440559
897.949143	0.440244
898.131507	0.439612
898.313854	0.439417
898.496182	0.439013
898.678492	0.438517
898.860783	0.437948
899.043057	0.437456
899.225312	0.437250
899.407549	0.437106
899.589768	0.436312
899.771968	0.435878
899.954151	0.435801
900.136315	0.435832
900.318461	0.435398
900.500588	0.435561
900.682698	0.435251
900.864789	0.435169
901.046862	0.434587
901.228917	0.434734
901.410953	0.434576
901.592971	0.434291
901.774972	0.434082
901.956953	0.434335
902.138917	0.433794
902.320862	0.433274
902.502790	0.432508
902.684699	0.432456
902.866589	0.432165
903.048462	0.431950
903.230316	0.431283
903.412152	0.430351
903.593970	0.429816
903.775770	0.429240
903.957551	0.429363
904.139314	0.428990
904.321059	0.428237
904.502786	0.427185
904.684494	0.426669
904.866185	0.426689
905.047857	0.426693
905.229510	0.426129
905.411146	0.426010
905.592763	0.424987
905.774363	0.424960
905.955943	0.424939
906.137506	0.424795
906.319051	0.424416
906.500577	0.424254
906.682085	0.424541
906.863575	0.424477
907.045046	0.424064
907.226500	0.423942
907.407935	0.422940
907.589352	0.421898
907.770750	0.421727
907.952131	0.421747
908.133493	0.421149
908.314837	0.420737
908.496163	0.420264
908.677470	0.419286
908.858760	0.418631
909.040031	0.418774
909.221284	0.418711
909.402518	0.418119
909.583735	0.416831
909.764933	0.415602
909.946113	0.414280
910.127275	0.413255
910.308418	0.412878
910.489544	0.412839
910.670651	0.411689
910.851740	0.411336
911.032810	0.410558
911.213863	0.410213
911.394897	0.409991
911.575913	0.409559
911.756911	0.409407
911.937890	0.408834
912.118851	0.407978
912.299794	0.408118
912.480719	0.407019
912.661626	0.406218
912.842514	0.405522
913.023384	0.404583
913.204236	0.403810
913.385070	0.403336
913.565886	0.402907
913.746683	0.402138
913.927462	0.400882
914.108223	0.400003
914.288965	0.399396
914.469690	0.398883
914.650396	0.398376
914.831084	0.397420
915.011754	0.396366
915.192405	0.395351
915.373038	0.394621
915.553653	0.393646
915.734250	0.393810
915.914829	0.393529
916.095389	0.392868
916.275931	0.392501
916.456455	0.391727
916.636961	0.391413
916.817448	0.390251
916.997917	0.389623
917.178368	0.389487
917.358801	0.388448
917.539216	0.387237
917.719612	0.386199
917.899990	0.385157
918.080350	0.385158
918.260692	0.384520
918.441015	0.384678
918.621320	0.384370
918.801607	0.383487
918.981876	0.382783
919.162127	0.382545
919.342359	0.382659
919.522573	0.382692
919.702769	0.382397
919.882947	0.381131
920.063106	0.380168
920.243247	0.379452
920.423370	0.378423
920.603475	0.377971
920.783562	0.377332
920.963630	0.375813
921.143680	0.375076
921.323712	0.374138
921.503725	0.373332
921.683721	0.373004
921.863698	0.371205
922.043657	0.370100
922.223598	0.369130
922.403520	0.368850
922.583424	0.368559
922.763311	0.366615
922.943178	0.365678
923.123028	0.364286
923.302859	0.363170
923.482673	0.363086
923.662467	0.362959
923.842244	0.362307
924.022003	0.360873
924.201743	0.359558
924.381465	0.359562
924.561169	0.358425
924.740854	0.358073
924.920522	0.357224
925.100171	0.355904
925.279802	0.355106
925.459414	0.353874
925.639009	0.352712
925.818585	0.351793
925.998143	0.350689
926.177683	0.349432
926.357205	0.348738
926.536708	0.348301
926.716193	0.348216
926.895660	0.347190
927.075109	0.346604
927.254539	0.345964
927.433951	0.344912
927.613345	0.343576
927.792721	0.342515
927.972079	0.341390
928.151418	0.340360
928.330739	0.338776
928.510042	0.338111
928.689327	0.337031
928.868593	0.335840
929.047841	0.335389
929.227071	0.335075
929.406283	0.334968
929.585476	0.333938
929.764652	0.332288
929.943809	0.331280
930.122948	0.328968
930.302068	0.328107
930.481171	0.326520
930.660255	0.325768
930.839321	0.325275
931.018369	0.323633
931.197398	0.323397
931.376409	0.322340
931.555402	0.321744
931.734377	0.321487
931.913334	0.319104
932.092272	0.318546
932.271192	0.316775
932.450094	0.314722
932.628978	0.314163
932.807844	0.312420
932.986691	0.311201
933.165520	0.310352
933.344331	0.309396
933.523123	0.309600
933.701898	0.309065
933.880654	0.308115
934.059392	0.307146
934.238111	0.305356
934.416813	0.304620
934.595496	0.304335
934.774161	0.303187
934.952808	0.301152
935.131437	0.299365
935.310047	0.297371
935.488639	0.295776
935.667213	0.294672
935.845769	0.294533
936.024306	0.292822
936.202825	0.290980
936.381326	0.289502
936.559809	0.289392
936.738274	0.289060
936.916720	0.288804
937.095148	0.287949
937.273558	0.286874
937.451950	0.285665
937.630323	0.284849
937.808678	0.283870
937.987015	0.282467
938.165334	0.281781
938.343635	0.280273
938.521917	0.278619
938.700181	0.278918
938.878427	0.278652
939.056655	0.277513
939.234864	0.277447
939.413055	0.275946
939.591228	0.275740
939.769383	0.273778
939.947519	0.272640
940.125638	0.271558
940.303738	0.268795
940.481820	0.266897
940.659883	0.264672
940.837929	0.264055
941.015956	0.262780
941.193965	0.260887
941.371955	0.259443
941.549928	0.256973
941.727882	0.255650
941.905818	0.255555
942.083736	0.254482
942.261636	0.252529
942.439517	0.249741
942.617380	0.249114
942.795225	0.246882
942.973052	0.245642
943.150860	0.245463
943.328651	0.244583
943.506423	0.242411
943.684176	0.240636
943.861912	0.239592
944.039629	0.237836
944.217328	0.237702
944.395009	0.237655
944.572672	0.237583
944.750317	0.237498
944.927943	0.236118
945.105551	0.234399
945.283141	0.233398
945.460712	0.231873
945.638265	0.232037
945.815801	0.229393
945.993317	0.228162
946.170816	0.226307
946.348297	0.224685
946.525759	0.223666
946.703203	0.222839
946.880629	0.221216
947.058036	0.222413
947.235425	0.220705
947.412797	0.218785
947.590149	0.218312
947.767484	0.218545
947.944800	0.217760
948.122099	0.217087
948.299379	0.217030
948.476640	0.215736
948.653884	0.214179
948.831109	0.212721
949.008316	0.213575
949.185505	0.210234
949.362676	0.208603
949.539828	0.206266
949.716962	0.203829
949.894078	0.202150
950.071176	0.200456
950.248256	0.199499
950.425317	0.199552
950.602360	0.197264
950.779385	0.197358
950.956391	0.195948
951.133380	0.193844
951.310350	0.192755
951.487302	0.192106
951.664235	0.191847
951.841151	0.191036
952.018048	0.187594
952.194927	0.186452
952.371788	0.186182
952.548631	0.184603
952.725455	0.185242
952.902261	0.185389
953.079049	0.182647
953.255819	0.180599
953.432570	0.179425
953.609303	0.179260
953.786018	0.178119
953.962715	0.175948
954.139394	0.174458
954.316054	0.172780
954.492696	0.170238
954.669320	0.171690
954.845926	0.172564
955.022513	0.169689
955.199083	0.168493
955.375634	0.167948
955.552166	0.168465
955.728681	0.167840
955.905177	0.168330
956.081655	0.166570
956.258115	0.165628
956.434557	0.164795
956.610980	0.164873
956.787385	0.163567
956.963772	0.161675
957.140141	0.159031
957.316492	0.159224
957.492824	0.157907
957.669138	0.159033
957.845434	0.155746
958.021712	0.153749
958.197971	0.152887
958.374212	0.152532
958.550435	0.152168
958.726640	0.151878
958.902826	0.150232
959.078995	0.149410
959.255145	0.149917
959.431277	0.150148
959.607390	0.149207
959.783486	0.147705
959.959563	0.148085
960.135622	0.146954
960.311662	0.147111
960.487685	0.145086
960.663689	0.142504
960.839675	0.141175
961.015643	0.141678
961.191593	0.142781
961.367524	0.143426
961.543437	0.142527
961.719332	0.145096
961.895209	0.143958
962.071067	0.143781
962.246907	0.144512
962.422730	0.144476
962.598533	0.142280
962.774319	0.141682
962.950086	0.140112
963.125835	0.138811
963.301566	0.136014
963.477279	0.136428
963.652973	0.137429
963.828650	0.137341
964.004308	0.134861
964.179947	0.134414
964.355569	0.134493
964.531172	0.135278
964.706757	0.136217
964.882324	0.137359
965.057873	0.138723
965.233403	0.137408
965.408916	0.135895
965.584410	0.137536
965.759885	0.138372
965.935343	0.138523
966.110782	0.137944
966.286203	0.136459
966.461606	0.136611
966.636991	0.135652
966.812357	0.136319
966.987705	0.136870
967.163035	0.136532
967.338347	0.136632
967.513641	0.135944
967.688916	0.136746
967.864173	0.135476
968.039412	0.137878
968.214632	0.136531
968.389835	0.137125
968.565019	0.135521
968.740185	0.133996
968.915333	0.132948
969.090462	0.131940
969.265573	0.129651
969.440667	0.131132
969.615741	0.126836
969.790798	0.126452
969.965836	0.124512
970.140856	0.125370
970.315858	0.128366
970.490842	0.128916
970.665808	0.130045
970.840755	0.132301
971.015684	0.133438
971.190595	0.136376
971.365487	0.133686
971.540362	0.136741
971.715218	0.137557
971.890056	0.136342
972.064875	0.138194
972.239677	0.137181
972.414460	0.134977
972.589225	0.136811
972.763972	0.134774
972.938700	0.138639
973.113411	0.138840
973.288103	0.138734
973.462777	0.135315
973.637432	0.133514
973.812070	0.135596
973.986689	0.137323
974.161290	0.134562
974.335873	0.133483
974.510437	0.131765
974.684984	0.129360
974.859512	0.130332
975.034022	0.134276
975.208513	0.134081
975.382987	0.129977
975.557442	0.129012
975.731879	0.129010
975.906298	0.129178
976.080698	0.131319
976.255080	0.133620
976.429445	0.133601
976.603790	0.130312
976.778118	0.132637
976.952427	0.132214
977.126719	0.133522
977.300992	0.134923
977.475246	0.135218
977.649483	0.132044
977.823701	0.130690
977.997901	0.130075
978.172083	0.132307
978.346247	0.133846
978.520392	0.136485
978.694519	0.134815
978.868628	0.135598
979.042719	0.138740
979.216791	0.140635
979.390845	0.139887
979.564882	0.138622
979.738899	0.137692
979.912899	0.134881
980.086880	0.134203
980.260843	0.136368
980.434788	0.133768
980.608715	0.130859
980.782623	0.130866
980.956514	0.132716
981.130386	0.133059
981.304240	0.134559
981.478075	0.133250
981.651892	0.135401
981.825692	0.134516
981.999472	0.133274
982.173235	0.130474
982.346980	0.128715
982.520706	0.125790
982.694414	0.128153
982.868104	0.127180
983.041775	0.127037
983.215428	0.126622
983.389064	0.125971
983.562680	0.128416
983.736279	0.129873
983.909860	0.131056
984.083422	0.135026
984.256966	0.134725
984.430491	0.135055
984.603999	0.135762
984.777488	0.134003
984.950959	0.134382
985.124412	0.135751
985.297847	0.139296
985.471263	0.139699
985.644661	0.137493
985.818041	0.135901
985.991403	0.136617
986.164747	0.135486
986.338072	0.135953
986.511379	0.135800
986.684668	0.134935
986.857938	0.130539
987.031191	0.130032
987.204425	0.129713
987.377641	0.130068
987.550839	0.128843
987.724018	0.129457
987.897179	0.130734
988.070322	0.129738
988.243447	0.128613
988.416554	0.128806
988.589642	0.130168
988.762712	0.128047
988.935764	0.128489
989.108798	0.128233
989.281813	0.130168
989.454811	0.129971
989.627790	0.131828
989.800751	0.130236
989.973693	0.131334
990.146617	0.131697
990.319524	0.131646
990.492412	0.131628
990.665281	0.133159
990.838133	0.131804
991.010966	0.131033
991.183781	0.129448
991.356578	0.131553
991.529356	0.132933
991.702117	0.130710
991.874859	0.134115
992.047583	0.134738
992.220288	0.134300
992.392976	0.135022
992.565645	0.134184
992.738296	0.134209
992.910929	0.133952
993.083543	0.132910
993.256139	0.134118
993.428718	0.132783
993.601277	0.131652
993.773819	0.130382
993.946342	0.129186
994.118848	0.130191
994.291335	0.130901
994.463803	0.129730
994.636254	0.127866
994.808686	0.128437
994.981100	0.128347
995.153496	0.128428
995.325874	0.128188
995.498233	0.127767
995.670574	0.127077
995.842897	0.127607
996.015202	0.128994
996.187488	0.131116
996.359757	0.130763
996.532007	0.131387
996.704239	0.131126
996.876452	0.132542
997.048648	0.131277
997.220825	0.131341
997.392984	0.131257
997.565124	0.129713
997.737247	0.130556
997.909351	0.129204
998.081437	0.127400
998.253505	0.127742
998.425554	0.127565
998.597586	0.128777
998.769599	0.128675
998.941594	0.130356
999.113571	0.132523
999.285529	0.132093
999.457469	0.132369
999.629391	0.134758
999.801295	0.135378
999.973181	0.134318
1000.145048	0.134839
1000.316897	0.133822
1000.488728	0.131653
1000.660541	0.130704
1000.832335	0.130577
1001.004111	0.131248
1001.175869	0.129897
1001.347609	0.130065
1001.519331	0.132184
1001.691034	0.133345
1001.862719	0.135612
1002.034386	0.136895
1002.206035	0.139555
1002.377665	0.139969
1002.549277	0.139877
1002.720871	0.138985
1002.892447	0.138568
1003.064004	0.136809
1003.235544	0.135467
1003.407065	0.134506
1003.578568	0.134815
1003.750052	0.133268
1003.921519	0.132993
1004.092967	0.134595
1004.264397	0.136054
1004.435809	0.135756
1004.607202	0.135750
1004.778577	0.137338
1004.949934	0.138202
1005.121273	0.135805
1005.292594	0.135827
1005.463896	0.135191
1005.635180	0.132500
1005.806446	0.131031
1005.977694	0.130394
1006.148923	0.130160
1006.320135	0.129136
1006.491328	0.129506
1006.662503	0.129228
1006.833659	0.128775
1007.004798	0.130782
1007.175918	0.132317
1007.347020	0.133294
1007.518103	0.134467
1007.689169	0.135068
1007.860216	0.135820
1008.031245	0.134863
1008.202256	0.136501
1008.373248	0.135455
1008.544223	0.134361
1008.715179	0.133085
1008.886117	0.134200
1009.057036	0.133336
1009.227938	0.131508
1009.398821	0.131706
1009.569686	0.130969
1009.740533	0.130369
1009.911361	0.131538
1010.082172	0.132581
1010.252964	0.132155
1010.423738	0.132416
1010.594493	0.132859
1010.765231	0.135238
1010.935950	0.131809
1011.106651	0.131307
1011.277334	0.132224
1011.447998	0.131828
1011.618645	0.131473
1011.789273	0.132671
1011.959882	0.130310
1012.130474	0.129693
1012.301048	0.127923
1012.471603	0.130750
1012.642140	0.130937
1012.812658	0.131094
1012.983159	0.130796
1013.153641	0.128359
1013.324105	0.128163
1013.494551	0.127875
1013.664979	0.130015
1013.835388	0.130799
1014.005779	0.131320
1014.176152	0.133312
1014.346507	0.132684
1014.516843	0.133213
1014.687162	0.134539
1014.857462	0.135218
1015.027744	0.136482
1015.198007	0.134610
1015.368252	0.134671
1015.538480	0.134172
1015.708689	0.134482
1015.878879	0.133589
1016.049052	0.135784
1016.219206	0.137337
1016.389342	0.136582
1016.559460	0.137288
1016.729559	0.137263
1016.899641	0.138744
1017.069704	0.138899
1017.239749	0.137402
1017.409775	0.139869
1017.579784	0.135674
1017.749774	0.134312
1017.919746	0.135388
1018.089700	0.133210
1018.259635	0.134489
1018.429553	0.134240
1018.599452	0.134577
1018.769333	0.133395
1018.939195	0.132357
1019.109040	0.132460
1019.278866	0.132004
1019.448674	0.130655
1019.618464	0.131759
1019.788235	0.128773
1019.957989	0.127946
1020.127724	0.128076
1020.297441	0.127810
1020.467139	0.124805
1020.636820	0.126906
1020.806482	0.127789
1020.976126	0.127786
1021.145752	0.128213
1021.315359	0.128582
1021.484948	0.127873
1021.654519	0.127068
1021.824072	0.129626
1021.993607	0.133309
1022.163123	0.132685
1022.332621	0.132362
1022.502101	0.132904
1022.671563	0.133181
1022.841007	0.132727
1023.010432	0.131559
1023.179839	0.132066
1023.349228	0.132229
1023.518598	0.132529
1023.687951	0.132435
1023.857285	0.133806
1024.026601	0.133920
1024.195899	0.133691
1024.365178	0.135518
1024.534439	0.136504
1024.703682	0.136743
1024.872907	0.136444
1025.042114	0.135132
1025.211302	0.135539
1025.380472	0.133601
1025.549624	0.134318
1025.718758	0.134306
1025.887873	0.135513
1026.056970	0.135970
1026.226049	0.134538
1026.395110	0.132876
1026.564153	0.132651
1026.733177	0.131224
1026.902183	0.132683
1027.071171	0.132783
1027.240141	0.132202
1027.409092	0.129203
1027.578026	0.130104
1027.746940	0.130822
1027.915837	0.131784
1028.084716	0.132594
1028.253576	0.132799
1028.422418	0.131703
1028.591242	0.130852
1028.760048	0.131850
1028.928835	0.133433
1029.097604	0.131974
1029.266355	0.130872
1029.435088	0.130162
1029.603803	0.130145
1029.772499	0.130769
1029.941177	0.128527
1030.109837	0.129695
1030.278478	0.128370
1030.447102	0.129071
1030.615707	0.131541
1030.784294	0.132205
1030.952863	0.131632
1031.121413	0.130787
1031.289945	0.131416
1031.458460	0.132882
1031.626955	0.132474
1031.795433	0.134841
1031.963892	0.134168
1032.132334	0.132572
1032.300756	0.129947
1032.469161	0.131370
1032.637548	0.131843
1032.805916	0.132613
1032.974266	0.131848
1033.142598	0.132159
1033.310911	0.130914
1033.479207	0.130686
1033.647484	0.131584
1033.815743	0.135358
1033.983983	0.133911
1034.152206	0.134398
1034.320410	0.133945
1034.488596	0.135060
1034.656764	0.133681
1034.824914	0.132794
1034.993045	0.133817
1035.161158	0.134827
1035.329253	0.133076
1035.497330	0.134184
1035.665388	0.131928
1035.833428	0.129209
1036.001450	0.131433
1036.169454	0.131729
1036.337440	0.132483
1036.505407	0.132379
1036.673356	0.131193
1036.841287	0.133380
1037.009200	0.132231
1037.177094	0.133255
1037.344970	0.134068
1037.512828	0.131855
1037.680668	0.132208
1037.848489	0.132715
1038.016293	0.133134
1038.184078	0.132230
1038.351845	0.131743
1038.519593	0.132831
1038.687324	0.133743
1038.855036	0.135634
1039.022730	0.135225
1039.190406	0.134237
1039.358063	0.134482
1039.525702	0.132873
1039.693323	0.133388
1039.860926	0.133653
1040.028511	0.132825
1040.196077	0.130824
1040.363625	0.130928
1040.531155	0.131468
1040.698667	0.131667
1040.866161	0.129706
1041.033636	0.129147
1041.201093	0.127800
1041.368532	0.126381
1041.535952	0.127321
1041.703355	0.128215
1041.870739	0.129129
1042.038105	0.130086
1042.205452	0.128340
1042.372782	0.129642
1042.540093	0.128745
1042.707386	0.130214
1042.874661	0.131374
1043.041918	0.131106
1043.209156	0.130369
1043.376376	0.128544
1043.543578	0.128474
1043.710762	0.132253
1043.877927	0.133160
1044.045074	0.137288
1044.212203	0.135213
1044.379314	0.134525
1044.546407	0.133271
1044.713481	0.134367
1044.880537	0.132454
1045.047575	0.132705
1045.214595	0.130022
1045.381596	0.128547
1045.548579	0.127225
1045.715544	0.130264
1045.882491	0.130180
1046.049420	0.132881
1046.216330	0.133619
1046.383222	0.136799
1046.550096	0.136489
1046.716951	0.137087
1046.883789	0.138349
1047.050608	0.136707
1047.217409	0.137609
1047.384192	0.137221
1047.550956	0.135818
1047.717703	0.134545
1047.884431	0.134007
1048.051140	0.133511
1048.217832	0.133741
1048.384505	0.130924
1048.551161	0.132444
1048.717798	0.130124
1048.884416	0.130141
1049.051017	0.129702
1049.217599	0.130968
1049.384163	0.130472
1049.550709	0.128724
1049.717237	0.129603
1049.883746	0.131008
1050.050237	0.130551
1050.216710	0.129584
1050.383165	0.129022
1050.549601	0.127301
1050.716019	0.126809
1050.882420	0.127149
1051.048801	0.128851
1051.215165	0.128663
1051.381510	0.128475
1051.547837	0.127795
1051.714146	0.128540
1051.880437	0.128825
1052.046709	0.128792
1052.212964	0.128618
1052.379200	0.128872
1052.545417	0.129213
1052.711617	0.129521
1052.877798	0.131041
1053.043961	0.131225
1053.210106	0.131987
1053.376233	0.131900
1053.542341	0.136595
1053.708432	0.135969
1053.874504	0.137188
1054.040557	0.137352
1054.206593	0.137332
1054.372610	0.136997
1054.538609	0.137413
1054.704590	0.138291
1054.870553	0.139077
1055.036497	0.137848
1055.202424	0.137653
1055.368331	0.135350
1055.534221	0.135707
1055.700093	0.134719
1055.865946	0.135032
1056.031781	0.135139
1056.197598	0.133667
1056.363397	0.133288
1056.529177	0.130464
1056.694939	0.131377
1056.860683	0.130952
1057.026409	0.129946
1057.192116	0.129988
1057.357806	0.129028
1057.523477	0.129954
1057.689130	0.132834
1057.854764	0.133087
1058.020381	0.135888
1058.185979	0.135949
1058.351559	0.133607
1058.517120	0.133052
1058.682664	0.134703
1058.848189	0.135753
1059.013696	0.135405
1059.179185	0.131153
1059.344656	0.131533
1059.510108	0.127832
1059.675542	0.129023
1059.840958	0.132753
1060.006356	0.133501
1060.171735	0.129268
1060.337096	0.129433
1060.502439	0.129298
1060.667764	0.131005
1060.833071	0.130743
1060.998359	0.132408
1061.163629	0.129341
1061.328881	0.127449
1061.494115	0.128103
1061.659330	0.129528
1061.824527	0.128768
1061.989706	0.131112
1062.154867	0.130643
1062.320010	0.130484
1062.485134	0.128669
1062.650240	0.130524
1062.815328	0.133526
1062.980398	0.131412
1063.145449	0.131277
1063.310482	0.131398
1063.475497	0.128599
1063.640494	0.131356
1063.805473	0.130592
1063.970433	0.135000
1064.135375	0.134081
1064.300299	0.133633
1064.465204	0.135193
1064.630092	0.136554
1064.794961	0.137027
1064.959812	0.136194
1065.124645	0.132725
1065.289459	0.132366
1065.454256	0.130654
1065.619034	0.131874
1065.783793	0.130938
1065.948535	0.131987
1066.113258	0.132227
1066.277964	0.130691
1066.442651	0.132552
1066.607319	0.133262
1066.771970	0.137055
1066.936602	0.136378
1067.101216	0.135478
1067.265812	0.135679
1067.430389	0.134275
1067.594949	0.135917
1067.759490	0.138097
1067.924013	0.138824
1068.088518	0.141334
1068.253004	0.139010
1068.417472	0.141491
1068.581922	0.143463
1068.746354	0.143830
1068.910768	0.144746
1069.075163	0.143073
1069.239540	0.141667
1069.403899	0.141135
1069.568240	0.138764
1069.732562	0.139325
1069.896866	0.137716
1070.061152	0.136352
1070.225420	0.135940
1070.389670	0.136085
1070.553901	0.138161
1070.718114	0.136568
1070.882309	0.136072
1071.046486	0.136343
1071.210644	0.136265
1071.374784	0.137143
1071.538906	0.136991
1071.703010	0.137826
1071.867096	0.138536
1072.031163	0.137485
1072.195212	0.140161
1072.359243	0.138227
1072.523256	0.139844
1072.687250	0.140101
1072.851226	0.138410
1073.015184	0.139104
1073.179124	0.139419
1073.343045	0.139538
1073.506949	0.139567
1073.670834	0.137890
1073.834701	0.141026
1073.998549	0.140442
1074.162380	0.141339
1074.326192	0.143814
1074.489986	0.144473
1074.653761	0.144342
1074.817519	0.144295
1074.981258	0.145652
1075.144979	0.147480
1075.308682	0.147293
1075.472367	0.148216
1075.636033	0.147610
1075.799681	0.145859
1075.963311	0.145813
1076.126923	0.144561
1076.290516	0.143295
1076.454092	0.141420
1076.617649	0.142512
1076.781187	0.139019
1076.944708	0.135348
1077.108210	0.133712
1077.271695	0.135524
1077.435160	0.133577
1077.598608	0.133471
1077.762038	0.131299
1077.925449	0.133187
1078.088842	0.131840
1078.252217	0.137290
1078.415573	0.138943
1078.578912	0.140651
1078.742232	0.141390
1078.905534	0.144712
1079.068817	0.147072
1079.232083	0.151126
1079.395330	0.150449
1079.558559	0.149304
1079.721770	0.146059
1079.884962	0.148112
1080.048136	0.150734
1080.211293	0.147368
1080.374430	0.146982
1080.537550	0.147909
1080.700651	0.147109
1080.863735	0.143213
1081.026800	0.143867
1081.189846	0.143924
1081.352875	0.142853
1081.515885	0.142544
1081.678877	0.143947
1081.841851	0.143903
1082.004807	0.139726
1082.167744	0.140847
1082.330663	0.144562
1082.493564	0.145836
1082.656447	0.148178
1082.819312	0.152249
1082.982158	0.150059
1083.144986	0.150245
1083.307796	0.148102
1083.470587	0.152882
1083.633361	0.152451
1083.796116	0.153749
1083.958853	0.150875
1084.121571	0.149068
1084.284272	0.146177
1084.446954	0.147360
1084.609618	0.149392
1084.772264	0.153439
1084.934892	0.151356
1085.097501	0.149677
1085.260092	0.145962
1085.422665	0.147138
1085.585220	0.149612
1085.747756	0.149630
1085.910274	0.150919
1086.072774	0.151266
1086.235256	0.146075
1086.397720	0.146478
1086.560165	0.150987
1086.722592	0.152406
1086.885001	0.153330
1087.047392	0.152019
1087.209764	0.149880
1087.372119	0.146899
1087.534455	0.145216
1087.696772	0.149747
1087.859072	0.149545
1088.021353	0.146957
1088.183616	0.145558
1088.345861	0.146178
1088.508088	0.146585
1088.670296	0.146645
1088.832486	0.148725
1088.994658	0.149587
1089.156812	0.151391
1089.318948	0.151442
1089.481065	0.149072
1089.643164	0.151603
1089.805245	0.151450
1089.967308	0.150646
1090.129352	0.150976
1090.291378	0.148473
1090.453386	0.150000
1090.615376	0.145345
1090.777347	0.142515
1090.939301	0.147882
1091.101236	0.151982
1091.263153	0.154939
1091.425051	0.153368
1091.586932	0.154844
1091.748794	0.158574
1091.910638	0.154182
1092.072463	0.157648
1092.234271	0.164527
1092.396060	0.158785
1092.557831	0.155277
1092.719584	0.151165
1092.881319	0.152019
1093.043035	0.153746
1093.204733	0.152023
1093.366413	0.155653
1093.528075	0.152007
1093.689718	0.146552
1093.851343	0.150844
1094.012950	0.151540
1094.174539	0.153295
1094.336110	0.151927
1094.497662	0.150853
1094.659196	0.151045
1094.820712	0.148674
1094.982210	0.149928
1095.143689	0.150798
1095.305151	0.149003
1095.466594	0.145821
1095.628018	0.145304
1095.789425	0.153615
1095.950813	0.150301
1096.112183	0.150320
1096.273535	0.148865
1096.434869	0.150739
1096.596184	0.148791
1096.757482	0.145815
1096.918761	0.148798
1097.080021	0.148768
1097.241264	0.143595
1097.402488	0.145273
1097.563694	0.144599
1097.724882	0.147019
1097.886052	0.141265
1098.047203	0.145391
1098.208336	0.146979
1098.369451	0.146092
1098.530548	0.146133
1098.691627	0.146480
1098.852687	0.147174
1099.013729	0.144729
1099.174753	0.148246
1099.335758	0.154678
1099.496746	0.151629
1099.657715	0.153411
1099.818666	0.154153
1099.979599	0.153553
1100.140513	0.156168
1100.301409	0.156393
1100.462287	0.164706
1100.623147	0.162607
1100.783989	0.160659
1100.944812	0.159807
1101.105617	0.162575
1101.266404	0.162250
1101.427173	0.166434
1101.587923	0.162284
1101.748656	0.160001
1101.909370	0.155576
1102.070066	0.152952
1102.230743	0.153355
1102.391403	0.155321
1102.552044	0.153977
1102.712667	0.155522
1102.873271	0.150816
1103.033858	0.151349
1103.194426	0.154032
1103.354976	0.148400
1103.515508	0.151249
1103.676021	0.151244
1103.836517	0.149267
1103.996994	0.146215
1104.157453	0.142307
1104.317893	0.147092
1104.478316	0.149557
1104.638720	0.152411
1104.799106	0.156412
1104.959474	0.153559
1105.119823	0.153535
1105.280155	0.159443
1105.440468	0.161888
1105.600763	0.165198
1105.761039	0.164666
1105.921298	0.162137
1106.081538	0.164904
1106.241760	0.167186
1106.401964	0.173063
1106.562149	0.174583
1106.722316	0.174134
1106.882465	0.176010
1107.042596	0.177693
1107.202709	0.179147
1107.362803	0.177234
1107.522879	0.168145
1107.682937	0.170955
1107.842977	0.170489
1108.002999	0.167586
1108.163002	0.164713
1108.322987	0.162707
1108.482954	0.161660
1108.642902	0.153059
1108.802833	0.155741
1108.962745	0.162059
1109.122639	0.158846
1109.282515	0.153116
1109.442372	0.156311
1109.602211	0.155566
1109.762032	0.155125
1109.921835	0.151019
1110.081620	0.152449
1110.241386	0.155222
1110.401134	0.148617
1110.560864	0.146828
1110.720576	0.148917
1110.880269	0.147466
1111.039945	0.147951
1111.199602	0.150385
1111.359240	0.148005
1111.518861	0.153138
1111.678463	0.150625
1111.838047	0.157037
1111.997613	0.156848
1112.157161	0.160931
1112.316690	0.164973
1112.476202	0.166504
1112.635695	0.163406
1112.795169	0.170395
1112.954626	0.164267
1113.114064	0.164680
1113.273484	0.165028
1113.432886	0.163550
1113.592270	0.160656
1113.751635	0.159105
1113.910983	0.160343
1114.070312	0.162134
1114.229622	0.157625
1114.388915	0.163784
1114.548189	0.161020
1114.707445	0.161925
1114.866683	0.168884
1115.025903	0.167147
1115.185104	0.163025
1115.344287	0.160176
1115.503452	0.161096
1115.662599	0.168501
1115.821727	0.166836
1115.980838	0.172539
1116.139930	0.171868
1116.299004	0.162599
1116.458059	0.164963
1116.617097	0.165988
1116.776116	0.171903
1116.935117	0.176610
1117.094099	0.171104
1117.253064	0.177362
1117.412010	0.176298
1117.570938	0.173465
1117.729848	0.181934
1117.888740	0.182756
1118.047613	0.189852
1118.206468	0.183683
1118.365305	0.175740
1118.524124	0.178955
1118.682924	0.177678
1118.841707	0.176176
1119.000471	0.175068
1119.159216	0.174642
1119.317944	0.180291
1119.476653	0.176691
1119.635344	0.180481
1119.794017	0.184271
1119.952672	0.184977
1120.111308	0.182559
1120.269927	0.182874
1120.428527	0.179295
1120.587108	0.179414
1120.745672	0.174096
1120.904217	0.178023
1121.062744	0.179026
1121.221253	0.177645
1121.379744	0.176888
1121.538216	0.178998
1121.696671	0.178734
1121.855107	0.181815
1122.013524	0.181263
1122.171924	0.179124
1122.330305	0.170586
1122.488668	0.167729
1122.647013	0.165141
1122.805340	0.156802
1122.963648	0.156538
1123.121938	0.151160
1123.280210	0.160004
1123.438464	0.156955
1123.596700	0.159628
1123.754917	0.160913
1123.913116	0.158313
1124.071297	0.162795
1124.229459	0.168754
1124.387604	0.170431
1124.545730	0.171171
1124.703838	0.168577
1124.861928	0.174831
1125.019999	0.177410
1125.178052	0.179171
1125.336088	0.178635
1125.494104	0.175140
1125.652103	0.177627
1125.810083	0.169324
1125.968045	0.170049
1126.125989	0.163391
1126.283915	0.159001
1126.441823	0.151873
1126.599712	0.156035
1126.757583	0.163309
1126.915436	0.167444
1127.073270	0.164709
1127.231087	0.175090
1127.388885	0.177562
1127.546665	0.177853
1127.704426	0.180480
1127.862170	0.186839
1128.019895	0.187545
1128.177602	0.186873
1128.335291	0.180937
1128.492961	0.190899
1128.650614	0.188834
1128.808248	0.201905
1128.965864	0.203244
1129.123461	0.196653
1129.281041	0.195618
1129.438602	0.181918
1129.596145	0.175343
1129.753670	0.181189
1129.911176	0.172314
1130.068665	0.174138
1130.226135	0.160537
1130.383587	0.165550
1130.541020	0.172261
1130.698436	0.168491
1130.855833	0.184604
1131.013212	0.175226
1131.170573	0.168622
1131.327915	0.172086
1131.485239	0.158315
1131.642545	0.160888
1131.799833	0.150841
1131.957103	0.144368
1132.114354	0.146718
1132.271588	0.143336
1132.428803	0.152699
1132.585999	0.160138
1132.743178	0.155523
1132.900338	0.164108
1133.057480	0.164295
1133.214604	0.166622
1133.371710	0.170269
1133.528797	0.162940
1133.685866	0.152074
1133.842917	0.152236
1133.999950	0.146406
1134.156964	0.150314
1134.313960	0.151847
1134.470938	0.147694
1134.627898	0.151950
1134.784840	0.150878
1134.941763	0.158254
1135.098668	0.161299
1135.255555	0.161348
1135.412424	0.167787
1135.569274	0.165885
1135.726107	0.156777
1135.882921	0.169954
1136.039716	0.176774
1136.196494	0.185670
1136.353253	0.196148
1136.509995	0.199407
1136.666717	0.207408
1136.823422	0.199948
1136.980109	0.202378
1137.136777	0.212236
1137.293427	0.204801
1137.450059	0.195575
1137.606672	0.190631
1137.763267	0.181529
1137.919844	0.186256
1138.076403	0.186718
1138.232944	0.192426
1138.389466	0.196278
1138.545971	0.191153
1138.702457	0.190315
1138.858924	0.192839
1139.015374	0.194323
1139.171805	0.187066
1139.328218	0.183324
1139.484613	0.179738
1139.640990	0.193128
1139.797348	0.189808
1139.953688	0.198884
1140.110010	0.197891
1140.266314	0.206103
1140.422600	0.199974
1140.578867	0.209907
1140.735116	0.206872
1140.891347	0.194768
1141.047559	0.197200
1141.203754	0.188021
1141.359930	0.182565
1141.516088	0.175943
1141.672228	0.177985
1141.828349	0.180760
1141.984452	0.166624
1142.140537	0.167315
1142.296604	0.168745
1142.452653	0.151652
1142.608683	0.168108
1142.764695	0.166364
1142.920689	0.171804
1143.076665	0.164135
1143.232622	0.167325
1143.388562	0.185092
1143.544483	0.186190
1143.700385	0.206605
1143.856270	0.220664
1144.012136	0.214923
1144.167985	0.225810
1144.323814	0.216079
1144.479626	0.211482
1144.635420	0.209825
1144.791195	0.204911
1144.946952	0.206439
1145.102691	0.202072
1145.258411	0.192631
1145.414113	0.185583
1145.569798	0.173288
1145.725463	0.181134
1145.881111	0.183282
1146.036741	0.187909
1146.192352	0.180181
1146.347945	0.178627
1146.503519	0.176267
1146.659076	0.173456
1146.814614	0.175034
1146.970134	0.177794
1147.125636	0.187453
1147.281120	0.193228
1147.436585	0.178901
1147.592032	0.178822
1147.747461	0.178032
1147.902872	0.175129
1148.058265	0.164301
1148.213639	0.167757
1148.368995	0.165417
1148.524333	0.152428
1148.679653	0.153152
1148.834954	0.156180
1148.990237	0.161052
1149.145502	0.165269
1149.300749	0.174929
1149.455977	0.184947
1149.611188	0.189235
1149.766380	0.211794
1149.921553	0.213140
1150.076709	0.194704
1150.231846	0.191625
1150.386966	0.200302
1150.542066	0.205115
1150.697149	0.182872
1150.852214	0.179408
1151.007260	0.165896
1151.162288	0.146475
1151.317298	0.149562
1151.472289	0.175292
1151.627263	0.195608
1151.782218	0.175637
1151.937155	0.151217
1152.092073	0.156542
1152.246974	0.153778
1152.401856	0.156640
1152.556720	0.153434
1152.711566	0.166550
1152.866393	0.149037
1153.021203	0.135480
1153.175994	0.154241
1153.330767	0.175325
1153.485521	0.174461
1153.640258	0.180734
1153.794976	0.187241
1153.949676	0.183145
1154.104358	0.174672
1154.259021	0.176666
1154.413667	0.173869
1154.568294	0.158478
1154.722903	0.156394
1154.877493	0.159282
1155.032066	0.154057
1155.186620	0.161415
1155.341156	0.172924
1155.495674	0.172683
1155.650173	0.174803
1155.804654	0.191078
1155.959118	0.176487
1156.113562	0.178946
1156.267989	0.174199
1156.422397	0.166940
1156.576788	0.156699
1156.731160	0.169541
1156.885513	0.168453
1157.039849	0.180377
1157.194166	0.163255
1157.348465	0.185927
1157.502746	0.193945
1157.657009	0.208401
1157.811253	0.216230
1157.965479	0.218703
1158.119687	0.190019
1158.273877	0.195614
1158.428048	0.188458
1158.582201	0.194850
1158.736337	0.191797
1158.890453	0.191359
1159.044552	0.188677
1159.198632	0.191296
1159.352694	0.181932
1159.506738	0.180463
1159.660764	0.159937
1159.814771	0.149784
1159.968761	0.163977
1160.122732	0.170884
1160.276685	0.177381
1160.430619	0.170645
1160.584535	0.164546
1160.738434	0.159985
1160.892313	0.196349
1161.046175	0.217104
1161.200019	0.236314
1161.353844	0.212985
1161.507651	0.200099
1161.661440	0.171031
1161.815210	0.179808
1161.968962	0.199672
1162.122697	0.211832
1162.276412	0.198939
1162.430110	0.167372
1162.583789	0.157899
1162.737451	0.154154
1162.891094	0.173207
1163.044718	0.197194
1163.198325	0.177281
1163.351913	0.145161
1163.505483	0.157701
1163.659035	0.133157
1163.812569	0.197270
1163.966084	0.187797
1164.119581	0.210484
1164.273060	0.176496
1164.426521	0.182221
1164.579964	0.188743
1164.733388	0.210061
1164.886794	0.186569
1165.040182	0.201965
1165.193551	0.158524
1165.346903	0.154857
1165.500236	0.156804
1165.653551	0.153884
1165.806848	0.160856
1165.960126	0.164374
1166.113386	0.150274
1166.266628	0.163219
1166.419852	0.159177
1166.573058	0.160808
1166.726245	0.171150
1166.879414	0.155014
1167.032565	0.189443
1167.185698	0.162019
1167.338812	0.170353
1167.491909	0.173093
1167.644987	0.156616
1167.798046	0.165221
1167.951088	0.167656
1168.104111	0.181552
1168.257117	0.166644
1168.410103	0.148473
1168.563072	0.126364
1168.716023	0.126463
1168.868955	0.132484
1169.021869	0.128345
1169.174765	0.122956
1169.327642	0.117152
1169.480501	0.091714
1169.633343	0.079881
1169.786165	0.085579
1169.938970	0.105991
1170.091757	0.112082
1170.244525	0.139258
1170.397275	0.177264
1170.550007	0.156551
1170.702720	0.158103
1170.855415	0.191888
1171.008092	0.238705
1171.160751	0.250527
1171.313392	0.264237
1171.466014	0.416770
1171.618619	0.277686
1171.771205	0.277686
1171.923772	0.277686
