sample name	sample
index	591
start time	 03-16-2021  04:31:22 PM


Wavelength (nm)	Absorbance
494.344910	0.096188
494.563924	0.096188
494.782919	0.096188
495.001897	-0.114755
495.220856	-0.058856
495.439797	-0.102932
495.658719	-0.135599
495.877624	-0.160558
496.096510	-0.150035
496.315378	-0.077464
496.534227	-0.043909
496.753059	-0.184786
496.971872	-0.176955
497.190667	0.088752
497.409444	0.129877
497.628203	0.136874
497.846943	0.139870
498.065665	0.143436
498.284369	0.145829
498.503055	0.148971
498.721723	0.150551
498.940372	0.150521
499.159003	0.152373
499.377616	0.151893
499.596210	0.152642
499.814787	0.152130
500.033345	0.151843
500.251885	0.152206
500.470406	0.151060
500.688910	0.151950
500.907395	0.151216
501.125862	0.150296
501.344311	0.150008
501.562742	0.149025
501.781154	0.149307
501.999548	0.149345
502.217924	0.149085
502.436282	0.149302
502.654621	0.147766
502.872942	0.149351
503.091245	0.148994
503.309530	0.148550
503.527797	0.149210
503.746045	0.151272
503.964275	0.152288
504.182487	0.152401
504.400681	0.152492
504.618856	0.153790
504.837013	0.151934
505.055152	0.152587
505.273273	0.153167
505.491376	0.153558
505.709460	0.152248
505.927526	0.151282
506.145574	0.150295
506.363604	0.150388
506.581615	0.150077
506.799608	0.151068
507.017583	0.151195
507.235540	0.151562
507.453478	0.152310
507.671399	0.152763
507.889301	0.152980
508.107185	0.154849
508.325050	0.155365
508.542898	0.155135
508.760727	0.155165
508.978538	0.155734
509.196330	0.156667
509.414105	0.156257
509.631861	0.155097
509.849599	0.155369
510.067319	0.154211
510.285021	0.153340
510.502704	0.154568
510.720369	0.155890
510.938016	0.155576
511.155645	0.154993
511.373255	0.154647
511.590848	0.155852
511.808422	0.156259
512.025977	0.155838
512.243515	0.157143
512.461034	0.157526
512.678536	0.156331
512.896018	0.156453
513.113483	0.156108
513.330930	0.156669
513.548358	0.156952
513.765768	0.155613
513.983160	0.157751
514.200533	0.156379
514.417889	0.156920
514.635226	0.157071
514.852545	0.156915
515.069845	0.157460
515.287128	0.157350
515.504392	0.157372
515.721638	0.159371
515.938866	0.157405
516.156075	0.158605
516.373267	0.158332
516.590440	0.159246
516.807594	0.159788
517.024731	0.160099
517.241850	0.159413
517.458950	0.159145
517.676032	0.158377
517.893095	0.159280
518.110141	0.159196
518.327168	0.158575
518.544177	0.157796
518.761168	0.157302
518.978141	0.156798
519.195095	0.158123
519.412031	0.159962
519.628949	0.159870
519.845849	0.159044
520.062731	0.158276
520.279594	0.158345
520.496439	0.158798
520.713266	0.158986
520.930074	0.159538
521.146865	0.158830
521.363637	0.158600
521.580391	0.158906
521.797127	0.160014
522.013844	0.161099
522.230543	0.161093
522.447224	0.161261
522.663887	0.162139
522.880532	0.162655
523.097158	0.163798
523.313766	0.163483
523.530356	0.163891
523.746928	0.163646
523.963481	0.164083
524.180017	0.165159
524.396534	0.165492
524.613032	0.165399
524.829513	0.164780
525.045975	0.163839
525.262420	0.164603
525.478845	0.165406
525.695253	0.166673
525.911643	0.167056
526.128014	0.167349
526.344367	0.168166
526.560702	0.167993
526.777018	0.169467
526.993316	0.170058
527.209597	0.169340
527.425858	0.169381
527.642102	0.169211
527.858328	0.169172
528.074535	0.168591
528.290724	0.168908
528.506894	0.170010
528.723047	0.169475
528.939181	0.169881
529.155297	0.170041
529.371395	0.170032
529.587475	0.170646
529.803536	0.170941
530.019579	0.171895
530.235604	0.171277
530.451611	0.171467
530.667600	0.172027
530.883570	0.172167
531.099522	0.173208
531.315456	0.174012
531.531372	0.173627
531.747269	0.173673
531.963148	0.174092
532.179009	0.174889
532.394852	0.174884
532.610676	0.174955
532.826482	0.175288
533.042271	0.175247
533.258040	0.174055
533.473792	0.173476
533.689525	0.174368
533.905240	0.174095
534.120937	0.173062
534.336616	0.173604
534.552277	0.174009
534.767919	0.174538
534.983543	0.175048
535.199149	0.176543
535.414736	0.177958
535.630306	0.177809
535.845857	0.178175
536.061390	0.180061
536.276904	0.179993
536.492401	0.180793
536.707879	0.180960
536.923339	0.180495
537.138781	0.180457
537.354204	0.180326
537.569610	0.179928
537.784997	0.180386
538.000366	0.180014
538.215716	0.180001
538.431049	0.179789
538.646363	0.180181
538.861659	0.180946
539.076937	0.181333
539.292196	0.181288
539.507438	0.182106
539.722661	0.181945
539.937866	0.182306
540.153052	0.182864
540.368221	0.183101
540.583371	0.183343
540.798503	0.183405
541.013617	0.183727
541.228712	0.184752
541.443789	0.185251
541.658848	0.185676
541.873889	0.185892
542.088912	0.186293
542.303916	0.186389
542.518902	0.186929
542.733870	0.187770
542.948820	0.187908
543.163752	0.187955
543.378665	0.187540
543.593560	0.187420
543.808437	0.187429
544.023295	0.187221
544.238136	0.187931
544.452958	0.187885
544.667762	0.187667
544.882548	0.187694
545.097315	0.187554
545.312064	0.188363
545.526795	0.188858
545.741508	0.188910
545.956203	0.189257
546.170879	0.189140
546.385537	0.189464
546.600177	0.189693
546.814799	0.189767
547.029402	0.189759
547.243988	0.189980
547.458555	0.190487
547.673103	0.190738
547.887634	0.190968
548.102146	0.191127
548.316640	0.191502
548.531116	0.191125
548.745574	0.191282
548.960013	0.191618
549.174435	0.191554
549.388838	0.191201
549.603222	0.191927
549.817589	0.192051
550.031937	0.192053
550.246267	0.191913
550.460579	0.192928
550.674873	0.193433
550.889148	0.193917
551.103405	0.194014
551.317644	0.194116
551.531865	0.194246
551.746068	0.195309
551.960252	0.195394
552.174418	0.195825
552.388566	0.196082
552.602696	0.196061
552.816807	0.196166
553.030900	0.196194
553.244975	0.196944
553.459032	0.196984
553.673070	0.196399
553.887091	0.196700
554.101093	0.196482
554.315077	0.196809
554.529042	0.197261
554.742990	0.197273
554.956919	0.197863
555.170830	0.197852
555.384722	0.197695
555.598597	0.198044
555.812453	0.198397
556.026291	0.198747
556.240111	0.198487
556.453913	0.198545
556.667696	0.199445
556.881461	0.199539
557.095208	0.199151
557.308937	0.199563
557.522647	0.199218
557.736339	0.199612
557.950013	0.199727
558.163669	0.199608
558.377307	0.199732
558.590926	0.199568
558.804527	0.199402
559.018110	0.200250
559.231675	0.200648
559.445221	0.200994
559.658749	0.200617
559.872259	0.200811
560.085751	0.201120
560.299225	0.200769
560.512680	0.200430
560.726117	0.200628
560.939536	0.200821
561.152937	0.201232
561.366319	0.201605
561.579683	0.201857
561.793029	0.202190
562.006357	0.202406
562.219667	0.202866
562.432958	0.203184
562.646231	0.203193
562.859486	0.203448
563.072723	0.203277
563.285941	0.203453
563.499141	0.203493
563.712323	0.202791
563.925487	0.202946
564.138632	0.203147
564.351760	0.203484
564.564869	0.204089
564.777960	0.203729
564.991032	0.203659
565.204087	0.203877
565.417123	0.204278
565.630141	0.205283
565.843140	0.205337
566.056122	0.205574
566.269085	0.205903
566.482030	0.205944
566.694957	0.206049
566.907866	0.206368
567.120756	0.206376
567.333628	0.206511
567.546482	0.206560
567.759318	0.206390
567.972135	0.206315
568.184935	0.206251
568.397716	0.206054
568.610478	0.206363
568.823223	0.206392
569.035949	0.206513
569.248657	0.206739
569.461347	0.206684
569.674019	0.207111
569.886672	0.207175
570.099308	0.207503
570.311925	0.208134
570.524523	0.208715
570.737104	0.209232
570.949666	0.209410
571.162210	0.209606
571.374736	0.209759
571.587244	0.209792
571.799733	0.209725
572.012205	0.209544
572.224658	0.209161
572.437092	0.209065
572.649509	0.208209
572.861907	0.208628
573.074287	0.208523
573.286649	0.208444
573.498993	0.208951
573.711318	0.209385
573.923625	0.209320
574.135914	0.209932
574.348185	0.209976
574.560438	0.210545
574.772672	0.209938
574.984888	0.209550
575.197086	0.210275
575.409266	0.210141
575.621427	0.210416
575.833570	0.211192
576.045695	0.210512
576.257802	0.210666
576.469890	0.210649
576.681961	0.211201
576.894013	0.211824
577.106046	0.211592
577.318062	0.211643
577.530059	0.211717
577.742039	0.211434
577.954000	0.212374
578.165942	0.211934
578.377867	0.212497
578.589773	0.213131
578.801661	0.213477
579.013531	0.213630
579.225382	0.213639
579.437216	0.213612
579.649031	0.213763
579.860828	0.213748
580.072606	0.213767
580.284367	0.213945
580.496109	0.213490
580.707833	0.213274
580.919539	0.213374
581.131227	0.213819
581.342896	0.214036
581.554547	0.214254
581.766180	0.213959
581.977795	0.214839
582.189391	0.214960
582.400969	0.215240
582.612529	0.215160
582.824071	0.215660
583.035595	0.215338
583.247100	0.215227
583.458587	0.214753
583.670056	0.215292
583.881506	0.215058
584.092939	0.215450
584.304353	0.215150
584.515749	0.215484
584.727127	0.215321
584.938486	0.215862
585.149828	0.216511
585.361151	0.217376
585.572456	0.217247
585.783742	0.217623
585.995011	0.218012
586.206261	0.218347
586.417493	0.218332
586.628706	0.218569
586.839902	0.218549
587.051079	0.218566
587.262238	0.218757
587.473379	0.219104
587.684502	0.219038
587.895606	0.218374
588.106692	0.218785
588.317760	0.219153
588.528810	0.218769
588.739841	0.218856
588.950855	0.218956
589.161850	0.218857
589.372827	0.218710
589.583785	0.219110
589.794726	0.219235
590.005648	0.219010
590.216552	0.219082
590.427437	0.219536
590.638305	0.220016
590.849154	0.220055
591.059985	0.220398
591.270798	0.220724
591.481592	0.220818
591.692369	0.221600
591.903127	0.221559
592.113867	0.221926
592.324588	0.222071
592.535292	0.222017
592.745977	0.222463
592.956644	0.221776
593.167293	0.221929
593.377923	0.222141
593.588536	0.221716
593.799130	0.222321
594.009706	0.222519
594.220263	0.222621
594.430803	0.222635
594.641324	0.222510
594.851827	0.222861
595.062312	0.223022
595.272778	0.222816
595.483227	0.223187
595.693657	0.223017
595.904069	0.222903
596.114462	0.223252
596.324838	0.223592
596.535195	0.223809
596.745534	0.224611
596.955855	0.225080
597.166157	0.225464
597.376441	0.225386
597.586707	0.225965
597.796955	0.226340
598.007185	0.226307
598.217396	0.226391
598.427589	0.226174
598.637764	0.225853
598.847921	0.225652
599.058060	0.225678
599.268180	0.225593
599.478282	0.225288
599.688366	0.225428
599.898431	0.225569
600.108479	0.225759
600.318508	0.226268
600.528519	0.226764
600.738511	0.226836
600.948486	0.227197
601.158442	0.227489
601.368380	0.227506
601.578300	0.227347
601.788202	0.227336
601.998085	0.227436
602.207950	0.227419
602.417797	0.227147
602.627626	0.227359
602.837436	0.226750
603.047228	0.227122
603.257002	0.227532
603.466758	0.227592
603.676496	0.227874
603.886215	0.227678
604.095916	0.227741
604.305599	0.228101
604.515264	0.228359
604.724910	0.228358
604.934538	0.228216
605.144148	0.228326
605.353740	0.228713
605.563314	0.229189
605.772869	0.229342
605.982406	0.229686
606.191925	0.229949
606.401425	0.229601
606.610908	0.230436
606.820372	0.230604
607.029818	0.230709
607.239246	0.230909
607.448655	0.230298
607.658047	0.230424
607.867420	0.230297
608.076775	0.230009
608.286111	0.230951
608.495430	0.231047
608.704730	0.230979
608.914012	0.230684
609.123275	0.230700
609.332521	0.231459
609.541748	0.231755
609.750957	0.231882
609.960148	0.232145
610.169321	0.231679
610.378475	0.231685
610.587611	0.232193
610.796729	0.232760
611.005829	0.232772
611.214910	0.232496
611.423974	0.232772
611.633019	0.233178
611.842045	0.233680
612.051054	0.233730
612.260044	0.233614
612.469017	0.233884
612.677970	0.233922
612.886906	0.234166
613.095824	0.234776
613.304723	0.234765
613.513604	0.234710
613.722467	0.234630
613.931311	0.234728
614.140138	0.235245
614.348946	0.235424
614.557736	0.235715
614.766507	0.236087
614.975261	0.236007
615.183996	0.235867
615.392713	0.235798
615.601412	0.236096
615.810092	0.236484
616.018754	0.236492
616.227399	0.236271
616.436024	0.236608
616.644632	0.236033
616.853222	0.236248
617.061793	0.236791
617.270346	0.236989
617.478880	0.236959
617.687397	0.237465
617.895895	0.237672
618.104375	0.237953
618.312837	0.237553
618.521281	0.237901
618.729706	0.237660
618.938113	0.237745
619.146502	0.237926
619.354873	0.237930
619.563226	0.237660
619.771560	0.237650
619.979876	0.237612
620.188174	0.238129
620.396453	0.238599
620.604715	0.239046
620.812958	0.238959
621.021183	0.239190
621.229390	0.239646
621.437578	0.239414
621.645748	0.239487
621.853900	0.239491
622.062034	0.239601
622.270150	0.239486
622.478247	0.239526
622.686326	0.239589
622.894387	0.239871
623.102430	0.239800
623.310454	0.240151
623.518461	0.240403
623.726449	0.241002
623.934418	0.240864
624.142370	0.241359
624.350303	0.241479
624.558218	0.241672
624.766115	0.241641
624.973994	0.241661
625.181855	0.242192
625.389697	0.242313
625.597521	0.242171
625.805327	0.242585
626.013114	0.242421
626.220883	0.242403
626.428634	0.242690
626.636367	0.242879
626.844082	0.242824
627.051778	0.242759
627.259457	0.242738
627.467117	0.242830
627.674758	0.242686
627.882382	0.242507
628.089987	0.242669
628.297574	0.242402
628.505143	0.242258
628.712694	0.242680
628.920226	0.242699
629.127740	0.242946
629.335236	0.243146
629.542714	0.243205
629.750174	0.243558
629.957615	0.243704
630.165038	0.243967
630.372443	0.244296
630.579829	0.244443
630.787198	0.244395
630.994548	0.244452
631.201880	0.244800
631.409194	0.244966
631.616489	0.244940
631.823766	0.245096
632.031025	0.245487
632.238266	0.245693
632.445489	0.245872
632.652693	0.246114
632.859879	0.246289
633.067047	0.246181
633.274197	0.246585
633.481329	0.246926
633.688442	0.246922
633.895537	0.246948
634.102614	0.247047
634.309672	0.247203
634.516713	0.247602
634.723735	0.248047
634.930739	0.248557
635.137724	0.248879
635.344692	0.249028
635.551641	0.249251
635.758572	0.249500
635.965485	0.249452
636.172379	0.249402
636.379256	0.249348
636.586114	0.249146
636.792954	0.248702
636.999775	0.248635
637.206579	0.248645
637.413364	0.249032
637.620131	0.249069
637.826880	0.249707
638.033610	0.249738
638.240323	0.249912
638.447017	0.250222
638.653692	0.250699
638.860350	0.250604
639.066990	0.250764
639.273611	0.250787
639.480214	0.250806
639.686798	0.250566
639.893365	0.251020
640.099913	0.250901
640.306443	0.250890
640.512955	0.250977
640.719449	0.251445
640.925924	0.251470
641.132381	0.251435
641.338820	0.251623
641.545241	0.251806
641.751644	0.251555
641.958028	0.251693
642.164394	0.252245
642.370742	0.252470
642.577071	0.252005
642.783383	0.252275
642.989676	0.252476
643.195951	0.252736
643.402207	0.252889
643.608446	0.253351
643.814666	0.253525
644.020868	0.253585
644.227052	0.253615
644.433218	0.254098
644.639365	0.254418
644.845494	0.254501
645.051605	0.254830
645.257698	0.254987
645.463772	0.255077
645.669828	0.255264
645.875866	0.255116
646.081886	0.255384
646.287888	0.255633
646.493871	0.255702
646.699836	0.255985
646.905783	0.255855
647.111712	0.256094
647.317622	0.256241
647.523514	0.256446
647.729388	0.256367
647.935244	0.256281
648.141082	0.256467
648.346901	0.256780
648.552702	0.256913
648.758485	0.257140
648.964250	0.257260
649.169996	0.257558
649.375724	0.257903
649.581434	0.258459
649.787126	0.258835
649.992800	0.258756
650.198455	0.258845
650.404092	0.259147
650.609711	0.259298
650.815311	0.259369
651.020894	0.259149
651.226458	0.259312
651.432004	0.259375
651.637532	0.259529
651.843041	0.259970
652.048532	0.259990
652.254006	0.259875
652.459460	0.259916
652.664897	0.260143
652.870315	0.260396
653.075716	0.260532
653.281097	0.260577
653.486461	0.260482
653.691807	0.260479
653.897134	0.260926
654.102443	0.260908
654.307734	0.261187
654.513006	0.261486
654.718261	0.261782
654.923497	0.261868
655.128715	0.262345
655.333915	0.262695
655.539096	0.263178
655.744259	0.263304
655.949404	0.263686
656.154531	0.263815
656.359640	0.263839
656.564730	0.264196
656.769802	0.264448
656.974856	0.264170
657.179892	0.264226
657.384909	0.264074
657.589908	0.264085
657.794889	0.264275
657.999852	0.264788
658.204797	0.265163
658.409723	0.265096
658.614631	0.265167
658.819521	0.265581
659.024393	0.265618
659.229246	0.265606
659.434081	0.265792
659.638898	0.266202
659.843697	0.265946
660.048478	0.265941
660.253240	0.266172
660.457984	0.266388
660.662710	0.266728
660.867417	0.267104
661.072107	0.267539
661.276778	0.267803
661.481431	0.267712
661.686066	0.267912
661.890682	0.268221
662.095281	0.268290
662.299861	0.268531
662.504422	0.268585
662.708966	0.268772
662.913491	0.269066
663.117999	0.269074
663.322488	0.269131
663.526958	0.269779
663.731411	0.269933
663.935845	0.270298
664.140261	0.270381
664.344659	0.270395
664.549038	0.270546
664.753400	0.270782
664.957743	0.271250
665.162068	0.271590
665.366375	0.271406
665.570663	0.271344
665.774933	0.271437
665.979185	0.271738
666.183419	0.272066
666.387635	0.272357
666.591832	0.272560
666.796011	0.272601
667.000172	0.272718
667.204315	0.273061
667.408439	0.273263
667.612545	0.273346
667.816634	0.273424
668.020703	0.273477
668.224755	0.273621
668.428788	0.273655
668.632803	0.273776
668.836800	0.274145
669.040779	0.274319
669.244739	0.274600
669.448681	0.274942
669.652605	0.275188
669.856511	0.275627
670.060399	0.276058
670.264268	0.276148
670.468119	0.276318
670.671952	0.276551
670.875767	0.276557
671.079563	0.276969
671.283341	0.277101
671.487101	0.277204
671.690843	0.277207
671.894567	0.277134
672.098272	0.277487
672.301959	0.277578
672.505628	0.277723
672.709278	0.278128
672.912911	0.278209
673.116525	0.278353
673.320121	0.278298
673.523699	0.278855
673.727258	0.278985
673.930799	0.279131
674.134322	0.279400
674.337827	0.279484
674.541314	0.279600
674.744782	0.279686
674.948232	0.280039
675.151664	0.280404
675.355078	0.280450
675.558474	0.280705
675.761851	0.280719
675.965210	0.281184
676.168551	0.281707
676.371873	0.281675
676.575178	0.282050
676.778464	0.281987
676.981732	0.282475
677.184981	0.282611
677.388213	0.282958
677.591426	0.283448
677.794621	0.283575
677.997798	0.283485
678.200956	0.283853
678.404097	0.283849
678.607219	0.284116
678.810323	0.283935
679.013408	0.284283
679.216476	0.284233
679.419525	0.284375
679.622556	0.284668
679.825569	0.284841
680.028563	0.284923
680.231540	0.285213
680.434498	0.285416
680.637438	0.285786
680.840359	0.285706
681.043263	0.286004
681.246148	0.286107
681.449015	0.286183
681.651864	0.286648
681.854694	0.287103
682.057506	0.287357
682.260301	0.287738
682.463076	0.288078
682.665834	0.288561
682.868573	0.288644
683.071295	0.288837
683.273998	0.289004
683.476682	0.288786
683.679349	0.288811
683.881997	0.288820
684.084627	0.288990
684.287239	0.289110
684.489833	0.288937
684.692408	0.288956
684.894965	0.289256
685.097504	0.289342
685.300025	0.289954
685.502527	0.290166
685.705012	0.290372
685.907478	0.290199
686.109925	0.290234
686.312355	0.290587
686.514766	0.291074
686.717159	0.291347
686.919534	0.291406
687.121891	0.291429
687.324230	0.291574
687.526550	0.291630
687.728852	0.291953
687.931136	0.292134
688.133401	0.292201
688.335649	0.292084
688.537878	0.292030
688.740089	0.292239
688.942281	0.292395
689.144456	0.292807
689.346612	0.292843
689.548750	0.293071
689.750870	0.293148
689.952971	0.293500
690.155055	0.293696
690.357120	0.293828
690.559167	0.294016
690.761195	0.293929
690.963206	0.293630
691.165198	0.293779
691.367172	0.294022
691.569128	0.294232
691.771065	0.294167
691.972984	0.294543
692.174885	0.294460
692.376768	0.294712
692.578633	0.294811
692.780479	0.295033
692.982308	0.295268
693.184118	0.295241
693.385909	0.295399
693.587683	0.295608
693.789438	0.295529
693.991175	0.295990
694.192894	0.295902
694.394595	0.296363
694.596277	0.296582
694.797941	0.296827
694.999587	0.296970
695.201215	0.297148
695.402824	0.297165
695.604416	0.297426
695.805989	0.297597
696.007543	0.297732
696.209080	0.297657
696.410598	0.298114
696.612099	0.298167
696.813580	0.298548
697.015044	0.298577
697.216490	0.298879
697.417917	0.299028
697.619326	0.298733
697.820717	0.299172
698.022089	0.299125
698.223444	0.299067
698.424780	0.299528
698.626098	0.299299
698.827397	0.299267
699.028679	0.299264
699.229942	0.299400
699.431187	0.299842
699.632414	0.299720
699.833622	0.300108
700.034813	0.300082
700.235985	0.299841
700.437139	0.300275
700.638274	0.300522
700.839392	0.300656
701.040491	0.300921
701.241572	0.301205
701.442635	0.301421
701.643679	0.301276
701.844706	0.301507
702.045714	0.301870
702.246704	0.301597
702.447675	0.301930
702.648629	0.301754
702.849564	0.301481
703.050481	0.301521
703.251380	0.301522
703.452260	0.301874
703.653122	0.301973
703.853966	0.301647
704.054792	0.301970
704.255600	0.302075
704.456389	0.302395
704.657160	0.302565
704.857913	0.302126
705.058648	0.302100
705.259365	0.301986
705.460063	0.301890
705.660743	0.302115
705.861405	0.302347
706.062048	0.302074
706.262674	0.301991
706.463281	0.302282
706.663870	0.302692
706.864441	0.302941
707.064993	0.302986
707.265527	0.302847
707.466043	0.302903
707.666541	0.302663
707.867021	0.302462
708.067482	0.302598
708.267925	0.302462
708.468350	0.302295
708.668757	0.302000
708.869145	0.302013
709.069516	0.301983
709.269868	0.301884
709.470201	0.302083
709.670517	0.302448
709.870814	0.302478
710.071093	0.302330
710.271354	0.302359
710.471597	0.302315
710.671821	0.302220
710.872028	0.302546
711.072216	0.302600
711.272385	0.302140
711.472537	0.302008
711.672670	0.302076
711.872785	0.301952
712.072882	0.302191
712.272961	0.302398
712.473021	0.302661
712.673063	0.302403
712.873087	0.302213
713.073093	0.302469
713.273081	0.302564
713.473050	0.302422
713.673001	0.302595
713.872934	0.302336
714.072849	0.302161
714.272745	0.301975
714.472623	0.301910
714.672483	0.302097
714.872325	0.302125
715.072148	0.301846
715.271954	0.301828
715.471741	0.301713
715.671509	0.301396
715.871260	0.301525
716.070992	0.301549
716.270707	0.301572
716.470403	0.301434
716.670080	0.301266
716.869740	0.301708
717.069381	0.301591
717.269004	0.301255
717.468609	0.301473
717.668195	0.301210
717.867764	0.301139
718.067314	0.301431
718.266846	0.301241
718.466360	0.301415
718.665855	0.300826
718.865332	0.300535
719.064791	0.300684
719.264232	0.300752
719.463655	0.301088
719.663059	0.300955
719.862445	0.300504
720.061813	0.300648
720.261163	0.300390
720.460494	0.300353
720.659807	0.300073
720.859102	0.299908
721.058379	0.299781
721.257638	0.299300
721.456878	0.299228
721.656100	0.299001
721.855304	0.298709
722.054490	0.298441
722.253657	0.298450
722.452806	0.298671
722.651937	0.298690
722.851050	0.298590
723.050145	0.298609
723.249221	0.298397
723.448279	0.298304
723.647319	0.298354
723.846340	0.298326
724.045344	0.298146
724.244329	0.297846
724.443296	0.297540
724.642245	0.297133
724.841175	0.296994
725.040088	0.296811
725.238982	0.296720
725.437857	0.296659
725.636715	0.296831
725.835554	0.296974
726.034376	0.297274
726.233179	0.297364
726.431963	0.297397
726.630730	0.297083
726.829478	0.297183
727.028208	0.296980
727.226920	0.296578
727.425614	0.296024
727.624289	0.295506
727.822946	0.295286
728.021585	0.295077
728.220206	0.294658
728.418808	0.294671
728.617392	0.294372
728.815958	0.294345
729.014506	0.294653
729.213036	0.294519
729.411547	0.294687
729.610040	0.294371
729.808515	0.294413
730.006972	0.294426
730.205410	0.294274
730.403831	0.293955
730.602233	0.293809
730.800616	0.293511
730.998982	0.293549
731.197329	0.293276
731.395658	0.293208
731.593969	0.292749
731.792262	0.292861
731.990536	0.292594
732.188793	0.292732
732.387031	0.292404
732.585250	0.291977
732.783452	0.291833
732.981635	0.291622
733.179800	0.291473
733.377947	0.291325
733.576076	0.290989
733.774186	0.290822
733.972278	0.290369
734.170352	0.290492
734.368408	0.290418
734.566446	0.289967
734.764465	0.289772
734.962466	0.289445
735.160449	0.289471
735.358413	0.289109
735.556360	0.289127
735.754288	0.289095
735.952198	0.288858
736.150090	0.288574
736.347963	0.288604
736.545818	0.288446
736.743655	0.288412
736.941474	0.288194
737.139275	0.288024
737.337057	0.287838
737.534821	0.287437
737.732567	0.287055
737.930295	0.286959
738.128005	0.286668
738.325696	0.286529
738.523369	0.286187
738.721024	0.285921
738.918660	0.286010
739.116279	0.285916
739.313879	0.285988
739.511461	0.286039
739.709024	0.285996
739.906570	0.285684
740.104097	0.285514
740.301606	0.285538
740.499097	0.285405
740.696569	0.285187
740.894024	0.284808
741.091460	0.284820
741.288878	0.284579
741.486277	0.284392
741.683659	0.284524
741.881022	0.284258
742.078367	0.283817
742.275694	0.283770
742.473002	0.283386
742.670293	0.283266
742.867565	0.282605
743.064819	0.282423
743.262054	0.281755
743.459272	0.281433
743.656471	0.281439
743.853652	0.281538
744.050815	0.281281
744.247959	0.281154
744.445085	0.280984
744.642194	0.281140
744.839283	0.280804
745.036355	0.280925
745.233408	0.280658
745.430444	0.280339
745.627461	0.280311
745.824459	0.279765
746.021440	0.279817
746.218402	0.279570
746.415346	0.279115
746.612272	0.278940
746.809180	0.278710
747.006069	0.278679
747.202940	0.278300
747.399793	0.277879
747.596628	0.277941
747.793444	0.277624
747.990243	0.277309
748.187023	0.277542
748.383784	0.277657
748.580528	0.277682
748.777253	0.277369
748.973960	0.277566
749.170649	0.277381
749.367320	0.277476
749.563973	0.277407
749.760607	0.277673
749.957223	0.277507
750.153821	0.277193
750.350400	0.276897
750.546962	0.276931
750.743505	0.276590
750.940030	0.276537
751.136536	0.276265
751.333025	0.276299
751.529495	0.276012
751.725947	0.275675
751.922381	0.275673
752.118796	0.275465
752.315194	0.275201
752.511573	0.275225
752.707934	0.275077
752.904276	0.274786
753.100601	0.274346
753.296907	0.274108
753.493195	0.273975
753.689465	0.273691
753.885716	0.273651
754.081949	0.273505
754.278164	0.273209
754.474361	0.272932
754.670540	0.272585
754.866700	0.272384
755.062843	0.272066
755.258967	0.272045
755.455072	0.271880
755.651160	0.271559
755.847229	0.271591
756.043280	0.271457
756.239313	0.271287
756.435328	0.271732
756.631324	0.271720
756.827302	0.271450
757.023262	0.271062
757.219204	0.270926
757.415127	0.270942
757.611033	0.270702
757.806920	0.270595
758.002788	0.270479
758.198639	0.269992
758.394471	0.269939
758.590286	0.270177
758.786081	0.270071
758.981859	0.269856
759.177619	0.269895
759.373360	0.269947
759.569083	0.269746
759.764788	0.269756
759.960474	0.269655
760.156143	0.269427
760.351793	0.269228
760.547425	0.269207
760.743038	0.269154
760.938634	0.268862
761.134211	0.268478
761.329770	0.268205
761.525311	0.268091
761.720833	0.267825
761.916338	0.267669
762.111824	0.267733
762.307292	0.267754
762.502741	0.267698
762.698173	0.267552
762.893586	0.267215
763.088981	0.267226
763.284358	0.267092
763.479716	0.267065
763.675057	0.266765
763.870379	0.266405
764.065683	0.266128
764.260968	0.265894
764.456236	0.265884
764.651485	0.265998
764.846716	0.265975
765.041929	0.265835
765.237123	0.265989
765.432299	0.266265
765.627457	0.266166
765.822597	0.265908
766.017719	0.266227
766.212822	0.266007
766.407907	0.266221
766.602974	0.266279
766.798023	0.266371
766.993054	0.266167
767.188066	0.266036
767.383060	0.266128
767.578036	0.266234
767.772993	0.266031
767.967933	0.266133
768.162854	0.265752
768.357757	0.265931
768.552642	0.265682
768.747508	0.265524
768.942356	0.265169
769.137186	0.265034
769.331998	0.264953
769.526792	0.264766
769.721567	0.264566
769.916324	0.264523
770.111063	0.264201
770.305784	0.263898
770.500486	0.264026
770.695171	0.263695
770.889837	0.263397
771.084484	0.263482
771.279114	0.263240
771.473725	0.263319
771.668318	0.263107
771.862893	0.262954
772.057450	0.263025
772.251988	0.262431
772.446509	0.262749
772.641011	0.262906
772.835494	0.262692
773.029960	0.262644
773.224407	0.262709
773.418836	0.262740
773.613247	0.262769
773.807640	0.262849
774.002014	0.263337
774.196370	0.263169
774.390708	0.263073
774.585028	0.263144
774.779330	0.263172
774.973613	0.262678
775.167878	0.262785
775.362125	0.262568
775.556354	0.262437
775.750564	0.262146
775.944756	0.262050
776.138930	0.261817
776.333086	0.261640
776.527223	0.261767
776.721343	0.261950
776.915444	0.261762
777.109526	0.261821
777.303591	0.262049
777.497637	0.262033
777.691666	0.262075
777.885676	0.262038
778.079667	0.261853
778.273641	0.261566
778.467596	0.261757
778.661533	0.261742
778.855452	0.261519
779.049352	0.261166
779.243235	0.261366
779.437099	0.261712
779.630945	0.261739
779.824773	0.262261
780.018582	0.262460
780.212373	0.262462
780.406146	0.262490
780.599901	0.262667
780.793638	0.262936
780.987356	0.262977
781.181056	0.262894
781.374738	0.263014
781.568402	0.262957
781.762047	0.262991
781.955674	0.262788
782.149283	0.263026
782.342874	0.263215
782.536447	0.263352
782.730001	0.263371
782.923537	0.263318
783.117055	0.263602
783.310555	0.263278
783.504036	0.263320
783.697499	0.263271
783.890944	0.263189
784.084371	0.263115
784.277780	0.262773
784.471170	0.262758
784.664542	0.262826
784.857896	0.262836
785.051231	0.262985
785.244549	0.262915
785.437848	0.262867
785.631129	0.262929
785.824392	0.263226
786.017636	0.263186
786.210863	0.263279
786.404071	0.263447
786.597260	0.263406
786.790432	0.263713
786.983585	0.263797
787.176721	0.264041
787.369838	0.264203
787.562936	0.264148
787.756017	0.264367
787.949079	0.264454
788.142123	0.264131
788.335149	0.264230
788.528156	0.264196
788.721146	0.264229
788.914117	0.264442
789.107070	0.264417
789.300005	0.264292
789.492921	0.264541
789.685819	0.264348
789.878699	0.264799
790.071561	0.264931
790.264405	0.265015
790.457230	0.265203
790.650037	0.264935
790.842826	0.265107
791.035597	0.265352
791.228349	0.265269
791.421084	0.265576
791.613800	0.265519
791.806497	0.265512
791.999177	0.265708
792.191838	0.265721
792.384481	0.266054
792.577106	0.265880
792.769713	0.265986
792.962301	0.266190
793.154871	0.266198
793.347423	0.266412
793.539957	0.266640
793.732473	0.266784
793.924970	0.267059
794.117449	0.267177
794.309910	0.267664
794.502353	0.267671
794.694777	0.267766
794.887183	0.268210
795.079571	0.268375
795.271941	0.268474
795.464293	0.268555
795.656626	0.268273
795.848941	0.268593
796.041238	0.268616
796.233516	0.268898
796.425777	0.269247
796.618019	0.269406
796.810243	0.269400
797.002449	0.269473
797.194636	0.269803
797.386805	0.270337
797.578956	0.270272
797.771089	0.270479
797.963204	0.270727
798.155300	0.270793
798.347378	0.270686
798.539438	0.270984
798.731480	0.271121
798.923503	0.270984
799.115509	0.271030
799.307496	0.271410
799.499465	0.271468
799.691415	0.271527
799.883348	0.271910
800.075262	0.272328
800.267158	0.272443
800.459035	0.272604
800.650895	0.272893
800.842736	0.273445
801.034559	0.273723
801.226364	0.273834
801.418150	0.274192
801.609919	0.273963
801.801669	0.273859
801.993401	0.274140
802.185114	0.274597
802.376810	0.274654
802.568487	0.274529
802.760146	0.274582
802.951787	0.275082
803.143409	0.274811
803.335014	0.275402
803.526600	0.275730
803.718168	0.275750
803.909717	0.275578
804.101249	0.276112
804.292762	0.276593
804.484257	0.276846
804.675734	0.277002
804.867192	0.277395
805.058632	0.277657
805.250054	0.278201
805.441458	0.278970
805.632844	0.279256
805.824211	0.279400
806.015561	0.279669
806.206891	0.279985
806.398204	0.280527
806.589499	0.280793
806.780775	0.280556
806.972033	0.280609
807.163273	0.280509
807.354495	0.281036
807.545698	0.280979
807.736883	0.281148
807.928050	0.280935
808.119199	0.281098
808.310329	0.281444
808.501441	0.282067
808.692535	0.282278
808.883611	0.282581
809.074669	0.282802
809.265708	0.282985
809.456729	0.283170
809.647732	0.284018
809.838717	0.284035
810.029683	0.284321
810.220632	0.284185
810.411562	0.284499
810.602474	0.284730
810.793367	0.284810
810.984242	0.285338
811.175100	0.285535
811.365938	0.285130
811.556759	0.285298
811.747562	0.285606
811.938346	0.286204
812.129112	0.286578
812.319860	0.286677
812.510589	0.286923
812.701300	0.287217
812.891994	0.287578
813.082668	0.288485
813.273325	0.288915
813.463964	0.289391
813.654584	0.289467
813.845186	0.289393
814.035769	0.290043
814.226335	0.290670
814.416882	0.290906
814.607411	0.291115
814.797922	0.291075
814.988415	0.291224
815.178889	0.291292
815.369345	0.291839
815.559783	0.292294
815.750203	0.292387
815.940605	0.292709
816.130988	0.293004
816.321353	0.293363
816.511700	0.293663
816.702028	0.293939
816.892339	0.294265
817.082631	0.294391
817.272905	0.294499
817.463161	0.294859
817.653398	0.294782
817.843617	0.294938
818.033819	0.295437
818.224001	0.295852
818.414166	0.296770
818.604312	0.296918
818.794440	0.297437
818.984550	0.297743
819.174642	0.298312
819.364716	0.298857
819.554771	0.299282
819.744808	0.299343
819.934827	0.299737
820.124827	0.299390
820.314810	0.299803
820.504774	0.300078
820.694720	0.300697
820.884647	0.300767
821.074557	0.301102
821.264448	0.301449
821.454321	0.302155
821.644176	0.302810
821.834012	0.303352
822.023831	0.303630
822.213631	0.303867
822.403413	0.304101
822.593176	0.304359
822.782922	0.304816
822.972649	0.304940
823.162358	0.304854
823.352049	0.304904
823.541721	0.305218
823.731376	0.305366
823.921012	0.305585
824.110629	0.305961
824.300229	0.306342
824.489811	0.306501
824.679374	0.307161
824.868919	0.307521
825.058445	0.307762
825.247954	0.308104
825.437444	0.308567
825.626916	0.308917
825.816370	0.309245
826.005806	0.309332
826.195223	0.309794
826.384622	0.310220
826.574003	0.310733
826.763366	0.311297
826.952711	0.311212
827.142037	0.311645
827.331345	0.311917
827.520635	0.312295
827.709906	0.312938
827.899160	0.313059
828.088395	0.312951
828.277612	0.312888
828.466810	0.312989
828.655991	0.313869
828.845153	0.314756
829.034297	0.315618
829.223423	0.316051
829.412531	0.316218
829.601620	0.316778
829.790691	0.317376
829.979744	0.317891
830.168779	0.318222
830.357795	0.318375
830.546793	0.318174
830.735773	0.318337
830.924735	0.318820
831.113679	0.319009
831.302604	0.319265
831.491511	0.319581
831.680400	0.320052
831.869271	0.320418
832.058123	0.320852
832.246957	0.321346
832.435773	0.321632
832.624571	0.321542
832.813351	0.322428
833.002112	0.322959
833.190855	0.323401
833.379580	0.323977
833.568287	0.324750
833.756975	0.324950
833.945645	0.325461
834.134297	0.325569
834.322931	0.325847
834.511547	0.326002
834.700144	0.326712
834.888723	0.327365
835.077284	0.327780
835.265826	0.327849
835.454351	0.328601
835.642857	0.328885
835.831345	0.329727
836.019815	0.330430
836.208266	0.331044
836.396699	0.331045
836.585114	0.331319
836.773511	0.331626
836.961890	0.332059
837.150250	0.332109
837.338592	0.332822
837.526916	0.333220
837.715222	0.333740
837.903510	0.333625
838.091779	0.334144
838.280030	0.334763
838.468263	0.335147
838.656477	0.335662
838.844674	0.336192
839.032852	0.336122
839.221012	0.336720
839.409153	0.336654
839.597277	0.337344
839.785382	0.337537
839.973469	0.337664
840.161538	0.337921
840.349589	0.338435
840.537621	0.338884
840.725635	0.339583
840.913631	0.339846
841.101609	0.340967
841.289568	0.341376
841.477509	0.342065
841.665432	0.342527
841.853337	0.342854
842.041224	0.343192
842.229092	0.343618
842.416942	0.343683
842.604774	0.344109
842.792588	0.344351
842.980383	0.344736
843.168160	0.345188
843.355919	0.345551
843.543660	0.346410
843.731382	0.346783
843.919087	0.346795
844.106773	0.347436
844.294441	0.348181
844.482090	0.348741
844.669722	0.349083
844.857335	0.349327
845.044930	0.350012
845.232507	0.350420
845.420065	0.351305
845.607605	0.352133
845.795127	0.352505
845.982631	0.352215
846.170117	0.352441
846.357584	0.353183
846.545033	0.353769
846.732464	0.354233
846.919877	0.354492
847.107272	0.354539
847.294648	0.355052
847.482006	0.355413
847.669346	0.356335
847.856667	0.356620
848.043971	0.356957
848.231256	0.357102
848.418523	0.357221
848.605771	0.357827
848.793002	0.358638
848.980214	0.359279
849.167408	0.360090
849.354584	0.360400
849.541742	0.361212
849.728881	0.361860
849.916002	0.362563
850.103105	0.363133
850.290190	0.363304
850.477256	0.363625
850.664304	0.364247
850.851334	0.364950
851.038346	0.365074
851.225340	0.365431
851.412315	0.365929
851.599272	0.366213
851.786211	0.366828
851.973132	0.367490
852.160034	0.367235
852.346918	0.367247
852.533784	0.367109
852.720632	0.367850
852.907462	0.368284
853.094273	0.368492
853.281066	0.368930
853.467841	0.368930
853.654598	0.369267
853.841336	0.369848
854.028056	0.370134
854.214758	0.370754
854.401442	0.371121
854.588107	0.371566
854.774755	0.372043
854.961384	0.372758
855.147995	0.373661
855.334587	0.374336
855.521162	0.375295
855.707718	0.376257
855.894256	0.376407
856.080775	0.376941
856.267277	0.377079
856.453760	0.377363
856.640225	0.377663
856.826672	0.377797
857.013101	0.378023
857.199511	0.378157
857.385903	0.378675
857.572277	0.379533
857.758633	0.379821
857.944970	0.380153
858.131290	0.380647
858.317591	0.381228
858.503873	0.381461
858.690138	0.381855
858.876384	0.382103
859.062612	0.381703
859.248822	0.381823
859.435014	0.382046
859.621188	0.382578
859.807343	0.383090
859.993480	0.383336
860.179599	0.383869
860.365699	0.384585
860.551781	0.385133
860.737846	0.386186
860.923891	0.386504
861.109919	0.387263
861.295929	0.387905
861.481920	0.388081
861.667893	0.388198
861.853848	0.388510
862.039784	0.388414
862.225702	0.388726
862.411603	0.388853
862.597484	0.389229
862.783348	0.389634
862.969193	0.389787
863.155021	0.390496
863.340830	0.390753
863.526620	0.391220
863.712393	0.391765
863.898147	0.392175
864.083883	0.392382
864.269601	0.392772
864.455301	0.392683
864.640982	0.393133
864.826645	0.393404
865.012290	0.394349
865.197917	0.394769
865.383526	0.395478
865.569116	0.395869
865.754688	0.396841
865.940242	0.397733
866.125777	0.398426
866.311295	0.398917
866.496794	0.399525
866.682275	0.399706
866.867737	0.400144
867.053182	0.400278
867.238608	0.400762
867.424016	0.400574
867.609406	0.400741
867.794778	0.401187
867.980131	0.401190
868.165466	0.401281
868.350783	0.401723
868.536082	0.402009
868.721362	0.401921
868.906625	0.402115
869.091869	0.402831
869.277094	0.403004
869.462302	0.403269
869.647491	0.403894
869.832662	0.404064
870.017815	0.404425
870.202950	0.404558
870.388066	0.404861
870.573165	0.405429
870.758245	0.405301
870.943306	0.405503
871.128350	0.406065
871.313375	0.405862
871.498382	0.406119
871.683371	0.405971
871.868342	0.406124
872.053294	0.406592
872.238229	0.406826
872.423144	0.406914
872.608042	0.407263
872.792922	0.406931
872.977783	0.407672
873.162626	0.408124
873.347451	0.408123
873.532258	0.408408
873.717046	0.409224
873.901816	0.409311
874.086568	0.409668
874.271302	0.409974
874.456017	0.410885
874.640715	0.411262
874.825394	0.411738
875.010055	0.412187
875.194697	0.412665
875.379322	0.412212
875.563928	0.412543
875.748516	0.413084
875.933085	0.413028
876.117637	0.412485
876.302170	0.412819
876.486685	0.412698
876.671182	0.412559
876.855661	0.413027
877.040121	0.413017
877.224563	0.413234
877.408987	0.413521
877.593393	0.414176
877.777780	0.414596
877.962150	0.414605
878.146501	0.414752
878.330833	0.415241
878.515148	0.415333
878.699444	0.415911
878.883722	0.415857
879.067982	0.415813
879.252224	0.416088
879.436447	0.416571
879.620653	0.417094
879.804840	0.417320
879.989008	0.417719
880.173159	0.417677
880.357291	0.418138
880.541405	0.418310
880.725501	0.418728
880.909579	0.418493
881.093638	0.418324
881.277680	0.418252
881.461703	0.418241
881.645707	0.418095
881.829694	0.418082
882.013662	0.418148
882.197612	0.418359
882.381544	0.417828
882.565458	0.417965
882.749353	0.417921
882.933230	0.417771
883.117089	0.418213
883.300930	0.418665
883.484753	0.418840
883.668557	0.419224
883.852343	0.419594
884.036111	0.420637
884.219861	0.421136
884.403592	0.421521
884.587305	0.421678
884.771000	0.421804
884.954677	0.421814
885.138335	0.422306
885.321976	0.422204
885.505598	0.422367
885.689201	0.421446
885.872787	0.421418
886.056354	0.421600
886.239904	0.421378
886.423434	0.421705
886.606947	0.421253
886.790442	0.420840
886.973918	0.420289
887.157376	0.419675
887.340816	0.420344
887.524237	0.420249
887.707641	0.420626
887.891026	0.421016
888.074393	0.420351
888.257741	0.420963
888.441072	0.421477
888.624384	0.421983
888.807678	0.421772
888.990954	0.422146
889.174211	0.422201
889.357451	0.421848
889.540672	0.421635
889.723875	0.422550
889.907059	0.422784
890.090226	0.422690
890.273374	0.422565
890.456504	0.423174
890.639616	0.422740
890.822709	0.422665
891.005785	0.423096
891.188842	0.423473
891.371881	0.423118
891.554901	0.422969
891.737904	0.422395
891.920888	0.421999
892.103854	0.421989
892.286802	0.422455
892.469731	0.422561
892.652643	0.422384
892.835536	0.421863
893.018410	0.422110
893.201267	0.421763
893.384106	0.422346
893.566926	0.422577
893.749728	0.422565
893.932511	0.422168
894.115277	0.422211
894.298024	0.421902
894.480753	0.422193
894.663464	0.422100
894.846157	0.422096
895.028831	0.421559
895.211487	0.421453
895.394125	0.421998
895.576745	0.422252
895.759346	0.422259
895.941930	0.421966
896.124495	0.421270
896.307041	0.420205
896.489570	0.420349
896.672080	0.420892
896.854573	0.421242
897.037046	0.420350
897.219502	0.419267
897.401940	0.419163
897.584359	0.418824
897.766760	0.418798
897.949143	0.418744
898.131507	0.418469
898.313854	0.417858
898.496182	0.416864
898.678492	0.416362
898.860783	0.416504
899.043057	0.415760
899.225312	0.416066
899.407549	0.416416
899.589768	0.416972
899.771968	0.416418
899.954151	0.416558
900.136315	0.416295
900.318461	0.416311
900.500588	0.415988
900.682698	0.415961
900.864789	0.414914
901.046862	0.415057
901.228917	0.414092
901.410953	0.414859
901.592971	0.414512
901.774972	0.415286
901.956953	0.415013
902.138917	0.414725
902.320862	0.414215
902.502790	0.414516
902.684699	0.413505
902.866589	0.413391
903.048462	0.412306
903.230316	0.411404
903.412152	0.410849
903.593970	0.410247
903.775770	0.410162
903.957551	0.410700
904.139314	0.410171
904.321059	0.410357
904.502786	0.410174
904.684494	0.410363
904.866185	0.410717
905.047857	0.410267
905.229510	0.410282
905.411146	0.410068
905.592763	0.409452
905.774363	0.409490
905.955943	0.408610
906.137506	0.408205
906.319051	0.407578
906.500577	0.406964
906.682085	0.406588
906.863575	0.406189
907.045046	0.405444
907.226500	0.404275
907.407935	0.403950
907.589352	0.403362
907.770750	0.403313
907.952131	0.402778
908.133493	0.402686
908.314837	0.402914
908.496163	0.402123
908.677470	0.401763
908.858760	0.401287
909.040031	0.400566
909.221284	0.400232
909.402518	0.399071
909.583735	0.398631
909.764933	0.398467
909.946113	0.396882
910.127275	0.396193
910.308418	0.395652
910.489544	0.396017
910.670651	0.395623
910.851740	0.394999
911.032810	0.394892
911.213863	0.394349
911.394897	0.393279
911.575913	0.393733
911.756911	0.393943
911.937890	0.393940
912.118851	0.393070
912.299794	0.391936
912.480719	0.392292
912.661626	0.392067
912.842514	0.391735
913.023384	0.390739
913.204236	0.389669
913.385070	0.389587
913.565886	0.389055
913.746683	0.388694
913.927462	0.389201
914.108223	0.387780
914.288965	0.387589
914.469690	0.387162
914.650396	0.386284
914.831084	0.385456
915.011754	0.384695
915.192405	0.383224
915.373038	0.382528
915.553653	0.382109
915.734250	0.381867
915.914829	0.381000
916.095389	0.379678
916.275931	0.379351
916.456455	0.379241
916.636961	0.378341
916.817448	0.377869
916.997917	0.376978
917.178368	0.376006
917.358801	0.375854
917.539216	0.374790
917.719612	0.374256
917.899990	0.374761
918.080350	0.375006
918.260692	0.374485
918.441015	0.374378
918.621320	0.373984
918.801607	0.372658
918.981876	0.371261
919.162127	0.370103
919.342359	0.369663
919.522573	0.367811
919.702769	0.365828
919.882947	0.365787
920.063106	0.364912
920.243247	0.363992
920.423370	0.363813
920.603475	0.363393
920.783562	0.363408
920.963630	0.362883
921.143680	0.362782
921.323712	0.362480
921.503725	0.361366
921.683721	0.360733
921.863698	0.360768
922.043657	0.360078
922.223598	0.359175
922.403520	0.358137
922.583424	0.356905
922.763311	0.356485
922.943178	0.355584
923.123028	0.355094
923.302859	0.355416
923.482673	0.355051
923.662467	0.354575
923.842244	0.354227
924.022003	0.353720
924.201743	0.354042
924.381465	0.353745
924.561169	0.352742
924.740854	0.351982
924.920522	0.350135
925.100171	0.348480
925.279802	0.348258
925.459414	0.347419
925.639009	0.347287
925.818585	0.346381
925.998143	0.345293
926.177683	0.345557
926.357205	0.344118
926.536708	0.343135
926.716193	0.342957
926.895660	0.341643
927.075109	0.341533
927.254539	0.340449
927.433951	0.339595
927.613345	0.338522
927.792721	0.336775
927.972079	0.335641
928.151418	0.335621
928.330739	0.334381
928.510042	0.333287
928.689327	0.332000
928.868593	0.330727
929.047841	0.329579
929.227071	0.329323
929.406283	0.329256
929.585476	0.329849
929.764652	0.329004
929.943809	0.328252
930.122948	0.327728
930.302068	0.327016
930.481171	0.326218
930.660255	0.326670
930.839321	0.325002
931.018369	0.323862
931.197398	0.321114
931.376409	0.320488
931.555402	0.319778
931.734377	0.318970
931.913334	0.317275
932.092272	0.316817
932.271192	0.315111
932.450094	0.314455
932.628978	0.313738
932.807844	0.314436
932.986691	0.313398
933.165520	0.311622
933.344331	0.309757
933.523123	0.309072
933.701898	0.307180
933.880654	0.305394
934.059392	0.304087
934.238111	0.301635
934.416813	0.300922
934.595496	0.299596
934.774161	0.299381
934.952808	0.298556
935.131437	0.297692
935.310047	0.298305
935.488639	0.297870
935.667213	0.297528
935.845769	0.297450
936.024306	0.295929
936.202825	0.294552
936.381326	0.293375
936.559809	0.292941
936.738274	0.293078
936.916720	0.291601
937.095148	0.290528
937.273558	0.288239
937.451950	0.287116
937.630323	0.285549
937.808678	0.285471
937.987015	0.284227
938.165334	0.283341
938.343635	0.280750
938.521917	0.279623
938.700181	0.278895
938.878427	0.279276
939.056655	0.278867
939.234864	0.278611
939.413055	0.275931
939.591228	0.275517
939.769383	0.274070
939.947519	0.273749
940.125638	0.273357
940.303738	0.272304
940.481820	0.270367
940.659883	0.268365
940.837929	0.267022
941.015956	0.265911
941.193965	0.263885
941.371955	0.263500
941.549928	0.260891
941.727882	0.259218
941.905818	0.257901
942.083736	0.257435
942.261636	0.256232
942.439517	0.256392
942.617380	0.255475
942.795225	0.255972
942.973052	0.253607
943.150860	0.253972
943.328651	0.251085
943.506423	0.249408
943.684176	0.247206
943.861912	0.247600
944.039629	0.245247
944.217328	0.245653
944.395009	0.243511
944.572672	0.243717
944.750317	0.243220
944.927943	0.244331
945.105551	0.243764
945.283141	0.243174
945.460712	0.240597
945.638265	0.238149
945.815801	0.237173
945.993317	0.236983
946.170816	0.236793
946.348297	0.234519
946.525759	0.233366
946.703203	0.232210
946.880629	0.230551
947.058036	0.230967
947.235425	0.232118
947.412797	0.229709
947.590149	0.226352
947.767484	0.224562
947.944800	0.224592
948.122099	0.223101
948.299379	0.222844
948.476640	0.223242
948.653884	0.223004
948.831109	0.220813
949.008316	0.220513
949.185505	0.222367
949.362676	0.219987
949.539828	0.218853
949.716962	0.215698
949.894078	0.212838
950.071176	0.212570
950.248256	0.210303
950.425317	0.207833
950.602360	0.207959
950.779385	0.204440
950.956391	0.203110
951.133380	0.203795
951.310350	0.206998
951.487302	0.206722
951.664235	0.204396
951.841151	0.202825
952.018048	0.204039
952.194927	0.200983
952.371788	0.199068
952.548631	0.197114
952.725455	0.192451
952.902261	0.189395
953.079049	0.188331
953.255819	0.188828
953.432570	0.186860
953.609303	0.185107
953.786018	0.186252
953.962715	0.187422
954.139394	0.188611
954.316054	0.191800
954.492696	0.189609
954.669320	0.189054
954.845926	0.187586
955.022513	0.187571
955.199083	0.186990
955.375634	0.186239
955.552166	0.185583
955.728681	0.184580
955.905177	0.182651
956.081655	0.182410
956.258115	0.182278
956.434557	0.179882
956.610980	0.179966
956.787385	0.178086
956.963772	0.175483
957.140141	0.174290
957.316492	0.171001
957.492824	0.169708
957.669138	0.167234
957.845434	0.164425
958.021712	0.164348
958.197971	0.161832
958.374212	0.163251
958.550435	0.159641
958.726640	0.158593
958.902826	0.158742
959.078995	0.156519
959.255145	0.157298
959.431277	0.158768
959.607390	0.158321
959.783486	0.161413
959.959563	0.157700
960.135622	0.158491
960.311662	0.157473
960.487685	0.159450
960.663689	0.158076
960.839675	0.157314
961.015643	0.153538
961.191593	0.148384
961.367524	0.144993
961.543437	0.145751
961.719332	0.146656
961.895209	0.144628
962.071067	0.145762
962.246907	0.146525
962.422730	0.146192
962.598533	0.147489
962.774319	0.151079
962.950086	0.150337
963.125835	0.149278
963.301566	0.147718
963.477279	0.149830
963.652973	0.144010
963.828650	0.143023
964.004308	0.141116
964.179947	0.143343
964.355569	0.143556
964.531172	0.144844
964.706757	0.147454
964.882324	0.149454
965.057873	0.149053
965.233403	0.153251
965.408916	0.154260
965.584410	0.155743
965.759885	0.155746
965.935343	0.155262
966.110782	0.154648
966.286203	0.153701
966.461606	0.152622
966.636991	0.150663
966.812357	0.149274
966.987705	0.148912
967.163035	0.148861
967.338347	0.147670
967.513641	0.147046
967.688916	0.148759
967.864173	0.147092
968.039412	0.149326
968.214632	0.149238
968.389835	0.150657
968.565019	0.146694
968.740185	0.146142
968.915333	0.145141
969.090462	0.147212
969.265573	0.143284
969.440667	0.145024
969.615741	0.143053
969.790798	0.142437
969.965836	0.141967
970.140856	0.144731
970.315858	0.145137
970.490842	0.142833
970.665808	0.141334
970.840755	0.141923
971.015684	0.141341
971.190595	0.139072
971.365487	0.139940
971.540362	0.139048
971.715218	0.136804
971.890056	0.139397
972.064875	0.143094
972.239677	0.139936
972.414460	0.139043
972.589225	0.137933
972.763972	0.143278
972.938700	0.142411
973.113411	0.140961
973.288103	0.142778
973.462777	0.142145
973.637432	0.140235
973.812070	0.142947
973.986689	0.143111
974.161290	0.142891
974.335873	0.137515
974.510437	0.139284
974.684984	0.142609
974.859512	0.143533
975.034022	0.138555
975.208513	0.141166
975.382987	0.139865
975.557442	0.141312
975.731879	0.141861
975.906298	0.142400
976.080698	0.140940
976.255080	0.139284
976.429445	0.138488
976.603790	0.142503
976.778118	0.139007
976.952427	0.138760
977.126719	0.136776
977.300992	0.138000
977.475246	0.141789
977.649483	0.144811
977.823701	0.141672
977.997901	0.143696
978.172083	0.140767
978.346247	0.140454
978.520392	0.142879
978.694519	0.145087
978.868628	0.143756
979.042719	0.142564
979.216791	0.143210
979.390845	0.146249
979.564882	0.141696
979.738899	0.141838
979.912899	0.143221
980.086880	0.144154
980.260843	0.142622
980.434788	0.143133
980.608715	0.143217
980.782623	0.140093
980.956514	0.137570
981.130386	0.139927
981.304240	0.144787
981.478075	0.142658
981.651892	0.140947
981.825692	0.143229
981.999472	0.142839
982.173235	0.142890
982.346980	0.145326
982.520706	0.148229
982.694414	0.147929
982.868104	0.145480
983.041775	0.149032
983.215428	0.146819
983.389064	0.145939
983.562680	0.146868
983.736279	0.147620
983.909860	0.148398
984.083422	0.150090
984.256966	0.152487
984.430491	0.153073
984.603999	0.151336
984.777488	0.154476
984.950959	0.153297
985.124412	0.149580
985.297847	0.150236
985.471263	0.149513
985.644661	0.145035
985.818041	0.142681
985.991403	0.140457
986.164747	0.141408
986.338072	0.137729
986.511379	0.136611
986.684668	0.136066
986.857938	0.131926
987.031191	0.130994
987.204425	0.135037
987.377641	0.133410
987.550839	0.133491
987.724018	0.132465
987.897179	0.134865
988.070322	0.134405
988.243447	0.137809
988.416554	0.137136
988.589642	0.136871
988.762712	0.133305
988.935764	0.138448
989.108798	0.140321
989.281813	0.140121
989.454811	0.140170
989.627790	0.143591
989.800751	0.140920
989.973693	0.143655
990.146617	0.145252
990.319524	0.146955
990.492412	0.146072
990.665281	0.146191
990.838133	0.146481
991.010966	0.147785
991.183781	0.147161
991.356578	0.151773
991.529356	0.152046
991.702117	0.150658
991.874859	0.151401
992.047583	0.149533
992.220288	0.147602
992.392976	0.148031
992.565645	0.146259
992.738296	0.146411
992.910929	0.146100
993.083543	0.146856
993.256139	0.146186
993.428718	0.146874
993.601277	0.145614
993.773819	0.144924
993.946342	0.145798
994.118848	0.148462
994.291335	0.149284
994.463803	0.147342
994.636254	0.147655
994.808686	0.146861
994.981100	0.147686
995.153496	0.150938
995.325874	0.153761
995.498233	0.153628
995.670574	0.150709
995.842897	0.151976
996.015202	0.152186
996.187488	0.151089
996.359757	0.151170
996.532007	0.148558
996.704239	0.148355
996.876452	0.147481
997.048648	0.145741
997.220825	0.148112
997.392984	0.145995
997.565124	0.145171
997.737247	0.146713
997.909351	0.145686
998.081437	0.145325
998.253505	0.143777
998.425554	0.141464
998.597586	0.141342
998.769599	0.139836
998.941594	0.140546
999.113571	0.139151
999.285529	0.137990
999.457469	0.141250
999.629391	0.143079
999.801295	0.141631
999.973181	0.143693
1000.145048	0.143066
1000.316897	0.144532
1000.488728	0.144551
1000.660541	0.146095
1000.832335	0.145123
1001.004111	0.142469
1001.175869	0.141341
1001.347609	0.144564
1001.519331	0.144314
1001.691034	0.145138
1001.862719	0.145022
1002.034386	0.144948
1002.206035	0.145087
1002.377665	0.145216
1002.549277	0.143831
1002.720871	0.143007
1002.892447	0.140038
1003.064004	0.139020
1003.235544	0.139745
1003.407065	0.140482
1003.578568	0.137665
1003.750052	0.135996
1003.921519	0.136761
1004.092967	0.141328
1004.264397	0.143810
1004.435809	0.144453
1004.607202	0.143218
1004.778577	0.142537
1004.949934	0.139482
1005.121273	0.141141
1005.292594	0.143670
1005.463896	0.143498
1005.635180	0.143320
1005.806446	0.143650
1005.977694	0.142762
1006.148923	0.146536
1006.320135	0.146325
1006.491328	0.145326
1006.662503	0.146409
1006.833659	0.146677
1007.004798	0.147811
1007.175918	0.147381
1007.347020	0.147499
1007.518103	0.148195
1007.689169	0.147357
1007.860216	0.147642
1008.031245	0.151526
1008.202256	0.148895
1008.373248	0.149389
1008.544223	0.147288
1008.715179	0.142801
1008.886117	0.141935
1009.057036	0.141283
1009.227938	0.140200
1009.398821	0.139704
1009.569686	0.137699
1009.740533	0.138514
1009.911361	0.138174
1010.082172	0.139505
1010.252964	0.141912
1010.423738	0.140933
1010.594493	0.142761
1010.765231	0.141550
1010.935950	0.140280
1011.106651	0.138930
1011.277334	0.140431
1011.447998	0.141303
1011.618645	0.141445
1011.789273	0.141189
1011.959882	0.140299
1012.130474	0.140602
1012.301048	0.141599
1012.471603	0.143889
1012.642140	0.144803
1012.812658	0.145143
1012.983159	0.143116
1013.153641	0.142198
1013.324105	0.141567
1013.494551	0.142855
1013.664979	0.143310
1013.835388	0.144869
1014.005779	0.144975
1014.176152	0.146387
1014.346507	0.143278
1014.516843	0.143373
1014.687162	0.143919
1014.857462	0.146479
1015.027744	0.143469
1015.198007	0.143209
1015.368252	0.144184
1015.538480	0.142600
1015.708689	0.141727
1015.878879	0.145007
1016.049052	0.144481
1016.219206	0.143354
1016.389342	0.142975
1016.559460	0.144998
1016.729559	0.143820
1016.899641	0.141657
1017.069704	0.144535
1017.239749	0.146401
1017.409775	0.148541
1017.579784	0.150303
1017.749774	0.151484
1017.919746	0.150267
1018.089700	0.150192
1018.259635	0.149031
1018.429553	0.149582
1018.599452	0.149093
1018.769333	0.145032
1018.939195	0.142065
1019.109040	0.139487
1019.278866	0.137387
1019.448674	0.139666
1019.618464	0.141358
1019.788235	0.144887
1019.957989	0.145372
1020.127724	0.143400
1020.297441	0.144364
1020.467139	0.143258
1020.636820	0.144101
1020.806482	0.144665
1020.976126	0.143254
1021.145752	0.140646
1021.315359	0.137830
1021.484948	0.136708
1021.654519	0.136923
1021.824072	0.140239
1021.993607	0.139509
1022.163123	0.139324
1022.332621	0.138298
1022.502101	0.138070
1022.671563	0.139727
1022.841007	0.139640
1023.010432	0.138520
1023.179839	0.140749
1023.349228	0.137546
1023.518598	0.139140
1023.687951	0.139739
1023.857285	0.140780
1024.026601	0.142805
1024.195899	0.141241
1024.365178	0.141018
1024.534439	0.141077
1024.703682	0.139998
1024.872907	0.142082
1025.042114	0.143764
1025.211302	0.143889
1025.380472	0.146589
1025.549624	0.145957
1025.718758	0.146794
1025.887873	0.148310
1026.056970	0.150090
1026.226049	0.147321
1026.395110	0.147746
1026.564153	0.148240
1026.733177	0.148998
1026.902183	0.147044
1027.071171	0.144469
1027.240141	0.146568
1027.409092	0.144557
1027.578026	0.142197
1027.746940	0.145246
1027.915837	0.144329
1028.084716	0.142698
1028.253576	0.142720
1028.422418	0.142155
1028.591242	0.144012
1028.760048	0.145501
1028.928835	0.146421
1029.097604	0.145329
1029.266355	0.144251
1029.435088	0.144017
1029.603803	0.143672
1029.772499	0.142863
1029.941177	0.142219
1030.109837	0.139909
1030.278478	0.137163
1030.447102	0.137137
1030.615707	0.137959
1030.784294	0.138790
1030.952863	0.136888
1031.121413	0.136474
1031.289945	0.136244
1031.458460	0.139743
1031.626955	0.141952
1031.795433	0.143175
1031.963892	0.142616
1032.132334	0.145434
1032.300756	0.143092
1032.469161	0.144775
1032.637548	0.143581
1032.805916	0.143385
1032.974266	0.142316
1033.142598	0.141159
1033.310911	0.139191
1033.479207	0.140770
1033.647484	0.141642
1033.815743	0.141556
1033.983983	0.142648
1034.152206	0.143718
1034.320410	0.144387
1034.488596	0.140137
1034.656764	0.138273
1034.824914	0.138023
1034.993045	0.135831
1035.161158	0.135549
1035.329253	0.136081
1035.497330	0.135458
1035.665388	0.136438
1035.833428	0.136484
1036.001450	0.140689
1036.169454	0.143796
1036.337440	0.143842
1036.505407	0.144582
1036.673356	0.144206
1036.841287	0.148344
1037.009200	0.148839
1037.177094	0.148780
1037.344970	0.147229
1037.512828	0.146472
1037.680668	0.145351
1037.848489	0.144920
1038.016293	0.144639
1038.184078	0.141253
1038.351845	0.138808
1038.519593	0.137346
1038.687324	0.134517
1038.855036	0.136865
1039.022730	0.136399
1039.190406	0.136362
1039.358063	0.137753
1039.525702	0.137210
1039.693323	0.139050
1039.860926	0.136548
1040.028511	0.136525
1040.196077	0.140992
1040.363625	0.139048
1040.531155	0.139670
1040.698667	0.140345
1040.866161	0.142522
1041.033636	0.145119
1041.201093	0.145562
1041.368532	0.145077
1041.535952	0.145021
1041.703355	0.143354
1041.870739	0.143672
1042.038105	0.141058
1042.205452	0.139655
1042.372782	0.136230
1042.540093	0.137398
1042.707386	0.137301
1042.874661	0.138247
1043.041918	0.138393
1043.209156	0.137168
1043.376376	0.137043
1043.543578	0.139138
1043.710762	0.140293
1043.877927	0.138231
1044.045074	0.134303
1044.212203	0.133435
1044.379314	0.134997
1044.546407	0.134802
1044.713481	0.135886
1044.880537	0.137989
1045.047575	0.137267
1045.214595	0.136090
1045.381596	0.137897
1045.548579	0.142513
1045.715544	0.144830
1045.882491	0.145018
1046.049420	0.143335
1046.216330	0.142373
1046.383222	0.140386
1046.550096	0.139974
1046.716951	0.141212
1046.883789	0.141588
1047.050608	0.138358
1047.217409	0.136250
1047.384192	0.137317
1047.550956	0.140592
1047.717703	0.140447
1047.884431	0.141431
1048.051140	0.139161
1048.217832	0.140716
1048.384505	0.141520
1048.551161	0.145630
1048.717798	0.148285
1048.884416	0.145000
1049.051017	0.143053
1049.217599	0.143149
1049.384163	0.144558
1049.550709	0.149674
1049.717237	0.147972
1049.883746	0.146932
1050.050237	0.141186
1050.216710	0.136914
1050.383165	0.139187
1050.549601	0.138150
1050.716019	0.138896
1050.882420	0.136827
1051.048801	0.134028
1051.215165	0.132400
1051.381510	0.133999
1051.547837	0.137704
1051.714146	0.140144
1051.880437	0.139339
1052.046709	0.140227
1052.212964	0.137766
1052.379200	0.138440
1052.545417	0.140532
1052.711617	0.143551
1052.877798	0.141427
1053.043961	0.140403
1053.210106	0.141545
1053.376233	0.142310
1053.542341	0.142875
1053.708432	0.143915
1053.874504	0.142623
1054.040557	0.138991
1054.206593	0.137372
1054.372610	0.137088
1054.538609	0.135978
1054.704590	0.135407
1054.870553	0.136215
1055.036497	0.137763
1055.202424	0.140346
1055.368331	0.140947
1055.534221	0.142776
1055.700093	0.144609
1055.865946	0.146134
1056.031781	0.145520
1056.197598	0.144130
1056.363397	0.143556
1056.529177	0.142255
1056.694939	0.137815
1056.860683	0.137624
1057.026409	0.137053
1057.192116	0.134605
1057.357806	0.135277
1057.523477	0.138108
1057.689130	0.140189
1057.854764	0.140339
1058.020381	0.139638
1058.185979	0.141407
1058.351559	0.140635
1058.517120	0.139732
1058.682664	0.138675
1058.848189	0.136767
1059.013696	0.137708
1059.179185	0.137055
1059.344656	0.136893
1059.510108	0.137214
1059.675542	0.137215
1059.840958	0.139079
1060.006356	0.140864
1060.171735	0.144075
1060.337096	0.146078
1060.502439	0.142236
1060.667764	0.140749
1060.833071	0.141111
1060.998359	0.143410
1061.163629	0.145833
1061.328881	0.142649
1061.494115	0.144104
1061.659330	0.142494
1061.824527	0.142545
1061.989706	0.144062
1062.154867	0.146861
1062.320010	0.146060
1062.485134	0.144479
1062.650240	0.143981
1062.815328	0.146991
1062.980398	0.146861
1063.145449	0.147802
1063.310482	0.148743
1063.475497	0.148372
1063.640494	0.146642
1063.805473	0.148615
1063.970433	0.150007
1064.135375	0.148795
1064.300299	0.151316
1064.465204	0.150648
1064.630092	0.149206
1064.794961	0.146889
1064.959812	0.147863
1065.124645	0.149844
1065.289459	0.149581
1065.454256	0.147240
1065.619034	0.146819
1065.783793	0.143160
1065.948535	0.144770
1066.113258	0.143136
1066.277964	0.142266
1066.442651	0.140430
1066.607319	0.138265
1066.771970	0.138298
1066.936602	0.137609
1067.101216	0.140571
1067.265812	0.142912
1067.430389	0.141043
1067.594949	0.144368
1067.759490	0.146085
1067.924013	0.150080
1068.088518	0.148462
1068.253004	0.146638
1068.417472	0.148279
1068.581922	0.146308
1068.746354	0.146201
1068.910768	0.148816
1069.075163	0.148271
1069.239540	0.145228
1069.403899	0.142591
1069.568240	0.148410
1069.732562	0.150257
1069.896866	0.150958
1070.061152	0.152589
1070.225420	0.152602
1070.389670	0.152206
1070.553901	0.153130
1070.718114	0.156848
1070.882309	0.156145
1071.046486	0.152831
1071.210644	0.150420
1071.374784	0.152092
1071.538906	0.150248
1071.703010	0.149867
1071.867096	0.147629
1072.031163	0.146833
1072.195212	0.147780
1072.359243	0.149159
1072.523256	0.148665
1072.687250	0.149304
1072.851226	0.145958
1073.015184	0.146393
1073.179124	0.145590
1073.343045	0.148351
1073.506949	0.148272
1073.670834	0.148951
1073.834701	0.147106
1073.998549	0.147555
1074.162380	0.147080
1074.326192	0.145675
1074.489986	0.144698
1074.653761	0.144733
1074.817519	0.142719
1074.981258	0.142990
1075.144979	0.142595
1075.308682	0.144947
1075.472367	0.146119
1075.636033	0.150474
1075.799681	0.152086
1075.963311	0.152659
1076.126923	0.151481
1076.290516	0.151402
1076.454092	0.150708
1076.617649	0.150282
1076.781187	0.149335
1076.944708	0.148284
1077.108210	0.145524
1077.271695	0.148168
1077.435160	0.150779
1077.598608	0.153844
1077.762038	0.155202
1077.925449	0.156553
1078.088842	0.152006
1078.252217	0.151763
1078.415573	0.149751
1078.578912	0.147974
1078.742232	0.146149
1078.905534	0.143673
1079.068817	0.140708
1079.232083	0.140413
1079.395330	0.140294
1079.558559	0.142176
1079.721770	0.140124
1079.884962	0.139952
1080.048136	0.141040
1080.211293	0.141706
1080.374430	0.139780
1080.537550	0.140963
1080.700651	0.140986
1080.863735	0.142025
1081.026800	0.145335
1081.189846	0.147747
1081.352875	0.153331
1081.515885	0.151901
1081.678877	0.152442
1081.841851	0.153905
1082.004807	0.153293
1082.167744	0.152126
1082.330663	0.153461
1082.493564	0.152325
1082.656447	0.152566
1082.819312	0.150224
1082.982158	0.149900
1083.144986	0.148471
1083.307796	0.148883
1083.470587	0.148257
1083.633361	0.149341
1083.796116	0.147862
1083.958853	0.147110
1084.121571	0.146309
1084.284272	0.144221
1084.446954	0.145300
1084.609618	0.148683
1084.772264	0.150943
1084.934892	0.157275
1085.097501	0.158467
1085.260092	0.161520
1085.422665	0.161110
1085.585220	0.159169
1085.747756	0.161327
1085.910274	0.162484
1086.072774	0.160676
1086.235256	0.156428
1086.397720	0.149437
1086.560165	0.145519
1086.722592	0.146479
1086.885001	0.147662
1087.047392	0.150286
1087.209764	0.150985
1087.372119	0.152417
1087.534455	0.155078
1087.696772	0.155290
1087.859072	0.157900
1088.021353	0.159959
1088.183616	0.153082
1088.345861	0.155630
1088.508088	0.158059
1088.670296	0.158960
1088.832486	0.157660
1088.994658	0.152911
1089.156812	0.154306
1089.318948	0.157916
1089.481065	0.156747
1089.643164	0.153866
1089.805245	0.150348
1089.967308	0.148194
1090.129352	0.145494
1090.291378	0.144259
1090.453386	0.152565
1090.615376	0.151455
1090.777347	0.148106
1090.939301	0.148705
1091.101236	0.156959
1091.263153	0.162149
1091.425051	0.160970
1091.586932	0.163912
1091.748794	0.163047
1091.910638	0.157180
1092.072463	0.161430
1092.234271	0.161984
1092.396060	0.164147
1092.557831	0.160313
1092.719584	0.158277
1092.881319	0.160468
1093.043035	0.157046
1093.204733	0.160732
1093.366413	0.163580
1093.528075	0.161622
1093.689718	0.161169
1093.851343	0.158802
1094.012950	0.158777
1094.174539	0.155613
1094.336110	0.152669
1094.497662	0.155211
1094.659196	0.156518
1094.820712	0.154977
1094.982210	0.157285
1095.143689	0.157239
1095.305151	0.154851
1095.466594	0.153724
1095.628018	0.153761
1095.789425	0.156897
1095.950813	0.153383
1096.112183	0.152370
1096.273535	0.154901
1096.434869	0.159715
1096.596184	0.159441
1096.757482	0.164944
1096.918761	0.169664
1097.080021	0.169628
1097.241264	0.169871
1097.402488	0.174504
1097.563694	0.171313
1097.724882	0.165762
1097.886052	0.162104
1098.047203	0.164949
1098.208336	0.166232
1098.369451	0.163443
1098.530548	0.169597
1098.691627	0.171980
1098.852687	0.171314
1099.013729	0.168182
1099.174753	0.171650
1099.335758	0.168071
1099.496746	0.167685
1099.657715	0.165972
1099.818666	0.166458
1099.979599	0.164623
1100.140513	0.161042
1100.301409	0.162492
1100.462287	0.170721
1100.623147	0.172695
1100.783989	0.171882
1100.944812	0.169140
1101.105617	0.171325
1101.266404	0.171079
1101.427173	0.171755
1101.587923	0.173304
1101.748656	0.167431
1101.909370	0.169153
1102.070066	0.165813
1102.230743	0.174492
1102.391403	0.177959
1102.552044	0.180046
1102.712667	0.177114
1102.873271	0.172107
1103.033858	0.170479
1103.194426	0.179677
1103.354976	0.173271
1103.515508	0.171444
1103.676021	0.167564
1103.836517	0.166970
1103.996994	0.165075
1104.157453	0.169625
1104.317893	0.172206
1104.478316	0.173737
1104.638720	0.164526
1104.799106	0.165651
1104.959474	0.169354
1105.119823	0.168210
1105.280155	0.171764
1105.440468	0.170665
1105.600763	0.174260
1105.761039	0.174053
1105.921298	0.174252
1106.081538	0.180175
1106.241760	0.176578
1106.401964	0.173695
1106.562149	0.174136
1106.722316	0.171182
1106.882465	0.172121
1107.042596	0.167442
1107.202709	0.164628
1107.362803	0.161349
1107.522879	0.158300
1107.682937	0.166181
1107.842977	0.166128
1108.002999	0.167322
1108.163002	0.161785
1108.322987	0.156735
1108.482954	0.161354
1108.642902	0.165544
1108.802833	0.167317
1108.962745	0.170378
1109.122639	0.166868
1109.282515	0.167795
1109.442372	0.168034
1109.602211	0.170979
1109.762032	0.176551
1109.921835	0.173698
1110.081620	0.170782
1110.241386	0.172532
1110.401134	0.170477
1110.560864	0.168543
1110.720576	0.170370
1110.880269	0.164598
1111.039945	0.164812
1111.199602	0.165308
1111.359240	0.162757
1111.518861	0.162275
1111.678463	0.157794
1111.838047	0.159492
1111.997613	0.165258
1112.157161	0.168497
1112.316690	0.173645
1112.476202	0.179285
1112.635695	0.178007
1112.795169	0.181609
1112.954626	0.183695
1113.114064	0.187479
1113.273484	0.187301
1113.432886	0.184402
1113.592270	0.177794
1113.751635	0.173388
1113.910983	0.166391
1114.070312	0.161851
1114.229622	0.159777
1114.388915	0.157722
1114.548189	0.158811
1114.707445	0.159004
1114.866683	0.161805
1115.025903	0.168270
1115.185104	0.174612
1115.344287	0.182859
1115.503452	0.180414
1115.662599	0.182723
1115.821727	0.188640
1115.980838	0.189250
1116.139930	0.186438
1116.299004	0.181632
1116.458059	0.176827
1116.617097	0.176920
1116.776116	0.171742
1116.935117	0.182790
1117.094099	0.183161
1117.253064	0.179198
1117.412010	0.180744
1117.570938	0.188433
1117.729848	0.191690
1117.888740	0.192419
1118.047613	0.192280
1118.206468	0.190860
1118.365305	0.186632
1118.524124	0.180428
1118.682924	0.180981
1118.841707	0.174464
1119.000471	0.172628
1119.159216	0.169867
1119.317944	0.165374
1119.476653	0.154649
1119.635344	0.162133
1119.794017	0.160339
1119.952672	0.167390
1120.111308	0.167505
1120.269927	0.170188
1120.428527	0.174316
1120.587108	0.178761
1120.745672	0.189649
1120.904217	0.197287
1121.062744	0.188705
1121.221253	0.189109
1121.379744	0.182370
1121.538216	0.183628
1121.696671	0.182694
1121.855107	0.180064
1122.013524	0.181049
1122.171924	0.176548
1122.330305	0.177378
1122.488668	0.178884
1122.647013	0.176976
1122.805340	0.188350
1122.963648	0.187694
1123.121938	0.198410
1123.280210	0.195571
1123.438464	0.193613
1123.596700	0.196844
1123.754917	0.196189
1123.913116	0.198617
1124.071297	0.197155
1124.229459	0.193862
1124.387604	0.191170
1124.545730	0.187081
1124.703838	0.185165
1124.861928	0.191401
1125.019999	0.190321
1125.178052	0.194211
1125.336088	0.188720
1125.494104	0.199328
1125.652103	0.199595
1125.810083	0.202640
1125.968045	0.200166
1126.125989	0.192626
1126.283915	0.181567
1126.441823	0.169893
1126.599712	0.168230
1126.757583	0.172138
1126.915436	0.165426
1127.073270	0.166157
1127.231087	0.167793
1127.388885	0.166156
1127.546665	0.174102
1127.704426	0.176697
1127.862170	0.181403
1128.019895	0.179677
1128.177602	0.177050
1128.335291	0.174785
1128.492961	0.166948
1128.650614	0.171610
1128.808248	0.173668
1128.965864	0.176480
1129.123461	0.178308
1129.281041	0.189358
1129.438602	0.187855
1129.596145	0.186496
1129.753670	0.188087
1129.911176	0.190905
1130.068665	0.190360
1130.226135	0.182213
1130.383587	0.177860
1130.541020	0.169669
1130.698436	0.166882
1130.855833	0.168305
1131.013212	0.168573
1131.170573	0.169971
1131.327915	0.163888
1131.485239	0.163480
1131.642545	0.168609
1131.799833	0.163767
1131.957103	0.170980
1132.114354	0.170871
1132.271588	0.170095
1132.428803	0.175348
1132.585999	0.178819
1132.743178	0.184030
1132.900338	0.184532
1133.057480	0.181858
1133.214604	0.189535
1133.371710	0.194008
1133.528797	0.188872
1133.685866	0.189710
1133.842917	0.186821
1133.999950	0.184073
1134.156964	0.180008
1134.313960	0.177153
1134.470938	0.185710
1134.627898	0.183733
1134.784840	0.173969
1134.941763	0.177082
1135.098668	0.169599
1135.255555	0.165510
1135.412424	0.168506
1135.569274	0.173283
1135.726107	0.172031
1135.882921	0.170725
1136.039716	0.171852
1136.196494	0.175678
1136.353253	0.173976
1136.509995	0.182157
1136.666717	0.183018
1136.823422	0.177601
1136.980109	0.179706
1137.136777	0.183641
1137.293427	0.185475
1137.450059	0.186515
1137.606672	0.190026
1137.763267	0.190332
1137.919844	0.193255
1138.076403	0.201699
1138.232944	0.205383
1138.389466	0.205694
1138.545971	0.196833
1138.702457	0.188803
1138.858924	0.191941
1139.015374	0.189529
1139.171805	0.195312
1139.328218	0.186707
1139.484613	0.182656
1139.640990	0.183607
1139.797348	0.177665
1139.953688	0.191890
1140.110010	0.196058
1140.266314	0.187366
1140.422600	0.190386
1140.578867	0.182852
1140.735116	0.181669
1140.891347	0.186401
1141.047559	0.185546
1141.203754	0.180985
1141.359930	0.169122
1141.516088	0.170276
1141.672228	0.179269
1141.828349	0.172049
1141.984452	0.178593
1142.140537	0.188631
1142.296604	0.180084
1142.452653	0.186768
1142.608683	0.192667
1142.764695	0.196466
1142.920689	0.194646
1143.076665	0.183347
1143.232622	0.193217
1143.388562	0.186116
1143.544483	0.192894
1143.700385	0.198100
1143.856270	0.195288
1144.012136	0.201166
1144.167985	0.194809
1144.323814	0.186083
1144.479626	0.190960
1144.635420	0.192918
1144.791195	0.179470
1144.946952	0.178092
1145.102691	0.179050
1145.258411	0.183706
1145.414113	0.186023
1145.569798	0.184646
1145.725463	0.195581
1145.881111	0.196150
1146.036741	0.187190
1146.192352	0.194162
1146.347945	0.182565
1146.503519	0.195184
1146.659076	0.187608
1146.814614	0.187688
1146.970134	0.188104
1147.125636	0.185932
1147.281120	0.186701
1147.436585	0.184344
1147.592032	0.195685
1147.747461	0.188415
1147.902872	0.175087
1148.058265	0.167236
1148.213639	0.167995
1148.368995	0.167348
1148.524333	0.164635
1148.679653	0.162414
1148.834954	0.165486
1148.990237	0.166107
1149.145502	0.183425
1149.300749	0.179710
1149.455977	0.183357
1149.611188	0.175078
1149.766380	0.173913
1149.921553	0.183653
1150.076709	0.186160
1150.231846	0.193008
1150.386966	0.178341
1150.542066	0.173310
1150.697149	0.173669
1150.852214	0.179259
1151.007260	0.172238
1151.162288	0.182973
1151.317298	0.183147
1151.472289	0.195787
1151.627263	0.186259
1151.782218	0.201819
1151.937155	0.195038
1152.092073	0.206781
1152.246974	0.218566
1152.401856	0.232961
1152.556720	0.227997
1152.711566	0.222332
1152.866393	0.203188
1153.021203	0.211523
1153.175994	0.204609
1153.330767	0.190546
1153.485521	0.191024
1153.640258	0.186375
1153.794976	0.184226
1153.949676	0.179854
1154.104358	0.185087
1154.259021	0.187376
1154.413667	0.167717
1154.568294	0.170951
1154.722903	0.192326
1154.877493	0.180906
1155.032066	0.173230
1155.186620	0.173987
1155.341156	0.161810
1155.495674	0.153652
1155.650173	0.156501
1155.804654	0.175882
1155.959118	0.179253
1156.113562	0.172498
1156.267989	0.173089
1156.422397	0.179489
1156.576788	0.179354
1156.731160	0.195562
1156.885513	0.194032
1157.039849	0.188192
1157.194166	0.182304
1157.348465	0.180480
1157.502746	0.193092
1157.657009	0.200194
1157.811253	0.193944
1157.965479	0.203984
1158.119687	0.204422
1158.273877	0.203373
1158.428048	0.204212
1158.582201	0.199494
1158.736337	0.186266
1158.890453	0.179276
1159.044552	0.172794
1159.198632	0.171706
1159.352694	0.164397
1159.506738	0.165258
1159.660764	0.166652
1159.814771	0.181756
1159.968761	0.176227
1160.122732	0.179379
1160.276685	0.165822
1160.430619	0.159998
1160.584535	0.154108
1160.738434	0.145714
1160.892313	0.150798
1161.046175	0.150277
1161.200019	0.128647
1161.353844	0.132371
1161.507651	0.141094
1161.661440	0.150458
1161.815210	0.162406
1161.968962	0.168698
1162.122697	0.173226
1162.276412	0.168666
1162.430110	0.177309
1162.583789	0.201546
1162.737451	0.192112
1162.891094	0.190528
1163.044718	0.189034
1163.198325	0.185562
1163.351913	0.183405
1163.505483	0.194329
1163.659035	0.194214
1163.812569	0.189268
1163.966084	0.176621
1164.119581	0.209654
1164.273060	0.225145
1164.426521	0.239941
1164.579964	0.252004
1164.733388	0.252066
1164.886794	0.235896
1165.040182	0.232208
1165.193551	0.230040
1165.346903	0.227041
1165.500236	0.218377
1165.653551	0.208685
1165.806848	0.191302
1165.960126	0.157564
1166.113386	0.164712
1166.266628	0.179450
1166.419852	0.189774
1166.573058	0.182187
1166.726245	0.175076
1166.879414	0.174585
1167.032565	0.154968
1167.185698	0.168511
1167.338812	0.197455
1167.491909	0.184105
1167.644987	0.170328
1167.798046	0.164438
1167.951088	0.165508
1168.104111	0.182253
1168.257117	0.164157
1168.410103	0.168427
1168.563072	0.144443
1168.716023	0.133524
1168.868955	0.133821
1169.021869	0.125802
1169.174765	0.122677
1169.327642	0.117372
1169.480501	0.104893
1169.633343	0.100406
1169.786165	0.119283
1169.938970	0.111204
1170.091757	0.122529
1170.244525	0.108762
1170.397275	0.109322
1170.550007	0.120647
1170.702720	0.135317
1170.855415	0.139557
1171.008092	0.159372
1171.160751	0.150962
1171.313392	0.184430
1171.466014	0.159858
1171.618619	0.221849
1171.771205	0.221849
1171.923772	0.221849
