sample name	sample
index	1025
start time	 04-19-2021  12:23:03 PM


Wavelength (nm)	Absorbance
494.344910	0.087110
494.563924	0.087110
494.782919	0.087110
495.001897	-0.001695
495.220856	0.041071
495.439797	0.026645
495.658719	0.015855
495.877624	0.002626
496.096510	0.012254
496.315378	0.015403
496.534227	0.006584
496.753059	0.013647
496.971872	0.009068
497.190667	0.073768
497.409444	0.095946
497.628203	0.101360
497.846943	0.105956
498.065665	0.105593
498.284369	0.106977
498.503055	0.108462
498.721723	0.107991
498.940372	0.109419
499.159003	0.109175
499.377616	0.109375
499.596210	0.109308
499.814787	0.109603
500.033345	0.109836
500.251885	0.110009
500.470406	0.109990
500.688910	0.110474
500.907395	0.108950
501.125862	0.107309
501.344311	0.106086
501.562742	0.106216
501.781154	0.105926
501.999548	0.106186
502.217924	0.105561
502.436282	0.105636
502.654621	0.105629
502.872942	0.104937
503.091245	0.105819
503.309530	0.107043
503.527797	0.106170
503.746045	0.105496
503.964275	0.105539
504.182487	0.104776
504.400681	0.104848
504.618856	0.104828
504.837013	0.105667
505.055152	0.105084
505.273273	0.103865
505.491376	0.104287
505.709460	0.103931
505.927526	0.102865
506.145574	0.104351
506.363604	0.104475
506.581615	0.105175
506.799608	0.105301
507.017583	0.105739
507.235540	0.105640
507.453478	0.105827
507.671399	0.106682
507.889301	0.107086
508.107185	0.106451
508.325050	0.105735
508.542898	0.105447
508.760727	0.104886
508.978538	0.105578
509.196330	0.106570
509.414105	0.106925
509.631861	0.107000
509.849599	0.107921
510.067319	0.107241
510.285021	0.108359
510.502704	0.108388
510.720369	0.109710
510.938016	0.108961
511.155645	0.108734
511.373255	0.108767
511.590848	0.107958
511.808422	0.107269
512.025977	0.108389
512.243515	0.107595
512.461034	0.107927
512.678536	0.107210
512.896018	0.107532
513.113483	0.107825
513.330930	0.108543
513.548358	0.109387
513.765768	0.110327
513.983160	0.110500
514.200533	0.111157
514.417889	0.110886
514.635226	0.111361
514.852545	0.111204
515.069845	0.111993
515.287128	0.111431
515.504392	0.111620
515.721638	0.111587
515.938866	0.111042
516.156075	0.110992
516.373267	0.111619
516.590440	0.111430
516.807594	0.111929
517.024731	0.111945
517.241850	0.111885
517.458950	0.111446
517.676032	0.111809
517.893095	0.112244
518.110141	0.111884
518.327168	0.111478
518.544177	0.112225
518.761168	0.112520
518.978141	0.112363
519.195095	0.112525
519.412031	0.112615
519.628949	0.111954
519.845849	0.112313
520.062731	0.112267
520.279594	0.111478
520.496439	0.111289
520.713266	0.110667
520.930074	0.110208
521.146865	0.110348
521.363637	0.110137
521.580391	0.110549
521.797127	0.110312
522.013844	0.111218
522.230543	0.111749
522.447224	0.111677
522.663887	0.111985
522.880532	0.112554
523.097158	0.112411
523.313766	0.113770
523.530356	0.113848
523.746928	0.113792
523.963481	0.114125
524.180017	0.115262
524.396534	0.114918
524.613032	0.116034
524.829513	0.116290
525.045975	0.117131
525.262420	0.116411
525.478845	0.116965
525.695253	0.117613
525.911643	0.117195
526.128014	0.117004
526.344367	0.118134
526.560702	0.118067
526.777018	0.118208
526.993316	0.118428
527.209597	0.119327
527.425858	0.118822
527.642102	0.118474
527.858328	0.118899
528.074535	0.118917
528.290724	0.118553
528.506894	0.118627
528.723047	0.119318
528.939181	0.119035
529.155297	0.118835
529.371395	0.118853
529.587475	0.119163
529.803536	0.119110
530.019579	0.119505
530.235604	0.119758
530.451611	0.120109
530.667600	0.119394
530.883570	0.119659
531.099522	0.119682
531.315456	0.120414
531.531372	0.120313
531.747269	0.120486
531.963148	0.120665
532.179009	0.120485
532.394852	0.120145
532.610676	0.120407
532.826482	0.120459
533.042271	0.120348
533.258040	0.120971
533.473792	0.121780
533.689525	0.122772
533.905240	0.122576
534.120937	0.123428
534.336616	0.123506
534.552277	0.123516
534.767919	0.124077
534.983543	0.124371
535.199149	0.123762
535.414736	0.123448
535.630306	0.123447
535.845857	0.123597
536.061390	0.123104
536.276904	0.123407
536.492401	0.123686
536.707879	0.123454
536.923339	0.123715
537.138781	0.124127
537.354204	0.124132
537.569610	0.123543
537.784997	0.124189
538.000366	0.124295
538.215716	0.124556
538.431049	0.124625
538.646363	0.124652
538.861659	0.124359
539.076937	0.124093
539.292196	0.123929
539.507438	0.123784
539.722661	0.123234
539.937866	0.124046
540.153052	0.124515
540.368221	0.124740
540.583371	0.125130
540.798503	0.125988
541.013617	0.125881
541.228712	0.126178
541.443789	0.126222
541.658848	0.126624
541.873889	0.126632
542.088912	0.125726
542.303916	0.125580
542.518902	0.125684
542.733870	0.125361
542.948820	0.126049
543.163752	0.126093
543.378665	0.126827
543.593560	0.126799
543.808437	0.126851
544.023295	0.127708
544.238136	0.127905
544.452958	0.127846
544.667762	0.128760
544.882548	0.128718
545.097315	0.129191
545.312064	0.129574
545.526795	0.130217
545.741508	0.129974
545.956203	0.129931
546.170879	0.130080
546.385537	0.129839
546.600177	0.129504
546.814799	0.129489
547.029402	0.129374
547.243988	0.128921
547.458555	0.128964
547.673103	0.129197
547.887634	0.129562
548.102146	0.129471
548.316640	0.130234
548.531116	0.130435
548.745574	0.130762
548.960013	0.131091
549.174435	0.131280
549.388838	0.131112
549.603222	0.131217
549.817589	0.131010
550.031937	0.131120
550.246267	0.130921
550.460579	0.130564
550.674873	0.130594
550.889148	0.130738
551.103405	0.130857
551.317644	0.130960
551.531865	0.131193
551.746068	0.131274
551.960252	0.131517
552.174418	0.131403
552.388566	0.132093
552.602696	0.132240
552.816807	0.132213
553.030900	0.132070
553.244975	0.132083
553.459032	0.131737
553.673070	0.131779
553.887091	0.131821
554.101093	0.132004
554.315077	0.131483
554.529042	0.131047
554.742990	0.131394
554.956919	0.131733
555.170830	0.131480
555.384722	0.131709
555.598597	0.131722
555.812453	0.131803
556.026291	0.131811
556.240111	0.132040
556.453913	0.132560
556.667696	0.132390
556.881461	0.132364
557.095208	0.132511
557.308937	0.132611
557.522647	0.132720
557.736339	0.133082
557.950013	0.133287
558.163669	0.133411
558.377307	0.133180
558.590926	0.133046
558.804527	0.132896
559.018110	0.132779
559.231675	0.132622
559.445221	0.132537
559.658749	0.132541
559.872259	0.132560
560.085751	0.132462
560.299225	0.132464
560.512680	0.132829
560.726117	0.132969
560.939536	0.133272
561.152937	0.133359
561.366319	0.133414
561.579683	0.133273
561.793029	0.133371
562.006357	0.133469
562.219667	0.133381
562.432958	0.133294
562.646231	0.132946
562.859486	0.132693
563.072723	0.132694
563.285941	0.133013
563.499141	0.132515
563.712323	0.132353
563.925487	0.132134
564.138632	0.132186
564.351760	0.131980
564.564869	0.132315
564.777960	0.132803
564.991032	0.132896
565.204087	0.132661
565.417123	0.132876
565.630141	0.132571
565.843140	0.132973
566.056122	0.133299
566.269085	0.133131
566.482030	0.133207
566.694957	0.132960
566.907866	0.133277
567.120756	0.133296
567.333628	0.133864
567.546482	0.134158
567.759318	0.133550
567.972135	0.133467
568.184935	0.133808
568.397716	0.133740
568.610478	0.133673
568.823223	0.133379
569.035949	0.133452
569.248657	0.133328
569.461347	0.133333
569.674019	0.133662
569.886672	0.134057
570.099308	0.133816
570.311925	0.134027
570.524523	0.134454
570.737104	0.134708
570.949666	0.134722
571.162210	0.134486
571.374736	0.134451
571.587244	0.134376
571.799733	0.134131
572.012205	0.134461
572.224658	0.134640
572.437092	0.134440
572.649509	0.134402
572.861907	0.134295
573.074287	0.134581
573.286649	0.134618
573.498993	0.134559
573.711318	0.134803
573.923625	0.135097
574.135914	0.134890
574.348185	0.135148
574.560438	0.135169
574.772672	0.135316
574.984888	0.135126
575.197086	0.135109
575.409266	0.135170
575.621427	0.135122
575.833570	0.134946
576.045695	0.135136
576.257802	0.134837
576.469890	0.135032
576.681961	0.135320
576.894013	0.135578
577.106046	0.135773
577.318062	0.136337
577.530059	0.136416
577.742039	0.136666
577.954000	0.136423
578.165942	0.136564
578.377867	0.136387
578.589773	0.136099
578.801661	0.136008
579.013531	0.136343
579.225382	0.136163
579.437216	0.135957
579.649031	0.135780
579.860828	0.136118
580.072606	0.136570
580.284367	0.136843
580.496109	0.137249
580.707833	0.137499
580.919539	0.137685
581.131227	0.137798
581.342896	0.138049
581.554547	0.138398
581.766180	0.138122
581.977795	0.138115
582.189391	0.137934
582.400969	0.137843
582.612529	0.138042
582.824071	0.137647
583.035595	0.137600
583.247100	0.137626
583.458587	0.137401
583.670056	0.137691
583.881506	0.137465
584.092939	0.137516
584.304353	0.137488
584.515749	0.137106
584.727127	0.137226
584.938486	0.137399
585.149828	0.137120
585.361151	0.136923
585.572456	0.136775
585.783742	0.136830
585.995011	0.137130
586.206261	0.137255
586.417493	0.137597
586.628706	0.137586
586.839902	0.137897
587.051079	0.138527
587.262238	0.138744
587.473379	0.138909
587.684502	0.138966
587.895606	0.138748
588.106692	0.138902
588.317760	0.138962
588.528810	0.139126
588.739841	0.139265
588.950855	0.139133
589.161850	0.139343
589.372827	0.139626
589.583785	0.139884
589.794726	0.139828
590.005648	0.139984
590.216552	0.140279
590.427437	0.140357
590.638305	0.140089
590.849154	0.139806
591.059985	0.140287
591.270798	0.140459
591.481592	0.140545
591.692369	0.141027
591.903127	0.141114
592.113867	0.141340
592.324588	0.141560
592.535292	0.141510
592.745977	0.141953
592.956644	0.141768
593.167293	0.142002
593.377923	0.142028
593.588536	0.142046
593.799130	0.142075
594.009706	0.141878
594.220263	0.141935
594.430803	0.142372
594.641324	0.142435
594.851827	0.142055
595.062312	0.141745
595.272778	0.141938
595.483227	0.142180
595.693657	0.142511
595.904069	0.142720
596.114462	0.142729
596.324838	0.142711
596.535195	0.142970
596.745534	0.143398
596.955855	0.143710
597.166157	0.143710
597.376441	0.143615
597.586707	0.143246
597.796955	0.142960
598.007185	0.143247
598.217396	0.143199
598.427589	0.143183
598.637764	0.143247
598.847921	0.143187
599.058060	0.143216
599.268180	0.143221
599.478282	0.143413
599.688366	0.143772
599.898431	0.143847
600.108479	0.143833
600.318508	0.143852
600.528519	0.143908
600.738511	0.143968
600.948486	0.143794
601.158442	0.143987
601.368380	0.144097
601.578300	0.143951
601.788202	0.143850
601.998085	0.144087
602.207950	0.144082
602.417797	0.143876
602.627626	0.144019
602.837436	0.144265
603.047228	0.144234
603.257002	0.144617
603.466758	0.144933
603.676496	0.145044
603.886215	0.145134
604.095916	0.145013
604.305599	0.145452
604.515264	0.145188
604.724910	0.145344
604.934538	0.145527
605.144148	0.145140
605.353740	0.145005
605.563314	0.144578
605.772869	0.144451
605.982406	0.144729
606.191925	0.144548
606.401425	0.144837
606.610908	0.144649
606.820372	0.144494
607.029818	0.144289
607.239246	0.144091
607.448655	0.144360
607.658047	0.144178
607.867420	0.144140
608.076775	0.144213
608.286111	0.144133
608.495430	0.144147
608.704730	0.144007
608.914012	0.144282
609.123275	0.144484
609.332521	0.144548
609.541748	0.144728
609.750957	0.144591
609.960148	0.144618
610.169321	0.144561
610.378475	0.144605
610.587611	0.144779
610.796729	0.144953
611.005829	0.144927
611.214910	0.144993
611.423974	0.145295
611.633019	0.145616
611.842045	0.145835
612.051054	0.145815
612.260044	0.146006
612.469017	0.146133
612.677970	0.145756
612.886906	0.145742
613.095824	0.145581
613.304723	0.145343
613.513604	0.145348
613.722467	0.145132
613.931311	0.145192
614.140138	0.145166
614.348946	0.145242
614.557736	0.145589
614.766507	0.145642
614.975261	0.145994
615.183996	0.146474
615.392713	0.146687
615.601412	0.146839
615.810092	0.147115
616.018754	0.147051
616.227399	0.146695
616.436024	0.147080
616.644632	0.147117
616.853222	0.147109
617.061793	0.146837
617.270346	0.146850
617.478880	0.146889
617.687397	0.146829
617.895895	0.146787
618.104375	0.147408
618.312837	0.147090
618.521281	0.147270
618.729706	0.147384
618.938113	0.147224
619.146502	0.147158
619.354873	0.147235
619.563226	0.147400
619.771560	0.147484
619.979876	0.147168
620.188174	0.147073
620.396453	0.147068
620.604715	0.147018
620.812958	0.147217
621.021183	0.147301
621.229390	0.147377
621.437578	0.147488
621.645748	0.147813
621.853900	0.147909
622.062034	0.148019
622.270150	0.148236
622.478247	0.148466
622.686326	0.148568
622.894387	0.148637
623.102430	0.148852
623.310454	0.148881
623.518461	0.148756
623.726449	0.148855
623.934418	0.149105
624.142370	0.148714
624.350303	0.148761
624.558218	0.149024
624.766115	0.149091
624.973994	0.148882
625.181855	0.149065
625.389697	0.149226
625.597521	0.148955
625.805327	0.148755
626.013114	0.148928
626.220883	0.148867
626.428634	0.148899
626.636367	0.148865
626.844082	0.149102
627.051778	0.148957
627.259457	0.149172
627.467117	0.149544
627.674758	0.149799
627.882382	0.150248
628.089987	0.150423
628.297574	0.150302
628.505143	0.150441
628.712694	0.150586
628.920226	0.150868
629.127740	0.150767
629.335236	0.151042
629.542714	0.151110
629.750174	0.151143
629.957615	0.151251
630.165038	0.151366
630.372443	0.151268
630.579829	0.151260
630.787198	0.151077
630.994548	0.151180
631.201880	0.151016
631.409194	0.151157
631.616489	0.151352
631.823766	0.151475
632.031025	0.151870
632.238266	0.151984
632.445489	0.152103
632.652693	0.152202
632.859879	0.152185
633.067047	0.152433
633.274197	0.152396
633.481329	0.152326
633.688442	0.152412
633.895537	0.152327
634.102614	0.152580
634.309672	0.152768
634.516713	0.153234
634.723735	0.153633
634.930739	0.153807
635.137724	0.154113
635.344692	0.154189
635.551641	0.154207
635.758572	0.154294
635.965485	0.154320
636.172379	0.154319
636.379256	0.154374
636.586114	0.154444
636.792954	0.154650
636.999775	0.154621
637.206579	0.154507
637.413364	0.154515
637.620131	0.154642
637.826880	0.154540
638.033610	0.154789
638.240323	0.154366
638.447017	0.154152
638.653692	0.154158
638.860350	0.154324
639.066990	0.154547
639.273611	0.154712
639.480214	0.154668
639.686798	0.155148
639.893365	0.155178
640.099913	0.155695
640.306443	0.156082
640.512955	0.155873
640.719449	0.155867
640.925924	0.155947
641.132381	0.156106
641.338820	0.156219
641.545241	0.156082
641.751644	0.156097
641.958028	0.156325
642.164394	0.156338
642.370742	0.156759
642.577071	0.156756
642.783383	0.156803
642.989676	0.156736
643.195951	0.156427
643.402207	0.156448
643.608446	0.156423
643.814666	0.156160
644.020868	0.156156
644.227052	0.156197
644.433218	0.156272
644.639365	0.156189
644.845494	0.156393
645.051605	0.156836
645.257698	0.156947
645.463772	0.156903
645.669828	0.156944
645.875866	0.156897
646.081886	0.156667
646.287888	0.156839
646.493871	0.156991
646.699836	0.157098
646.905783	0.157023
647.111712	0.156926
647.317622	0.157001
647.523514	0.157206
647.729388	0.157556
647.935244	0.157992
648.141082	0.157983
648.346901	0.158255
648.552702	0.158336
648.758485	0.158591
648.964250	0.158814
649.169996	0.159209
649.375724	0.159537
649.581434	0.159340
649.787126	0.159195
649.992800	0.159555
650.198455	0.159630
650.404092	0.159569
650.609711	0.159627
650.815311	0.159490
651.020894	0.159358
651.226458	0.158973
651.432004	0.158998
651.637532	0.159270
651.843041	0.159000
652.048532	0.158950
652.254006	0.158928
652.459460	0.159112
652.664897	0.159237
652.870315	0.159256
653.075716	0.159605
653.281097	0.159794
653.486461	0.159763
653.691807	0.159947
653.897134	0.160248
654.102443	0.160399
654.307734	0.160310
654.513006	0.160562
654.718261	0.160829
654.923497	0.160794
655.128715	0.160932
655.333915	0.161087
655.539096	0.161368
655.744259	0.161368
655.949404	0.161601
656.154531	0.161820
656.359640	0.162037
656.564730	0.161878
656.769802	0.161902
656.974856	0.162099
657.179892	0.161944
657.384909	0.161785
657.589908	0.161886
657.794889	0.161716
657.999852	0.161685
658.204797	0.161703
658.409723	0.161966
658.614631	0.162255
658.819521	0.162196
659.024393	0.162420
659.229246	0.162644
659.434081	0.162764
659.638898	0.163016
659.843697	0.163179
660.048478	0.163243
660.253240	0.163413
660.457984	0.163499
660.662710	0.163579
660.867417	0.163763
661.072107	0.163665
661.276778	0.163731
661.481431	0.163959
661.686066	0.164023
661.890682	0.164285
662.095281	0.164504
662.299861	0.164571
662.504422	0.164739
662.708966	0.165006
662.913491	0.165348
663.117999	0.165406
663.322488	0.165435
663.526958	0.165443
663.731411	0.165343
663.935845	0.165146
664.140261	0.165056
664.344659	0.164857
664.549038	0.164522
664.753400	0.164447
664.957743	0.164450
665.162068	0.164494
665.366375	0.164528
665.570663	0.164495
665.774933	0.164456
665.979185	0.164603
666.183419	0.164768
666.387635	0.165101
666.591832	0.165304
666.796011	0.165347
667.000172	0.165412
667.204315	0.165690
667.408439	0.166108
667.612545	0.166570
667.816634	0.166643
668.020703	0.166823
668.224755	0.166850
668.428788	0.166853
668.632803	0.166952
668.836800	0.167173
669.040779	0.167133
669.244739	0.167158
669.448681	0.167102
669.652605	0.167163
669.856511	0.167423
670.060399	0.167509
670.264268	0.167500
670.468119	0.167543
670.671952	0.167407
670.875767	0.167556
671.079563	0.167617
671.283341	0.167657
671.487101	0.167830
671.690843	0.167979
671.894567	0.168006
672.098272	0.168036
672.301959	0.168288
672.505628	0.168377
672.709278	0.168437
672.912911	0.168405
673.116525	0.168325
673.320121	0.168382
673.523699	0.168246
673.727258	0.168398
673.930799	0.168709
674.134322	0.168710
674.337827	0.168852
674.541314	0.168998
674.744782	0.169152
674.948232	0.169196
675.151664	0.169368
675.355078	0.169662
675.558474	0.169583
675.761851	0.169443
675.965210	0.169583
676.168551	0.169675
676.371873	0.169703
676.575178	0.169739
676.778464	0.169849
676.981732	0.169673
677.184981	0.169566
677.388213	0.169710
677.591426	0.169960
677.794621	0.170083
677.997798	0.170215
678.200956	0.170264
678.404097	0.170445
678.607219	0.170715
678.810323	0.171079
679.013408	0.171192
679.216476	0.171229
679.419525	0.171364
679.622556	0.171217
679.825569	0.171246
680.028563	0.171345
680.231540	0.171531
680.434498	0.171441
680.637438	0.171567
680.840359	0.171868
681.043263	0.172016
681.246148	0.171973
681.449015	0.172166
681.651864	0.172352
681.854694	0.172548
682.057506	0.172344
682.260301	0.172554
682.463076	0.172543
682.665834	0.172232
682.868573	0.172468
683.071295	0.172642
683.273998	0.172551
683.476682	0.172597
683.679349	0.172456
683.881997	0.172433
684.084627	0.172289
684.287239	0.172154
684.489833	0.172164
684.692408	0.172080
684.894965	0.171841
685.097504	0.172060
685.300025	0.172119
685.502527	0.172321
685.705012	0.172509
685.907478	0.172944
686.109925	0.173006
686.312355	0.173266
686.514766	0.173389
686.717159	0.173729
686.919534	0.173852
687.121891	0.174019
687.324230	0.174280
687.526550	0.174594
687.728852	0.174296
687.931136	0.174590
688.133401	0.174676
688.335649	0.174672
688.537878	0.174917
688.740089	0.175149
688.942281	0.175051
689.144456	0.174916
689.346612	0.174746
689.548750	0.175159
689.750870	0.175334
689.952971	0.175263
690.155055	0.175350
690.357120	0.175141
690.559167	0.174887
690.761195	0.174867
690.963206	0.174709
691.165198	0.174800
691.367172	0.174477
691.569128	0.174025
691.771065	0.174067
691.972984	0.173920
692.174885	0.173954
692.376768	0.173955
692.578633	0.174115
692.780479	0.174312
692.982308	0.174394
693.184118	0.174912
693.385909	0.175439
693.587683	0.175743
693.789438	0.175912
693.991175	0.176101
694.192894	0.176380
694.394595	0.176305
694.596277	0.176238
694.797941	0.176159
694.999587	0.176016
695.201215	0.175803
695.402824	0.175757
695.604416	0.176043
695.805989	0.175869
696.007543	0.175733
696.209080	0.175722
696.410598	0.175979
696.612099	0.176273
696.813580	0.176280
697.015044	0.176350
697.216490	0.176466
697.417917	0.176470
697.619326	0.176627
697.820717	0.176782
698.022089	0.177113
698.223444	0.177088
698.424780	0.177004
698.626098	0.177073
698.827397	0.177262
699.028679	0.177391
699.229942	0.177398
699.431187	0.177474
699.632414	0.177676
699.833622	0.177493
700.034813	0.177667
700.235985	0.177862
700.437139	0.177994
700.638274	0.178094
700.839392	0.178106
701.040491	0.178245
701.241572	0.178534
701.442635	0.178561
701.643679	0.178769
701.844706	0.178828
702.045714	0.178822
702.246704	0.178826
702.447675	0.178881
702.648629	0.178805
702.849564	0.178815
703.050481	0.178875
703.251380	0.178828
703.452260	0.178830
703.653122	0.178925
703.853966	0.178988
704.054792	0.178937
704.255600	0.178738
704.456389	0.178922
704.657160	0.178884
704.857913	0.178792
705.058648	0.178829
705.259365	0.178971
705.460063	0.178777
705.660743	0.178839
705.861405	0.179024
706.062048	0.179341
706.262674	0.179413
706.463281	0.179418
706.663870	0.179385
706.864441	0.179580
707.064993	0.179583
707.265527	0.179586
707.466043	0.179393
707.666541	0.179346
707.867021	0.179393
708.067482	0.179398
708.267925	0.179530
708.468350	0.179597
708.668757	0.179591
708.869145	0.179573
709.069516	0.179748
709.269868	0.179797
709.470201	0.179612
709.670517	0.179432
709.870814	0.179500
710.071093	0.179331
710.271354	0.179370
710.471597	0.179080
710.671821	0.179153
710.872028	0.178949
711.072216	0.179107
711.272385	0.179172
711.472537	0.179076
711.672670	0.178755
711.872785	0.178659
712.072882	0.178596
712.272961	0.178726
712.473021	0.178450
712.673063	0.178647
712.873087	0.178479
713.073093	0.178637
713.273081	0.178512
713.473050	0.178454
713.673001	0.178556
713.872934	0.178304
714.072849	0.178238
714.272745	0.178399
714.472623	0.178166
714.672483	0.178051
714.872325	0.177964
715.072148	0.178186
715.271954	0.178218
715.471741	0.178312
715.671509	0.178448
715.871260	0.178745
716.070992	0.178589
716.270707	0.178813
716.470403	0.178790
716.670080	0.178710
716.869740	0.178679
717.069381	0.178856
717.269004	0.178783
717.468609	0.178819
717.668195	0.178625
717.867764	0.178623
718.067314	0.178474
718.266846	0.178443
718.466360	0.178437
718.665855	0.178129
718.865332	0.178187
719.064791	0.178220
719.264232	0.178291
719.463655	0.178339
719.663059	0.178300
719.862445	0.178214
720.061813	0.178382
720.261163	0.178424
720.460494	0.178773
720.659807	0.178526
720.859102	0.178495
721.058379	0.178140
721.257638	0.177752
721.456878	0.177803
721.656100	0.177714
721.855304	0.177616
722.054490	0.177516
722.253657	0.177325
722.452806	0.177307
722.651937	0.176894
722.851050	0.176868
723.050145	0.177028
723.249221	0.176763
723.448279	0.176783
723.647319	0.176686
723.846340	0.176602
724.045344	0.176510
724.244329	0.176404
724.443296	0.176241
724.642245	0.176274
724.841175	0.176084
725.040088	0.176136
725.238982	0.176182
725.437857	0.175921
725.636715	0.175732
725.835554	0.175594
726.034376	0.175247
726.233179	0.175470
726.431963	0.175292
726.630730	0.175286
726.829478	0.175112
727.028208	0.174671
727.226920	0.174695
727.425614	0.174754
727.624289	0.174615
727.822946	0.174769
728.021585	0.174557
728.220206	0.174656
728.418808	0.174256
728.617392	0.174174
728.815958	0.174373
729.014506	0.174282
729.213036	0.173942
729.411547	0.173977
729.610040	0.173974
729.808515	0.173815
730.006972	0.173841
730.205410	0.173948
730.403831	0.173818
730.602233	0.173577
730.800616	0.173486
730.998982	0.173613
731.197329	0.173450
731.395658	0.173407
731.593969	0.173605
731.792262	0.173354
731.990536	0.173302
732.188793	0.173344
732.387031	0.173461
732.585250	0.173489
732.783452	0.173234
732.981635	0.173255
733.179800	0.173225
733.377947	0.173246
733.576076	0.173039
733.774186	0.172962
733.972278	0.172819
734.170352	0.172914
734.368408	0.172714
734.566446	0.172760
734.764465	0.172752
734.962466	0.172655
735.160449	0.172640
735.358413	0.172833
735.556360	0.172769
735.754288	0.172675
735.952198	0.172455
736.150090	0.172403
736.347963	0.172442
736.545818	0.172364
736.743655	0.172051
736.941474	0.171675
737.139275	0.171452
737.337057	0.171364
737.534821	0.171296
737.732567	0.171096
737.930295	0.171296
738.128005	0.171261
738.325696	0.171171
738.523369	0.171347
738.721024	0.171304
738.918660	0.171440
739.116279	0.171499
739.313879	0.171748
739.511461	0.171713
739.709024	0.171425
739.906570	0.171266
740.104097	0.171070
740.301606	0.170959
740.499097	0.171183
740.696569	0.171065
740.894024	0.171159
741.091460	0.171071
741.288878	0.171099
741.486277	0.171039
741.683659	0.171060
741.881022	0.171267
742.078367	0.171268
742.275694	0.171110
742.473002	0.171169
742.670293	0.171207
742.867565	0.171133
743.064819	0.170972
743.262054	0.171110
743.459272	0.170953
743.656471	0.170721
743.853652	0.170855
744.050815	0.170827
744.247959	0.170521
744.445085	0.170251
744.642194	0.170179
744.839283	0.170010
745.036355	0.169730
745.233408	0.169852
745.430444	0.170043
745.627461	0.169586
745.824459	0.169443
746.021440	0.169413
746.218402	0.169310
746.415346	0.169019
746.612272	0.169189
746.809180	0.169218
747.006069	0.169022
747.202940	0.168540
747.399793	0.168514
747.596628	0.168397
747.793444	0.168138
747.990243	0.167918
748.187023	0.167676
748.383784	0.167397
748.580528	0.167064
748.777253	0.166883
748.973960	0.166946
749.170649	0.166784
749.367320	0.166493
749.563973	0.166493
749.760607	0.166339
749.957223	0.166519
750.153821	0.166447
750.350400	0.166638
750.546962	0.166492
750.743505	0.166123
750.940030	0.165932
751.136536	0.165960
751.333025	0.165897
751.529495	0.165802
751.725947	0.165587
751.922381	0.165503
752.118796	0.165451
752.315194	0.165474
752.511573	0.165330
752.707934	0.165266
752.904276	0.165085
753.100601	0.164765
753.296907	0.164682
753.493195	0.164602
753.689465	0.164254
753.885716	0.163927
754.081949	0.163858
754.278164	0.164016
754.474361	0.164160
754.670540	0.164117
754.866700	0.164220
755.062843	0.164134
755.258967	0.164156
755.455072	0.164285
755.651160	0.164305
755.847229	0.164165
756.043280	0.164048
756.239313	0.163853
756.435328	0.163811
756.631324	0.163775
756.827302	0.163867
757.023262	0.163691
757.219204	0.163569
757.415127	0.163455
757.611033	0.163317
757.806920	0.163110
758.002788	0.162633
758.198639	0.162455
758.394471	0.162351
758.590286	0.162321
758.786081	0.162014
758.981859	0.161733
759.177619	0.161519
759.373360	0.161363
759.569083	0.161578
759.764788	0.161675
759.960474	0.161597
760.156143	0.161283
760.351793	0.160993
760.547425	0.161011
760.743038	0.161057
760.938634	0.160980
761.134211	0.160607
761.329770	0.160258
761.525311	0.160342
761.720833	0.160151
761.916338	0.159984
762.111824	0.159972
762.307292	0.159898
762.502741	0.160049
762.698173	0.160026
762.893586	0.160526
763.088981	0.160291
763.284358	0.160104
763.479716	0.160076
763.675057	0.160164
763.870379	0.159843
764.065683	0.159950
764.260968	0.159589
764.456236	0.159520
764.651485	0.159319
764.846716	0.159552
765.041929	0.159558
765.237123	0.159610
765.432299	0.159538
765.627457	0.159670
765.822597	0.159552
766.017719	0.159592
766.212822	0.159555
766.407907	0.159415
766.602974	0.159229
766.798023	0.159094
766.993054	0.159001
767.188066	0.158951
767.383060	0.159017
767.578036	0.159019
767.772993	0.158996
767.967933	0.158760
768.162854	0.158537
768.357757	0.158553
768.552642	0.158586
768.747508	0.158528
768.942356	0.158427
769.137186	0.158212
769.331998	0.158166
769.526792	0.158173
769.721567	0.158205
769.916324	0.158377
770.111063	0.158139
770.305784	0.158058
770.500486	0.157809
770.695171	0.158025
770.889837	0.157826
771.084484	0.157858
771.279114	0.157689
771.473725	0.157955
771.668318	0.157703
771.862893	0.157958
772.057450	0.157929
772.251988	0.158162
772.446509	0.158009
772.641011	0.158065
772.835494	0.157868
773.029960	0.157845
773.224407	0.157639
773.418836	0.157575
773.613247	0.157485
773.807640	0.157390
774.002014	0.157198
774.196370	0.157079
774.390708	0.157061
774.585028	0.156814
774.779330	0.157000
774.973613	0.157039
775.167878	0.157259
775.362125	0.157198
775.556354	0.157270
775.750564	0.157448
775.944756	0.157662
776.138930	0.157794
776.333086	0.158187
776.527223	0.158299
776.721343	0.158222
776.915444	0.158192
777.109526	0.158202
777.303591	0.158290
777.497637	0.158173
777.691666	0.158009
777.885676	0.158032
778.079667	0.157955
778.273641	0.157962
778.467596	0.157938
778.661533	0.158071
778.855452	0.158126
779.049352	0.158294
779.243235	0.158602
779.437099	0.158733
779.630945	0.158695
779.824773	0.158652
780.018582	0.158433
780.212373	0.158448
780.406146	0.158426
780.599901	0.158407
780.793638	0.158431
780.987356	0.158183
781.181056	0.158292
781.374738	0.158292
781.568402	0.158335
781.762047	0.158500
781.955674	0.158707
782.149283	0.158534
782.342874	0.158460
782.536447	0.158397
782.730001	0.158407
782.923537	0.158306
783.117055	0.158371
783.310555	0.158467
783.504036	0.158198
783.697499	0.157968
783.890944	0.158057
784.084371	0.158181
784.277780	0.157961
784.471170	0.157983
784.664542	0.157808
784.857896	0.157776
785.051231	0.157857
785.244549	0.157937
785.437848	0.158187
785.631129	0.158211
785.824392	0.158203
786.017636	0.158260
786.210863	0.158267
786.404071	0.158354
786.597260	0.158250
786.790432	0.158019
786.983585	0.158137
787.176721	0.158181
787.369838	0.158182
787.562936	0.158284
787.756017	0.158395
787.949079	0.158581
788.142123	0.158607
788.335149	0.158636
788.528156	0.158934
788.721146	0.159233
788.914117	0.159071
789.107070	0.159158
789.300005	0.159338
789.492921	0.159436
789.685819	0.159525
789.878699	0.159856
790.071561	0.160078
790.264405	0.159944
790.457230	0.159691
790.650037	0.159828
790.842826	0.159838
791.035597	0.159681
791.228349	0.159733
791.421084	0.159696
791.613800	0.159643
791.806497	0.159576
791.999177	0.159754
792.191838	0.159704
792.384481	0.159762
792.577106	0.159857
792.769713	0.159961
792.962301	0.159875
793.154871	0.159817
793.347423	0.159797
793.539957	0.159935
793.732473	0.159719
793.924970	0.159738
794.117449	0.159762
794.309910	0.159766
794.502353	0.159584
794.694777	0.159672
794.887183	0.159861
795.079571	0.159950
795.271941	0.159918
795.464293	0.159939
795.656626	0.160117
795.848941	0.160340
796.041238	0.160395
796.233516	0.160634
796.425777	0.160662
796.618019	0.160771
796.810243	0.160855
797.002449	0.161249
797.194636	0.161583
797.386805	0.161587
797.578956	0.161809
797.771089	0.162258
797.963204	0.162440
798.155300	0.162624
798.347378	0.162599
798.539438	0.162790
798.731480	0.162914
798.923503	0.163085
799.115509	0.163454
799.307496	0.163457
799.499465	0.163393
799.691415	0.163616
799.883348	0.163946
800.075262	0.164354
800.267158	0.164554
800.459035	0.164637
800.650895	0.164710
800.842736	0.164966
801.034559	0.165083
801.226364	0.165355
801.418150	0.165269
801.609919	0.165390
801.801669	0.165273
801.993401	0.165217
802.185114	0.165241
802.376810	0.165162
802.568487	0.165091
802.760146	0.164960
802.951787	0.164692
803.143409	0.164770
803.335014	0.164672
803.526600	0.164695
803.718168	0.164699
803.909717	0.164681
804.101249	0.164787
804.292762	0.164918
804.484257	0.165128
804.675734	0.165417
804.867192	0.165608
805.058632	0.165729
805.250054	0.165941
805.441458	0.166187
805.632844	0.166425
805.824211	0.166551
806.015561	0.166619
806.206891	0.166685
806.398204	0.166973
806.589499	0.167021
806.780775	0.167237
806.972033	0.167372
807.163273	0.167579
807.354495	0.167781
807.545698	0.168048
807.736883	0.168314
807.928050	0.168462
808.119199	0.168518
808.310329	0.168737
808.501441	0.168598
808.692535	0.168800
808.883611	0.168909
809.074669	0.168990
809.265708	0.169144
809.456729	0.169270
809.647732	0.169423
809.838717	0.169594
810.029683	0.169886
810.220632	0.170752
810.411562	0.170974
810.602474	0.171163
810.793367	0.171520
810.984242	0.171865
811.175100	0.171892
811.365938	0.172439
811.556759	0.172538
811.747562	0.172857
811.938346	0.172771
812.129112	0.172992
812.319860	0.173155
812.510589	0.173242
812.701300	0.173337
812.891994	0.173766
813.082668	0.173642
813.273325	0.174058
813.463964	0.174161
813.654584	0.174312
813.845186	0.174427
814.035769	0.174665
814.226335	0.174848
814.416882	0.175197
814.607411	0.175379
814.797922	0.175600
814.988415	0.175569
815.178889	0.175606
815.369345	0.175657
815.559783	0.175832
815.750203	0.175940
815.940605	0.176125
816.130988	0.176047
816.321353	0.176225
816.511700	0.176483
816.702028	0.176695
816.892339	0.177027
817.082631	0.177304
817.272905	0.177464
817.463161	0.177663
817.653398	0.177659
817.843617	0.178129
818.033819	0.178221
818.224001	0.178165
818.414166	0.178316
818.604312	0.178487
818.794440	0.178534
818.984550	0.178895
819.174642	0.179250
819.364716	0.179590
819.554771	0.179476
819.744808	0.179711
819.934827	0.179995
820.124827	0.180252
820.314810	0.180320
820.504774	0.180547
820.694720	0.180335
820.884647	0.180333
821.074557	0.180499
821.264448	0.180945
821.454321	0.180939
821.644176	0.181222
821.834012	0.181384
822.023831	0.181584
822.213631	0.181742
822.403413	0.182211
822.593176	0.182578
822.782922	0.182669
822.972649	0.182616
823.162358	0.182886
823.352049	0.183031
823.541721	0.183078
823.731376	0.183314
823.921012	0.183573
824.110629	0.183917
824.300229	0.184008
824.489811	0.184122
824.679374	0.184543
824.868919	0.184692
825.058445	0.184947
825.247954	0.185283
825.437444	0.185651
825.626916	0.185937
825.816370	0.185796
826.005806	0.185979
826.195223	0.186495
826.384622	0.187003
826.574003	0.187548
826.763366	0.187751
826.952711	0.187857
827.142037	0.187893
827.331345	0.188013
827.520635	0.188291
827.709906	0.188435
827.899160	0.188687
828.088395	0.188489
828.277612	0.188550
828.466810	0.188825
828.655991	0.189002
828.845153	0.189246
829.034297	0.189422
829.223423	0.189832
829.412531	0.190342
829.601620	0.190595
829.790691	0.191021
829.979744	0.191232
830.168779	0.191717
830.357795	0.192231
830.546793	0.192710
830.735773	0.193080
830.924735	0.193493
831.113679	0.193751
831.302604	0.194134
831.491511	0.194319
831.680400	0.195059
831.869271	0.195039
832.058123	0.195463
832.246957	0.195797
832.435773	0.196147
832.624571	0.196397
832.813351	0.196532
833.002112	0.196647
833.190855	0.197082
833.379580	0.196963
833.568287	0.197678
833.756975	0.197916
833.945645	0.197946
834.134297	0.198106
834.322931	0.198087
834.511547	0.198356
834.700144	0.198848
834.888723	0.198925
835.077284	0.199182
835.265826	0.199036
835.454351	0.199325
835.642857	0.199497
835.831345	0.199885
836.019815	0.200389
836.208266	0.200546
836.396699	0.200682
836.585114	0.201098
836.773511	0.201428
836.961890	0.202015
837.150250	0.201950
837.338592	0.202242
837.526916	0.202649
837.715222	0.202894
837.903510	0.203423
838.091779	0.203630
838.280030	0.203728
838.468263	0.204058
838.656477	0.203918
838.844674	0.204043
839.032852	0.204583
839.221012	0.204872
839.409153	0.205105
839.597277	0.205124
839.785382	0.205676
839.973469	0.206338
840.161538	0.206564
840.349589	0.207098
840.537621	0.207831
840.725635	0.208013
840.913631	0.208089
841.101609	0.208590
841.289568	0.209164
841.477509	0.209229
841.665432	0.209407
841.853337	0.209614
842.041224	0.209762
842.229092	0.209972
842.416942	0.210301
842.604774	0.210650
842.792588	0.210763
842.980383	0.211047
843.168160	0.211034
843.355919	0.210955
843.543660	0.211386
843.731382	0.211797
843.919087	0.211995
844.106773	0.212249
844.294441	0.212681
844.482090	0.213121
844.669722	0.213160
844.857335	0.213519
845.044930	0.213878
845.232507	0.214058
845.420065	0.214345
845.607605	0.214746
845.795127	0.214955
845.982631	0.215022
846.170117	0.214859
846.357584	0.215230
846.545033	0.215778
846.732464	0.216075
846.919877	0.216430
847.107272	0.216799
847.294648	0.217010
847.482006	0.217213
847.669346	0.217587
847.856667	0.218112
848.043971	0.218316
848.231256	0.218594
848.418523	0.218755
848.605771	0.218878
848.793002	0.218921
848.980214	0.219232
849.167408	0.220000
849.354584	0.220281
849.541742	0.220375
849.728881	0.220898
849.916002	0.221245
850.103105	0.222200
850.290190	0.222725
850.477256	0.223148
850.664304	0.223012
850.851334	0.223037
851.038346	0.223339
851.225340	0.224055
851.412315	0.224517
851.599272	0.224747
851.786211	0.224928
851.973132	0.225329
852.160034	0.225694
852.346918	0.226557
852.533784	0.226878
852.720632	0.227015
852.907462	0.227415
853.094273	0.227681
853.281066	0.227837
853.467841	0.227529
853.654598	0.227497
853.841336	0.227682
854.028056	0.227904
854.214758	0.228004
854.401442	0.228370
854.588107	0.228360
854.774755	0.228643
854.961384	0.228905
855.147995	0.229454
855.334587	0.229974
855.521162	0.230264
855.707718	0.230463
855.894256	0.230669
856.080775	0.231089
856.267277	0.231274
856.453760	0.231509
856.640225	0.232078
856.826672	0.232279
857.013101	0.232368
857.199511	0.232465
857.385903	0.232825
857.572277	0.233416
857.758633	0.233611
857.944970	0.233871
858.131290	0.234019
858.317591	0.233960
858.503873	0.234196
858.690138	0.234300
858.876384	0.234488
859.062612	0.234726
859.248822	0.234932
859.435014	0.235206
859.621188	0.235606
859.807343	0.235324
859.993480	0.235585
860.179599	0.236042
860.365699	0.236284
860.551781	0.236588
860.737846	0.236491
860.923891	0.236646
861.109919	0.236688
861.295929	0.236595
861.481920	0.237219
861.667893	0.237399
861.853848	0.237576
862.039784	0.238380
862.225702	0.238671
862.411603	0.239065
862.597484	0.239064
862.783348	0.239116
862.969193	0.239395
863.155021	0.239387
863.340830	0.239525
863.526620	0.239620
863.712393	0.239391
863.898147	0.239694
864.083883	0.239931
864.269601	0.240095
864.455301	0.240768
864.640982	0.241128
864.826645	0.241747
865.012290	0.242029
865.197917	0.242104
865.383526	0.242236
865.569116	0.242427
865.754688	0.242685
865.940242	0.243030
866.125777	0.242950
866.311295	0.243081
866.496794	0.243162
866.682275	0.243403
866.867737	0.243989
867.053182	0.244585
867.238608	0.245248
867.424016	0.245762
867.609406	0.245768
867.794778	0.246098
867.980131	0.246475
868.165466	0.247086
868.350783	0.247379
868.536082	0.247600
868.721362	0.247295
868.906625	0.247027
869.091869	0.247127
869.277094	0.247532
869.462302	0.247647
869.647491	0.247738
869.832662	0.247584
870.017815	0.247989
870.202950	0.247960
870.388066	0.248387
870.573165	0.248503
870.758245	0.248439
870.943306	0.248815
871.128350	0.248888
871.313375	0.249252
871.498382	0.249259
871.683371	0.249129
871.868342	0.248924
872.053294	0.249251
872.238229	0.249347
872.423144	0.249842
872.608042	0.249843
872.792922	0.250190
872.977783	0.250517
873.162626	0.250404
873.347451	0.250677
873.532258	0.251280
873.717046	0.251282
873.901816	0.251551
874.086568	0.251588
874.271302	0.251958
874.456017	0.252270
874.640715	0.252218
874.825394	0.252514
875.010055	0.252367
875.194697	0.252228
875.379322	0.252188
875.563928	0.252422
875.748516	0.252394
875.933085	0.252445
876.117637	0.252390
876.302170	0.252389
876.486685	0.253136
876.671182	0.253411
876.855661	0.254063
877.040121	0.254007
877.224563	0.253971
877.408987	0.254144
877.593393	0.254154
877.777780	0.253893
877.962150	0.254073
878.146501	0.253821
878.330833	0.253940
878.515148	0.253731
878.699444	0.254009
878.883722	0.254067
879.067982	0.254062
879.252224	0.253925
879.436447	0.254545
879.620653	0.254757
879.804840	0.255231
879.989008	0.255525
880.173159	0.255385
880.357291	0.255951
880.541405	0.256691
880.725501	0.257142
880.909579	0.257981
881.093638	0.257854
881.277680	0.258076
881.461703	0.258364
881.645707	0.258696
881.829694	0.259222
882.013662	0.259420
882.197612	0.259369
882.381544	0.259358
882.565458	0.258892
882.749353	0.259463
882.933230	0.259375
883.117089	0.258874
883.300930	0.258900
883.484753	0.258997
883.668557	0.258833
883.852343	0.258469
884.036111	0.258523
884.219861	0.258443
884.403592	0.258322
884.587305	0.258826
884.771000	0.258718
884.954677	0.258720
885.138335	0.258398
885.321976	0.258184
885.505598	0.258266
885.689201	0.257904
885.872787	0.257779
886.056354	0.258152
886.239904	0.257731
886.423434	0.257775
886.606947	0.257584
886.790442	0.257681
886.973918	0.257459
887.157376	0.257414
887.340816	0.257509
887.524237	0.257943
887.707641	0.257520
887.891026	0.257773
888.074393	0.257952
888.257741	0.258213
888.441072	0.258334
888.624384	0.259005
888.807678	0.259173
888.990954	0.259432
889.174211	0.259523
889.357451	0.259297
889.540672	0.258863
889.723875	0.258874
889.907059	0.258653
890.090226	0.258462
890.273374	0.258458
890.456504	0.258645
890.639616	0.258473
890.822709	0.258661
891.005785	0.258951
891.188842	0.259022
891.371881	0.259364
891.554901	0.259042
891.737904	0.259137
891.920888	0.258972
892.103854	0.258491
892.286802	0.258472
892.469731	0.257900
892.652643	0.257998
892.835536	0.258115
893.018410	0.257543
893.201267	0.257841
893.384106	0.257541
893.566926	0.257359
893.749728	0.257209
893.932511	0.257633
894.115277	0.257899
894.298024	0.257619
894.480753	0.257596
894.663464	0.257299
894.846157	0.257178
895.028831	0.257542
895.211487	0.257704
895.394125	0.258070
895.576745	0.257313
895.759346	0.256745
895.941930	0.256701
896.124495	0.256333
896.307041	0.256662
896.489570	0.256211
896.672080	0.255668
896.854573	0.255283
897.037046	0.254591
897.219502	0.254609
897.401940	0.254668
897.584359	0.254338
897.766760	0.254318
897.949143	0.253516
898.131507	0.253512
898.313854	0.253523
898.496182	0.253304
898.678492	0.253632
898.860783	0.253521
899.043057	0.253341
899.225312	0.253457
899.407549	0.252908
899.589768	0.253224
899.771968	0.252996
899.954151	0.252737
900.136315	0.252458
900.318461	0.252362
900.500588	0.252086
900.682698	0.251796
900.864789	0.251273
901.046862	0.251223
901.228917	0.250795
901.410953	0.250644
901.592971	0.250681
901.774972	0.250649
901.956953	0.250193
902.138917	0.250238
902.320862	0.249863
902.502790	0.249586
902.684699	0.249116
902.866589	0.249386
903.048462	0.249294
903.230316	0.249171
903.412152	0.248877
903.593970	0.248711
903.775770	0.248206
903.957551	0.248015
904.139314	0.247963
904.321059	0.248514
904.502786	0.247963
904.684494	0.247725
904.866185	0.247407
905.047857	0.247014
905.229510	0.246784
905.411146	0.246393
905.592763	0.246793
905.774363	0.247026
905.955943	0.246436
906.137506	0.246379
906.319051	0.246215
906.500577	0.245968
906.682085	0.246635
906.863575	0.246434
907.045046	0.246790
907.226500	0.246509
907.407935	0.245624
907.589352	0.245469
907.770750	0.245217
907.952131	0.244316
908.133493	0.243936
908.314837	0.242895
908.496163	0.242841
908.677470	0.241878
908.858760	0.241836
909.040031	0.241583
909.221284	0.241273
909.402518	0.241097
909.583735	0.241357
909.764933	0.241003
909.946113	0.240731
910.127275	0.240164
910.308418	0.240369
910.489544	0.239586
910.670651	0.239385
910.851740	0.239494
911.032810	0.239201
911.213863	0.239364
911.394897	0.239088
911.575913	0.238944
911.756911	0.238625
911.937890	0.238215
912.118851	0.238166
912.299794	0.237879
912.480719	0.237106
912.661626	0.236797
912.842514	0.235796
913.023384	0.235297
913.204236	0.234554
913.385070	0.233880
913.565886	0.233400
913.746683	0.232949
913.927462	0.232972
914.108223	0.232569
914.288965	0.232043
914.469690	0.232007
914.650396	0.232233
914.831084	0.232299
915.011754	0.232392
915.192405	0.232278
915.373038	0.232090
915.553653	0.231673
915.734250	0.231433
915.914829	0.231487
916.095389	0.231241
916.275931	0.230304
916.456455	0.229650
916.636961	0.229288
916.817448	0.228985
916.997917	0.228263
917.178368	0.227530
917.358801	0.227387
917.539216	0.226387
917.719612	0.225201
917.899990	0.225329
918.080350	0.224960
918.260692	0.224296
918.441015	0.223440
918.621320	0.223286
918.801607	0.222335
918.981876	0.220988
919.162127	0.220769
919.342359	0.220759
919.522573	0.219889
919.702769	0.219437
919.882947	0.219408
920.063106	0.219266
920.243247	0.218070
920.423370	0.217521
920.603475	0.217608
920.783562	0.216861
920.963630	0.216314
921.143680	0.215753
921.323712	0.215153
921.503725	0.214104
921.683721	0.213280
921.863698	0.212959
922.043657	0.213125
922.223598	0.212640
922.403520	0.211819
922.583424	0.211563
922.763311	0.210580
922.943178	0.209995
923.123028	0.209866
923.302859	0.209387
923.482673	0.209136
923.662467	0.208341
923.842244	0.207284
924.022003	0.206849
924.201743	0.205840
924.381465	0.205605
924.561169	0.204960
924.740854	0.204260
924.920522	0.203634
925.100171	0.202888
925.279802	0.202569
925.459414	0.201930
925.639009	0.201632
925.818585	0.201600
925.998143	0.201504
926.177683	0.201000
926.357205	0.199969
926.536708	0.200027
926.716193	0.199388
926.895660	0.198800
927.075109	0.198698
927.254539	0.198185
927.433951	0.197656
927.613345	0.196544
927.792721	0.196402
927.972079	0.196150
928.151418	0.194841
928.330739	0.193866
928.510042	0.192940
928.689327	0.192502
928.868593	0.192427
929.047841	0.191314
929.227071	0.190657
929.406283	0.189514
929.585476	0.188475
929.764652	0.187736
929.943809	0.187839
930.122948	0.186843
930.302068	0.185104
930.481171	0.183531
930.660255	0.182827
930.839321	0.182328
931.018369	0.181402
931.197398	0.181443
931.376409	0.180670
931.555402	0.179056
931.734377	0.178878
931.913334	0.179245
932.092272	0.178492
932.271192	0.178534
932.450094	0.178535
932.628978	0.178581
932.807844	0.177445
932.986691	0.176167
933.165520	0.176349
933.344331	0.175870
933.523123	0.175151
933.701898	0.175680
933.880654	0.175103
934.059392	0.173716
934.238111	0.172377
934.416813	0.171209
934.595496	0.171040
934.774161	0.169995
934.952808	0.169260
935.131437	0.168405
935.310047	0.166599
935.488639	0.165067
935.667213	0.164190
935.845769	0.163674
936.024306	0.163276
936.202825	0.163106
936.381326	0.163101
936.559809	0.161968
936.738274	0.160714
936.916720	0.160151
937.095148	0.159178
937.273558	0.158680
937.451950	0.157992
937.630323	0.157705
937.808678	0.156992
937.987015	0.154919
938.165334	0.154727
938.343635	0.154739
938.521917	0.154207
938.700181	0.154060
938.878427	0.152931
939.056655	0.151630
939.234864	0.150730
939.413055	0.150241
939.591228	0.150727
939.769383	0.149503
939.947519	0.148324
940.125638	0.148155
940.303738	0.146982
940.481820	0.147343
940.659883	0.147322
940.837929	0.147294
941.015956	0.145766
941.193965	0.144751
941.371955	0.144517
941.549928	0.143434
941.727882	0.142660
941.905818	0.141822
942.083736	0.140633
942.261636	0.139933
942.439517	0.138424
942.617380	0.139082
942.795225	0.138499
942.973052	0.136921
943.150860	0.136333
943.328651	0.134349
943.506423	0.133453
943.684176	0.132900
943.861912	0.131967
944.039629	0.131713
944.217328	0.129922
944.395009	0.129579
944.572672	0.129643
944.750317	0.129523
944.927943	0.129240
945.105551	0.129561
945.283141	0.127796
945.460712	0.127375
945.638265	0.125584
945.815801	0.125063
945.993317	0.123198
946.170816	0.121004
946.348297	0.119153
946.525759	0.118485
946.703203	0.117230
946.880629	0.117484
947.058036	0.116767
947.235425	0.117463
947.412797	0.116965
947.590149	0.116763
947.767484	0.116226
947.944800	0.116927
948.122099	0.116271
948.299379	0.115624
948.476640	0.114464
948.653884	0.112950
948.831109	0.112236
949.008316	0.111015
949.185505	0.110249
949.362676	0.111832
949.539828	0.109754
949.716962	0.108597
949.894078	0.109038
950.071176	0.108350
950.248256	0.110030
950.425317	0.109259
950.602360	0.108926
950.779385	0.108165
950.956391	0.107132
951.133380	0.108377
951.310350	0.107916
951.487302	0.107068
951.664235	0.106416
951.841151	0.104591
952.018048	0.102872
952.194927	0.102504
952.371788	0.103097
952.548631	0.102022
952.725455	0.102502
952.902261	0.102388
953.079049	0.101336
953.255819	0.101372
953.432570	0.099894
953.609303	0.099615
953.786018	0.100496
953.962715	0.099152
954.139394	0.100255
954.316054	0.098759
954.492696	0.099086
954.669320	0.099217
954.845926	0.100365
955.022513	0.101094
955.199083	0.101610
955.375634	0.099670
955.552166	0.100104
955.728681	0.099058
955.905177	0.098442
956.081655	0.097604
956.258115	0.096290
956.434557	0.094207
956.610980	0.093457
956.787385	0.093478
956.963772	0.095369
957.140141	0.094684
957.316492	0.092615
957.492824	0.092720
957.669138	0.092289
957.845434	0.092901
958.021712	0.094538
958.197971	0.096054
958.374212	0.096834
958.550435	0.095107
958.726640	0.096746
958.902826	0.098473
959.078995	0.099193
959.255145	0.097975
959.431277	0.096691
959.607390	0.096292
959.783486	0.096611
959.959563	0.096625
960.135622	0.096246
960.311662	0.094582
960.487685	0.096010
960.663689	0.095092
960.839675	0.098838
961.015643	0.100529
961.191593	0.101218
961.367524	0.101233
961.543437	0.098732
961.719332	0.099528
961.895209	0.099343
962.071067	0.098501
962.246907	0.097471
962.422730	0.095188
962.598533	0.094839
962.774319	0.094241
962.950086	0.093135
963.125835	0.093878
963.301566	0.093850
963.477279	0.095438
963.652973	0.093710
963.828650	0.094318
964.004308	0.094178
964.179947	0.093749
964.355569	0.093551
964.531172	0.093274
964.706757	0.094229
964.882324	0.093990
965.057873	0.093432
965.233403	0.093571
965.408916	0.094831
965.584410	0.094967
965.759885	0.095315
965.935343	0.094395
966.110782	0.096418
966.286203	0.096581
966.461606	0.096260
966.636991	0.094832
966.812357	0.093364
966.987705	0.091875
967.163035	0.091440
967.338347	0.093412
967.513641	0.093978
967.688916	0.090510
967.864173	0.089485
968.039412	0.089237
968.214632	0.090734
968.389835	0.093631
968.565019	0.094080
968.740185	0.095505
968.915333	0.093840
969.090462	0.093427
969.265573	0.095633
969.440667	0.095920
969.615741	0.097161
969.790798	0.096126
969.965836	0.094251
970.140856	0.094692
970.315858	0.093837
970.490842	0.094129
970.665808	0.094251
970.840755	0.094084
971.015684	0.094171
971.190595	0.091834
971.365487	0.093552
971.540362	0.095316
971.715218	0.094933
971.890056	0.096465
972.064875	0.095147
972.239677	0.096745
972.414460	0.097393
972.589225	0.098641
972.763972	0.100492
972.938700	0.099926
973.113411	0.099013
973.288103	0.101569
973.462777	0.101588
973.637432	0.102568
973.812070	0.102624
973.986689	0.102421
974.161290	0.100118
974.335873	0.100780
974.510437	0.099193
974.684984	0.099748
974.859512	0.098903
975.034022	0.097311
975.208513	0.096770
975.382987	0.095773
975.557442	0.094672
975.731879	0.095302
975.906298	0.095813
976.080698	0.097098
976.255080	0.096194
976.429445	0.094915
976.603790	0.096261
976.778118	0.097912
976.952427	0.098569
977.126719	0.096842
977.300992	0.096877
977.475246	0.096403
977.649483	0.096944
977.823701	0.096408
977.997901	0.095944
978.172083	0.096679
978.346247	0.097139
978.520392	0.095777
978.694519	0.097362
978.868628	0.097065
979.042719	0.097540
979.216791	0.096910
979.390845	0.097412
979.564882	0.096118
979.738899	0.094414
979.912899	0.091789
980.086880	0.093557
980.260843	0.094238
980.434788	0.094920
980.608715	0.093937
980.782623	0.092974
980.956514	0.093708
981.130386	0.096163
981.304240	0.097743
981.478075	0.099435
981.651892	0.097023
981.825692	0.097290
981.999472	0.098886
982.173235	0.098213
982.346980	0.099277
982.520706	0.098265
982.694414	0.097426
982.868104	0.096602
983.041775	0.096639
983.215428	0.098852
983.389064	0.098821
983.562680	0.097641
983.736279	0.098231
983.909860	0.098119
984.083422	0.098893
984.256966	0.099595
984.430491	0.098910
984.603999	0.098717
984.777488	0.096930
984.950959	0.097596
985.124412	0.098479
985.297847	0.099651
985.471263	0.099291
985.644661	0.100391
985.818041	0.099180
985.991403	0.098721
986.164747	0.098359
986.338072	0.099012
986.511379	0.096748
986.684668	0.095887
986.857938	0.095984
987.031191	0.094200
987.204425	0.092794
987.377641	0.093145
987.550839	0.094431
987.724018	0.093297
987.897179	0.092493
988.070322	0.093916
988.243447	0.093008
988.416554	0.091271
988.589642	0.093405
988.762712	0.093254
988.935764	0.093748
989.108798	0.092652
989.281813	0.094185
989.454811	0.097257
989.627790	0.096889
989.800751	0.098034
989.973693	0.098672
990.146617	0.097856
990.319524	0.098644
990.492412	0.098255
990.665281	0.100626
990.838133	0.101245
991.010966	0.098656
991.183781	0.098615
991.356578	0.099517
991.529356	0.098951
991.702117	0.097927
991.874859	0.097245
992.047583	0.095399
992.220288	0.093730
992.392976	0.092543
992.565645	0.093045
992.738296	0.092927
992.910929	0.091799
993.083543	0.090687
993.256139	0.091295
993.428718	0.090219
993.601277	0.092049
993.773819	0.092021
993.946342	0.091032
994.118848	0.090921
994.291335	0.092157
994.463803	0.091564
994.636254	0.092434
994.808686	0.092861
994.981100	0.094465
995.153496	0.094928
995.325874	0.095694
995.498233	0.096277
995.670574	0.095347
995.842897	0.094969
996.015202	0.096174
996.187488	0.096776
996.359757	0.096294
996.532007	0.096931
996.704239	0.096889
996.876452	0.096180
997.048648	0.097105
997.220825	0.096372
997.392984	0.096348
997.565124	0.096260
997.737247	0.096793
997.909351	0.098329
998.081437	0.097094
998.253505	0.097027
998.425554	0.096650
998.597586	0.097547
998.769599	0.098842
998.941594	0.099337
999.113571	0.099788
999.285529	0.100353
999.457469	0.100630
999.629391	0.100780
999.801295	0.099229
999.973181	0.099423
1000.145048	0.098223
1000.316897	0.098309
1000.488728	0.097095
1000.660541	0.097043
1000.832335	0.095514
1001.004111	0.095221
1001.175869	0.094692
1001.347609	0.096044
1001.519331	0.095539
1001.691034	0.095600
1001.862719	0.096185
1002.034386	0.095850
1002.206035	0.093766
1002.377665	0.094559
1002.549277	0.093324
1002.720871	0.092178
1002.892447	0.090381
1003.064004	0.091361
1003.235544	0.090553
1003.407065	0.089068
1003.578568	0.090294
1003.750052	0.092035
1003.921519	0.091129
1004.092967	0.091971
1004.264397	0.092497
1004.435809	0.092973
1004.607202	0.092073
1004.778577	0.092626
1004.949934	0.092425
1005.121273	0.092417
1005.292594	0.090696
1005.463896	0.090458
1005.635180	0.088734
1005.806446	0.089510
1005.977694	0.090397
1006.148923	0.091204
1006.320135	0.090619
1006.491328	0.092039
1006.662503	0.090899
1006.833659	0.090917
1007.004798	0.090921
1007.175918	0.091969
1007.347020	0.091061
1007.518103	0.090940
1007.689169	0.090889
1007.860216	0.091017
1008.031245	0.090977
1008.202256	0.090417
1008.373248	0.090260
1008.544223	0.089935
1008.715179	0.090168
1008.886117	0.091266
1009.057036	0.091758
1009.227938	0.091590
1009.398821	0.092778
1009.569686	0.092171
1009.740533	0.092936
1009.911361	0.094575
1010.082172	0.096041
1010.252964	0.097936
1010.423738	0.097724
1010.594493	0.099435
1010.765231	0.100468
1010.935950	0.098669
1011.106651	0.099497
1011.277334	0.098420
1011.447998	0.097316
1011.618645	0.095236
1011.789273	0.093567
1011.959882	0.094581
1012.130474	0.092510
1012.301048	0.090987
1012.471603	0.091250
1012.642140	0.091120
1012.812658	0.091982
1012.983159	0.092761
1013.153641	0.093493
1013.324105	0.093371
1013.494551	0.092364
1013.664979	0.091735
1013.835388	0.090807
1014.005779	0.090209
1014.176152	0.089851
1014.346507	0.089850
1014.516843	0.089483
1014.687162	0.091001
1014.857462	0.092194
1015.027744	0.092394
1015.198007	0.092410
1015.368252	0.094515
1015.538480	0.095015
1015.708689	0.095455
1015.878879	0.096620
1016.049052	0.097097
1016.219206	0.096723
1016.389342	0.095158
1016.559460	0.096143
1016.729559	0.095264
1016.899641	0.093619
1017.069704	0.094132
1017.239749	0.094718
1017.409775	0.093938
1017.579784	0.092064
1017.749774	0.091463
1017.919746	0.092529
1018.089700	0.091937
1018.259635	0.092414
1018.429553	0.091537
1018.599452	0.091731
1018.769333	0.091883
1018.939195	0.091693
1019.109040	0.092843
1019.278866	0.092235
1019.448674	0.090830
1019.618464	0.090093
1019.788235	0.090498
1019.957989	0.091264
1020.127724	0.090284
1020.297441	0.089222
1020.467139	0.087914
1020.636820	0.087637
1020.806482	0.088747
1020.976126	0.089049
1021.145752	0.089485
1021.315359	0.090218
1021.484948	0.090424
1021.654519	0.092423
1021.824072	0.092258
1021.993607	0.092953
1022.163123	0.091598
1022.332621	0.092163
1022.502101	0.091448
1022.671563	0.090292
1022.841007	0.090305
1023.010432	0.090205
1023.179839	0.087283
1023.349228	0.085960
1023.518598	0.086768
1023.687951	0.087597
1023.857285	0.085840
1024.026601	0.085166
1024.195899	0.086680
1024.365178	0.086945
1024.534439	0.087095
1024.703682	0.090281
1024.872907	0.092270
1025.042114	0.090533
1025.211302	0.091154
1025.380472	0.090140
1025.549624	0.090730
1025.718758	0.090156
1025.887873	0.090211
1026.056970	0.089167
1026.226049	0.087439
1026.395110	0.087659
1026.564153	0.087943
1026.733177	0.088277
1026.902183	0.089205
1027.071171	0.089363
1027.240141	0.089195
1027.409092	0.089367
1027.578026	0.090078
1027.746940	0.091423
1027.915837	0.091328
1028.084716	0.091238
1028.253576	0.090753
1028.422418	0.092639
1028.591242	0.093821
1028.760048	0.093902
1028.928835	0.093997
1029.097604	0.094456
1029.266355	0.094437
1029.435088	0.092878
1029.603803	0.092540
1029.772499	0.092756
1029.941177	0.091981
1030.109837	0.091096
1030.278478	0.091393
1030.447102	0.089386
1030.615707	0.089166
1030.784294	0.087374
1030.952863	0.089760
1031.121413	0.091751
1031.289945	0.092772
1031.458460	0.092768
1031.626955	0.091348
1031.795433	0.091340
1031.963892	0.092076
1032.132334	0.092174
1032.300756	0.093265
1032.469161	0.092391
1032.637548	0.092223
1032.805916	0.091058
1032.974266	0.089522
1033.142598	0.092533
1033.310911	0.091087
1033.479207	0.091509
1033.647484	0.092169
1033.815743	0.092063
1033.983983	0.090286
1034.152206	0.089831
1034.320410	0.091184
1034.488596	0.093318
1034.656764	0.091015
1034.824914	0.092907
1034.993045	0.093698
1035.161158	0.093121
1035.329253	0.093124
1035.497330	0.093397
1035.665388	0.093408
1035.833428	0.092606
1036.001450	0.091685
1036.169454	0.092094
1036.337440	0.090991
1036.505407	0.089161
1036.673356	0.090380
1036.841287	0.089980
1037.009200	0.091129
1037.177094	0.090382
1037.344970	0.089644
1037.512828	0.089650
1037.680668	0.090742
1037.848489	0.091092
1038.016293	0.091985
1038.184078	0.090583
1038.351845	0.090499
1038.519593	0.090071
1038.687324	0.091175
1038.855036	0.090676
1039.022730	0.090360
1039.190406	0.089046
1039.358063	0.089642
1039.525702	0.090473
1039.693323	0.088475
1039.860926	0.087147
1040.028511	0.086986
1040.196077	0.087252
1040.363625	0.088687
1040.531155	0.088832
1040.698667	0.090179
1040.866161	0.088705
1041.033636	0.087670
1041.201093	0.089230
1041.368532	0.090491
1041.535952	0.090595
1041.703355	0.089869
1041.870739	0.088318
1042.038105	0.088817
1042.205452	0.087765
1042.372782	0.088048
1042.540093	0.087591
1042.707386	0.089031
1042.874661	0.088168
1043.041918	0.087284
1043.209156	0.086840
1043.376376	0.086848
1043.543578	0.085517
1043.710762	0.086941
1043.877927	0.087360
1044.045074	0.086376
1044.212203	0.086148
1044.379314	0.086699
1044.546407	0.087365
1044.713481	0.087078
1044.880537	0.086957
1045.047575	0.089620
1045.214595	0.087547
1045.381596	0.087755
1045.548579	0.088751
1045.715544	0.087809
1045.882491	0.086864
1046.049420	0.086758
1046.216330	0.087514
1046.383222	0.087963
1046.550096	0.085988
1046.716951	0.088031
1046.883789	0.087366
1047.050608	0.087896
1047.217409	0.089026
1047.384192	0.091209
1047.550956	0.090591
1047.717703	0.092700
1047.884431	0.093183
1048.051140	0.093220
1048.217832	0.091383
1048.384505	0.092670
1048.551161	0.093070
1048.717798	0.093400
1048.884416	0.092645
1049.051017	0.093415
1049.217599	0.091781
1049.384163	0.092833
1049.550709	0.092548
1049.717237	0.093627
1049.883746	0.092145
1050.050237	0.091575
1050.216710	0.089609
1050.383165	0.091040
1050.549601	0.090625
1050.716019	0.090437
1050.882420	0.089631
1051.048801	0.089849
1051.215165	0.089009
1051.381510	0.090072
1051.547837	0.088987
1051.714146	0.090796
1051.880437	0.088879
1052.046709	0.087799
1052.212964	0.088129
1052.379200	0.088685
1052.545417	0.087338
1052.711617	0.088091
1052.877798	0.087290
1053.043961	0.089109
1053.210106	0.085610
1053.376233	0.086934
1053.542341	0.088849
1053.708432	0.087504
1053.874504	0.086613
1054.040557	0.087196
1054.206593	0.087588
1054.372610	0.086366
1054.538609	0.084174
1054.704590	0.085925
1054.870553	0.085049
1055.036497	0.082500
1055.202424	0.084590
1055.368331	0.083924
1055.534221	0.086014
1055.700093	0.086316
1055.865946	0.087440
1056.031781	0.089004
1056.197598	0.088541
1056.363397	0.086966
1056.529177	0.088086
1056.694939	0.085507
1056.860683	0.085192
1057.026409	0.083934
1057.192116	0.084427
1057.357806	0.083439
1057.523477	0.083817
1057.689130	0.084660
1057.854764	0.086324
1058.020381	0.087484
1058.185979	0.089029
1058.351559	0.089053
1058.517120	0.087650
1058.682664	0.085617
1058.848189	0.087256
1059.013696	0.086277
1059.179185	0.084954
1059.344656	0.083426
1059.510108	0.083555
1059.675542	0.082212
1059.840958	0.083589
1060.006356	0.084509
1060.171735	0.084679
1060.337096	0.085370
1060.502439	0.085623
1060.667764	0.086592
1060.833071	0.087445
1060.998359	0.085215
1061.163629	0.087349
1061.328881	0.086571
1061.494115	0.086218
1061.659330	0.085995
1061.824527	0.086170
1061.989706	0.085431
1062.154867	0.085745
1062.320010	0.085348
1062.485134	0.086615
1062.650240	0.085096
1062.815328	0.084216
1062.980398	0.084484
1063.145449	0.084778
1063.310482	0.083064
1063.475497	0.082965
1063.640494	0.084301
1063.805473	0.083898
1063.970433	0.084016
1064.135375	0.086507
1064.300299	0.086315
1064.465204	0.085986
1064.630092	0.086006
1064.794961	0.086460
1064.959812	0.086183
1065.124645	0.085246
1065.289459	0.086209
1065.454256	0.086392
1065.619034	0.083894
1065.783793	0.086592
1065.948535	0.086027
1066.113258	0.085549
1066.277964	0.086661
1066.442651	0.089046
1066.607319	0.089677
1066.771970	0.089427
1066.936602	0.089591
1067.101216	0.089549
1067.265812	0.088913
1067.430389	0.089164
1067.594949	0.089833
1067.759490	0.090439
1067.924013	0.088833
1068.088518	0.088691
1068.253004	0.088595
1068.417472	0.088286
1068.581922	0.089029
1068.746354	0.088679
1068.910768	0.090950
1069.075163	0.089447
1069.239540	0.088926
1069.403899	0.089897
1069.568240	0.088775
1069.732562	0.090560
1069.896866	0.088711
1070.061152	0.088447
1070.225420	0.087090
1070.389670	0.086982
1070.553901	0.087722
1070.718114	0.086520
1070.882309	0.085925
1071.046486	0.084877
1071.210644	0.085336
1071.374784	0.087400
1071.538906	0.088834
1071.703010	0.088392
1071.867096	0.086440
1072.031163	0.087520
1072.195212	0.087809
1072.359243	0.085641
1072.523256	0.087070
1072.687250	0.086378
1072.851226	0.085034
1073.015184	0.081644
1073.179124	0.083499
1073.343045	0.083616
1073.506949	0.083838
1073.670834	0.082965
1073.834701	0.084417
1073.998549	0.084313
1074.162380	0.084125
1074.326192	0.086601
1074.489986	0.086873
1074.653761	0.087972
1074.817519	0.087977
1074.981258	0.087409
1075.144979	0.087895
1075.308682	0.088779
1075.472367	0.089687
1075.636033	0.089263
1075.799681	0.087250
1075.963311	0.087343
1076.126923	0.084260
1076.290516	0.083682
1076.454092	0.085603
1076.617649	0.086833
1076.781187	0.086715
1076.944708	0.085328
1077.108210	0.085057
1077.271695	0.086021
1077.435160	0.087287
1077.598608	0.089485
1077.762038	0.092534
1077.925449	0.088971
1078.088842	0.086374
1078.252217	0.085228
1078.415573	0.085717
1078.578912	0.083615
1078.742232	0.085359
1078.905534	0.085385
1079.068817	0.084247
1079.232083	0.080123
1079.395330	0.080673
1079.558559	0.080914
1079.721770	0.082502
1079.884962	0.083350
1080.048136	0.085858
1080.211293	0.083936
1080.374430	0.083705
1080.537550	0.086261
1080.700651	0.088284
1080.863735	0.088989
1081.026800	0.090398
1081.189846	0.091275
1081.352875	0.090353
1081.515885	0.090020
1081.678877	0.089167
1081.841851	0.087754
1082.004807	0.086414
1082.167744	0.087575
1082.330663	0.088552
1082.493564	0.088980
1082.656447	0.087250
1082.819312	0.087774
1082.982158	0.087010
1083.144986	0.087808
1083.307796	0.088345
1083.470587	0.087457
1083.633361	0.087448
1083.796116	0.085721
1083.958853	0.085261
1084.121571	0.087216
1084.284272	0.086049
1084.446954	0.086877
1084.609618	0.086052
1084.772264	0.087409
1084.934892	0.087426
1085.097501	0.084496
1085.260092	0.086044
1085.422665	0.085200
1085.585220	0.082515
1085.747756	0.083510
1085.910274	0.084033
1086.072774	0.084586
1086.235256	0.083290
1086.397720	0.083794
1086.560165	0.087200
1086.722592	0.087029
1086.885001	0.088730
1087.047392	0.089751
1087.209764	0.089850
1087.372119	0.090194
1087.534455	0.089613
1087.696772	0.090591
1087.859072	0.089342
1088.021353	0.086762
1088.183616	0.085333
1088.345861	0.086283
1088.508088	0.085556
1088.670296	0.081949
1088.832486	0.081716
1088.994658	0.081882
1089.156812	0.079744
1089.318948	0.080308
1089.481065	0.081771
1089.643164	0.082682
1089.805245	0.080784
1089.967308	0.081659
1090.129352	0.084307
1090.291378	0.084829
1090.453386	0.085257
1090.615376	0.086807
1090.777347	0.086304
1090.939301	0.087325
1091.101236	0.088754
1091.263153	0.086501
1091.425051	0.084119
1091.586932	0.083911
1091.748794	0.083278
1091.910638	0.081474
1092.072463	0.082531
1092.234271	0.082351
1092.396060	0.079293
1092.557831	0.076656
1092.719584	0.078696
1092.881319	0.078288
1093.043035	0.080154
1093.204733	0.079842
1093.366413	0.078721
1093.528075	0.078607
1093.689718	0.079381
1093.851343	0.082506
1094.012950	0.083403
1094.174539	0.084819
1094.336110	0.086443
1094.497662	0.086513
1094.659196	0.083847
1094.820712	0.088469
1094.982210	0.084926
1095.143689	0.084871
1095.305151	0.082173
1095.466594	0.083652
1095.628018	0.079793
1095.789425	0.078166
1095.950813	0.074620
1096.112183	0.074185
1096.273535	0.071912
1096.434869	0.074913
1096.596184	0.073721
1096.757482	0.076892
1096.918761	0.073269
1097.080021	0.074275
1097.241264	0.075481
1097.402488	0.078267
1097.563694	0.080208
1097.724882	0.081196
1097.886052	0.080822
1098.047203	0.080534
1098.208336	0.078919
1098.369451	0.080942
1098.530548	0.081906
1098.691627	0.085165
1098.852687	0.081703
1099.013729	0.081724
1099.174753	0.082040
1099.335758	0.080291
1099.496746	0.079894
1099.657715	0.079024
1099.818666	0.081319
1099.979599	0.083123
1100.140513	0.079464
1100.301409	0.080061
1100.462287	0.081237
1100.623147	0.081772
1100.783989	0.083627
1100.944812	0.083595
1101.105617	0.078903
1101.266404	0.075753
1101.427173	0.076483
1101.587923	0.076860
1101.748656	0.081047
1101.909370	0.079002
1102.070066	0.074837
1102.230743	0.076363
1102.391403	0.079505
1102.552044	0.082944
1102.712667	0.082747
1102.873271	0.080635
1103.033858	0.079134
1103.194426	0.075950
1103.354976	0.075696
1103.515508	0.081171
1103.676021	0.077926
1103.836517	0.077332
1103.996994	0.076576
1104.157453	0.077864
1104.317893	0.075679
1104.478316	0.079058
1104.638720	0.076914
1104.799106	0.077194
1104.959474	0.075332
1105.119823	0.075649
1105.280155	0.071399
1105.440468	0.071257
1105.600763	0.070604
1105.761039	0.073809
1105.921298	0.071877
1106.081538	0.075616
1106.241760	0.075139
1106.401964	0.072867
1106.562149	0.073473
1106.722316	0.076146
1106.882465	0.079163
1107.042596	0.079372
1107.202709	0.078239
1107.362803	0.078568
1107.522879	0.077109
1107.682937	0.079835
1107.842977	0.080995
1108.002999	0.082816
1108.163002	0.083846
1108.322987	0.081798
1108.482954	0.081245
1108.642902	0.080920
1108.802833	0.084382
1108.962745	0.083591
1109.122639	0.084938
1109.282515	0.084985
1109.442372	0.085448
1109.602211	0.083693
1109.762032	0.085792
1109.921835	0.084193
1110.081620	0.085917
1110.241386	0.081895
1110.401134	0.084912
1110.560864	0.081747
1110.720576	0.077842
1110.880269	0.075201
1111.039945	0.074797
1111.199602	0.072589
1111.359240	0.075475
1111.518861	0.073404
1111.678463	0.074757
1111.838047	0.076193
1111.997613	0.075511
1112.157161	0.082277
1112.316690	0.083918
1112.476202	0.086372
1112.635695	0.082408
1112.795169	0.083367
1112.954626	0.084692
1113.114064	0.083932
1113.273484	0.078279
1113.432886	0.078888
1113.592270	0.076065
1113.751635	0.074889
1113.910983	0.074099
1114.070312	0.080486
1114.229622	0.076968
1114.388915	0.075586
1114.548189	0.077170
1114.707445	0.078823
1114.866683	0.078757
1115.025903	0.078349
1115.185104	0.081912
1115.344287	0.079657
1115.503452	0.079683
1115.662599	0.078026
1115.821727	0.079344
1115.980838	0.074998
1116.139930	0.075511
1116.299004	0.075224
1116.458059	0.072685
1116.617097	0.067898
1116.776116	0.070149
1116.935117	0.073816
1117.094099	0.076777
1117.253064	0.075635
1117.412010	0.078127
1117.570938	0.078650
1117.729848	0.080613
1117.888740	0.081435
1118.047613	0.083087
1118.206468	0.083388
1118.365305	0.075378
1118.524124	0.075343
1118.682924	0.077368
1118.841707	0.076139
1119.000471	0.075165
1119.159216	0.077045
1119.317944	0.076991
1119.476653	0.073469
1119.635344	0.072535
1119.794017	0.074358
1119.952672	0.073900
1120.111308	0.070698
1120.269927	0.073661
1120.428527	0.070666
1120.587108	0.065618
1120.745672	0.068896
1120.904217	0.074949
1121.062744	0.072479
1121.221253	0.075401
1121.379744	0.076534
1121.538216	0.075372
1121.696671	0.076772
1121.855107	0.081656
1122.013524	0.082860
1122.171924	0.079282
1122.330305	0.074648
1122.488668	0.078531
1122.647013	0.073723
1122.805340	0.074507
1122.963648	0.074208
1123.121938	0.072634
1123.280210	0.071989
1123.438464	0.070945
1123.596700	0.071669
1123.754917	0.077026
1123.913116	0.076741
1124.071297	0.075857
1124.229459	0.075953
1124.387604	0.076686
1124.545730	0.077777
1124.703838	0.079088
1124.861928	0.077538
1125.019999	0.084508
1125.178052	0.077209
1125.336088	0.073600
1125.494104	0.077795
1125.652103	0.075896
1125.810083	0.078486
1125.968045	0.080291
1126.125989	0.079176
1126.283915	0.085974
1126.441823	0.079667
1126.599712	0.082665
1126.757583	0.090426
1126.915436	0.088053
1127.073270	0.084753
1127.231087	0.083234
1127.388885	0.080323
1127.546665	0.081047
1127.704426	0.077148
1127.862170	0.075603
1128.019895	0.076468
1128.177602	0.069024
1128.335291	0.069717
1128.492961	0.074614
1128.650614	0.078194
1128.808248	0.074390
1128.965864	0.073097
1129.123461	0.070480
1129.281041	0.078007
1129.438602	0.078610
1129.596145	0.080950
1129.753670	0.081279
1129.911176	0.080283
1130.068665	0.077623
1130.226135	0.080091
1130.383587	0.083563
1130.541020	0.085171
1130.698436	0.081971
1130.855833	0.084142
1131.013212	0.082158
1131.170573	0.080701
1131.327915	0.079808
1131.485239	0.080242
1131.642545	0.078824
1131.799833	0.077195
1131.957103	0.079875
1132.114354	0.080408
1132.271588	0.072561
1132.428803	0.074894
1132.585999	0.077909
1132.743178	0.077127
1132.900338	0.075925
1133.057480	0.081048
1133.214604	0.074535
1133.371710	0.073725
1133.528797	0.074588
1133.685866	0.071267
1133.842917	0.070907
1133.999950	0.070283
1134.156964	0.071788
1134.313960	0.070630
1134.470938	0.066133
1134.627898	0.071775
1134.784840	0.072465
1134.941763	0.066361
1135.098668	0.075531
1135.255555	0.074072
1135.412424	0.075639
1135.569274	0.077091
1135.726107	0.074131
1135.882921	0.077745
1136.039716	0.075113
1136.196494	0.075436
1136.353253	0.078767
1136.509995	0.078968
1136.666717	0.081919
1136.823422	0.078023
1136.980109	0.076323
1137.136777	0.085055
1137.293427	0.085168
1137.450059	0.087963
1137.606672	0.084130
1137.763267	0.086609
1137.919844	0.086926
1138.076403	0.087643
1138.232944	0.089556
1138.389466	0.094406
1138.545971	0.092614
1138.702457	0.092521
1138.858924	0.091962
1139.015374	0.096115
1139.171805	0.090098
1139.328218	0.089818
1139.484613	0.087349
1139.640990	0.092451
1139.797348	0.088084
1139.953688	0.082953
1140.110010	0.080443
1140.266314	0.080482
1140.422600	0.076623
1140.578867	0.077150
1140.735116	0.073888
1140.891347	0.077479
1141.047559	0.070594
1141.203754	0.064165
1141.359930	0.062842
1141.516088	0.057762
1141.672228	0.052016
1141.828349	0.058215
1141.984452	0.054304
1142.140537	0.056335
1142.296604	0.055214
1142.452653	0.055598
1142.608683	0.065154
1142.764695	0.068858
1142.920689	0.072975
1143.076665	0.083036
1143.232622	0.078363
1143.388562	0.084543
1143.544483	0.082511
1143.700385	0.080510
1143.856270	0.082051
1144.012136	0.075471
1144.167985	0.075577
1144.323814	0.076520
1144.479626	0.069385
1144.635420	0.068581
1144.791195	0.068730
1144.946952	0.071607
1145.102691	0.075846
1145.258411	0.075334
1145.414113	0.073708
1145.569798	0.070894
1145.725463	0.070037
1145.881111	0.070761
1146.036741	0.071052
1146.192352	0.069603
1146.347945	0.064648
1146.503519	0.065973
1146.659076	0.069292
1146.814614	0.075379
1146.970134	0.079886
1147.125636	0.085668
1147.281120	0.091394
1147.436585	0.091669
1147.592032	0.092849
1147.747461	0.090513
1147.902872	0.086655
1148.058265	0.080430
1148.213639	0.076830
1148.368995	0.075577
1148.524333	0.068270
1148.679653	0.063669
1148.834954	0.058166
1148.990237	0.058050
1149.145502	0.067827
1149.300749	0.065959
1149.455977	0.072909
1149.611188	0.076069
1149.766380	0.075817
1149.921553	0.077333
1150.076709	0.080912
1150.231846	0.082412
1150.386966	0.083207
1150.542066	0.084504
1150.697149	0.086530
1150.852214	0.082070
1151.007260	0.082718
1151.162288	0.082741
1151.317298	0.083438
1151.472289	0.077666
1151.627263	0.077248
1151.782218	0.072922
1151.937155	0.068046
1152.092073	0.064433
1152.246974	0.063359
1152.401856	0.059694
1152.556720	0.054012
1152.711566	0.053616
1152.866393	0.053540
1153.021203	0.063137
1153.175994	0.071377
1153.330767	0.067133
1153.485521	0.067083
1153.640258	0.070680
1153.794976	0.067895
1153.949676	0.069910
1154.104358	0.073498
1154.259021	0.074729
1154.413667	0.069790
1154.568294	0.060195
1154.722903	0.058190
1154.877493	0.060121
1155.032066	0.061397
1155.186620	0.068994
1155.341156	0.070847
1155.495674	0.067666
1155.650173	0.071617
1155.804654	0.073442
1155.959118	0.081797
1156.113562	0.092223
1156.267989	0.092260
1156.422397	0.090379
1156.576788	0.085614
1156.731160	0.087493
1156.885513	0.091869
1157.039849	0.089203
1157.194166	0.087206
1157.348465	0.081406
1157.502746	0.083282
1157.657009	0.084418
1157.811253	0.078225
1157.965479	0.079196
1158.119687	0.078653
1158.273877	0.076315
1158.428048	0.076543
1158.582201	0.069782
1158.736337	0.072129
1158.890453	0.066343
1159.044552	0.061337
1159.198632	0.064046
1159.352694	0.063321
1159.506738	0.063411
1159.660764	0.066020
1159.814771	0.061650
1159.968761	0.061599
1160.122732	0.060793
1160.276685	0.060372
1160.430619	0.061851
1160.584535	0.059444
1160.738434	0.057047
1160.892313	0.058557
1161.046175	0.054555
1161.200019	0.054896
1161.353844	0.056110
1161.507651	0.057366
1161.661440	0.057970
1161.815210	0.063016
1161.968962	0.068797
1162.122697	0.067867
1162.276412	0.071139
1162.430110	0.070755
1162.583789	0.075195
1162.737451	0.078319
1162.891094	0.076064
1163.044718	0.074180
1163.198325	0.069200
1163.351913	0.073646
1163.505483	0.079921
1163.659035	0.065978
1163.812569	0.065300
1163.966084	0.066351
1164.119581	0.064234
1164.273060	0.062308
1164.426521	0.061115
1164.579964	0.058040
1164.733388	0.050229
1164.886794	0.048683
1165.040182	0.056687
1165.193551	0.056732
1165.346903	0.052466
1165.500236	0.056037
1165.653551	0.056563
1165.806848	0.054559
1165.960126	0.057062
1166.113386	0.056369
1166.266628	0.060654
1166.419852	0.059535
1166.573058	0.053111
1166.726245	0.051376
1166.879414	0.045118
1167.032565	0.053329
1167.185698	0.061215
1167.338812	0.057757
1167.491909	0.057022
1167.644987	0.042872
1167.798046	0.045420
1167.951088	0.050461
1168.104111	0.054208
1168.257117	0.063856
1168.410103	0.062216
1168.563072	0.064700
1168.716023	0.071556
1168.868955	0.071537
1169.021869	0.078196
1169.174765	0.089848
1169.327642	0.095065
1169.480501	0.085266
1169.633343	0.076778
1169.786165	0.071338
1169.938970	0.063526
1170.091757	0.059750
1170.244525	0.064805
1170.397275	0.069746
1170.550007	0.052550
1170.702720	0.046177
1170.855415	0.049067
1171.008092	0.053231
1171.160751	0.052992
1171.313392	0.052610
1171.466014	0.008183
1171.618619	0.060769
1171.771205	0.060769
1171.923772	0.060769
