sample name	sample
index	1207
start time	 04-26-2021  01:03:00 PM


Wavelength (nm)	Absorbance
494.344910	-0.239467
494.563924	-0.239467
494.782919	-0.239467
495.001897	NaN
495.220856	-0.345504
495.439797	-0.293320
495.658719	-0.294325
495.877624	-0.319461
496.096510	-0.217371
496.315378	-0.360463
496.534227	-0.492641
496.753059	-0.334292
496.971872	-0.117728
497.190667	0.189734
497.409444	0.197857
497.628203	0.198181
497.846943	0.195663
498.065665	0.194316
498.284369	0.191990
498.503055	0.190732
498.721723	0.189581
498.940372	0.189882
499.159003	0.189396
499.377616	0.186404
499.596210	0.184728
499.814787	0.186760
500.033345	0.186462
500.251885	0.189051
500.470406	0.189978
500.688910	0.189663
500.907395	0.189762
501.125862	0.190171
501.344311	0.191619
501.562742	0.193090
501.781154	0.192080
501.999548	0.192387
502.217924	0.191083
502.436282	0.191224
502.654621	0.191918
502.872942	0.191318
503.091245	0.191210
503.309530	0.190586
503.527797	0.189604
503.746045	0.188623
503.964275	0.189064
504.182487	0.190036
504.400681	0.188449
504.618856	0.187970
504.837013	0.187627
505.055152	0.187231
505.273273	0.188323
505.491376	0.189227
505.709460	0.190649
505.927526	0.190333
506.145574	0.190292
506.363604	0.191345
506.581615	0.191287
506.799608	0.192324
507.017583	0.192450
507.235540	0.192415
507.453478	0.191079
507.671399	0.189770
507.889301	0.190281
508.107185	0.189376
508.325050	0.189990
508.542898	0.190384
508.760727	0.189858
508.978538	0.190547
509.196330	0.191210
509.414105	0.193233
509.631861	0.194977
509.849599	0.194410
510.067319	0.194608
510.285021	0.194693
510.502704	0.195038
510.720369	0.195294
510.938016	0.195962
511.155645	0.194570
511.373255	0.193826
511.590848	0.193551
511.808422	0.194814
512.025977	0.196415
512.243515	0.195691
512.461034	0.195109
512.678536	0.194846
512.896018	0.194050
513.113483	0.195101
513.330930	0.194783
513.548358	0.195354
513.765768	0.195168
513.983160	0.194501
514.200533	0.194858
514.417889	0.195341
514.635226	0.196569
514.852545	0.197352
515.069845	0.198046
515.287128	0.199078
515.504392	0.198762
515.721638	0.199823
515.938866	0.200396
516.156075	0.201251
516.373267	0.202219
516.590440	0.201990
516.807594	0.200769
517.024731	0.200874
517.241850	0.200384
517.458950	0.199856
517.676032	0.199768
517.893095	0.199655
518.110141	0.199990
518.327168	0.200048
518.544177	0.200293
518.761168	0.201895
518.978141	0.201097
519.195095	0.201046
519.412031	0.201145
519.628949	0.201055
519.845849	0.200784
520.062731	0.200475
520.279594	0.200711
520.496439	0.201427
520.713266	0.200464
520.930074	0.201499
521.146865	0.201828
521.363637	0.202324
521.580391	0.202801
521.797127	0.202868
522.013844	0.203445
522.230543	0.204196
522.447224	0.203834
522.663887	0.205674
522.880532	0.205200
523.097158	0.205929
523.313766	0.206453
523.530356	0.205466
523.746928	0.206868
523.963481	0.206475
524.180017	0.206210
524.396534	0.205962
524.613032	0.205530
524.829513	0.206259
525.045975	0.206985
525.262420	0.207011
525.478845	0.208124
525.695253	0.207437
525.911643	0.207943
526.128014	0.207423
526.344367	0.208544
526.560702	0.208488
526.777018	0.208528
526.993316	0.208265
527.209597	0.208766
527.425858	0.208650
527.642102	0.208292
527.858328	0.208620
528.074535	0.209923
528.290724	0.210100
528.506894	0.211101
528.723047	0.211953
528.939181	0.212027
529.155297	0.212260
529.371395	0.212641
529.587475	0.213387
529.803536	0.214238
530.019579	0.214584
530.235604	0.215061
530.451611	0.214587
530.667600	0.214642
530.883570	0.215100
531.099522	0.215394
531.315456	0.215869
531.531372	0.217164
531.747269	0.216944
531.963148	0.216137
532.179009	0.216627
532.394852	0.216899
532.610676	0.216970
532.826482	0.216940
533.042271	0.217585
533.258040	0.218099
533.473792	0.217406
533.689525	0.217673
533.905240	0.218283
534.120937	0.217334
534.336616	0.217709
534.552277	0.217397
534.767919	0.218247
534.983543	0.218698
535.199149	0.218624
535.414736	0.219334
535.630306	0.219720
535.845857	0.220263
536.061390	0.220984
536.276904	0.221551
536.492401	0.221869
536.707879	0.222034
536.923339	0.221814
537.138781	0.222384
537.354204	0.222543
537.569610	0.222763
537.784997	0.223536
538.000366	0.224070
538.215716	0.224146
538.431049	0.225162
538.646363	0.225291
538.861659	0.225656
539.076937	0.226152
539.292196	0.226613
539.507438	0.227739
539.722661	0.228285
539.937866	0.228559
540.153052	0.230001
540.368221	0.230588
540.583371	0.231198
540.798503	0.232049
541.013617	0.232467
541.228712	0.233376
541.443789	0.233498
541.658848	0.234100
541.873889	0.234600
542.088912	0.233870
542.303916	0.233756
542.518902	0.233987
542.733870	0.233691
542.948820	0.233278
543.163752	0.232826
543.378665	0.232704
543.593560	0.232225
543.808437	0.232388
544.023295	0.232619
544.238136	0.233071
544.452958	0.232987
544.667762	0.233007
544.882548	0.233740
545.097315	0.234529
545.312064	0.234922
545.526795	0.235591
545.741508	0.235410
545.956203	0.235703
546.170879	0.235524
546.385537	0.236058
546.600177	0.237107
546.814799	0.237590
547.029402	0.237405
547.243988	0.236853
547.458555	0.236492
547.673103	0.237248
547.887634	0.237805
548.102146	0.238356
548.316640	0.238902
548.531116	0.238710
548.745574	0.237800
548.960013	0.238316
549.174435	0.239038
549.388838	0.239844
549.603222	0.239802
549.817589	0.239570
550.031937	0.239243
550.246267	0.238964
550.460579	0.238799
550.674873	0.239599
550.889148	0.239377
551.103405	0.239587
551.317644	0.239409
551.531865	0.240042
551.746068	0.240524
551.960252	0.241159
552.174418	0.241539
552.388566	0.241778
552.602696	0.241998
552.816807	0.242362
553.030900	0.242217
553.244975	0.241960
553.459032	0.241768
553.673070	0.241705
553.887091	0.241854
554.101093	0.241927
554.315077	0.241924
554.529042	0.242161
554.742990	0.242295
554.956919	0.242795
555.170830	0.243537
555.384722	0.244020
555.598597	0.244633
555.812453	0.244770
556.026291	0.245234
556.240111	0.246017
556.453913	0.245995
556.667696	0.246183
556.881461	0.246519
557.095208	0.246711
557.308937	0.246390
557.522647	0.246172
557.736339	0.246091
557.950013	0.246096
558.163669	0.245915
558.377307	0.246192
558.590926	0.246411
558.804527	0.246458
559.018110	0.246584
559.231675	0.246444
559.445221	0.246759
559.658749	0.247161
559.872259	0.247139
560.085751	0.247630
560.299225	0.247787
560.512680	0.247952
560.726117	0.247786
560.939536	0.248167
561.152937	0.249406
561.366319	0.249645
561.579683	0.249971
561.793029	0.250458
562.006357	0.250197
562.219667	0.250732
562.432958	0.251395
562.646231	0.252059
562.859486	0.251968
563.072723	0.251477
563.285941	0.252088
563.499141	0.251976
563.712323	0.252012
563.925487	0.252385
564.138632	0.252220
564.351760	0.251456
564.564869	0.251645
564.777960	0.252033
564.991032	0.252438
565.204087	0.252103
565.417123	0.252503
565.630141	0.253087
565.843140	0.253661
566.056122	0.253945
566.269085	0.254650
566.482030	0.254510
566.694957	0.254356
566.907866	0.254041
567.120756	0.254128
567.333628	0.254063
567.546482	0.253187
567.759318	0.252891
567.972135	0.252813
568.184935	0.252480
568.397716	0.252613
568.610478	0.252848
568.823223	0.252950
569.035949	0.253233
569.248657	0.253069
569.461347	0.253443
569.674019	0.253654
569.886672	0.254040
570.099308	0.254290
570.311925	0.254433
570.524523	0.254424
570.737104	0.255252
570.949666	0.255477
571.162210	0.256098
571.374736	0.256317
571.587244	0.256434
571.799733	0.256381
572.012205	0.256825
572.224658	0.256854
572.437092	0.257323
572.649509	0.257309
572.861907	0.257121
573.074287	0.257371
573.286649	0.257773
573.498993	0.258352
573.711318	0.258477
573.923625	0.258702
574.135914	0.258811
574.348185	0.258784
574.560438	0.258791
574.772672	0.259284
574.984888	0.259347
575.197086	0.259760
575.409266	0.259677
575.621427	0.259947
575.833570	0.259838
576.045695	0.260114
576.257802	0.260280
576.469890	0.260406
576.681961	0.260302
576.894013	0.260453
577.106046	0.260421
577.318062	0.260429
577.530059	0.260470
577.742039	0.260800
577.954000	0.261010
578.165942	0.261243
578.377867	0.261146
578.589773	0.261217
578.801661	0.261261
579.013531	0.261317
579.225382	0.261721
579.437216	0.261991
579.649031	0.262204
579.860828	0.262416
580.072606	0.262364
580.284367	0.262953
580.496109	0.263539
580.707833	0.263922
580.919539	0.264195
581.131227	0.264007
581.342896	0.263791
581.554547	0.263897
581.766180	0.263909
581.977795	0.264195
582.189391	0.264444
582.400969	0.264238
582.612529	0.264269
582.824071	0.264453
583.035595	0.265005
583.247100	0.265686
583.458587	0.265846
583.670056	0.266302
583.881506	0.266283
584.092939	0.266367
584.304353	0.266810
584.515749	0.267330
584.727127	0.267328
584.938486	0.267559
585.149828	0.267597
585.361151	0.267808
585.572456	0.267886
585.783742	0.268528
585.995011	0.269002
586.206261	0.269209
586.417493	0.269464
586.628706	0.270020
586.839902	0.270129
587.051079	0.270655
587.262238	0.270846
587.473379	0.271300
587.684502	0.271608
587.895606	0.271821
588.106692	0.272466
588.317760	0.272582
588.528810	0.272334
588.739841	0.272408
588.950855	0.272161
589.161850	0.272336
589.372827	0.272903
589.583785	0.272809
589.794726	0.272754
590.005648	0.272544
590.216552	0.272392
590.427437	0.272956
590.638305	0.273308
590.849154	0.273923
591.059985	0.274210
591.270798	0.273862
591.481592	0.273743
591.692369	0.273789
591.903127	0.273799
592.113867	0.274278
592.324588	0.274348
592.535292	0.274580
592.745977	0.274434
592.956644	0.274341
593.167293	0.274414
593.377923	0.274828
593.588536	0.275070
593.799130	0.275399
594.009706	0.275142
594.220263	0.275107
594.430803	0.274941
594.641324	0.275652
594.851827	0.276246
595.062312	0.276821
595.272778	0.277230
595.483227	0.277518
595.693657	0.277564
595.904069	0.278024
596.114462	0.278311
596.324838	0.278874
596.535195	0.278572
596.745534	0.278954
596.955855	0.278554
597.166157	0.278096
597.376441	0.277978
597.586707	0.278040
597.796955	0.278017
598.007185	0.278321
598.217396	0.278202
598.427589	0.278130
598.637764	0.278030
598.847921	0.278263
599.058060	0.278575
599.268180	0.278899
599.478282	0.279254
599.688366	0.279293
599.898431	0.279264
600.108479	0.279590
600.318508	0.280143
600.528519	0.280631
600.738511	0.281092
600.948486	0.281320
601.158442	0.281290
601.368380	0.281268
601.578300	0.282021
601.788202	0.282218
601.998085	0.282258
602.207950	0.282338
602.417797	0.282093
602.627626	0.281815
602.837436	0.282182
603.047228	0.282726
603.257002	0.283060
603.466758	0.282875
603.676496	0.283289
603.886215	0.283468
604.095916	0.283576
604.305599	0.283465
604.515264	0.283784
604.724910	0.284100
604.934538	0.284042
605.144148	0.284100
605.353740	0.284565
605.563314	0.284472
605.772869	0.284696
605.982406	0.284615
606.191925	0.285172
606.401425	0.285090
606.610908	0.284924
606.820372	0.284907
607.029818	0.285205
607.239246	0.285024
607.448655	0.285296
607.658047	0.285366
607.867420	0.285718
608.076775	0.286018
608.286111	0.286272
608.495430	0.286726
608.704730	0.287128
608.914012	0.287237
609.123275	0.287648
609.332521	0.287896
609.541748	0.288327
609.750957	0.288446
609.960148	0.288141
610.169321	0.288551
610.378475	0.288477
610.587611	0.288670
610.796729	0.288884
611.005829	0.288886
611.214910	0.288523
611.423974	0.288307
611.633019	0.288861
611.842045	0.289179
612.051054	0.289205
612.260044	0.289204
612.469017	0.289258
612.677970	0.289327
612.886906	0.289605
613.095824	0.290000
613.304723	0.290064
613.513604	0.289963
613.722467	0.290025
613.931311	0.290053
614.140138	0.290481
614.348946	0.290549
614.557736	0.290710
614.766507	0.290624
614.975261	0.290763
615.183996	0.290854
615.392713	0.290961
615.601412	0.291402
615.810092	0.291674
616.018754	0.292148
616.227399	0.292578
616.436024	0.292837
616.644632	0.292690
616.853222	0.292833
617.061793	0.292834
617.270346	0.293053
617.478880	0.293018
617.687397	0.293070
617.895895	0.292788
618.104375	0.292918
618.312837	0.292979
618.521281	0.293299
618.729706	0.293319
618.938113	0.293727
619.146502	0.293494
619.354873	0.293509
619.563226	0.293795
619.771560	0.293918
619.979876	0.293782
620.188174	0.293705
620.396453	0.293937
620.604715	0.294165
620.812958	0.294510
621.021183	0.295008
621.229390	0.295418
621.437578	0.295593
621.645748	0.295687
621.853900	0.295967
622.062034	0.296315
622.270150	0.296668
622.478247	0.297142
622.686326	0.297390
622.894387	0.297702
623.102430	0.297571
623.310454	0.297799
623.518461	0.298205
623.726449	0.298426
623.934418	0.298468
624.142370	0.298602
624.350303	0.298804
624.558218	0.299018
624.766115	0.298973
624.973994	0.299231
625.181855	0.299343
625.389697	0.299427
625.597521	0.299172
625.805327	0.299339
626.013114	0.299182
626.220883	0.299079
626.428634	0.299297
626.636367	0.299480
626.844082	0.299504
627.051778	0.299682
627.259457	0.299766
627.467117	0.300283
627.674758	0.300569
627.882382	0.300901
628.089987	0.301048
628.297574	0.301086
628.505143	0.301223
628.712694	0.301594
628.920226	0.301808
629.127740	0.302338
629.335236	0.302483
629.542714	0.302491
629.750174	0.302594
629.957615	0.302874
630.165038	0.302780
630.372443	0.302939
630.579829	0.303289
630.787198	0.303376
630.994548	0.302886
631.201880	0.302943
631.409194	0.302951
631.616489	0.303160
631.823766	0.303403
632.031025	0.303687
632.238266	0.303742
632.445489	0.303419
632.652693	0.303483
632.859879	0.303857
633.067047	0.304127
633.274197	0.304309
633.481329	0.304501
633.688442	0.304419
633.895537	0.304605
634.102614	0.304918
634.309672	0.305522
634.516713	0.305836
634.723735	0.305942
634.930739	0.305923
635.137724	0.306181
635.344692	0.306353
635.551641	0.306500
635.758572	0.306761
635.965485	0.306807
636.172379	0.306838
636.379256	0.306851
636.586114	0.307049
636.792954	0.307233
636.999775	0.307536
637.206579	0.307547
637.413364	0.307677
637.620131	0.307859
637.826880	0.307967
638.033610	0.308046
638.240323	0.308321
638.447017	0.308469
638.653692	0.308521
638.860350	0.308736
639.066990	0.309187
639.273611	0.309713
639.480214	0.309589
639.686798	0.309877
639.893365	0.310076
640.099913	0.310015
640.306443	0.310106
640.512955	0.310450
640.719449	0.310712
640.925924	0.310854
641.132381	0.310630
641.338820	0.310877
641.545241	0.311234
641.751644	0.311385
641.958028	0.311756
642.164394	0.312052
642.370742	0.312394
642.577071	0.312603
642.783383	0.312503
642.989676	0.313015
643.195951	0.313030
643.402207	0.312920
643.608446	0.313205
643.814666	0.313694
644.020868	0.314092
644.227052	0.313821
644.433218	0.313538
644.639365	0.313891
644.845494	0.314013
645.051605	0.314469
645.257698	0.314962
645.463772	0.315068
645.669828	0.314988
645.875866	0.314931
646.081886	0.315321
646.287888	0.315616
646.493871	0.315864
646.699836	0.316023
646.905783	0.316082
647.111712	0.315814
647.317622	0.315946
647.523514	0.315959
647.729388	0.316348
647.935244	0.316557
648.141082	0.316883
648.346901	0.317061
648.552702	0.316859
648.758485	0.316978
648.964250	0.317133
649.169996	0.317463
649.375724	0.317781
649.581434	0.317985
649.787126	0.318366
649.992800	0.318498
650.198455	0.318396
650.404092	0.318532
650.609711	0.318731
650.815311	0.318874
651.020894	0.318541
651.226458	0.318388
651.432004	0.318312
651.637532	0.318099
651.843041	0.318341
652.048532	0.318750
652.254006	0.319170
652.459460	0.319150
652.664897	0.319730
652.870315	0.319987
653.075716	0.320695
653.281097	0.321077
653.486461	0.321402
653.691807	0.321555
653.897134	0.321642
654.102443	0.321971
654.307734	0.322256
654.513006	0.322126
654.718261	0.322753
654.923497	0.322686
655.128715	0.322532
655.333915	0.323002
655.539096	0.323335
655.744259	0.323469
655.949404	0.323907
656.154531	0.324217
656.359640	0.324423
656.564730	0.324573
656.769802	0.325219
656.974856	0.325589
657.179892	0.325795
657.384909	0.325905
657.589908	0.326708
657.794889	0.326715
657.999852	0.327058
658.204797	0.327548
658.409723	0.327789
658.614631	0.327812
658.819521	0.328180
659.024393	0.328311
659.229246	0.328428
659.434081	0.328211
659.638898	0.328342
659.843697	0.328282
660.048478	0.328355
660.253240	0.328215
660.457984	0.328196
660.662710	0.328451
660.867417	0.328587
661.072107	0.329002
661.276778	0.329355
661.481431	0.329538
661.686066	0.330088
661.890682	0.330484
662.095281	0.331070
662.299861	0.331295
662.504422	0.331492
662.708966	0.331904
662.913491	0.332036
663.117999	0.332072
663.322488	0.332339
663.526958	0.332576
663.731411	0.332725
663.935845	0.332837
664.140261	0.333197
664.344659	0.333325
664.549038	0.333364
664.753400	0.333356
664.957743	0.333533
665.162068	0.334078
665.366375	0.334126
665.570663	0.334282
665.774933	0.334549
665.979185	0.334745
666.183419	0.335036
666.387635	0.335241
666.591832	0.335817
666.796011	0.336028
667.000172	0.335925
667.204315	0.336183
667.408439	0.336596
667.612545	0.336653
667.816634	0.336789
668.020703	0.336657
668.224755	0.337033
668.428788	0.337075
668.632803	0.337565
668.836800	0.337583
669.040779	0.337895
669.244739	0.337966
669.448681	0.338325
669.652605	0.338437
669.856511	0.339151
670.060399	0.339460
670.264268	0.339899
670.468119	0.340214
670.671952	0.340600
670.875767	0.340683
671.079563	0.340960
671.283341	0.341265
671.487101	0.341734
671.690843	0.341982
671.894567	0.342050
672.098272	0.342325
672.301959	0.342429
672.505628	0.342576
672.709278	0.342817
672.912911	0.343123
673.116525	0.343480
673.320121	0.343592
673.523699	0.343453
673.727258	0.343912
673.930799	0.343962
674.134322	0.344217
674.337827	0.344776
674.541314	0.345181
674.744782	0.345210
674.948232	0.345056
675.151664	0.345225
675.355078	0.345582
675.558474	0.345758
675.761851	0.346054
675.965210	0.346016
676.168551	0.345939
676.371873	0.346085
676.575178	0.346204
676.778464	0.346620
676.981732	0.347059
677.184981	0.347215
677.388213	0.347264
677.591426	0.347142
677.794621	0.347596
677.997798	0.347822
678.200956	0.348121
678.404097	0.348318
678.607219	0.348542
678.810323	0.348532
679.013408	0.348795
679.216476	0.349032
679.419525	0.349589
679.622556	0.349645
679.825569	0.349929
680.028563	0.350326
680.231540	0.350728
680.434498	0.351091
680.637438	0.351713
680.840359	0.351977
681.043263	0.352150
681.246148	0.352468
681.449015	0.352775
681.651864	0.353088
681.854694	0.353105
682.057506	0.353438
682.260301	0.353900
682.463076	0.353758
682.665834	0.353855
682.868573	0.354134
683.071295	0.354066
683.273998	0.354114
683.476682	0.354483
683.679349	0.354842
683.881997	0.354678
684.084627	0.354460
684.287239	0.354761
684.489833	0.354824
684.692408	0.355008
684.894965	0.354990
685.097504	0.354969
685.300025	0.355104
685.502527	0.355205
685.705012	0.355498
685.907478	0.355449
686.109925	0.355506
686.312355	0.355833
686.514766	0.355813
686.717159	0.356256
686.919534	0.356718
687.121891	0.356665
687.324230	0.356659
687.526550	0.356983
687.728852	0.357374
687.931136	0.357686
688.133401	0.357908
688.335649	0.358430
688.537878	0.358803
688.740089	0.359295
688.942281	0.359694
689.144456	0.359903
689.346612	0.360115
689.548750	0.360500
689.750870	0.360828
689.952971	0.361212
690.155055	0.361340
690.357120	0.361483
690.559167	0.361513
690.761195	0.361783
690.963206	0.362169
691.165198	0.362402
691.367172	0.362579
691.569128	0.362618
691.771065	0.362872
691.972984	0.363092
692.174885	0.363303
692.376768	0.363407
692.578633	0.363444
692.780479	0.363297
692.982308	0.363287
693.184118	0.363143
693.385909	0.363337
693.587683	0.363368
693.789438	0.363475
693.991175	0.363565
694.192894	0.363480
694.394595	0.363646
694.596277	0.364105
694.797941	0.364536
694.999587	0.364725
695.201215	0.364855
695.402824	0.365117
695.604416	0.365058
695.805989	0.365050
696.007543	0.365068
696.209080	0.365260
696.410598	0.365309
696.612099	0.365087
696.813580	0.365299
697.015044	0.365074
697.216490	0.364999
697.417917	0.365410
697.619326	0.365463
697.820717	0.365833
698.022089	0.365801
698.223444	0.365990
698.424780	0.366201
698.626098	0.366096
698.827397	0.366502
699.028679	0.366591
699.229942	0.366315
699.431187	0.366353
699.632414	0.366420
699.833622	0.366638
700.034813	0.366549
700.235985	0.366912
700.437139	0.367283
700.638274	0.367383
700.839392	0.367851
701.040491	0.368475
701.241572	0.368858
701.442635	0.369265
701.643679	0.369415
701.844706	0.369893
702.045714	0.369975
702.246704	0.370108
702.447675	0.370332
702.648629	0.370300
702.849564	0.370310
703.050481	0.370468
703.251380	0.370431
703.452260	0.370423
703.653122	0.370168
703.853966	0.369971
704.054792	0.370175
704.255600	0.370500
704.456389	0.370621
704.657160	0.370390
704.857913	0.370332
705.058648	0.370392
705.259365	0.370784
705.460063	0.370645
705.660743	0.371051
705.861405	0.371143
706.062048	0.370631
706.262674	0.370128
706.463281	0.370227
706.663870	0.370450
706.864441	0.370663
707.064993	0.370584
707.265527	0.370831
707.466043	0.370739
707.666541	0.370628
707.867021	0.370759
708.067482	0.371163
708.267925	0.371403
708.468350	0.371332
708.668757	0.371318
708.869145	0.371428
709.069516	0.371891
709.269868	0.372174
709.470201	0.372335
709.670517	0.372749
709.870814	0.372768
710.071093	0.372919
710.271354	0.373328
710.471597	0.373443
710.671821	0.373472
710.872028	0.373005
711.072216	0.372608
711.272385	0.372707
711.472537	0.372492
711.672670	0.372616
711.872785	0.372282
712.072882	0.372020
712.272961	0.372012
712.473021	0.371777
712.673063	0.371895
712.873087	0.371917
713.073093	0.371837
713.273081	0.371922
713.473050	0.371856
713.673001	0.371839
713.872934	0.371953
714.072849	0.371524
714.272745	0.371483
714.472623	0.371422
714.672483	0.371232
714.872325	0.370912
715.072148	0.370759
715.271954	0.370744
715.471741	0.370826
715.671509	0.370382
715.871260	0.370598
716.070992	0.370571
716.270707	0.370419
716.470403	0.370618
716.670080	0.370700
716.869740	0.370469
717.069381	0.370375
717.269004	0.370407
717.468609	0.370567
717.668195	0.370454
717.867764	0.370219
718.067314	0.370378
718.266846	0.370336
718.466360	0.370319
718.665855	0.370418
718.865332	0.370292
719.064791	0.369905
719.264232	0.369524
719.463655	0.369362
719.663059	0.369572
719.862445	0.369394
720.061813	0.369554
720.261163	0.369369
720.460494	0.369445
720.659807	0.369600
720.859102	0.369616
721.058379	0.370212
721.257638	0.370288
721.456878	0.370237
721.656100	0.369975
721.855304	0.369596
722.054490	0.369710
722.253657	0.369419
722.452806	0.369226
722.651937	0.369472
722.851050	0.368955
723.050145	0.368860
723.249221	0.368579
723.448279	0.368784
723.647319	0.368816
723.846340	0.368435
724.045344	0.368576
724.244329	0.368408
724.443296	0.368141
724.642245	0.368049
724.841175	0.367797
725.040088	0.367608
725.238982	0.367543
725.437857	0.367667
725.636715	0.367706
725.835554	0.367589
726.034376	0.367715
726.233179	0.367451
726.431963	0.367192
726.630730	0.367348
726.829478	0.367416
727.028208	0.367262
727.226920	0.366813
727.425614	0.366868
727.624289	0.366569
727.822946	0.365958
728.021585	0.366163
728.220206	0.366232
728.418808	0.365835
728.617392	0.365726
728.815958	0.365735
729.014506	0.365820
729.213036	0.365372
729.411547	0.365404
729.610040	0.365635
729.808515	0.365142
730.006972	0.364901
730.205410	0.364866
730.403831	0.364850
730.602233	0.364504
730.800616	0.364310
730.998982	0.364188
731.197329	0.364034
731.395658	0.364032
731.593969	0.364176
731.792262	0.364194
731.990536	0.364229
732.188793	0.364268
732.387031	0.364183
732.585250	0.364308
732.783452	0.364803
732.981635	0.364919
733.179800	0.364597
733.377947	0.364505
733.576076	0.364172
733.774186	0.364026
733.972278	0.363734
734.170352	0.363911
734.368408	0.363650
734.566446	0.363243
734.764465	0.363132
734.962466	0.362946
735.160449	0.362978
735.358413	0.363288
735.556360	0.363299
735.754288	0.363360
735.952198	0.362951
736.150090	0.362761
736.347963	0.362812
736.545818	0.362580
736.743655	0.362636
736.941474	0.362463
737.139275	0.362144
737.337057	0.362085
737.534821	0.361565
737.732567	0.361620
737.930295	0.361498
738.128005	0.361234
738.325696	0.361330
738.523369	0.361346
738.721024	0.361074
738.918660	0.361247
739.116279	0.361078
739.313879	0.361331
739.511461	0.360900
739.709024	0.360973
739.906570	0.360899
740.104097	0.360759
740.301606	0.360720
740.499097	0.360608
740.696569	0.360179
740.894024	0.359629
741.091460	0.359296
741.288878	0.359340
741.486277	0.359112
741.683659	0.358932
741.881022	0.358449
742.078367	0.358024
742.275694	0.358057
742.473002	0.357991
742.670293	0.358183
742.867565	0.358142
743.064819	0.358162
743.262054	0.358029
743.459272	0.357789
743.656471	0.357831
743.853652	0.357995
744.050815	0.357600
744.247959	0.357764
744.445085	0.357484
744.642194	0.357496
744.839283	0.357241
745.036355	0.357224
745.233408	0.357272
745.430444	0.357124
745.627461	0.356987
745.824459	0.357150
746.021440	0.356931
746.218402	0.357160
746.415346	0.356842
746.612272	0.356958
746.809180	0.356847
747.006069	0.356763
747.202940	0.356792
747.399793	0.356449
747.596628	0.356114
747.793444	0.356035
747.990243	0.355628
748.187023	0.355434
748.383784	0.354919
748.580528	0.354234
748.777253	0.353866
748.973960	0.353633
749.170649	0.353649
749.367320	0.353581
749.563973	0.353315
749.760607	0.353454
749.957223	0.353431
750.153821	0.353416
750.350400	0.353765
750.546962	0.353723
750.743505	0.353389
750.940030	0.353361
751.136536	0.353411
751.333025	0.353347
751.529495	0.353230
751.725947	0.352795
751.922381	0.352437
752.118796	0.352259
752.315194	0.352172
752.511573	0.351799
752.707934	0.351567
752.904276	0.351130
753.100601	0.350938
753.296907	0.350615
753.493195	0.350641
753.689465	0.350770
753.885716	0.350600
754.081949	0.350696
754.278164	0.350887
754.474361	0.350573
754.670540	0.350731
754.866700	0.350499
755.062843	0.350508
755.258967	0.350342
755.455072	0.350095
755.651160	0.349903
755.847229	0.349524
756.043280	0.349208
756.239313	0.349043
756.435328	0.348706
756.631324	0.348464
756.827302	0.348143
757.023262	0.348018
757.219204	0.348068
757.415127	0.348302
757.611033	0.348324
757.806920	0.348632
758.002788	0.348726
758.198639	0.348574
758.394471	0.348572
758.590286	0.348867
758.786081	0.349011
758.981859	0.349071
759.177619	0.348879
759.373360	0.348874
759.569083	0.348637
759.764788	0.348665
759.960474	0.348863
760.156143	0.349087
760.351793	0.348835
760.547425	0.348710
760.743038	0.348621
760.938634	0.348338
761.134211	0.348005
761.329770	0.348267
761.525311	0.347904
761.720833	0.348021
761.916338	0.347840
762.111824	0.347734
762.307292	0.347696
762.502741	0.347701
762.698173	0.348084
762.893586	0.348125
763.088981	0.348076
763.284358	0.348100
763.479716	0.347636
763.675057	0.347556
763.870379	0.347514
764.065683	0.347612
764.260968	0.347526
764.456236	0.347057
764.651485	0.346940
764.846716	0.346719
765.041929	0.346982
765.237123	0.347230
765.432299	0.347230
765.627457	0.347221
765.822597	0.347145
766.017719	0.346930
766.212822	0.347031
766.407907	0.347047
766.602974	0.346968
766.798023	0.346702
766.993054	0.346382
767.188066	0.346194
767.383060	0.345929
767.578036	0.345881
767.772993	0.345917
767.967933	0.345991
768.162854	0.346219
768.357757	0.346116
768.552642	0.346091
768.747508	0.346102
768.942356	0.346078
769.137186	0.346070
769.331998	0.346133
769.526792	0.346439
769.721567	0.346519
769.916324	0.346456
770.111063	0.346692
770.305784	0.346697
770.500486	0.346912
770.695171	0.347177
770.889837	0.347474
771.084484	0.347323
771.279114	0.347052
771.473725	0.346678
771.668318	0.346369
771.862893	0.345909
772.057450	0.345916
772.251988	0.345584
772.446509	0.345412
772.641011	0.345281
772.835494	0.345176
773.029960	0.345039
773.224407	0.345252
773.418836	0.345385
773.613247	0.345489
773.807640	0.345344
774.002014	0.345396
774.196370	0.345400
774.390708	0.345310
774.585028	0.345327
774.779330	0.345270
774.973613	0.344974
775.167878	0.345162
775.362125	0.345474
775.556354	0.345561
775.750564	0.345611
775.944756	0.345609
776.138930	0.345683
776.333086	0.345998
776.527223	0.346459
776.721343	0.346805
776.915444	0.346656
777.109526	0.346965
777.303591	0.347242
777.497637	0.347287
777.691666	0.347555
777.885676	0.347644
778.079667	0.347694
778.273641	0.347447
778.467596	0.347617
778.661533	0.347937
778.855452	0.347798
779.049352	0.347806
779.243235	0.348107
779.437099	0.348148
779.630945	0.348231
779.824773	0.348076
780.018582	0.348183
780.212373	0.348401
780.406146	0.348606
780.599901	0.348797
780.793638	0.349099
780.987356	0.348928
781.181056	0.348852
781.374738	0.348970
781.568402	0.348781
781.762047	0.349039
781.955674	0.348878
782.149283	0.348627
782.342874	0.348293
782.536447	0.348085
782.730001	0.348233
782.923537	0.348235
783.117055	0.348077
783.310555	0.348450
783.504036	0.348293
783.697499	0.348401
783.890944	0.348436
784.084371	0.348717
784.277780	0.348698
784.471170	0.348970
784.664542	0.348952
784.857896	0.349171
785.051231	0.349360
785.244549	0.349819
785.437848	0.349726
785.631129	0.349881
785.824392	0.349942
786.017636	0.350348
786.210863	0.350207
786.404071	0.350361
786.597260	0.350721
786.790432	0.350810
786.983585	0.350546
787.176721	0.350590
787.369838	0.350872
787.562936	0.350790
787.756017	0.350774
787.949079	0.350809
788.142123	0.351060
788.335149	0.350912
788.528156	0.351136
788.721146	0.351405
788.914117	0.351615
789.107070	0.351764
789.300005	0.352168
789.492921	0.352443
789.685819	0.352896
789.878699	0.353266
790.071561	0.353544
790.264405	0.353520
790.457230	0.353571
790.650037	0.354022
790.842826	0.354087
791.035597	0.354319
791.228349	0.354637
791.421084	0.354607
791.613800	0.354490
791.806497	0.354931
791.999177	0.355286
792.191838	0.355473
792.384481	0.355476
792.577106	0.355606
792.769713	0.355708
792.962301	0.355518
793.154871	0.355988
793.347423	0.356172
793.539957	0.355948
793.732473	0.355806
793.924970	0.356000
794.117449	0.356213
794.309910	0.356255
794.502353	0.356409
794.694777	0.356426
794.887183	0.356308
795.079571	0.356469
795.271941	0.356799
795.464293	0.357236
795.656626	0.357477
795.848941	0.357817
796.041238	0.358219
796.233516	0.358341
796.425777	0.358759
796.618019	0.359158
796.810243	0.359452
797.002449	0.359510
797.194636	0.359734
797.386805	0.360157
797.578956	0.360148
797.771089	0.360133
797.963204	0.360166
798.155300	0.360395
798.347378	0.360558
798.539438	0.360728
798.731480	0.361013
798.923503	0.361198
799.115509	0.361052
799.307496	0.361285
799.499465	0.361713
799.691415	0.361973
799.883348	0.362055
800.075262	0.362178
800.267158	0.362428
800.459035	0.362684
800.650895	0.362461
800.842736	0.362896
801.034559	0.363040
801.226364	0.363262
801.418150	0.363257
801.609919	0.363581
801.801669	0.363951
801.993401	0.364070
802.185114	0.364171
802.376810	0.364893
802.568487	0.365012
802.760146	0.365023
802.951787	0.365250
803.143409	0.365620
803.335014	0.365973
803.526600	0.366033
803.718168	0.366201
803.909717	0.366365
804.101249	0.366391
804.292762	0.366446
804.484257	0.366968
804.675734	0.366995
804.867192	0.367434
805.058632	0.367428
805.250054	0.367887
805.441458	0.368233
805.632844	0.368442
805.824211	0.368418
806.015561	0.368834
806.206891	0.368993
806.398204	0.369457
806.589499	0.369501
806.780775	0.369657
806.972033	0.369474
807.163273	0.369408
807.354495	0.369766
807.545698	0.370346
807.736883	0.370501
807.928050	0.370738
808.119199	0.371057
808.310329	0.371414
808.501441	0.371893
808.692535	0.372444
808.883611	0.372957
809.074669	0.373184
809.265708	0.373531
809.456729	0.373918
809.647732	0.374519
809.838717	0.374799
810.029683	0.375210
810.220632	0.375408
810.411562	0.376062
810.602474	0.376306
810.793367	0.376839
810.984242	0.377276
811.175100	0.377589
811.365938	0.377520
811.556759	0.377742
811.747562	0.378009
811.938346	0.378278
812.129112	0.378329
812.319860	0.378500
812.510589	0.378684
812.701300	0.378883
812.891994	0.379328
813.082668	0.379528
813.273325	0.379564
813.463964	0.379788
813.654584	0.380066
813.845186	0.380434
814.035769	0.381081
814.226335	0.381567
814.416882	0.381701
814.607411	0.381950
814.797922	0.382461
814.988415	0.382787
815.178889	0.383069
815.369345	0.383968
815.559783	0.384276
815.750203	0.385038
815.940605	0.385583
816.130988	0.386078
816.321353	0.386692
816.511700	0.387249
816.702028	0.387843
816.892339	0.388785
817.082631	0.389038
817.272905	0.389263
817.463161	0.389250
817.653398	0.389672
817.843617	0.389989
818.033819	0.390090
818.224001	0.390236
818.414166	0.390483
818.604312	0.390313
818.794440	0.390217
818.984550	0.390711
819.174642	0.391024
819.364716	0.390958
819.554771	0.391263
819.744808	0.391156
819.934827	0.391474
820.124827	0.391790
820.314810	0.391940
820.504774	0.392497
820.694720	0.392554
820.884647	0.392617
821.074557	0.392759
821.264448	0.392932
821.454321	0.393740
821.644176	0.393968
821.834012	0.394115
822.023831	0.394776
822.213631	0.395116
822.403413	0.395700
822.593176	0.396335
822.782922	0.396664
822.972649	0.397068
823.162358	0.397179
823.352049	0.397623
823.541721	0.398014
823.731376	0.397971
823.921012	0.397981
824.110629	0.398266
824.300229	0.398721
824.489811	0.398940
824.679374	0.399364
824.868919	0.399663
825.058445	0.400042
825.247954	0.400209
825.437444	0.400700
825.626916	0.401070
825.816370	0.401149
826.005806	0.401117
826.195223	0.401413
826.384622	0.401280
826.574003	0.401499
826.763366	0.401896
826.952711	0.402874
827.142037	0.403084
827.331345	0.403655
827.520635	0.404596
827.709906	0.404911
827.899160	0.405605
828.088395	0.406093
828.277612	0.406628
828.466810	0.406921
828.655991	0.406877
828.845153	0.407262
829.034297	0.407500
829.223423	0.407123
829.412531	0.408024
829.601620	0.408466
829.790691	0.409086
829.979744	0.409152
830.168779	0.409283
830.357795	0.409680
830.546793	0.410264
830.735773	0.410418
830.924735	0.411098
831.113679	0.411132
831.302604	0.411433
831.491511	0.411786
831.680400	0.412376
831.869271	0.413007
832.058123	0.413214
832.246957	0.413700
832.435773	0.414084
832.624571	0.414300
832.813351	0.414579
833.002112	0.414896
833.190855	0.415212
833.379580	0.415692
833.568287	0.415820
833.756975	0.416239
833.945645	0.416344
834.134297	0.417258
834.322931	0.418236
834.511547	0.418547
834.700144	0.418888
834.888723	0.419234
835.077284	0.419551
835.265826	0.419834
835.454351	0.420311
835.642857	0.420756
835.831345	0.420603
836.019815	0.420605
836.208266	0.421196
836.396699	0.421568
836.585114	0.422077
836.773511	0.422561
836.961890	0.423272
837.150250	0.423236
837.338592	0.423549
837.526916	0.424224
837.715222	0.424488
837.903510	0.424528
838.091779	0.425223
838.280030	0.425624
838.468263	0.426186
838.656477	0.426621
838.844674	0.427384
839.032852	0.428179
839.221012	0.428470
839.409153	0.428652
839.597277	0.429221
839.785382	0.429383
839.973469	0.429984
840.161538	0.430020
840.349589	0.430065
840.537621	0.430807
840.725635	0.430729
840.913631	0.431281
841.101609	0.432194
841.289568	0.432351
841.477509	0.432742
841.665432	0.432959
841.853337	0.433606
842.041224	0.434450
842.229092	0.434445
842.416942	0.435177
842.604774	0.434993
842.792588	0.435010
842.980383	0.435493
843.168160	0.435759
843.355919	0.436339
843.543660	0.436738
843.731382	0.436953
843.919087	0.437436
844.106773	0.437672
844.294441	0.438444
844.482090	0.438994
844.669722	0.439392
844.857335	0.440040
845.044930	0.440300
845.232507	0.440396
845.420065	0.441073
845.607605	0.441565
845.795127	0.441604
845.982631	0.442134
846.170117	0.442484
846.357584	0.443343
846.545033	0.443501
846.732464	0.444166
846.919877	0.445140
847.107272	0.445312
847.294648	0.446157
847.482006	0.446943
847.669346	0.447022
847.856667	0.447368
848.043971	0.447862
848.231256	0.448930
848.418523	0.449433
848.605771	0.449457
848.793002	0.449949
848.980214	0.450032
849.167408	0.450634
849.354584	0.451296
849.541742	0.452213
849.728881	0.452252
849.916002	0.452151
850.103105	0.452442
850.290190	0.453093
850.477256	0.453396
850.664304	0.454133
850.851334	0.454113
851.038346	0.454629
851.225340	0.454195
851.412315	0.454546
851.599272	0.454663
851.786211	0.454619
851.973132	0.454664
852.160034	0.455128
852.346918	0.455314
852.533784	0.456217
852.720632	0.456342
852.907462	0.456829
853.094273	0.457311
853.281066	0.457574
853.467841	0.457452
853.654598	0.458000
853.841336	0.458396
854.028056	0.458603
854.214758	0.458795
854.401442	0.459540
854.588107	0.460372
854.774755	0.460512
854.961384	0.461288
855.147995	0.462564
855.334587	0.462586
855.521162	0.462650
855.707718	0.462915
855.894256	0.463330
856.080775	0.463335
856.267277	0.463547
856.453760	0.464281
856.640225	0.464443
856.826672	0.464750
857.013101	0.465583
857.199511	0.465957
857.385903	0.466479
857.572277	0.466616
857.758633	0.467267
857.944970	0.467790
858.131290	0.468339
858.317591	0.468979
858.503873	0.468608
858.690138	0.468767
858.876384	0.469165
859.062612	0.469077
859.248822	0.469617
859.435014	0.469714
859.621188	0.469660
859.807343	0.469884
859.993480	0.470067
860.179599	0.471125
860.365699	0.471835
860.551781	0.471992
860.737846	0.472372
860.923891	0.472530
861.109919	0.472687
861.295929	0.473560
861.481920	0.474035
861.667893	0.474620
861.853848	0.474833
862.039784	0.474718
862.225702	0.475097
862.411603	0.475410
862.597484	0.475970
862.783348	0.476682
862.969193	0.476589
863.155021	0.476397
863.340830	0.476729
863.526620	0.477008
863.712393	0.477851
863.898147	0.478329
864.083883	0.479198
864.269601	0.479485
864.455301	0.479321
864.640982	0.479590
864.826645	0.479778
865.012290	0.480029
865.197917	0.480568
865.383526	0.480576
865.569116	0.481240
865.754688	0.481215
865.940242	0.481136
866.125777	0.481771
866.311295	0.481749
866.496794	0.482394
866.682275	0.482575
866.867737	0.481931
867.053182	0.482124
867.238608	0.482085
867.424016	0.482442
867.609406	0.483118
867.794778	0.483411
867.980131	0.483994
868.165466	0.484073
868.350783	0.484046
868.536082	0.484779
868.721362	0.484729
868.906625	0.484784
869.091869	0.484750
869.277094	0.484845
869.462302	0.485083
869.647491	0.484946
869.832662	0.484886
870.017815	0.485391
870.202950	0.485913
870.388066	0.485956
870.573165	0.486239
870.758245	0.486512
870.943306	0.486088
871.128350	0.485892
871.313375	0.486139
871.498382	0.486185
871.683371	0.485893
871.868342	0.485813
872.053294	0.486268
872.238229	0.485963
872.423144	0.486261
872.608042	0.486780
872.792922	0.486968
872.977783	0.487401
873.162626	0.488150
873.347451	0.488490
873.532258	0.488716
873.717046	0.489252
873.901816	0.489664
874.086568	0.489427
874.271302	0.490148
874.456017	0.490669
874.640715	0.490673
874.825394	0.490975
875.010055	0.491795
875.194697	0.491524
875.379322	0.491514
875.563928	0.491949
875.748516	0.492414
875.933085	0.491464
876.117637	0.491459
876.302170	0.491926
876.486685	0.491903
876.671182	0.491497
876.855661	0.491768
877.040121	0.491603
877.224563	0.491508
877.408987	0.491774
877.593393	0.493273
877.777780	0.493348
877.962150	0.493253
878.146501	0.493775
878.330833	0.494237
878.515148	0.494314
878.699444	0.494722
878.883722	0.495098
879.067982	0.494896
879.252224	0.494311
879.436447	0.494278
879.620653	0.494571
879.804840	0.494182
879.989008	0.494175
880.173159	0.494360
880.357291	0.494429
880.541405	0.494431
880.725501	0.494480
880.909579	0.494480
881.093638	0.494541
881.277680	0.494521
881.461703	0.494605
881.645707	0.494506
881.829694	0.495086
882.013662	0.494687
882.197612	0.494932
882.381544	0.495287
882.565458	0.494889
882.749353	0.495208
882.933230	0.495249
883.117089	0.494650
883.300930	0.494434
883.484753	0.494364
883.668557	0.494698
883.852343	0.494387
884.036111	0.493959
884.219861	0.494047
884.403592	0.493895
884.587305	0.494680
884.771000	0.495092
884.954677	0.495445
885.138335	0.495292
885.321976	0.495026
885.505598	0.495271
885.689201	0.495663
885.872787	0.495823
886.056354	0.496267
886.239904	0.495459
886.423434	0.495707
886.606947	0.495919
886.790442	0.495975
886.973918	0.496709
887.157376	0.496682
887.340816	0.497108
887.524237	0.497459
887.707641	0.497400
887.891026	0.497236
888.074393	0.497284
888.257741	0.497026
888.441072	0.496734
888.624384	0.496551
888.807678	0.496777
888.990954	0.496729
889.174211	0.496863
889.357451	0.496543
889.540672	0.496715
889.723875	0.496553
889.907059	0.496220
890.090226	0.496272
890.273374	0.495331
890.456504	0.495190
890.639616	0.494614
890.822709	0.494116
891.005785	0.493580
891.188842	0.493690
891.371881	0.493329
891.554901	0.493271
891.737904	0.493601
891.920888	0.494709
892.103854	0.493976
892.286802	0.493891
892.469731	0.494023
892.652643	0.494639
892.835536	0.494343
893.018410	0.494934
893.201267	0.494676
893.384106	0.494025
893.566926	0.493287
893.749728	0.493875
893.932511	0.493981
894.115277	0.493406
894.298024	0.493066
894.480753	0.492607
894.663464	0.491769
894.846157	0.491613
895.028831	0.491559
895.211487	0.491139
895.394125	0.490748
895.576745	0.490457
895.759346	0.490620
895.941930	0.490380
896.124495	0.490421
896.307041	0.490386
896.489570	0.490211
896.672080	0.489749
896.854573	0.489657
897.037046	0.489031
897.219502	0.488615
897.401940	0.487972
897.584359	0.487400
897.766760	0.487128
897.949143	0.486560
898.131507	0.486346
898.313854	0.486433
898.496182	0.486246
898.678492	0.486232
898.860783	0.485546
899.043057	0.485779
899.225312	0.486305
899.407549	0.486306
899.589768	0.485822
899.771968	0.485795
899.954151	0.485569
900.136315	0.484995
900.318461	0.485034
900.500588	0.485322
900.682698	0.485078
900.864789	0.483845
901.046862	0.483289
901.228917	0.483249
901.410953	0.482642
901.592971	0.482362
901.774972	0.482222
901.956953	0.481214
902.138917	0.481187
902.320862	0.480921
902.502790	0.480815
902.684699	0.480771
902.866589	0.480792
903.048462	0.480312
903.230316	0.479403
903.412152	0.479325
903.593970	0.480184
903.775770	0.479301
903.957551	0.478756
904.139314	0.478734
904.321059	0.477401
904.502786	0.477563
904.684494	0.478035
904.866185	0.478009
905.047857	0.476987
905.229510	0.476135
905.411146	0.475851
905.592763	0.475628
905.774363	0.475431
905.955943	0.475372
906.137506	0.473999
906.319051	0.472864
906.500577	0.472559
906.682085	0.471823
906.863575	0.471221
907.045046	0.470720
907.226500	0.469769
907.407935	0.469327
907.589352	0.469641
907.770750	0.469591
907.952131	0.468892
908.133493	0.468115
908.314837	0.468025
908.496163	0.467685
908.677470	0.467203
908.858760	0.466587
909.040031	0.465436
909.221284	0.464222
909.402518	0.463324
909.583735	0.463261
909.764933	0.462724
909.946113	0.462543
910.127275	0.461210
910.308418	0.460705
910.489544	0.460636
910.670651	0.460257
910.851740	0.459842
911.032810	0.459587
911.213863	0.458361
911.394897	0.457717
911.575913	0.457107
911.756911	0.456822
911.937890	0.456068
912.118851	0.455501
912.299794	0.454934
912.480719	0.454123
912.661626	0.452708
912.842514	0.451777
913.023384	0.451423
913.204236	0.450332
913.385070	0.449956
913.565886	0.448902
913.746683	0.448275
913.927462	0.447789
914.108223	0.447233
914.288965	0.447421
914.469690	0.447364
914.650396	0.446841
914.831084	0.446272
915.011754	0.445038
915.192405	0.445310
915.373038	0.444170
915.553653	0.443917
915.734250	0.443053
915.914829	0.442148
916.095389	0.441561
916.275931	0.440295
916.456455	0.440461
916.636961	0.440188
916.817448	0.439759
916.997917	0.439342
917.178368	0.437896
917.358801	0.437461
917.539216	0.436345
917.719612	0.435652
917.899990	0.435403
918.080350	0.433970
918.260692	0.432862
918.441015	0.431965
918.621320	0.431358
918.801607	0.430945
918.981876	0.430092
919.162127	0.429860
919.342359	0.429313
919.522573	0.428479
919.702769	0.428564
919.882947	0.428275
920.063106	0.426397
920.243247	0.425846
920.423370	0.424925
920.603475	0.424146
920.783562	0.422461
920.963630	0.421823
921.143680	0.420915
921.323712	0.419723
921.503725	0.419728
921.683721	0.420132
921.863698	0.419574
922.043657	0.419103
922.223598	0.418017
922.403520	0.418545
922.583424	0.417528
922.763311	0.417214
922.943178	0.416307
923.123028	0.413823
923.302859	0.412042
923.482673	0.410973
923.662467	0.409430
923.842244	0.409310
924.022003	0.408622
924.201743	0.407809
924.381465	0.406715
924.561169	0.406250
924.740854	0.406096
924.920522	0.405363
925.100171	0.403507
925.279802	0.402493
925.459414	0.401164
925.639009	0.399612
925.818585	0.398536
925.998143	0.397585
926.177683	0.395441
926.357205	0.394532
926.536708	0.393315
926.716193	0.393037
926.895660	0.393395
927.075109	0.392571
927.254539	0.391447
927.433951	0.390140
927.613345	0.389238
927.792721	0.388594
927.972079	0.387616
928.151418	0.386281
928.330739	0.384726
928.510042	0.381920
928.689327	0.381316
928.868593	0.380067
929.047841	0.379230
929.227071	0.377984
929.406283	0.377330
929.585476	0.376204
929.764652	0.376207
929.943809	0.374811
930.122948	0.373909
930.302068	0.372166
930.481171	0.371550
930.660255	0.370689
930.839321	0.369466
931.018369	0.369110
931.197398	0.368072
931.376409	0.366934
931.555402	0.366714
931.734377	0.366377
931.913334	0.365304
932.092272	0.365206
932.271192	0.364310
932.450094	0.363755
932.628978	0.361905
932.807844	0.360154
932.986691	0.358352
933.165520	0.357241
933.344331	0.356666
933.523123	0.356048
933.701898	0.353828
933.880654	0.353080
934.059392	0.351349
934.238111	0.350633
934.416813	0.351121
934.595496	0.350693
934.774161	0.350098
934.952808	0.347811
935.131437	0.347405
935.310047	0.346409
935.488639	0.344571
935.667213	0.344171
935.845769	0.342360
936.024306	0.339830
936.202825	0.337986
936.381326	0.336060
936.559809	0.335706
936.738274	0.334294
936.916720	0.333162
937.095148	0.332544
937.273558	0.330676
937.451950	0.329152
937.630323	0.328135
937.808678	0.328059
937.987015	0.327728
938.165334	0.326897
938.343635	0.325130
938.521917	0.324597
938.700181	0.324004
938.878427	0.322874
939.056655	0.322549
939.234864	0.322329
939.413055	0.321488
939.591228	0.320234
939.769383	0.319441
939.947519	0.317732
940.125638	0.315212
940.303738	0.312424
940.481820	0.311799
940.659883	0.310827
940.837929	0.308704
941.015956	0.306890
941.193965	0.305690
941.371955	0.304918
941.549928	0.303511
941.727882	0.304018
941.905818	0.303300
942.083736	0.301851
942.261636	0.300445
942.439517	0.300982
942.617380	0.299749
942.795225	0.298332
942.973052	0.296528
943.150860	0.297028
943.328651	0.295622
943.506423	0.294449
943.684176	0.294099
943.861912	0.292432
944.039629	0.290200
944.217328	0.289529
944.395009	0.287623
944.572672	0.285827
944.750317	0.283412
944.927943	0.280857
945.105551	0.280973
945.283141	0.279046
945.460712	0.278143
945.638265	0.277047
945.815801	0.275368
945.993317	0.273890
946.170816	0.273259
946.348297	0.272209
946.525759	0.271789
946.703203	0.268965
946.880629	0.268516
947.058036	0.267766
947.235425	0.265298
947.412797	0.264644
947.590149	0.263697
947.767484	0.263351
947.944800	0.263115
948.122099	0.262519
948.299379	0.261779
948.476640	0.258497
948.653884	0.257471
948.831109	0.257031
949.008316	0.256710
949.185505	0.256414
949.362676	0.254329
949.539828	0.253471
949.716962	0.251843
949.894078	0.252323
950.071176	0.252098
950.248256	0.251745
950.425317	0.252526
950.602360	0.252471
950.779385	0.251600
950.956391	0.252440
951.133380	0.251508
951.310350	0.251531
951.487302	0.250484
951.664235	0.250402
951.841151	0.247711
952.018048	0.247147
952.194927	0.244435
952.371788	0.243237
952.548631	0.241228
952.725455	0.239071
952.902261	0.235633
953.079049	0.233950
953.255819	0.232567
953.432570	0.231780
953.609303	0.227645
953.786018	0.224932
953.962715	0.223910
954.139394	0.221256
954.316054	0.220383
954.492696	0.220082
954.669320	0.218260
954.845926	0.217263
955.022513	0.217156
955.199083	0.218351
955.375634	0.217401
955.552166	0.216061
955.728681	0.215728
955.905177	0.213405
956.081655	0.214585
956.258115	0.215394
956.434557	0.212902
956.610980	0.212801
956.787385	0.209030
956.963772	0.211505
957.140141	0.212696
957.316492	0.211279
957.492824	0.213259
957.669138	0.211877
957.845434	0.209092
958.021712	0.211380
958.197971	0.209033
958.374212	0.211383
958.550435	0.207474
958.726640	0.205780
958.902826	0.204596
959.078995	0.202205
959.255145	0.199629
959.431277	0.199445
959.607390	0.198636
959.783486	0.197370
959.959563	0.195796
960.135622	0.197200
960.311662	0.196202
960.487685	0.197896
960.663689	0.196746
960.839675	0.196303
961.015643	0.196961
961.191593	0.197005
961.367524	0.196338
961.543437	0.198068
961.719332	0.197645
961.895209	0.198844
962.071067	0.197009
962.246907	0.199188
962.422730	0.196490
962.598533	0.194698
962.774319	0.194238
962.950086	0.194751
963.125835	0.193503
963.301566	0.192711
963.477279	0.191989
963.652973	0.192904
963.828650	0.191285
964.004308	0.194555
964.179947	0.193639
964.355569	0.192613
964.531172	0.190594
964.706757	0.187847
964.882324	0.186051
965.057873	0.185280
965.233403	0.182610
965.408916	0.183514
965.584410	0.182833
965.759885	0.187332
965.935343	0.184215
966.110782	0.187815
966.286203	0.187789
966.461606	0.187887
966.636991	0.186160
966.812357	0.186463
966.987705	0.186379
967.163035	0.186650
967.338347	0.180328
967.513641	0.183631
967.688916	0.183128
967.864173	0.183672
968.039412	0.183804
968.214632	0.182765
968.389835	0.181226
968.565019	0.180073
968.740185	0.180730
968.915333	0.185431
969.090462	0.186124
969.265573	0.187319
969.440667	0.187525
969.615741	0.189217
969.790798	0.192447
969.965836	0.196027
970.140856	0.195846
970.315858	0.196768
970.490842	0.192105
970.665808	0.190494
970.840755	0.187741
971.015684	0.188853
971.190595	0.188233
971.365487	0.187812
971.540362	0.187444
971.715218	0.188457
971.890056	0.186297
972.064875	0.186887
972.239677	0.187987
972.414460	0.188356
972.589225	0.188592
972.763972	0.186050
972.938700	0.183814
973.113411	0.183312
973.288103	0.185514
973.462777	0.186517
973.637432	0.189011
973.812070	0.185128
973.986689	0.184819
974.161290	0.181897
974.335873	0.184380
974.510437	0.186007
974.684984	0.183779
974.859512	0.180566
975.034022	0.180180
975.208513	0.180520
975.382987	0.187417
975.557442	0.189084
975.731879	0.191540
975.906298	0.191224
976.080698	0.190851
976.255080	0.194149
976.429445	0.193749
976.603790	0.192628
976.778118	0.193138
976.952427	0.186673
977.126719	0.186445
977.300992	0.185147
977.475246	0.186196
977.649483	0.187304
977.823701	0.186840
977.997901	0.186167
978.172083	0.183699
978.346247	0.182757
978.520392	0.186831
978.694519	0.186638
978.868628	0.185685
979.042719	0.184898
979.216791	0.184783
979.390845	0.184709
979.564882	0.184272
979.738899	0.188048
979.912899	0.187625
980.086880	0.184250
980.260843	0.183689
980.434788	0.185835
980.608715	0.187645
980.782623	0.186757
980.956514	0.184031
981.130386	0.185631
981.304240	0.185558
981.478075	0.185712
981.651892	0.187644
981.825692	0.186611
981.999472	0.187729
982.173235	0.185479
982.346980	0.185503
982.520706	0.187347
982.694414	0.187912
982.868104	0.188880
983.041775	0.191443
983.215428	0.191910
983.389064	0.192443
983.562680	0.189343
983.736279	0.186864
983.909860	0.187179
984.083422	0.188655
984.256966	0.187564
984.430491	0.189702
984.603999	0.188526
984.777488	0.189047
984.950959	0.188143
985.124412	0.189235
985.297847	0.187967
985.471263	0.188680
985.644661	0.187816
985.818041	0.188194
985.991403	0.184633
986.164747	0.182725
986.338072	0.181870
986.511379	0.181920
986.684668	0.182072
986.857938	0.185766
987.031191	0.182567
987.204425	0.182121
987.377641	0.182486
987.550839	0.184540
987.724018	0.184653
987.897179	0.184576
988.070322	0.184163
988.243447	0.185153
988.416554	0.186190
988.589642	0.187757
988.762712	0.187252
988.935764	0.188207
989.108798	0.186238
989.281813	0.184913
989.454811	0.183410
989.627790	0.185279
989.800751	0.185068
989.973693	0.180792
990.146617	0.181916
990.319524	0.183462
990.492412	0.180385
990.665281	0.182658
990.838133	0.183945
991.010966	0.183214
991.183781	0.181441
991.356578	0.179337
991.529356	0.181501
991.702117	0.183291
991.874859	0.183362
992.047583	0.184309
992.220288	0.182615
992.392976	0.181300
992.565645	0.183540
992.738296	0.184949
992.910929	0.186826
993.083543	0.187356
993.256139	0.185347
993.428718	0.183320
993.601277	0.185451
993.773819	0.184780
993.946342	0.185271
994.118848	0.186404
994.291335	0.185616
994.463803	0.184951
994.636254	0.185401
994.808686	0.186907
994.981100	0.186979
995.153496	0.186938
995.325874	0.187716
995.498233	0.187415
995.670574	0.185923
995.842897	0.184820
996.015202	0.184108
996.187488	0.183854
996.359757	0.181151
996.532007	0.181579
996.704239	0.179195
996.876452	0.176557
997.048648	0.178230
997.220825	0.177489
997.392984	0.179769
997.565124	0.180873
997.737247	0.178725
997.909351	0.181187
998.081437	0.182544
998.253505	0.185883
998.425554	0.186577
998.597586	0.186669
998.769599	0.186005
998.941594	0.185805
999.113571	0.186726
999.285529	0.188239
999.457469	0.186390
999.629391	0.183892
999.801295	0.180281
999.973181	0.182508
1000.145048	0.181333
1000.316897	0.181388
1000.488728	0.182701
1000.660541	0.180690
1000.832335	0.181542
1001.004111	0.182592
1001.175869	0.183519
1001.347609	0.183677
1001.519331	0.181709
1001.691034	0.182381
1001.862719	0.182383
1002.034386	0.180071
1002.206035	0.179472
1002.377665	0.178754
1002.549277	0.177836
1002.720871	0.177635
1002.892447	0.180981
1003.064004	0.180288
1003.235544	0.179454
1003.407065	0.179351
1003.578568	0.180066
1003.750052	0.183048
1003.921519	0.183641
1004.092967	0.184197
1004.264397	0.185416
1004.435809	0.184300
1004.607202	0.185423
1004.778577	0.186654
1004.949934	0.187096
1005.121273	0.187881
1005.292594	0.186349
1005.463896	0.186587
1005.635180	0.183291
1005.806446	0.182046
1005.977694	0.180132
1006.148923	0.180956
1006.320135	0.180409
1006.491328	0.181729
1006.662503	0.182149
1006.833659	0.181773
1007.004798	0.181393
1007.175918	0.183948
1007.347020	0.185140
1007.518103	0.186258
1007.689169	0.186044
1007.860216	0.188205
1008.031245	0.186342
1008.202256	0.184989
1008.373248	0.185652
1008.544223	0.183482
1008.715179	0.182792
1008.886117	0.182477
1009.057036	0.180876
1009.227938	0.180276
1009.398821	0.176923
1009.569686	0.175521
1009.740533	0.175381
1009.911361	0.174662
1010.082172	0.175689
1010.252964	0.174578
1010.423738	0.174796
1010.594493	0.175969
1010.765231	0.178161
1010.935950	0.179090
1011.106651	0.180618
1011.277334	0.181330
1011.447998	0.180232
1011.618645	0.180701
1011.789273	0.181639
1011.959882	0.180432
1012.130474	0.180199
1012.301048	0.177040
1012.471603	0.176041
1012.642140	0.174872
1012.812658	0.173007
1012.983159	0.173264
1013.153641	0.172882
1013.324105	0.173054
1013.494551	0.172533
1013.664979	0.171808
1013.835388	0.172849
1014.005779	0.173698
1014.176152	0.176103
1014.346507	0.178626
1014.516843	0.179016
1014.687162	0.178829
1014.857462	0.178561
1015.027744	0.178065
1015.198007	0.178540
1015.368252	0.179708
1015.538480	0.179731
1015.708689	0.178994
1015.878879	0.177494
1016.049052	0.177446
1016.219206	0.177814
1016.389342	0.177420
1016.559460	0.178860
1016.729559	0.177437
1016.899641	0.176657
1017.069704	0.176441
1017.239749	0.177107
1017.409775	0.178890
1017.579784	0.178934
1017.749774	0.179946
1017.919746	0.178698
1018.089700	0.180285
1018.259635	0.180691
1018.429553	0.180861
1018.599452	0.181357
1018.769333	0.178896
1018.939195	0.176466
1019.109040	0.175832
1019.278866	0.173786
1019.448674	0.172620
1019.618464	0.169060
1019.788235	0.169205
1019.957989	0.168574
1020.127724	0.166903
1020.297441	0.166877
1020.467139	0.164726
1020.636820	0.165248
1020.806482	0.166731
1020.976126	0.166894
1021.145752	0.169563
1021.315359	0.170488
1021.484948	0.169323
1021.654519	0.169101
1021.824072	0.170593
1021.993607	0.172802
1022.163123	0.172450
1022.332621	0.173895
1022.502101	0.176680
1022.671563	0.176012
1022.841007	0.174194
1023.010432	0.176805
1023.179839	0.176284
1023.349228	0.175795
1023.518598	0.175799
1023.687951	0.175972
1023.857285	0.173412
1024.026601	0.173807
1024.195899	0.172733
1024.365178	0.174246
1024.534439	0.173464
1024.703682	0.174175
1024.872907	0.173705
1025.042114	0.172287
1025.211302	0.171270
1025.380472	0.170955
1025.549624	0.171490
1025.718758	0.171770
1025.887873	0.171684
1026.056970	0.171589
1026.226049	0.172405
1026.395110	0.172783
1026.564153	0.173225
1026.733177	0.174517
1026.902183	0.174732
1027.071171	0.173720
1027.240141	0.175278
1027.409092	0.173574
1027.578026	0.170783
1027.746940	0.173299
1027.915837	0.174591
1028.084716	0.175883
1028.253576	0.176231
1028.422418	0.176993
1028.591242	0.177269
1028.760048	0.176100
1028.928835	0.177328
1029.097604	0.178363
1029.266355	0.177850
1029.435088	0.174789
1029.603803	0.173066
1029.772499	0.171534
1029.941177	0.169438
1030.109837	0.170523
1030.278478	0.170586
1030.447102	0.170143
1030.615707	0.171510
1030.784294	0.168600
1030.952863	0.170835
1031.121413	0.169222
1031.289945	0.170326
1031.458460	0.171494
1031.626955	0.170095
1031.795433	0.168286
1031.963892	0.167737
1032.132334	0.166118
1032.300756	0.165359
1032.469161	0.164524
1032.637548	0.166752
1032.805916	0.165442
1032.974266	0.165751
1033.142598	0.167352
1033.310911	0.166455
1033.479207	0.168522
1033.647484	0.168294
1033.815743	0.170266
1033.983983	0.171239
1034.152206	0.172907
1034.320410	0.174760
1034.488596	0.175931
1034.656764	0.173678
1034.824914	0.178131
1034.993045	0.178090
1035.161158	0.179972
1035.329253	0.181125
1035.497330	0.180437
1035.665388	0.181345
1035.833428	0.179406
1036.001450	0.178741
1036.169454	0.178362
1036.337440	0.174991
1036.505407	0.173216
1036.673356	0.171885
1036.841287	0.170610
1037.009200	0.168122
1037.177094	0.165501
1037.344970	0.164660
1037.512828	0.164127
1037.680668	0.164618
1037.848489	0.164011
1038.016293	0.163888
1038.184078	0.163826
1038.351845	0.163006
1038.519593	0.164095
1038.687324	0.164394
1038.855036	0.167314
1039.022730	0.167743
1039.190406	0.166473
1039.358063	0.167679
1039.525702	0.168465
1039.693323	0.168718
1039.860926	0.167294
1040.028511	0.168113
1040.196077	0.170115
1040.363625	0.168317
1040.531155	0.167789
1040.698667	0.168138
1040.866161	0.169343
1041.033636	0.170074
1041.201093	0.171150
1041.368532	0.171065
1041.535952	0.171345
1041.703355	0.168080
1041.870739	0.169913
1042.038105	0.169682
1042.205452	0.173234
1042.372782	0.172850
1042.540093	0.170581
1042.707386	0.170300
1042.874661	0.171695
1043.041918	0.170287
1043.209156	0.170742
1043.376376	0.169569
1043.543578	0.169537
1043.710762	0.168245
1043.877927	0.170452
1044.045074	0.171759
1044.212203	0.171024
1044.379314	0.171750
1044.546407	0.172882
1044.713481	0.174765
1044.880537	0.174213
1045.047575	0.177292
1045.214595	0.177181
1045.381596	0.172281
1045.548579	0.172701
1045.715544	0.174129
1045.882491	0.172188
1046.049420	0.172417
1046.216330	0.171498
1046.383222	0.171765
1046.550096	0.170025
1046.716951	0.169415
1046.883789	0.170854
1047.050608	0.171842
1047.217409	0.170516
1047.384192	0.173585
1047.550956	0.171768
1047.717703	0.172288
1047.884431	0.171642
1048.051140	0.172879
1048.217832	0.170814
1048.384505	0.172821
1048.551161	0.172751
1048.717798	0.171572
1048.884416	0.169133
1049.051017	0.171244
1049.217599	0.170850
1049.384163	0.172756
1049.550709	0.170452
1049.717237	0.173685
1049.883746	0.171767
1050.050237	0.169702
1050.216710	0.171431
1050.383165	0.172498
1050.549601	0.171632
1050.716019	0.169986
1050.882420	0.169870
1051.048801	0.170776
1051.215165	0.170874
1051.381510	0.170996
1051.547837	0.171571
1051.714146	0.170901
1051.880437	0.172852
1052.046709	0.174209
1052.212964	0.175980
1052.379200	0.174568
1052.545417	0.172840
1052.711617	0.171177
1052.877798	0.172787
1053.043961	0.171776
1053.210106	0.172778
1053.376233	0.171799
1053.542341	0.170453
1053.708432	0.170088
1053.874504	0.169409
1054.040557	0.170568
1054.206593	0.172962
1054.372610	0.169538
1054.538609	0.171308
1054.704590	0.170998
1054.870553	0.170271
1055.036497	0.171647
1055.202424	0.172548
1055.368331	0.173937
1055.534221	0.173484
1055.700093	0.170825
1055.865946	0.173653
1056.031781	0.173965
1056.197598	0.174332
1056.363397	0.176260
1056.529177	0.175832
1056.694939	0.172405
1056.860683	0.170703
1057.026409	0.169742
1057.192116	0.172614
1057.357806	0.172724
1057.523477	0.172634
1057.689130	0.171237
1057.854764	0.170101
1058.020381	0.169996
1058.185979	0.171422
1058.351559	0.174047
1058.517120	0.177780
1058.682664	0.175777
1058.848189	0.177070
1059.013696	0.178817
1059.179185	0.178723
1059.344656	0.176874
1059.510108	0.177160
1059.675542	0.176855
1059.840958	0.175839
1060.006356	0.174634
1060.171735	0.173814
1060.337096	0.171280
1060.502439	0.170254
1060.667764	0.173253
1060.833071	0.171096
1060.998359	0.170770
1061.163629	0.174009
1061.328881	0.175746
1061.494115	0.176401
1061.659330	0.177880
1061.824527	0.180120
1061.989706	0.180288
1062.154867	0.177359
1062.320010	0.180001
1062.485134	0.182135
1062.650240	0.182570
1062.815328	0.182721
1062.980398	0.180317
1063.145449	0.179678
1063.310482	0.175836
1063.475497	0.173847
1063.640494	0.174793
1063.805473	0.176235
1063.970433	0.174217
1064.135375	0.173373
1064.300299	0.171565
1064.465204	0.174556
1064.630092	0.174911
1064.794961	0.176973
1064.959812	0.178792
1065.124645	0.179231
1065.289459	0.177686
1065.454256	0.178524
1065.619034	0.177627
1065.783793	0.177010
1065.948535	0.172573
1066.113258	0.172516
1066.277964	0.173986
1066.442651	0.173176
1066.607319	0.170767
1066.771970	0.172552
1066.936602	0.172101
1067.101216	0.172679
1067.265812	0.175926
1067.430389	0.177529
1067.594949	0.174957
1067.759490	0.174988
1067.924013	0.175721
1068.088518	0.175111
1068.253004	0.173354
1068.417472	0.172875
1068.581922	0.172194
1068.746354	0.171821
1068.910768	0.171455
1069.075163	0.171607
1069.239540	0.172592
1069.403899	0.172228
1069.568240	0.175805
1069.732562	0.177073
1069.896866	0.176268
1070.061152	0.177773
1070.225420	0.178306
1070.389670	0.181598
1070.553901	0.183217
1070.718114	0.183623
1070.882309	0.183687
1071.046486	0.182593
1071.210644	0.184084
1071.374784	0.183862
1071.538906	0.182478
1071.703010	0.178563
1071.867096	0.179522
1072.031163	0.180591
1072.195212	0.179529
1072.359243	0.179053
1072.523256	0.181879
1072.687250	0.176584
1072.851226	0.177151
1073.015184	0.178463
1073.179124	0.178657
1073.343045	0.176105
1073.506949	0.175881
1073.670834	0.175569
1073.834701	0.173351
1073.998549	0.169863
1074.162380	0.171720
1074.326192	0.173813
1074.489986	0.172538
1074.653761	0.174026
1074.817519	0.174007
1074.981258	0.175876
1075.144979	0.174791
1075.308682	0.179615
1075.472367	0.180283
1075.636033	0.181419
1075.799681	0.180860
1075.963311	0.181694
1076.126923	0.181377
1076.290516	0.178573
1076.454092	0.180048
1076.617649	0.179976
1076.781187	0.179737
1076.944708	0.180761
1077.108210	0.180478
1077.271695	0.182289
1077.435160	0.182455
1077.598608	0.186524
1077.762038	0.189167
1077.925449	0.184890
1078.088842	0.186836
1078.252217	0.185303
1078.415573	0.185223
1078.578912	0.186044
1078.742232	0.182603
1078.905534	0.183700
1079.068817	0.179737
1079.232083	0.182395
1079.395330	0.182779
1079.558559	0.182475
1079.721770	0.183581
1079.884962	0.181622
1080.048136	0.185434
1080.211293	0.186824
1080.374430	0.187538
1080.537550	0.185950
1080.700651	0.183746
1080.863735	0.184184
1081.026800	0.182002
1081.189846	0.179048
1081.352875	0.180566
1081.515885	0.177544
1081.678877	0.177127
1081.841851	0.176197
1082.004807	0.177152
1082.167744	0.177139
1082.330663	0.177547
1082.493564	0.177496
1082.656447	0.181734
1082.819312	0.181054
1082.982158	0.182169
1083.144986	0.183826
1083.307796	0.183051
1083.470587	0.184699
1083.633361	0.181546
1083.796116	0.178925
1083.958853	0.179973
1084.121571	0.179391
1084.284272	0.184344
1084.446954	0.186855
1084.609618	0.183674
1084.772264	0.184815
1084.934892	0.187369
1085.097501	0.192612
1085.260092	0.195420
1085.422665	0.197226
1085.585220	0.195906
1085.747756	0.192417
1085.910274	0.189645
1086.072774	0.190318
1086.235256	0.191318
1086.397720	0.189817
1086.560165	0.188200
1086.722592	0.189542
1086.885001	0.190513
1087.047392	0.189802
1087.209764	0.193925
1087.372119	0.190209
1087.534455	0.193789
1087.696772	0.191771
1087.859072	0.193810
1088.021353	0.194773
1088.183616	0.193170
1088.345861	0.190377
1088.508088	0.192057
1088.670296	0.189884
1088.832486	0.195908
1088.994658	0.196067
1089.156812	0.195471
1089.318948	0.194564
1089.481065	0.195556
1089.643164	0.195567
1089.805245	0.197136
1089.967308	0.198888
1090.129352	0.198384
1090.291378	0.191576
1090.453386	0.189892
1090.615376	0.189092
1090.777347	0.188047
1090.939301	0.189048
1091.101236	0.190987
1091.263153	0.190673
1091.425051	0.186757
1091.586932	0.184811
1091.748794	0.187591
1091.910638	0.187312
1092.072463	0.185633
1092.234271	0.182426
1092.396060	0.182049
1092.557831	0.184222
1092.719584	0.184526
1092.881319	0.186128
1093.043035	0.188603
1093.204733	0.193003
1093.366413	0.193768
1093.528075	0.197480
1093.689718	0.202128
1093.851343	0.201813
1094.012950	0.199267
1094.174539	0.195176
1094.336110	0.194243
1094.497662	0.190745
1094.659196	0.188517
1094.820712	0.190184
1094.982210	0.189932
1095.143689	0.189103
1095.305151	0.185785
1095.466594	0.184278
1095.628018	0.191636
1095.789425	0.194747
1095.950813	0.197082
1096.112183	0.194312
1096.273535	0.192644
1096.434869	0.192393
1096.596184	0.190044
1096.757482	0.193399
1096.918761	0.192285
1097.080021	0.187333
1097.241264	0.184428
1097.402488	0.184725
1097.563694	0.185327
1097.724882	0.184868
1097.886052	0.185359
1098.047203	0.184362
1098.208336	0.180599
1098.369451	0.181125
1098.530548	0.184229
1098.691627	0.186847
1098.852687	0.184413
1099.013729	0.186977
1099.174753	0.184550
1099.335758	0.184900
1099.496746	0.183853
1099.657715	0.181075
1099.818666	0.181123
1099.979599	0.180131
1100.140513	0.178059
1100.301409	0.179443
1100.462287	0.177369
1100.623147	0.179131
1100.783989	0.179427
1100.944812	0.182030
1101.105617	0.187327
1101.266404	0.191767
1101.427173	0.192369
1101.587923	0.191889
1101.748656	0.187787
1101.909370	0.187116
1102.070066	0.193102
1102.230743	0.193419
1102.391403	0.195043
1102.552044	0.197210
1102.712667	0.194659
1102.873271	0.192589
1103.033858	0.190938
1103.194426	0.195096
1103.354976	0.204894
1103.515508	0.203954
1103.676021	0.200530
1103.836517	0.201110
1103.996994	0.195451
1104.157453	0.197471
1104.317893	0.202051
1104.478316	0.210401
1104.638720	0.209513
1104.799106	0.203765
1104.959474	0.202065
1105.119823	0.209179
1105.280155	0.209018
1105.440468	0.216804
1105.600763	0.216484
1105.761039	0.212216
1105.921298	0.204155
1106.081538	0.199991
1106.241760	0.197161
1106.401964	0.195661
1106.562149	0.188413
1106.722316	0.185818
1106.882465	0.187125
1107.042596	0.185217
1107.202709	0.191876
1107.362803	0.198070
1107.522879	0.211068
1107.682937	0.213159
1107.842977	0.211862
1108.002999	0.213126
1108.163002	0.212602
1108.322987	0.210162
1108.482954	0.207799
1108.642902	0.200832
1108.802833	0.200732
1108.962745	0.192419
1109.122639	0.192489
1109.282515	0.188235
1109.442372	0.186773
1109.602211	0.186777
1109.762032	0.187682
1109.921835	0.189654
1110.081620	0.192997
1110.241386	0.182991
1110.401134	0.187876
1110.560864	0.186914
1110.720576	0.189988
1110.880269	0.196269
1111.039945	0.202943
1111.199602	0.210133
1111.359240	0.214561
1111.518861	0.216321
1111.678463	0.223821
1111.838047	0.218717
1111.997613	0.222516
1112.157161	0.231895
1112.316690	0.230829
1112.476202	0.228469
1112.635695	0.213930
1112.795169	0.206232
1112.954626	0.203421
1113.114064	0.201681
1113.273484	0.204354
1113.432886	0.190666
1113.592270	0.187666
1113.751635	0.185463
1113.910983	0.179683
1114.070312	0.178521
1114.229622	0.186057
1114.388915	0.182455
1114.548189	0.181945
1114.707445	0.186798
1114.866683	0.194264
1115.025903	0.188731
1115.185104	0.189124
1115.344287	0.194438
1115.503452	0.196504
1115.662599	0.195733
1115.821727	0.208359
1115.980838	0.216694
1116.139930	0.215650
1116.299004	0.218166
1116.458059	0.218665
1116.617097	0.222471
1116.776116	0.224290
1116.935117	0.233259
1117.094099	0.233534
1117.253064	0.219141
1117.412010	0.215925
1117.570938	0.213944
1117.729848	0.213399
1117.888740	0.219270
1118.047613	0.220362
1118.206468	0.214974
1118.365305	0.206969
1118.524124	0.203842
1118.682924	0.205392
1118.841707	0.207100
1119.000471	0.201291
1119.159216	0.208377
1119.317944	0.205403
1119.476653	0.208255
1119.635344	0.213706
1119.794017	0.223499
1119.952672	0.228466
1120.111308	0.225909
1120.269927	0.221985
1120.428527	0.227412
1120.587108	0.233240
1120.745672	0.235587
1120.904217	0.225348
1121.062744	0.219668
1121.221253	0.214109
1121.379744	0.207325
1121.538216	0.217020
1121.696671	0.220454
1121.855107	0.216687
1122.013524	0.205422
1122.171924	0.204383
1122.330305	0.212883
1122.488668	0.215554
1122.647013	0.209151
1122.805340	0.217232
1122.963648	0.220216
1123.121938	0.215167
1123.280210	0.223777
1123.438464	0.228702
1123.596700	0.229778
1123.754917	0.222549
1123.913116	0.229335
1124.071297	0.236944
1124.229459	0.230016
1124.387604	0.226972
1124.545730	0.222554
1124.703838	0.220405
1124.861928	0.225712
1125.019999	0.222373
1125.178052	0.221652
1125.336088	0.222128
1125.494104	0.216679
1125.652103	0.219780
1125.810083	0.210333
1125.968045	0.219310
1126.125989	0.222661
1126.283915	0.218699
1126.441823	0.217881
1126.599712	0.223014
1126.757583	0.218989
1126.915436	0.224635
1127.073270	0.221123
1127.231087	0.230036
1127.388885	0.226689
1127.546665	0.213684
1127.704426	0.208844
1127.862170	0.216071
1128.019895	0.211776
1128.177602	0.213692
1128.335291	0.211967
1128.492961	0.210123
1128.650614	0.208933
1128.808248	0.211494
1128.965864	0.219679
1129.123461	0.223460
1129.281041	0.220352
1129.438602	0.221236
1129.596145	0.218994
1129.753670	0.224601
1129.911176	0.225460
1130.068665	0.217436
1130.226135	0.218127
1130.383587	0.213733
1130.541020	0.210970
1130.698436	0.207412
1130.855833	0.215856
1131.013212	0.215190
1131.170573	0.208224
1131.327915	0.219092
1131.485239	0.226314
1131.642545	0.227049
1131.799833	0.237708
1131.957103	0.235171
1132.114354	0.234302
1132.271588	0.220205
1132.428803	0.206532
1132.585999	0.209134
1132.743178	0.206769
1132.900338	0.208644
1133.057480	0.212799
1133.214604	0.204995
1133.371710	0.198151
1133.528797	0.200871
1133.685866	0.205036
1133.842917	0.214531
1133.999950	0.211470
1134.156964	0.211102
1134.313960	0.209602
1134.470938	0.207795
1134.627898	0.208961
1134.784840	0.224708
1134.941763	0.226688
1135.098668	0.232355
1135.255555	0.232100
1135.412424	0.239194
1135.569274	0.236724
1135.726107	0.238028
1135.882921	0.236963
1136.039716	0.232113
1136.196494	0.229149
1136.353253	0.228030
1136.509995	0.241224
1136.666717	0.250611
1136.823422	0.249407
1136.980109	0.249463
1137.136777	0.246029
1137.293427	0.246210
1137.450059	0.259157
1137.606672	0.257972
1137.763267	0.258425
1137.919844	0.253179
1138.076403	0.252063
1138.232944	0.241275
1138.389466	0.237819
1138.545971	0.239201
1138.702457	0.227610
1138.858924	0.221081
1139.015374	0.221065
1139.171805	0.232960
1139.328218	0.219486
1139.484613	0.229825
1139.640990	0.237022
1139.797348	0.234175
1139.953688	0.227975
1140.110010	0.243387
1140.266314	0.243318
1140.422600	0.240480
1140.578867	0.226832
1140.735116	0.236072
1140.891347	0.224549
1141.047559	0.229244
1141.203754	0.232658
1141.359930	0.246767
1141.516088	0.240614
1141.672228	0.242473
1141.828349	0.245402
1141.984452	0.239861
1142.140537	0.245830
1142.296604	0.245404
1142.452653	0.244225
1142.608683	0.248352
1142.764695	0.238544
1142.920689	0.241484
1143.076665	0.242976
1143.232622	0.239190
1143.388562	0.250451
1143.544483	0.228170
1143.700385	0.231946
1143.856270	0.222555
1144.012136	0.229324
1144.167985	0.234845
1144.323814	0.226889
1144.479626	0.224597
1144.635420	0.228256
1144.791195	0.225249
1144.946952	0.235798
1145.102691	0.237346
1145.258411	0.249375
1145.414113	0.237672
1145.569798	0.241809
1145.725463	0.245010
1145.881111	0.248863
1146.036741	0.247569
1146.192352	0.244503
1146.347945	0.241572
1146.503519	0.233196
1146.659076	0.226566
1146.814614	0.240143
1146.970134	0.227829
1147.125636	0.235258
1147.281120	0.232659
1147.436585	0.226834
1147.592032	0.232888
1147.747461	0.228829
1147.902872	0.233153
1148.058265	0.228668
1148.213639	0.222603
1148.368995	0.236141
1148.524333	0.226922
1148.679653	0.243457
1148.834954	0.241246
1148.990237	0.253682
1149.145502	0.256497
1149.300749	0.248754
1149.455977	0.261401
1149.611188	0.258413
1149.766380	0.252838
1149.921553	0.257048
1150.076709	0.236541
1150.231846	0.241461
1150.386966	0.227773
1150.542066	0.234163
1150.697149	0.249201
1150.852214	0.249105
1151.007260	0.249656
1151.162288	0.248004
1151.317298	0.256901
1151.472289	0.258786
1151.627263	0.259273
1151.782218	0.248098
1151.937155	0.238007
1152.092073	0.222402
1152.246974	0.213076
1152.401856	0.214569
1152.556720	0.220597
1152.711566	0.222246
1152.866393	0.231554
1153.021203	0.232234
1153.175994	0.253746
1153.330767	0.269803
1153.485521	0.294737
1153.640258	0.285192
1153.794976	0.289684
1153.949676	0.284768
1154.104358	0.275351
1154.259021	0.272143
1154.413667	0.274341
1154.568294	0.266407
1154.722903	0.251205
1154.877493	0.213547
1155.032066	0.235021
1155.186620	0.227940
1155.341156	0.215888
1155.495674	0.209571
1155.650173	0.191642
1155.804654	0.208903
1155.959118	0.212627
1156.113562	0.212674
1156.267989	0.229936
1156.422397	0.226747
1156.576788	0.211922
1156.731160	0.220452
1156.885513	0.225503
1157.039849	0.217362
1157.194166	0.197729
1157.348465	0.182584
1157.502746	0.177771
1157.657009	0.167285
1157.811253	0.149995
1157.965479	0.168813
1158.119687	0.170676
1158.273877	0.158330
1158.428048	0.166059
1158.582201	0.174175
1158.736337	0.171556
1158.890453	0.173975
1159.044552	0.164572
1159.198632	0.162514
1159.352694	0.163788
1159.506738	0.159230
1159.660764	0.177575
1159.814771	0.189972
1159.968761	0.166298
1160.122732	0.169165
1160.276685	0.179779
1160.430619	0.201283
1160.584535	0.232085
1160.738434	0.217256
1160.892313	0.216728
1161.046175	0.195698
1161.200019	0.200771
1161.353844	0.220993
1161.507651	0.237989
1161.661440	0.223301
1161.815210	0.223052
1161.968962	0.199942
1162.122697	0.190787
1162.276412	0.193541
1162.430110	0.221926
1162.583789	0.207422
1162.737451	0.203114
1162.891094	0.202603
1163.044718	0.223036
1163.198325	0.221376
1163.351913	0.241085
1163.505483	0.270194
1163.659035	0.261930
1163.812569	0.253376
1163.966084	0.241930
1164.119581	0.241078
1164.273060	0.227840
1164.426521	0.215101
1164.579964	0.221932
1164.733388	0.222230
1164.886794	0.215218
1165.040182	0.216103
1165.193551	0.219806
1165.346903	0.234337
1165.500236	0.232733
1165.653551	0.251337
1165.806848	0.284613
1165.960126	0.284185
1166.113386	0.287317
1166.266628	0.275522
1166.419852	0.279775
1166.573058	0.264525
1166.726245	0.280535
1166.879414	0.300508
1167.032565	0.257288
1167.185698	0.207409
1167.338812	0.194759
1167.491909	0.180797
1167.644987	0.181992
1167.798046	0.188481
1167.951088	0.188338
1168.104111	0.174838
1168.257117	0.184551
1168.410103	0.215874
1168.563072	0.252193
1168.716023	0.244302
1168.868955	0.227996
1169.021869	0.209531
1169.174765	0.207491
1169.327642	0.211342
1169.480501	0.240568
1169.633343	0.186618
1169.786165	0.189371
1169.938970	0.160953
1170.091757	0.178450
1170.244525	0.193814
1170.397275	0.184623
1170.550007	0.174463
1170.702720	0.164271
1170.855415	0.136447
1171.008092	0.146369
1171.160751	0.115033
1171.313392	0.113873
1171.466014	0.192805
1171.618619	0.075277
1171.771205	0.075277
1171.923772	0.075277
