sample name	sample
index	959
start time	 04-12-2021  04:04:07 PM


Wavelength (nm)	Absorbance
494.344910	0.429230
494.563924	0.429230
494.782919	0.429230
495.001897	0.080602
495.220856	0.130521
495.439797	0.088210
495.658719	0.074990
495.877624	0.056132
496.096510	0.072015
496.315378	0.084046
496.534227	0.089246
496.753059	0.115548
496.971872	0.131750
497.190667	0.096938
497.409444	0.087747
497.628203	0.087033
497.846943	0.086816
498.065665	0.086423
498.284369	0.085250
498.503055	0.084198
498.721723	0.084194
498.940372	0.083335
499.159003	0.082893
499.377616	0.083502
499.596210	0.083178
499.814787	0.082317
500.033345	0.082088
500.251885	0.081980
500.470406	0.082808
500.688910	0.082161
500.907395	0.083514
501.125862	0.083011
501.344311	0.083645
501.562742	0.083861
501.781154	0.085082
501.999548	0.084902
502.217924	0.085598
502.436282	0.085479
502.654621	0.086732
502.872942	0.086035
503.091245	0.085934
503.309530	0.085837
503.527797	0.085286
503.746045	0.085264
503.964275	0.085223
504.182487	0.085480
504.400681	0.085082
504.618856	0.084830
504.837013	0.085221
505.055152	0.086420
505.273273	0.086372
505.491376	0.087632
505.709460	0.087149
505.927526	0.088115
506.145574	0.087621
506.363604	0.087887
506.581615	0.087878
506.799608	0.088389
507.017583	0.088002
507.235540	0.087572
507.453478	0.086983
507.671399	0.087719
507.889301	0.087166
508.107185	0.086712
508.325050	0.087635
508.542898	0.088607
508.760727	0.088658
508.978538	0.089121
509.196330	0.089506
509.414105	0.089720
509.631861	0.089724
509.849599	0.090691
510.067319	0.090687
510.285021	0.090486
510.502704	0.090067
510.720369	0.089592
510.938016	0.089604
511.155645	0.089775
511.373255	0.089965
511.590848	0.089414
511.808422	0.089073
512.025977	0.090020
512.243515	0.090227
512.461034	0.090927
512.678536	0.091092
512.896018	0.091981
513.113483	0.092237
513.330930	0.091845
513.548358	0.092434
513.765768	0.092550
513.983160	0.092012
514.200533	0.091943
514.417889	0.090739
514.635226	0.090690
514.852545	0.090269
515.069845	0.090288
515.287128	0.091363
515.504392	0.090993
515.721638	0.090658
515.938866	0.091287
516.156075	0.091271
516.373267	0.092145
516.590440	0.093295
516.807594	0.093595
517.024731	0.093961
517.241850	0.093772
517.458950	0.094719
517.676032	0.095370
517.893095	0.095958
518.110141	0.095799
518.327168	0.096059
518.544177	0.095224
518.761168	0.095499
518.978141	0.095474
519.195095	0.095630
519.412031	0.095543
519.628949	0.095256
519.845849	0.094636
520.062731	0.095182
520.279594	0.095111
520.496439	0.095319
520.713266	0.094784
520.930074	0.094761
521.146865	0.094668
521.363637	0.094628
521.580391	0.094905
521.797127	0.095261
522.013844	0.095306
522.230543	0.095089
522.447224	0.095430
522.663887	0.095623
522.880532	0.095518
523.097158	0.095980
523.313766	0.096251
523.530356	0.095994
523.746928	0.096580
523.963481	0.096947
524.180017	0.097127
524.396534	0.097228
524.613032	0.097634
524.829513	0.097841
525.045975	0.097661
525.262420	0.097975
525.478845	0.099199
525.695253	0.099171
525.911643	0.098996
526.128014	0.099974
526.344367	0.100049
526.560702	0.099815
526.777018	0.100113
526.993316	0.099933
527.209597	0.099703
527.425858	0.100098
527.642102	0.100067
527.858328	0.100236
528.074535	0.100142
528.290724	0.100499
528.506894	0.101338
528.723047	0.101983
528.939181	0.102925
529.155297	0.103842
529.371395	0.103290
529.587475	0.103791
529.803536	0.104306
530.019579	0.104124
530.235604	0.104283
530.451611	0.103883
530.667600	0.103915
530.883570	0.104045
531.099522	0.103504
531.315456	0.104219
531.531372	0.104305
531.747269	0.104612
531.963148	0.105126
532.179009	0.105291
532.394852	0.105876
532.610676	0.105875
532.826482	0.105680
533.042271	0.106296
533.258040	0.105837
533.473792	0.106047
533.689525	0.106271
533.905240	0.106262
534.120937	0.106280
534.336616	0.106665
534.552277	0.106849
534.767919	0.106930
534.983543	0.107068
535.199149	0.107386
535.414736	0.107770
535.630306	0.107894
535.845857	0.108427
536.061390	0.109169
536.276904	0.109680
536.492401	0.110372
536.707879	0.111305
536.923339	0.111861
537.138781	0.111970
537.354204	0.111340
537.569610	0.111515
537.784997	0.111485
538.000366	0.111015
538.215716	0.111048
538.431049	0.110953
538.646363	0.111086
538.861659	0.110414
539.076937	0.110314
539.292196	0.111217
539.507438	0.110955
539.722661	0.110922
539.937866	0.111713
540.153052	0.111744
540.368221	0.111493
540.583371	0.111040
540.798503	0.111649
541.013617	0.111525
541.228712	0.111544
541.443789	0.111331
541.658848	0.111169
541.873889	0.110908
542.088912	0.111166
542.303916	0.111452
542.518902	0.111478
542.733870	0.111482
542.948820	0.112416
543.163752	0.112430
543.378665	0.113072
543.593560	0.113758
543.808437	0.113810
544.023295	0.113160
544.238136	0.113334
544.452958	0.113570
544.667762	0.113624
544.882548	0.113949
545.097315	0.113773
545.312064	0.113941
545.526795	0.114283
545.741508	0.114582
545.956203	0.115325
546.170879	0.115526
546.385537	0.115708
546.600177	0.115889
546.814799	0.115437
547.029402	0.116103
547.243988	0.116312
547.458555	0.115926
547.673103	0.116283
547.887634	0.116370
548.102146	0.116346
548.316640	0.116659
548.531116	0.117163
548.745574	0.117448
548.960013	0.117253
549.174435	0.117229
549.388838	0.117647
549.603222	0.117816
549.817589	0.117830
550.031937	0.118076
550.246267	0.117867
550.460579	0.117661
550.674873	0.117721
550.889148	0.118238
551.103405	0.118294
551.317644	0.118492
551.531865	0.118140
551.746068	0.118323
551.960252	0.118543
552.174418	0.118813
552.388566	0.119145
552.602696	0.119492
552.816807	0.119382
553.030900	0.119680
553.244975	0.119463
553.459032	0.120008
553.673070	0.120564
553.887091	0.120528
554.101093	0.120597
554.315077	0.120517
554.529042	0.120402
554.742990	0.120858
554.956919	0.121325
555.170830	0.121920
555.384722	0.121861
555.598597	0.121595
555.812453	0.121704
556.026291	0.121916
556.240111	0.122072
556.453913	0.122224
556.667696	0.122341
556.881461	0.122214
557.095208	0.122451
557.308937	0.122510
557.522647	0.122894
557.736339	0.122987
557.950013	0.123234
558.163669	0.123290
558.377307	0.123266
558.590926	0.123360
558.804527	0.123654
559.018110	0.123317
559.231675	0.123629
559.445221	0.123475
559.658749	0.123697
559.872259	0.123932
560.085751	0.123773
560.299225	0.124052
560.512680	0.123972
560.726117	0.123452
560.939536	0.123635
561.152937	0.123395
561.366319	0.123280
561.579683	0.123470
561.793029	0.123152
562.006357	0.123441
562.219667	0.123484
562.432958	0.123561
562.646231	0.124022
562.859486	0.123975
563.072723	0.124385
563.285941	0.124591
563.499141	0.124320
563.712323	0.124341
563.925487	0.124248
564.138632	0.124364
564.351760	0.124346
564.564869	0.124682
564.777960	0.124672
564.991032	0.124348
565.204087	0.124521
565.417123	0.125086
565.630141	0.125396
565.843140	0.125823
566.056122	0.125886
566.269085	0.125949
566.482030	0.125826
566.694957	0.126131
566.907866	0.126279
567.120756	0.126151
567.333628	0.126154
567.546482	0.126346
567.759318	0.126481
567.972135	0.126760
568.184935	0.126819
568.397716	0.127058
568.610478	0.126911
568.823223	0.127030
569.035949	0.127122
569.248657	0.127224
569.461347	0.127544
569.674019	0.127501
569.886672	0.127320
570.099308	0.127857
570.311925	0.127390
570.524523	0.127741
570.737104	0.128137
570.949666	0.128568
571.162210	0.128393
571.374736	0.128024
571.587244	0.128189
571.799733	0.128434
572.012205	0.128451
572.224658	0.129178
572.437092	0.129378
572.649509	0.129392
572.861907	0.129451
573.074287	0.129411
573.286649	0.129717
573.498993	0.129588
573.711318	0.129575
573.923625	0.129360
574.135914	0.129220
574.348185	0.129090
574.560438	0.129322
574.772672	0.129137
574.984888	0.129190
575.197086	0.129217
575.409266	0.129355
575.621427	0.129410
575.833570	0.129281
576.045695	0.129231
576.257802	0.129408
576.469890	0.129244
576.681961	0.129122
576.894013	0.129619
577.106046	0.129516
577.318062	0.129618
577.530059	0.129669
577.742039	0.129938
577.954000	0.129907
578.165942	0.129874
578.377867	0.129944
578.589773	0.130451
578.801661	0.130553
579.013531	0.130741
579.225382	0.130881
579.437216	0.130891
579.649031	0.130517
579.860828	0.130516
580.072606	0.130622
580.284367	0.130800
580.496109	0.130886
580.707833	0.130686
580.919539	0.130704
581.131227	0.130693
581.342896	0.130674
581.554547	0.131003
581.766180	0.131506
581.977795	0.131553
582.189391	0.131035
582.400969	0.131074
582.612529	0.131227
582.824071	0.131576
583.035595	0.131778
583.247100	0.132104
583.458587	0.132206
583.670056	0.131980
583.881506	0.132159
584.092939	0.132691
584.304353	0.132837
584.515749	0.133209
584.727127	0.132769
584.938486	0.132858
585.149828	0.132940
585.361151	0.132896
585.572456	0.132713
585.783742	0.132637
585.995011	0.132792
586.206261	0.132271
586.417493	0.132092
586.628706	0.132523
586.839902	0.132479
587.051079	0.132431
587.262238	0.133128
587.473379	0.133317
587.684502	0.133605
587.895606	0.133789
588.106692	0.134202
588.317760	0.134305
588.528810	0.134511
588.739841	0.134582
588.950855	0.134589
589.161850	0.134487
589.372827	0.134730
589.583785	0.134695
589.794726	0.134840
590.005648	0.135254
590.216552	0.135215
590.427437	0.135112
590.638305	0.135290
590.849154	0.135598
591.059985	0.135390
591.270798	0.135484
591.481592	0.135400
591.692369	0.135242
591.903127	0.134775
592.113867	0.134716
592.324588	0.135093
592.535292	0.135022
592.745977	0.135206
592.956644	0.135357
593.167293	0.135320
593.377923	0.135654
593.588536	0.136108
593.799130	0.136344
594.009706	0.136430
594.220263	0.136089
594.430803	0.136435
594.641324	0.136759
594.851827	0.137096
595.062312	0.137087
595.272778	0.136999
595.483227	0.136864
595.693657	0.137316
595.904069	0.137490
596.114462	0.137648
596.324838	0.137675
596.535195	0.137482
596.745534	0.137199
596.955855	0.137822
597.166157	0.138228
597.376441	0.138105
597.586707	0.137939
597.796955	0.138424
598.007185	0.138937
598.217396	0.138655
598.427589	0.138857
598.637764	0.139223
598.847921	0.139051
599.058060	0.139064
599.268180	0.139454
599.478282	0.139679
599.688366	0.139628
599.898431	0.139288
600.108479	0.139629
600.318508	0.139380
600.528519	0.139476
600.738511	0.139549
600.948486	0.139129
601.158442	0.139255
601.368380	0.139141
601.578300	0.139036
601.788202	0.139265
601.998085	0.139373
602.207950	0.139478
602.417797	0.139218
602.627626	0.139267
602.837436	0.139792
603.047228	0.139812
603.257002	0.139876
603.466758	0.140070
603.676496	0.140288
603.886215	0.140195
604.095916	0.140606
604.305599	0.140968
604.515264	0.141304
604.724910	0.141213
604.934538	0.141091
605.144148	0.141159
605.353740	0.141007
605.563314	0.140886
605.772869	0.141302
605.982406	0.141139
606.191925	0.141124
606.401425	0.141008
606.610908	0.141111
606.820372	0.141124
607.029818	0.141038
607.239246	0.141224
607.448655	0.141100
607.658047	0.141112
607.867420	0.141158
608.076775	0.140969
608.286111	0.141072
608.495430	0.140945
608.704730	0.141183
608.914012	0.141305
609.123275	0.141585
609.332521	0.141917
609.541748	0.141809
609.750957	0.142066
609.960148	0.142420
610.169321	0.142143
610.378475	0.142470
610.587611	0.142509
610.796729	0.142825
611.005829	0.142948
611.214910	0.143095
611.423974	0.143166
611.633019	0.143186
611.842045	0.143255
612.051054	0.143526
612.260044	0.143602
612.469017	0.143879
612.677970	0.143754
612.886906	0.143284
613.095824	0.143446
613.304723	0.143476
613.513604	0.143594
613.722467	0.143413
613.931311	0.143704
614.140138	0.143525
614.348946	0.143155
614.557736	0.143386
614.766507	0.143430
614.975261	0.143328
615.183996	0.143410
615.392713	0.143389
615.601412	0.143881
615.810092	0.143826
616.018754	0.144154
616.227399	0.144251
616.436024	0.144543
616.644632	0.145258
616.853222	0.145219
617.061793	0.145203
617.270346	0.145141
617.478880	0.145268
617.687397	0.145298
617.895895	0.145147
618.104375	0.145343
618.312837	0.145170
618.521281	0.144859
618.729706	0.145093
618.938113	0.145300
619.146502	0.145316
619.354873	0.144978
619.563226	0.144832
619.771560	0.144968
619.979876	0.145178
620.188174	0.145274
620.396453	0.145405
620.604715	0.145290
620.812958	0.145534
621.021183	0.145808
621.229390	0.146137
621.437578	0.146325
621.645748	0.146443
621.853900	0.146584
622.062034	0.146509
622.270150	0.146424
622.478247	0.146431
622.686326	0.146422
622.894387	0.146431
623.102430	0.146357
623.310454	0.146536
623.518461	0.146649
623.726449	0.146334
623.934418	0.146323
624.142370	0.146456
624.350303	0.146536
624.558218	0.146262
624.766115	0.146113
624.973994	0.146304
625.181855	0.146245
625.389697	0.146151
625.597521	0.146545
625.805327	0.146617
626.013114	0.146901
626.220883	0.147152
626.428634	0.147582
626.636367	0.147637
626.844082	0.147476
627.051778	0.147652
627.259457	0.148001
627.467117	0.147911
627.674758	0.148257
627.882382	0.147962
628.089987	0.147862
628.297574	0.147909
628.505143	0.148228
628.712694	0.148307
628.920226	0.148344
629.127740	0.148138
629.335236	0.148261
629.542714	0.148300
629.750174	0.148683
629.957615	0.149034
630.165038	0.149012
630.372443	0.149161
630.579829	0.149500
630.787198	0.149493
630.994548	0.149759
631.201880	0.149877
631.409194	0.149807
631.616489	0.149985
631.823766	0.149814
632.031025	0.150136
632.238266	0.150217
632.445489	0.150167
632.652693	0.150298
632.859879	0.150338
633.067047	0.150397
633.274197	0.150855
633.481329	0.150767
633.688442	0.151030
633.895537	0.150828
634.102614	0.150785
634.309672	0.151194
634.516713	0.151264
634.723735	0.151469
634.930739	0.151394
635.137724	0.151243
635.344692	0.151399
635.551641	0.151184
635.758572	0.151293
635.965485	0.151723
636.172379	0.151734
636.379256	0.152023
636.586114	0.152117
636.792954	0.152189
636.999775	0.152108
637.206579	0.152011
637.413364	0.152304
637.620131	0.152488
637.826880	0.152111
638.033610	0.151827
638.240323	0.151707
638.447017	0.151465
638.653692	0.151808
638.860350	0.152053
639.066990	0.152156
639.273611	0.152485
639.480214	0.152536
639.686798	0.152770
639.893365	0.153108
640.099913	0.153231
640.306443	0.153270
640.512955	0.153074
640.719449	0.153271
640.925924	0.153437
641.132381	0.153325
641.338820	0.153416
641.545241	0.153505
641.751644	0.153575
641.958028	0.153583
642.164394	0.153952
642.370742	0.154208
642.577071	0.154188
642.783383	0.154190
642.989676	0.154210
643.195951	0.154268
643.402207	0.154270
643.608446	0.154280
643.814666	0.154517
644.020868	0.154666
644.227052	0.154537
644.433218	0.154760
644.639365	0.155013
644.845494	0.155087
645.051605	0.155137
645.257698	0.155126
645.463772	0.155137
645.669828	0.155194
645.875866	0.155162
646.081886	0.155312
646.287888	0.155094
646.493871	0.155179
646.699836	0.155209
646.905783	0.155475
647.111712	0.155647
647.317622	0.156005
647.523514	0.156064
647.729388	0.156088
647.935244	0.156482
648.141082	0.156646
648.346901	0.156770
648.552702	0.156897
648.758485	0.156873
648.964250	0.156997
649.169996	0.156803
649.375724	0.157028
649.581434	0.157182
649.787126	0.157276
649.992800	0.157760
650.198455	0.157821
650.404092	0.157803
650.609711	0.157973
650.815311	0.158237
651.020894	0.158602
651.226458	0.158672
651.432004	0.158958
651.637532	0.158885
651.843041	0.158694
652.048532	0.158856
652.254006	0.159270
652.459460	0.159411
652.664897	0.159412
652.870315	0.159314
653.075716	0.159378
653.281097	0.159514
653.486461	0.159850
653.691807	0.160025
653.897134	0.160186
654.102443	0.160183
654.307734	0.160194
654.513006	0.160316
654.718261	0.160406
654.923497	0.160482
655.128715	0.160688
655.333915	0.160732
655.539096	0.160647
655.744259	0.160546
655.949404	0.160685
656.154531	0.160731
656.359640	0.160874
656.564730	0.161013
656.769802	0.161019
656.974856	0.160955
657.179892	0.160981
657.384909	0.161199
657.589908	0.161426
657.794889	0.161542
657.999852	0.161911
658.204797	0.162055
658.409723	0.162320
658.614631	0.162684
658.819521	0.162727
659.024393	0.162794
659.229246	0.162979
659.434081	0.162917
659.638898	0.163177
659.843697	0.163030
660.048478	0.163190
660.253240	0.163290
660.457984	0.163286
660.662710	0.163191
660.867417	0.163399
661.072107	0.163343
661.276778	0.163486
661.481431	0.163273
661.686066	0.163411
661.890682	0.163334
662.095281	0.163369
662.299861	0.163351
662.504422	0.163793
662.708966	0.163838
662.913491	0.164054
663.117999	0.164211
663.322488	0.164411
663.526958	0.164532
663.731411	0.164775
663.935845	0.164732
664.140261	0.165191
664.344659	0.165160
664.549038	0.165166
664.753400	0.165114
664.957743	0.165272
665.162068	0.165522
665.366375	0.165470
665.570663	0.165635
665.774933	0.165939
665.979185	0.165688
666.183419	0.165799
666.387635	0.165900
666.591832	0.166210
666.796011	0.166506
667.000172	0.166703
667.204315	0.167006
667.408439	0.166999
667.612545	0.167007
667.816634	0.167160
668.020703	0.167184
668.224755	0.167374
668.428788	0.167317
668.632803	0.167237
668.836800	0.167166
669.040779	0.167249
669.244739	0.167502
669.448681	0.167515
669.652605	0.167785
669.856511	0.167928
670.060399	0.168240
670.264268	0.168383
670.468119	0.168571
670.671952	0.168428
670.875767	0.168600
671.079563	0.168411
671.283341	0.168546
671.487101	0.168592
671.690843	0.168719
671.894567	0.168758
672.098272	0.168942
672.301959	0.168838
672.505628	0.169353
672.709278	0.169266
672.912911	0.169603
673.116525	0.169778
673.320121	0.169831
673.523699	0.170120
673.727258	0.169973
673.930799	0.170284
674.134322	0.170399
674.337827	0.170321
674.541314	0.170581
674.744782	0.170595
674.948232	0.170745
675.151664	0.170802
675.355078	0.170915
675.558474	0.171237
675.761851	0.171034
675.965210	0.171379
676.168551	0.171414
676.371873	0.171403
676.575178	0.171491
676.778464	0.171424
676.981732	0.171673
677.184981	0.171482
677.388213	0.171525
677.591426	0.171860
677.794621	0.171896
677.997798	0.172102
678.200956	0.172410
678.404097	0.172787
678.607219	0.173181
678.810323	0.173108
679.013408	0.173225
679.216476	0.173216
679.419525	0.173194
679.622556	0.173266
679.825569	0.173392
680.028563	0.173405
680.231540	0.173342
680.434498	0.173382
680.637438	0.173612
680.840359	0.173725
681.043263	0.173907
681.246148	0.174053
681.449015	0.174182
681.651864	0.174374
681.854694	0.174345
682.057506	0.174363
682.260301	0.174490
682.463076	0.174561
682.665834	0.174670
682.868573	0.174915
683.071295	0.174890
683.273998	0.174977
683.476682	0.175045
683.679349	0.175222
683.881997	0.175213
684.084627	0.174983
684.287239	0.174994
684.489833	0.175177
684.692408	0.175173
684.894965	0.175072
685.097504	0.175151
685.300025	0.175165
685.502527	0.175264
685.705012	0.175374
685.907478	0.175562
686.109925	0.175727
686.312355	0.175655
686.514766	0.175903
686.717159	0.176328
686.919534	0.176527
687.121891	0.176598
687.324230	0.176678
687.526550	0.176879
687.728852	0.176951
687.931136	0.177007
688.133401	0.177154
688.335649	0.176990
688.537878	0.176918
688.740089	0.176741
688.942281	0.176953
689.144456	0.176879
689.346612	0.177131
689.548750	0.177364
689.750870	0.177474
689.952971	0.177569
690.155055	0.177557
690.357120	0.177484
690.559167	0.177596
690.761195	0.177607
690.963206	0.177815
691.165198	0.177713
691.367172	0.177743
691.569128	0.177775
691.771065	0.177992
691.972984	0.178195
692.174885	0.178503
692.376768	0.178581
692.578633	0.178597
692.780479	0.178744
692.982308	0.178759
693.184118	0.178770
693.385909	0.178791
693.587683	0.178814
693.789438	0.178922
693.991175	0.179000
694.192894	0.179183
694.394595	0.179182
694.596277	0.179374
694.797941	0.179376
694.999587	0.179908
695.201215	0.180012
695.402824	0.180065
695.604416	0.180185
695.805989	0.180066
696.007543	0.180084
696.209080	0.180153
696.410598	0.179986
696.612099	0.180376
696.813580	0.180207
697.015044	0.180429
697.216490	0.180735
697.417917	0.180889
697.619326	0.181321
697.820717	0.181380
698.022089	0.181567
698.223444	0.181955
698.424780	0.182104
698.626098	0.182144
698.827397	0.182396
699.028679	0.182375
699.229942	0.182187
699.431187	0.182218
699.632414	0.182560
699.833622	0.182688
700.034813	0.182626
700.235985	0.182437
700.437139	0.182570
700.638274	0.182525
700.839392	0.182535
701.040491	0.182857
701.241572	0.182806
701.442635	0.182818
701.643679	0.182986
701.844706	0.182982
702.045714	0.182863
702.246704	0.182746
702.447675	0.182651
702.648629	0.182611
702.849564	0.182571
703.050481	0.182758
703.251380	0.182640
703.452260	0.182287
703.653122	0.182323
703.853966	0.182671
704.054792	0.182758
704.255600	0.182810
704.456389	0.183086
704.657160	0.183059
704.857913	0.182805
705.058648	0.182809
705.259365	0.182984
705.460063	0.182875
705.660743	0.182658
705.861405	0.182665
706.062048	0.182657
706.262674	0.182461
706.463281	0.182532
706.663870	0.182696
706.864441	0.182584
707.064993	0.182766
707.265527	0.182922
707.466043	0.183148
707.666541	0.183264
707.867021	0.183265
708.067482	0.183260
708.267925	0.183208
708.468350	0.183270
708.668757	0.183536
708.869145	0.183623
709.069516	0.183618
709.269868	0.183437
709.470201	0.183412
709.670517	0.183429
709.870814	0.183452
710.071093	0.183264
710.271354	0.183357
710.471597	0.183009
710.671821	0.182965
710.872028	0.182826
711.072216	0.182934
711.272385	0.182862
711.472537	0.182938
711.672670	0.183095
711.872785	0.183105
712.072882	0.182966
712.272961	0.183128
712.473021	0.182915
712.673063	0.182918
712.873087	0.182801
713.073093	0.182655
713.273081	0.182435
713.473050	0.182183
713.673001	0.182312
713.872934	0.182229
714.072849	0.182413
714.272745	0.182401
714.472623	0.182407
714.672483	0.182508
714.872325	0.182544
715.072148	0.182570
715.271954	0.182670
715.471741	0.182529
715.671509	0.182189
715.871260	0.181771
716.070992	0.181645
716.270707	0.181584
716.470403	0.181313
716.670080	0.181243
716.869740	0.181395
717.069381	0.181224
717.269004	0.181323
717.468609	0.181775
717.668195	0.181835
717.867764	0.182119
718.067314	0.182020
718.266846	0.182463
718.466360	0.182404
718.665855	0.182447
718.865332	0.182557
719.064791	0.182509
719.264232	0.182392
719.463655	0.182652
719.663059	0.182446
719.862445	0.182607
720.061813	0.182331
720.261163	0.182524
720.460494	0.182338
720.659807	0.182311
720.859102	0.182283
721.058379	0.182186
721.257638	0.181816
721.456878	0.181765
721.656100	0.181793
721.855304	0.181798
722.054490	0.181683
722.253657	0.181638
722.452806	0.181481
722.651937	0.181450
722.851050	0.181519
723.050145	0.181545
723.249221	0.181547
723.448279	0.181219
723.647319	0.180911
723.846340	0.180890
724.045344	0.180850
724.244329	0.180765
724.443296	0.180601
724.642245	0.180310
724.841175	0.180416
725.040088	0.180277
725.238982	0.180252
725.437857	0.180279
725.636715	0.180123
725.835554	0.179974
726.034376	0.179854
726.233179	0.179963
726.431963	0.180104
726.630730	0.180053
726.829478	0.180015
727.028208	0.180060
727.226920	0.180007
727.425614	0.179965
727.624289	0.179930
727.822946	0.180173
728.021585	0.180056
728.220206	0.179837
728.418808	0.179578
728.617392	0.179444
728.815958	0.179332
729.014506	0.179455
729.213036	0.179459
729.411547	0.179387
729.610040	0.178842
729.808515	0.178764
730.006972	0.178733
730.205410	0.178668
730.403831	0.178750
730.602233	0.178783
730.800616	0.178466
730.998982	0.178200
731.197329	0.178091
731.395658	0.178476
731.593969	0.178195
731.792262	0.178197
731.990536	0.178093
732.188793	0.177973
732.387031	0.178001
732.585250	0.178127
732.783452	0.178262
732.981635	0.178236
733.179800	0.177916
733.377947	0.178022
733.576076	0.177865
733.774186	0.177968
733.972278	0.177688
734.170352	0.177488
734.368408	0.176982
734.566446	0.176769
734.764465	0.176616
734.962466	0.176751
735.160449	0.176729
735.358413	0.176632
735.556360	0.176329
735.754288	0.176312
735.952198	0.176310
736.150090	0.176316
736.347963	0.176038
736.545818	0.175877
736.743655	0.175646
736.941474	0.175412
737.139275	0.175258
737.337057	0.175164
737.534821	0.175211
737.732567	0.174945
737.930295	0.174823
738.128005	0.174748
738.325696	0.174646
738.523369	0.174769
738.721024	0.174711
738.918660	0.174744
739.116279	0.174888
739.313879	0.174645
739.511461	0.174608
739.709024	0.174730
739.906570	0.174772
740.104097	0.174823
740.301606	0.174471
740.499097	0.174486
740.696569	0.174284
740.894024	0.174192
741.091460	0.174085
741.288878	0.173905
741.486277	0.173855
741.683659	0.173690
741.881022	0.173693
742.078367	0.173660
742.275694	0.173613
742.473002	0.173398
742.670293	0.173338
742.867565	0.173349
743.064819	0.173230
743.262054	0.173149
743.459272	0.172986
743.656471	0.172720
743.853652	0.172699
744.050815	0.172470
744.247959	0.172609
744.445085	0.172174
744.642194	0.172072
744.839283	0.172011
745.036355	0.171838
745.233408	0.172078
745.430444	0.171931
745.627461	0.171692
745.824459	0.171586
746.021440	0.171432
746.218402	0.171475
746.415346	0.171495
746.612272	0.171703
746.809180	0.171586
747.006069	0.171316
747.202940	0.171301
747.399793	0.171332
747.596628	0.171144
747.793444	0.170869
747.990243	0.170801
748.187023	0.170315
748.383784	0.169949
748.580528	0.169912
748.777253	0.169776
748.973960	0.169685
749.170649	0.169367
749.367320	0.169428
749.563973	0.169614
749.760607	0.169522
749.957223	0.169599
750.153821	0.169578
750.350400	0.169564
750.546962	0.169433
750.743505	0.169357
750.940030	0.169265
751.136536	0.169113
751.333025	0.168967
751.529495	0.169002
751.725947	0.168907
751.922381	0.168698
752.118796	0.168496
752.315194	0.168439
752.511573	0.168328
752.707934	0.168292
752.904276	0.168244
753.100601	0.168039
753.296907	0.167858
753.493195	0.167679
753.689465	0.167515
753.885716	0.167474
754.081949	0.167331
754.278164	0.167238
754.474361	0.167272
754.670540	0.167031
754.866700	0.167043
755.062843	0.166724
755.258967	0.166714
755.455072	0.166588
755.651160	0.166468
755.847229	0.166455
756.043280	0.166554
756.239313	0.166331
756.435328	0.166406
756.631324	0.166007
756.827302	0.166137
757.023262	0.166091
757.219204	0.166039
757.415127	0.165821
757.611033	0.165680
757.806920	0.165294
758.002788	0.165048
758.198639	0.164511
758.394471	0.164431
758.590286	0.164246
758.786081	0.164037
758.981859	0.163935
759.177619	0.163716
759.373360	0.163625
759.569083	0.163406
759.764788	0.163354
759.960474	0.163629
760.156143	0.163447
760.351793	0.163376
760.547425	0.163356
760.743038	0.163509
760.938634	0.163616
761.134211	0.163573
761.329770	0.163737
761.525311	0.163776
761.720833	0.163661
761.916338	0.163785
762.111824	0.163817
762.307292	0.163858
762.502741	0.163566
762.698173	0.163434
762.893586	0.163158
763.088981	0.162959
763.284358	0.162754
763.479716	0.162723
763.675057	0.162793
763.870379	0.162606
764.065683	0.162364
764.260968	0.162442
764.456236	0.162411
764.651485	0.162546
764.846716	0.162578
765.041929	0.162860
765.237123	0.162887
765.432299	0.162762
765.627457	0.162741
765.822597	0.162476
766.017719	0.162358
766.212822	0.162431
766.407907	0.162463
766.602974	0.162415
766.798023	0.162234
766.993054	0.162024
767.188066	0.161914
767.383060	0.162087
767.578036	0.162396
767.772993	0.162110
767.967933	0.162080
768.162854	0.161674
768.357757	0.161774
768.552642	0.161790
768.747508	0.161665
768.942356	0.161587
769.137186	0.161221
769.331998	0.161142
769.526792	0.161477
769.721567	0.161182
769.916324	0.161312
770.111063	0.161088
770.305784	0.160954
770.500486	0.161047
770.695171	0.161129
770.889837	0.161230
771.084484	0.160990
771.279114	0.160894
771.473725	0.160999
771.668318	0.161094
771.862893	0.161119
772.057450	0.160829
772.251988	0.160747
772.446509	0.160613
772.641011	0.160492
772.835494	0.160396
773.029960	0.160330
773.224407	0.159953
773.418836	0.159938
773.613247	0.159918
773.807640	0.160099
774.002014	0.160167
774.196370	0.159846
774.390708	0.160089
774.585028	0.160394
774.779330	0.160394
774.973613	0.160706
775.167878	0.160591
775.362125	0.160400
775.556354	0.160197
775.750564	0.160089
775.944756	0.160327
776.138930	0.160005
776.333086	0.159810
776.527223	0.159733
776.721343	0.159744
776.915444	0.159706
777.109526	0.159876
777.303591	0.159962
777.497637	0.159903
777.691666	0.159780
777.885676	0.159801
778.079667	0.159684
778.273641	0.159472
778.467596	0.159337
778.661533	0.159380
778.855452	0.159196
779.049352	0.159131
779.243235	0.159050
779.437099	0.159251
779.630945	0.159206
779.824773	0.159651
780.018582	0.159797
780.212373	0.159790
780.406146	0.159712
780.599901	0.159777
780.793638	0.159949
780.987356	0.159995
781.181056	0.159990
781.374738	0.159841
781.568402	0.159468
781.762047	0.159396
781.955674	0.159334
782.149283	0.159214
782.342874	0.159069
782.536447	0.158821
782.730001	0.158784
782.923537	0.158716
783.117055	0.159046
783.310555	0.159219
783.504036	0.159240
783.697499	0.159349
783.890944	0.159447
784.084371	0.159679
784.277780	0.160013
784.471170	0.160157
784.664542	0.160422
784.857896	0.160388
785.051231	0.160449
785.244549	0.160634
785.437848	0.160666
785.631129	0.160588
785.824392	0.160379
786.017636	0.160071
786.210863	0.159845
786.404071	0.159763
786.597260	0.159628
786.790432	0.159459
786.983585	0.159324
787.176721	0.159292
787.369838	0.159562
787.562936	0.159629
787.756017	0.159604
787.949079	0.159694
788.142123	0.159493
788.335149	0.159411
788.528156	0.159581
788.721146	0.159715
788.914117	0.159749
789.107070	0.159847
789.300005	0.159995
789.492921	0.160282
789.685819	0.160405
789.878699	0.160584
790.071561	0.160793
790.264405	0.160668
790.457230	0.160587
790.650037	0.160666
790.842826	0.160610
791.035597	0.160574
791.228349	0.160729
791.421084	0.160780
791.613800	0.160915
791.806497	0.160951
791.999177	0.161067
792.191838	0.161341
792.384481	0.161574
792.577106	0.161651
792.769713	0.161697
792.962301	0.161521
793.154871	0.161643
793.347423	0.161536
793.539957	0.161589
793.732473	0.161604
793.924970	0.161514
794.117449	0.161360
794.309910	0.161247
794.502353	0.161419
794.694777	0.161539
794.887183	0.161438
795.079571	0.161626
795.271941	0.161878
795.464293	0.161950
795.656626	0.161945
795.848941	0.162063
796.041238	0.162215
796.233516	0.162325
796.425777	0.162431
796.618019	0.162615
796.810243	0.162458
797.002449	0.162598
797.194636	0.162916
797.386805	0.163064
797.578956	0.163056
797.771089	0.163199
797.963204	0.163376
798.155300	0.163463
798.347378	0.163584
798.539438	0.163800
798.731480	0.163754
798.923503	0.163769
799.115509	0.163746
799.307496	0.163847
799.499465	0.163795
799.691415	0.163894
799.883348	0.164075
800.075262	0.164234
800.267158	0.164300
800.459035	0.164373
800.650895	0.164210
800.842736	0.164544
801.034559	0.164719
801.226364	0.164830
801.418150	0.164725
801.609919	0.164962
801.801669	0.164802
801.993401	0.164828
802.185114	0.164832
802.376810	0.165186
802.568487	0.165208
802.760146	0.165202
802.951787	0.165487
803.143409	0.165687
803.335014	0.165504
803.526600	0.165906
803.718168	0.166343
803.909717	0.166613
804.101249	0.166806
804.292762	0.167035
804.484257	0.167386
804.675734	0.167461
804.867192	0.167785
805.058632	0.168112
805.250054	0.168410
805.441458	0.168567
805.632844	0.168793
805.824211	0.168839
806.015561	0.168883
806.206891	0.169299
806.398204	0.169673
806.589499	0.169723
806.780775	0.169804
806.972033	0.169791
807.163273	0.169976
807.354495	0.169966
807.545698	0.170267
807.736883	0.170374
807.928050	0.170152
808.119199	0.170038
808.310329	0.170171
808.501441	0.170112
808.692535	0.170042
808.883611	0.169968
809.074669	0.170137
809.265708	0.170116
809.456729	0.170270
809.647732	0.170616
809.838717	0.170974
810.029683	0.171249
810.220632	0.171611
810.411562	0.172020
810.602474	0.172405
810.793367	0.172460
810.984242	0.172665
811.175100	0.172903
811.365938	0.172772
811.556759	0.172693
811.747562	0.172654
811.938346	0.172938
812.129112	0.173027
812.319860	0.173044
812.510589	0.173352
812.701300	0.173445
812.891994	0.173474
813.082668	0.173875
813.273325	0.174093
813.463964	0.174210
813.654584	0.174225
813.845186	0.174333
814.035769	0.174439
814.226335	0.174547
814.416882	0.174588
814.607411	0.174833
814.797922	0.175064
814.988415	0.175355
815.178889	0.175555
815.369345	0.175817
815.559783	0.176130
815.750203	0.176430
815.940605	0.176608
816.130988	0.177197
816.321353	0.177571
816.511700	0.177715
816.702028	0.177748
816.892339	0.178217
817.082631	0.178366
817.272905	0.178359
817.463161	0.178594
817.653398	0.178805
817.843617	0.178652
818.033819	0.178761
818.224001	0.179132
818.414166	0.179563
818.604312	0.179806
818.794440	0.179890
818.984550	0.180381
819.174642	0.180304
819.364716	0.180324
819.554771	0.180707
819.744808	0.180815
819.934827	0.180802
820.124827	0.180914
820.314810	0.180667
820.504774	0.181121
820.694720	0.181277
820.884647	0.181709
821.074557	0.182072
821.264448	0.182177
821.454321	0.182616
821.644176	0.182795
821.834012	0.182938
822.023831	0.182986
822.213631	0.182930
822.403413	0.182791
822.593176	0.182793
822.782922	0.182796
822.972649	0.182853
823.162358	0.183066
823.352049	0.183165
823.541721	0.183562
823.731376	0.184089
823.921012	0.184480
824.110629	0.184705
824.300229	0.185047
824.489811	0.185795
824.679374	0.185977
824.868919	0.186179
825.058445	0.186533
825.247954	0.186628
825.437444	0.186914
825.626916	0.187146
825.816370	0.187644
826.005806	0.187901
826.195223	0.187865
826.384622	0.188443
826.574003	0.188360
826.763366	0.188632
826.952711	0.188792
827.142037	0.188923
827.331345	0.189033
827.520635	0.189108
827.709906	0.189282
827.899160	0.189463
828.088395	0.189503
828.277612	0.189582
828.466810	0.189801
828.655991	0.189725
828.845153	0.190015
829.034297	0.190317
829.223423	0.190577
829.412531	0.190894
829.601620	0.191360
829.790691	0.191621
829.979744	0.192037
830.168779	0.191958
830.357795	0.192474
830.546793	0.192611
830.735773	0.192848
830.924735	0.193441
831.113679	0.193727
831.302604	0.193567
831.491511	0.194032
831.680400	0.194588
831.869271	0.195467
832.058123	0.195711
832.246957	0.196090
832.435773	0.196393
832.624571	0.196364
832.813351	0.196388
833.002112	0.197019
833.190855	0.197264
833.379580	0.197436
833.568287	0.197269
833.756975	0.197686
833.945645	0.198072
834.134297	0.198241
834.322931	0.198591
834.511547	0.198896
834.700144	0.198861
834.888723	0.198931
835.077284	0.199092
835.265826	0.199434
835.454351	0.199875
835.642857	0.200086
835.831345	0.200604
836.019815	0.200645
836.208266	0.201036
836.396699	0.201667
836.585114	0.202147
836.773511	0.202588
836.961890	0.202807
837.150250	0.202694
837.338592	0.202981
837.526916	0.203167
837.715222	0.203798
837.903510	0.204167
838.091779	0.204262
838.280030	0.204455
838.468263	0.204731
838.656477	0.205138
838.844674	0.205720
839.032852	0.205915
839.221012	0.206092
839.409153	0.206158
839.597277	0.206432
839.785382	0.206775
839.973469	0.207088
840.161538	0.207324
840.349589	0.207539
840.537621	0.207738
840.725635	0.208230
840.913631	0.208568
841.101609	0.208942
841.289568	0.209093
841.477509	0.209543
841.665432	0.209616
841.853337	0.209715
842.041224	0.210094
842.229092	0.210393
842.416942	0.210856
842.604774	0.211321
842.792588	0.211762
842.980383	0.212318
843.168160	0.212626
843.355919	0.213001
843.543660	0.213493
843.731382	0.213793
843.919087	0.213769
844.106773	0.213832
844.294441	0.214097
844.482090	0.214242
844.669722	0.214436
844.857335	0.214523
845.044930	0.214633
845.232507	0.214767
845.420065	0.215171
845.607605	0.215799
845.795127	0.216081
845.982631	0.216213
846.170117	0.216609
846.357584	0.217049
846.545033	0.217527
846.732464	0.218226
846.919877	0.218524
847.107272	0.218321
847.294648	0.218364
847.482006	0.218429
847.669346	0.218453
847.856667	0.218833
848.043971	0.218970
848.231256	0.219007
848.418523	0.219259
848.605771	0.219672
848.793002	0.220228
848.980214	0.220952
849.167408	0.221311
849.354584	0.221760
849.541742	0.221721
849.728881	0.222017
849.916002	0.222487
850.103105	0.222610
850.290190	0.223295
850.477256	0.223666
850.664304	0.223853
850.851334	0.224320
851.038346	0.224915
851.225340	0.225353
851.412315	0.225613
851.599272	0.226081
851.786211	0.226550
851.973132	0.226694
852.160034	0.227269
852.346918	0.227690
852.533784	0.227795
852.720632	0.227868
852.907462	0.228391
853.094273	0.228807
853.281066	0.228579
853.467841	0.228939
853.654598	0.229429
853.841336	0.229358
854.028056	0.229702
854.214758	0.230143
854.401442	0.230253
854.588107	0.230511
854.774755	0.230903
854.961384	0.231521
855.147995	0.231712
855.334587	0.231370
855.521162	0.231801
855.707718	0.231802
855.894256	0.231943
856.080775	0.232454
856.267277	0.232604
856.453760	0.232887
856.640225	0.233168
856.826672	0.233314
857.013101	0.234014
857.199511	0.234451
857.385903	0.234781
857.572277	0.235004
857.758633	0.235350
857.944970	0.235797
858.131290	0.235877
858.317591	0.236120
858.503873	0.236489
858.690138	0.236694
858.876384	0.237009
859.062612	0.237369
859.248822	0.238099
859.435014	0.238576
859.621188	0.238305
859.807343	0.238564
859.993480	0.238729
860.179599	0.239293
860.365699	0.239469
860.551781	0.239790
860.737846	0.240144
860.923891	0.240187
861.109919	0.240664
861.295929	0.241401
861.481920	0.241658
861.667893	0.241976
861.853848	0.242092
862.039784	0.242370
862.225702	0.242472
862.411603	0.242682
862.597484	0.242933
862.783348	0.242565
862.969193	0.242687
863.155021	0.242868
863.340830	0.243360
863.526620	0.243764
863.712393	0.243982
863.898147	0.243742
864.083883	0.243912
864.269601	0.244283
864.455301	0.244745
864.640982	0.245088
864.826645	0.245514
865.012290	0.245201
865.197917	0.245166
865.383526	0.245428
865.569116	0.246102
865.754688	0.246250
865.940242	0.246374
866.125777	0.246561
866.311295	0.246752
866.496794	0.246828
866.682275	0.247276
866.867737	0.247757
867.053182	0.247743
867.238608	0.247733
867.424016	0.247849
867.609406	0.248108
867.794778	0.248557
867.980131	0.249057
868.165466	0.249381
868.350783	0.249673
868.536082	0.249458
868.721362	0.249792
868.906625	0.250487
869.091869	0.250787
869.277094	0.251044
869.462302	0.251013
869.647491	0.250628
869.832662	0.250950
870.017815	0.251107
870.202950	0.251488
870.388066	0.251724
870.573165	0.251689
870.758245	0.252158
870.943306	0.252364
871.128350	0.252727
871.313375	0.253752
871.498382	0.254091
871.683371	0.254780
871.868342	0.255130
872.053294	0.255460
872.238229	0.255583
872.423144	0.255407
872.608042	0.255382
872.792922	0.255364
872.977783	0.255248
873.162626	0.255189
873.347451	0.254930
873.532258	0.254626
873.717046	0.254951
873.901816	0.255462
874.086568	0.256003
874.271302	0.256536
874.456017	0.256494
874.640715	0.256277
874.825394	0.256242
875.010055	0.256581
875.194697	0.256915
875.379322	0.256841
875.563928	0.256672
875.748516	0.256279
875.933085	0.256189
876.117637	0.256550
876.302170	0.256862
876.486685	0.256989
876.671182	0.257190
876.855661	0.257279
877.040121	0.257315
877.224563	0.257304
877.408987	0.257744
877.593393	0.257869
877.777780	0.258192
877.962150	0.258475
878.146501	0.259007
878.330833	0.258787
878.515148	0.259134
878.699444	0.259515
878.883722	0.259780
879.067982	0.259738
879.252224	0.260084
879.436447	0.260088
879.620653	0.259992
879.804840	0.259933
879.989008	0.260309
880.173159	0.260212
880.357291	0.259941
880.541405	0.260194
880.725501	0.260627
880.909579	0.260439
881.093638	0.260713
881.277680	0.260431
881.461703	0.260487
881.645707	0.260275
881.829694	0.260759
882.013662	0.260976
882.197612	0.261030
882.381544	0.260749
882.565458	0.260884
882.749353	0.260914
882.933230	0.261196
883.117089	0.261733
883.300930	0.261773
883.484753	0.261494
883.668557	0.261580
883.852343	0.261324
884.036111	0.261543
884.219861	0.261736
884.403592	0.261950
884.587305	0.262257
884.771000	0.261924
884.954677	0.262498
885.138335	0.262793
885.321976	0.262982
885.505598	0.263031
885.689201	0.263155
885.872787	0.262893
886.056354	0.263136
886.239904	0.263093
886.423434	0.263104
886.606947	0.263021
886.790442	0.263073
886.973918	0.263035
887.157376	0.263151
887.340816	0.263145
887.524237	0.263056
887.707641	0.262548
887.891026	0.262508
888.074393	0.262559
888.257741	0.262404
888.441072	0.261901
888.624384	0.261793
888.807678	0.262063
888.990954	0.261629
889.174211	0.261822
889.357451	0.261746
889.540672	0.261728
889.723875	0.261286
889.907059	0.261544
890.090226	0.262458
890.273374	0.262619
890.456504	0.262410
890.639616	0.262273
890.822709	0.262052
891.005785	0.261683
891.188842	0.261743
891.371881	0.261977
891.554901	0.261739
891.737904	0.261309
891.920888	0.261094
892.103854	0.260896
892.286802	0.261901
892.469731	0.262082
892.652643	0.262539
892.835536	0.262677
893.018410	0.262629
893.201267	0.262183
893.384106	0.262277
893.566926	0.262547
893.749728	0.263003
893.932511	0.262463
894.115277	0.262420
894.298024	0.262345
894.480753	0.262020
894.663464	0.262361
894.846157	0.262813
895.028831	0.262514
895.211487	0.262483
895.394125	0.262124
895.576745	0.262063
895.759346	0.262030
895.941930	0.261900
896.124495	0.261802
896.307041	0.261031
896.489570	0.261159
896.672080	0.260772
896.854573	0.260338
897.037046	0.260179
897.219502	0.259278
897.401940	0.258987
897.584359	0.258858
897.766760	0.258640
897.949143	0.259152
898.131507	0.258877
898.313854	0.258841
898.496182	0.258632
898.678492	0.258104
898.860783	0.258787
899.043057	0.258977
899.225312	0.259167
899.407549	0.259088
899.589768	0.258842
899.771968	0.258549
899.954151	0.258903
900.136315	0.258741
900.318461	0.259409
900.500588	0.259234
900.682698	0.258974
900.864789	0.258387
901.046862	0.258107
901.228917	0.258095
901.410953	0.257804
901.592971	0.257296
901.774972	0.257291
901.956953	0.256670
902.138917	0.256626
902.320862	0.256131
902.502790	0.256283
902.684699	0.256476
902.866589	0.255897
903.048462	0.255683
903.230316	0.255431
903.412152	0.254981
903.593970	0.254752
903.775770	0.254940
903.957551	0.254743
904.139314	0.254354
904.321059	0.254157
904.502786	0.254408
904.684494	0.253978
904.866185	0.253553
905.047857	0.253436
905.229510	0.253261
905.411146	0.252178
905.592763	0.252550
905.774363	0.252331
905.955943	0.251859
906.137506	0.251072
906.319051	0.250737
906.500577	0.250473
906.682085	0.250139
906.863575	0.250240
907.045046	0.250140
907.226500	0.249259
907.407935	0.249032
907.589352	0.249171
907.770750	0.249133
907.952131	0.249496
908.133493	0.249429
908.314837	0.249378
908.496163	0.249030
908.677470	0.249225
908.858760	0.249236
909.040031	0.248877
909.221284	0.248326
909.402518	0.247910
909.583735	0.247428
909.764933	0.246984
909.946113	0.246801
910.127275	0.245850
910.308418	0.245132
910.489544	0.244533
910.670651	0.244008
910.851740	0.243604
911.032810	0.243210
911.213863	0.242238
911.394897	0.242444
911.575913	0.242039
911.756911	0.242267
911.937890	0.242053
912.118851	0.241661
912.299794	0.241426
912.480719	0.241161
912.661626	0.240987
912.842514	0.241210
913.023384	0.240345
913.204236	0.240053
913.385070	0.239208
913.565886	0.238673
913.746683	0.238807
913.927462	0.238588
914.108223	0.238096
914.288965	0.237443
914.469690	0.236674
914.650396	0.236327
914.831084	0.235734
915.011754	0.235698
915.192405	0.235524
915.373038	0.234880
915.553653	0.234494
915.734250	0.234483
915.914829	0.234376
916.095389	0.234732
916.275931	0.234627
916.456455	0.234350
916.636961	0.233915
916.817448	0.233479
916.997917	0.232852
917.178368	0.232310
917.358801	0.231563
917.539216	0.231273
917.719612	0.230495
917.899990	0.230142
918.080350	0.230078
918.260692	0.229722
918.441015	0.229055
918.621320	0.229092
918.801607	0.228999
918.981876	0.228460
919.162127	0.227928
919.342359	0.227245
919.522573	0.226504
919.702769	0.225631
919.882947	0.225015
920.063106	0.224876
920.243247	0.224245
920.423370	0.223555
920.603475	0.223457
920.783562	0.223069
920.963630	0.223167
921.143680	0.223190
921.323712	0.222564
921.503725	0.221673
921.683721	0.221013
921.863698	0.220452
922.043657	0.219869
922.223598	0.219100
922.403520	0.218195
922.583424	0.217051
922.763311	0.215976
922.943178	0.215591
923.123028	0.215356
923.302859	0.214936
923.482673	0.214549
923.662467	0.214042
923.842244	0.213641
924.022003	0.213203
924.201743	0.212894
924.381465	0.212596
924.561169	0.212417
924.740854	0.212030
924.920522	0.211187
925.100171	0.210121
925.279802	0.209511
925.459414	0.208990
925.639009	0.209025
925.818585	0.208402
925.998143	0.207939
926.177683	0.206912
926.357205	0.206462
926.536708	0.206270
926.716193	0.205806
926.895660	0.205282
927.075109	0.205075
927.254539	0.203496
927.433951	0.203186
927.613345	0.202930
927.792721	0.202025
927.972079	0.201294
928.151418	0.200615
928.330739	0.200218
928.510042	0.199508
928.689327	0.198010
928.868593	0.198258
929.047841	0.197235
929.227071	0.196285
929.406283	0.195224
929.585476	0.193735
929.764652	0.192953
929.943809	0.192116
930.122948	0.191488
930.302068	0.191083
930.481171	0.190107
930.660255	0.189701
930.839321	0.188637
931.018369	0.188630
931.197398	0.189392
931.376409	0.188884
931.555402	0.188941
931.734377	0.187865
931.913334	0.186937
932.092272	0.186064
932.271192	0.185229
932.450094	0.184252
932.628978	0.183916
932.807844	0.183120
932.986691	0.181832
933.165520	0.180465
933.344331	0.180596
933.523123	0.180547
933.701898	0.180305
933.880654	0.180103
934.059392	0.179249
934.238111	0.178325
934.416813	0.176643
934.595496	0.176357
934.774161	0.176217
934.952808	0.175187
935.131437	0.174696
935.310047	0.174017
935.488639	0.172834
935.667213	0.172798
935.845769	0.171497
936.024306	0.170747
936.202825	0.170628
936.381326	0.169429
936.559809	0.168171
936.738274	0.167595
936.916720	0.166430
937.095148	0.165836
937.273558	0.165224
937.451950	0.164704
937.630323	0.164907
937.808678	0.163848
937.987015	0.163877
938.165334	0.163864
938.343635	0.162102
938.521917	0.161500
938.700181	0.159973
938.878427	0.158650
939.056655	0.158039
939.234864	0.157594
939.413055	0.156959
939.591228	0.155807
939.769383	0.155568
939.947519	0.155296
940.125638	0.154564
940.303738	0.154807
940.481820	0.155211
940.659883	0.154628
940.837929	0.153036
941.015956	0.151300
941.193965	0.150115
941.371955	0.148378
941.549928	0.147873
941.727882	0.147682
941.905818	0.146674
942.083736	0.144845
942.261636	0.144606
942.439517	0.143356
942.617380	0.143493
942.795225	0.142452
942.973052	0.142172
943.150860	0.140435
943.328651	0.137707
943.506423	0.137276
943.684176	0.136654
943.861912	0.136192
944.039629	0.136532
944.217328	0.136518
944.395009	0.136230
944.572672	0.135590
944.750317	0.135746
944.927943	0.135964
945.105551	0.135473
945.283141	0.135246
945.460712	0.133753
945.638265	0.132301
945.815801	0.130129
945.993317	0.129703
946.170816	0.128011
946.348297	0.125148
946.525759	0.124176
946.703203	0.123717
946.880629	0.122232
947.058036	0.121308
947.235425	0.120540
947.412797	0.120022
947.590149	0.118696
947.767484	0.119382
947.944800	0.121022
948.122099	0.120243
948.299379	0.118309
948.476640	0.118344
948.653884	0.118425
948.831109	0.117292
949.008316	0.115387
949.185505	0.114162
949.362676	0.112451
949.539828	0.110793
949.716962	0.109923
949.894078	0.108568
950.071176	0.107691
950.248256	0.105446
950.425317	0.105537
950.602360	0.105526
950.779385	0.106037
950.956391	0.104533
951.133380	0.103148
951.310350	0.102545
951.487302	0.101800
951.664235	0.099256
951.841151	0.098902
952.018048	0.098388
952.194927	0.098500
952.371788	0.097659
952.548631	0.097180
952.725455	0.097475
952.902261	0.097601
953.079049	0.097967
953.255819	0.098963
953.432570	0.098897
953.609303	0.098452
953.786018	0.097925
953.962715	0.096072
954.139394	0.095740
954.316054	0.094861
954.492696	0.093686
954.669320	0.092784
954.845926	0.090831
955.022513	0.091050
955.199083	0.089642
955.375634	0.087167
955.552166	0.086914
955.728681	0.086922
955.905177	0.086575
956.081655	0.084029
956.258115	0.082469
956.434557	0.084203
956.610980	0.082423
956.787385	0.081001
956.963772	0.080426
957.140141	0.081961
957.316492	0.080319
957.492824	0.080941
957.669138	0.083098
957.845434	0.083441
958.021712	0.081627
958.197971	0.081735
958.374212	0.081640
958.550435	0.082836
958.726640	0.079303
958.902826	0.079749
959.078995	0.079485
959.255145	0.077202
959.431277	0.077833
959.607390	0.076808
959.783486	0.076783
959.959563	0.078514
960.135622	0.078729
960.311662	0.078903
960.487685	0.077099
960.663689	0.076360
960.839675	0.076758
961.015643	0.077139
961.191593	0.077631
961.367524	0.076441
961.543437	0.075665
961.719332	0.073412
961.895209	0.075420
962.071067	0.075507
962.246907	0.074882
962.422730	0.076082
962.598533	0.072570
962.774319	0.073628
962.950086	0.073125
963.125835	0.072339
963.301566	0.072651
963.477279	0.070201
963.652973	0.070512
963.828650	0.068880
964.004308	0.069041
964.179947	0.070817
964.355569	0.070366
964.531172	0.069370
964.706757	0.070663
964.882324	0.072322
965.057873	0.073178
965.233403	0.074995
965.408916	0.075042
965.584410	0.074145
965.759885	0.073461
965.935343	0.072407
966.110782	0.073795
966.286203	0.070618
966.461606	0.069795
966.636991	0.070371
966.812357	0.068881
966.987705	0.070616
967.163035	0.070197
967.338347	0.070857
967.513641	0.070566
967.688916	0.071637
967.864173	0.074301
968.039412	0.074911
968.214632	0.073087
968.389835	0.074206
968.565019	0.073626
968.740185	0.074236
968.915333	0.073636
969.090462	0.073846
969.265573	0.073472
969.440667	0.073244
969.615741	0.073012
969.790798	0.073494
969.965836	0.073562
970.140856	0.073099
970.315858	0.073841
970.490842	0.074847
970.665808	0.073672
970.840755	0.073676
971.015684	0.073164
971.190595	0.072359
971.365487	0.074198
971.540362	0.073390
971.715218	0.071601
971.890056	0.071910
972.064875	0.074192
972.239677	0.075420
972.414460	0.075575
972.589225	0.074638
972.763972	0.074016
972.938700	0.074018
973.113411	0.076026
973.288103	0.078875
973.462777	0.075678
973.637432	0.072000
973.812070	0.074448
973.986689	0.075649
974.161290	0.075425
974.335873	0.076565
974.510437	0.076964
974.684984	0.073963
974.859512	0.072910
975.034022	0.074755
975.208513	0.077374
975.382987	0.075835
975.557442	0.073112
975.731879	0.072270
975.906298	0.073852
976.080698	0.072764
976.255080	0.075234
976.429445	0.076369
976.603790	0.074652
976.778118	0.073087
976.952427	0.072710
977.126719	0.074849
977.300992	0.075331
977.475246	0.074818
977.649483	0.075244
977.823701	0.072555
977.997901	0.070595
978.172083	0.072400
978.346247	0.072772
978.520392	0.073331
978.694519	0.072615
978.868628	0.072037
979.042719	0.072627
979.216791	0.072429
979.390845	0.075405
979.564882	0.077943
979.738899	0.077182
979.912899	0.076624
980.086880	0.074446
980.260843	0.073277
980.434788	0.074196
980.608715	0.074119
980.782623	0.072113
980.956514	0.069402
981.130386	0.067687
981.304240	0.070292
981.478075	0.068983
981.651892	0.071149
981.825692	0.072002
981.999472	0.073243
982.173235	0.071576
982.346980	0.072463
982.520706	0.072729
982.694414	0.074866
982.868104	0.074249
983.041775	0.076036
983.215428	0.074678
983.389064	0.075405
983.562680	0.075246
983.736279	0.076324
983.909860	0.075173
984.083422	0.075132
984.256966	0.073235
984.430491	0.071263
984.603999	0.071790
984.777488	0.072067
984.950959	0.071249
985.124412	0.070133
985.297847	0.069671
985.471263	0.072343
985.644661	0.074183
985.818041	0.074001
985.991403	0.073690
986.164747	0.073136
986.338072	0.072835
986.511379	0.072944
986.684668	0.074131
986.857938	0.073371
987.031191	0.071780
987.204425	0.072488
987.377641	0.071959
987.550839	0.071721
987.724018	0.071629
987.897179	0.071278
988.070322	0.071415
988.243447	0.070054
988.416554	0.070069
988.589642	0.069553
988.762712	0.068607
988.935764	0.070437
989.108798	0.072260
989.281813	0.070594
989.454811	0.071137
989.627790	0.071515
989.800751	0.071926
989.973693	0.070186
990.146617	0.070474
990.319524	0.069994
990.492412	0.067704
990.665281	0.066682
990.838133	0.067981
991.010966	0.068511
991.183781	0.068638
991.356578	0.069771
991.529356	0.070422
991.702117	0.070254
991.874859	0.070551
992.047583	0.071073
992.220288	0.070861
992.392976	0.072041
992.565645	0.070901
992.738296	0.069337
992.910929	0.069460
993.083543	0.070479
993.256139	0.071351
993.428718	0.071292
993.601277	0.071967
993.773819	0.073535
993.946342	0.073751
994.118848	0.074002
994.291335	0.074752
994.463803	0.074781
994.636254	0.075641
994.808686	0.076742
994.981100	0.076800
995.153496	0.076553
995.325874	0.075378
995.498233	0.074598
995.670574	0.074849
995.842897	0.074302
996.015202	0.074171
996.187488	0.073544
996.359757	0.071821
996.532007	0.072403
996.704239	0.072664
996.876452	0.073612
997.048648	0.073434
997.220825	0.074509
997.392984	0.078188
997.565124	0.078327
997.737247	0.078658
997.909351	0.080802
998.081437	0.080359
998.253505	0.080952
998.425554	0.080012
998.597586	0.080200
998.769599	0.079745
998.941594	0.077882
999.113571	0.077130
999.285529	0.077640
999.457469	0.076945
999.629391	0.077958
999.801295	0.077830
999.973181	0.078145
1000.145048	0.077911
1000.316897	0.078257
1000.488728	0.077639
1000.660541	0.079092
1000.832335	0.078950
1001.004111	0.078483
1001.175869	0.076687
1001.347609	0.077157
1001.519331	0.077605
1001.691034	0.077379
1001.862719	0.076608
1002.034386	0.076534
1002.206035	0.075610
1002.377665	0.075929
1002.549277	0.076893
1002.720871	0.079161
1002.892447	0.079275
1003.064004	0.078515
1003.235544	0.079125
1003.407065	0.079023
1003.578568	0.078802
1003.750052	0.079385
1003.921519	0.079207
1004.092967	0.079303
1004.264397	0.077598
1004.435809	0.076395
1004.607202	0.075809
1004.778577	0.075294
1004.949934	0.076437
1005.121273	0.076690
1005.292594	0.076475
1005.463896	0.076800
1005.635180	0.075946
1005.806446	0.074010
1005.977694	0.075358
1006.148923	0.076973
1006.320135	0.077062
1006.491328	0.075846
1006.662503	0.076204
1006.833659	0.076191
1007.004798	0.074728
1007.175918	0.074945
1007.347020	0.077804
1007.518103	0.077707
1007.689169	0.076325
1007.860216	0.076647
1008.031245	0.077506
1008.202256	0.077967
1008.373248	0.078355
1008.544223	0.079699
1008.715179	0.079815
1008.886117	0.078911
1009.057036	0.078813
1009.227938	0.079542
1009.398821	0.079335
1009.569686	0.080206
1009.740533	0.080563
1009.911361	0.081162
1010.082172	0.080316
1010.252964	0.079061
1010.423738	0.079130
1010.594493	0.079144
1010.765231	0.079287
1010.935950	0.081037
1011.106651	0.080534
1011.277334	0.079456
1011.447998	0.078859
1011.618645	0.078397
1011.789273	0.079117
1011.959882	0.079098
1012.130474	0.078610
1012.301048	0.077015
1012.471603	0.074968
1012.642140	0.073443
1012.812658	0.074324
1012.983159	0.074423
1013.153641	0.075557
1013.324105	0.075192
1013.494551	0.076440
1013.664979	0.076864
1013.835388	0.078384
1014.005779	0.078890
1014.176152	0.081637
1014.346507	0.081182
1014.516843	0.081478
1014.687162	0.080470
1014.857462	0.080957
1015.027744	0.080231
1015.198007	0.081232
1015.368252	0.081739
1015.538480	0.082121
1015.708689	0.080678
1015.878879	0.079475
1016.049052	0.078259
1016.219206	0.078477
1016.389342	0.079928
1016.559460	0.079803
1016.729559	0.077395
1016.899641	0.076513
1017.069704	0.075454
1017.239749	0.074605
1017.409775	0.077321
1017.579784	0.077037
1017.749774	0.078141
1017.919746	0.076748
1018.089700	0.076040
1018.259635	0.075960
1018.429553	0.076017
1018.599452	0.076810
1018.769333	0.077368
1018.939195	0.075511
1019.109040	0.077397
1019.278866	0.077702
1019.448674	0.078235
1019.618464	0.079131
1019.788235	0.080647
1019.957989	0.081934
1020.127724	0.080891
1020.297441	0.081578
1020.467139	0.081670
1020.636820	0.078949
1020.806482	0.078001
1020.976126	0.078016
1021.145752	0.076288
1021.315359	0.074622
1021.484948	0.072825
1021.654519	0.073998
1021.824072	0.074097
1021.993607	0.075493
1022.163123	0.076048
1022.332621	0.076023
1022.502101	0.074330
1022.671563	0.073491
1022.841007	0.075298
1023.010432	0.076020
1023.179839	0.076605
1023.349228	0.074277
1023.518598	0.072702
1023.687951	0.073375
1023.857285	0.071820
1024.026601	0.072762
1024.195899	0.072521
1024.365178	0.071647
1024.534439	0.070352
1024.703682	0.069821
1024.872907	0.071581
1025.042114	0.071730
1025.211302	0.071001
1025.380472	0.070773
1025.549624	0.071765
1025.718758	0.073433
1025.887873	0.072664
1026.056970	0.073585
1026.226049	0.073575
1026.395110	0.072499
1026.564153	0.072378
1026.733177	0.072351
1026.902183	0.073234
1027.071171	0.071628
1027.240141	0.072181
1027.409092	0.072360
1027.578026	0.071851
1027.746940	0.070529
1027.915837	0.070911
1028.084716	0.070353
1028.253576	0.070580
1028.422418	0.072296
1028.591242	0.073116
1028.760048	0.073216
1028.928835	0.072933
1029.097604	0.074264
1029.266355	0.075105
1029.435088	0.077098
1029.603803	0.078146
1029.772499	0.078461
1029.941177	0.077735
1030.109837	0.077406
1030.278478	0.079053
1030.447102	0.079842
1030.615707	0.078446
1030.784294	0.079961
1030.952863	0.075911
1031.121413	0.074071
1031.289945	0.073720
1031.458460	0.072863
1031.626955	0.073891
1031.795433	0.072583
1031.963892	0.072959
1032.132334	0.074394
1032.300756	0.073069
1032.469161	0.076518
1032.637548	0.077600
1032.805916	0.077984
1032.974266	0.078969
1033.142598	0.078062
1033.310911	0.078354
1033.479207	0.077994
1033.647484	0.077495
1033.815743	0.077843
1033.983983	0.077020
1034.152206	0.076194
1034.320410	0.075891
1034.488596	0.074384
1034.656764	0.074363
1034.824914	0.074248
1034.993045	0.072965
1035.161158	0.072696
1035.329253	0.070021
1035.497330	0.071110
1035.665388	0.071209
1035.833428	0.072265
1036.001450	0.072488
1036.169454	0.072920
1036.337440	0.072698
1036.505407	0.074762
1036.673356	0.075808
1036.841287	0.077891
1037.009200	0.075219
1037.177094	0.078629
1037.344970	0.077064
1037.512828	0.076409
1037.680668	0.076424
1037.848489	0.074665
1038.016293	0.074940
1038.184078	0.074739
1038.351845	0.075954
1038.519593	0.076486
1038.687324	0.073206
1038.855036	0.072912
1039.022730	0.075186
1039.190406	0.075190
1039.358063	0.074917
1039.525702	0.073095
1039.693323	0.072790
1039.860926	0.072047
1040.028511	0.071657
1040.196077	0.073328
1040.363625	0.073654
1040.531155	0.072913
1040.698667	0.073847
1040.866161	0.075317
1041.033636	0.075374
1041.201093	0.076672
1041.368532	0.077494
1041.535952	0.079001
1041.703355	0.078205
1041.870739	0.079031
1042.038105	0.079125
1042.205452	0.078378
1042.372782	0.077157
1042.540093	0.079833
1042.707386	0.078672
1042.874661	0.077346
1043.041918	0.077597
1043.209156	0.077482
1043.376376	0.077102
1043.543578	0.076630
1043.710762	0.076577
1043.877927	0.077990
1044.045074	0.076790
1044.212203	0.077026
1044.379314	0.076781
1044.546407	0.078767
1044.713481	0.078960
1044.880537	0.078240
1045.047575	0.077270
1045.214595	0.076006
1045.381596	0.076625
1045.548579	0.076902
1045.715544	0.076028
1045.882491	0.077155
1046.049420	0.075575
1046.216330	0.073958
1046.383222	0.075377
1046.550096	0.076711
1046.716951	0.075619
1046.883789	0.074189
1047.050608	0.074876
1047.217409	0.074753
1047.384192	0.074698
1047.550956	0.072297
1047.717703	0.073970
1047.884431	0.072749
1048.051140	0.074590
1048.217832	0.076561
1048.384505	0.076326
1048.551161	0.073776
1048.717798	0.073163
1048.884416	0.073068
1049.051017	0.074475
1049.217599	0.073934
1049.384163	0.073819
1049.550709	0.070876
1049.717237	0.071237
1049.883746	0.072157
1050.050237	0.073890
1050.216710	0.074445
1050.383165	0.074940
1050.549601	0.074308
1050.716019	0.072800
1050.882420	0.076078
1051.048801	0.077609
1051.215165	0.078723
1051.381510	0.079049
1051.547837	0.078070
1051.714146	0.078243
1051.880437	0.076472
1052.046709	0.077368
1052.212964	0.079163
1052.379200	0.076011
1052.545417	0.074898
1052.711617	0.074855
1052.877798	0.073527
1053.043961	0.072764
1053.210106	0.072362
1053.376233	0.073714
1053.542341	0.073646
1053.708432	0.073632
1053.874504	0.074864
1054.040557	0.074902
1054.206593	0.073155
1054.372610	0.072892
1054.538609	0.072004
1054.704590	0.071912
1054.870553	0.070653
1055.036497	0.071952
1055.202424	0.071245
1055.368331	0.070925
1055.534221	0.072310
1055.700093	0.073616
1055.865946	0.074151
1056.031781	0.077614
1056.197598	0.079439
1056.363397	0.079435
1056.529177	0.078112
1056.694939	0.077828
1056.860683	0.078399
1057.026409	0.076767
1057.192116	0.075676
1057.357806	0.074509
1057.523477	0.074092
1057.689130	0.074406
1057.854764	0.074267
1058.020381	0.072310
1058.185979	0.073871
1058.351559	0.073566
1058.517120	0.073525
1058.682664	0.071627
1058.848189	0.073674
1059.013696	0.074494
1059.179185	0.072367
1059.344656	0.073823
1059.510108	0.076788
1059.675542	0.076467
1059.840958	0.076637
1060.006356	0.076755
1060.171735	0.079819
1060.337096	0.079385
1060.502439	0.076603
1060.667764	0.077876
1060.833071	0.079079
1060.998359	0.077595
1061.163629	0.076860
1061.328881	0.076358
1061.494115	0.077907
1061.659330	0.077286
1061.824527	0.076930
1061.989706	0.079030
1062.154867	0.079173
1062.320010	0.077868
1062.485134	0.078176
1062.650240	0.079912
1062.815328	0.080739
1062.980398	0.080200
1063.145449	0.080238
1063.310482	0.080963
1063.475497	0.079270
1063.640494	0.078753
1063.805473	0.077548
1063.970433	0.076700
1064.135375	0.075857
1064.300299	0.076600
1064.465204	0.075157
1064.630092	0.074540
1064.794961	0.072681
1064.959812	0.074727
1065.124645	0.073567
1065.289459	0.074488
1065.454256	0.077229
1065.619034	0.076910
1065.783793	0.075940
1065.948535	0.078489
1066.113258	0.079801
1066.277964	0.083402
1066.442651	0.083131
1066.607319	0.084110
1066.771970	0.085072
1066.936602	0.083011
1067.101216	0.082947
1067.265812	0.083168
1067.430389	0.082215
1067.594949	0.082565
1067.759490	0.081781
1067.924013	0.080619
1068.088518	0.080119
1068.253004	0.077629
1068.417472	0.076320
1068.581922	0.076375
1068.746354	0.076082
1068.910768	0.074699
1069.075163	0.072728
1069.239540	0.072036
1069.403899	0.071097
1069.568240	0.073928
1069.732562	0.075227
1069.896866	0.077972
1070.061152	0.078639
1070.225420	0.079374
1070.389670	0.079843
1070.553901	0.079929
1070.718114	0.079407
1070.882309	0.080530
1071.046486	0.078094
1071.210644	0.078289
1071.374784	0.074527
1071.538906	0.074412
1071.703010	0.075092
1071.867096	0.076239
1072.031163	0.075465
1072.195212	0.076462
1072.359243	0.076532
1072.523256	0.078910
1072.687250	0.080561
1072.851226	0.084366
1073.015184	0.085067
1073.179124	0.083912
1073.343045	0.084332
1073.506949	0.083986
1073.670834	0.082787
1073.834701	0.083035
1073.998549	0.080105
1074.162380	0.077004
1074.326192	0.077031
1074.489986	0.078309
1074.653761	0.078522
1074.817519	0.077002
1074.981258	0.079331
1075.144979	0.082494
1075.308682	0.081184
1075.472367	0.084574
1075.636033	0.086195
1075.799681	0.089232
1075.963311	0.085171
1076.126923	0.083893
1076.290516	0.083595
1076.454092	0.081934
1076.617649	0.079665
1076.781187	0.081946
1076.944708	0.079397
1077.108210	0.081407
1077.271695	0.077685
1077.435160	0.080482
1077.598608	0.082378
1077.762038	0.086546
1077.925449	0.086929
1078.088842	0.088200
1078.252217	0.087155
1078.415573	0.087492
1078.578912	0.086026
1078.742232	0.086726
1078.905534	0.087693
1079.068817	0.086641
1079.232083	0.085558
1079.395330	0.087412
1079.558559	0.088754
1079.721770	0.089152
1079.884962	0.089849
1080.048136	0.090025
1080.211293	0.089492
1080.374430	0.088258
1080.537550	0.086650
1080.700651	0.084865
1080.863735	0.084006
1081.026800	0.082108
1081.189846	0.081268
1081.352875	0.078562
1081.515885	0.076005
1081.678877	0.075627
1081.841851	0.074581
1082.004807	0.077530
1082.167744	0.078767
1082.330663	0.081889
1082.493564	0.080544
1082.656447	0.082733
1082.819312	0.085312
1082.982158	0.090223
1083.144986	0.091310
1083.307796	0.092958
1083.470587	0.092125
1083.633361	0.090828
1083.796116	0.086704
1083.958853	0.087100
1084.121571	0.084855
1084.284272	0.083955
1084.446954	0.079945
1084.609618	0.080542
1084.772264	0.078570
1084.934892	0.077192
1085.097501	0.077498
1085.260092	0.079755
1085.422665	0.084061
1085.585220	0.085240
1085.747756	0.087013
1085.910274	0.087615
1086.072774	0.088623
1086.235256	0.089261
1086.397720	0.088616
1086.560165	0.089918
1086.722592	0.088941
1086.885001	0.082212
1087.047392	0.081368
1087.209764	0.081440
1087.372119	0.080421
1087.534455	0.078494
1087.696772	0.078544
1087.859072	0.082504
1088.021353	0.082829
1088.183616	0.083292
1088.345861	0.086220
1088.508088	0.088235
1088.670296	0.086097
1088.832486	0.088353
1088.994658	0.089074
1089.156812	0.092128
1089.318948	0.090830
1089.481065	0.087392
1089.643164	0.088193
1089.805245	0.086294
1089.967308	0.086476
1090.129352	0.086971
1090.291378	0.088493
1090.453386	0.086094
1090.615376	0.083739
1090.777347	0.082173
1090.939301	0.085204
1091.101236	0.083866
1091.263153	0.082662
1091.425051	0.080070
1091.586932	0.082453
1091.748794	0.077594
1091.910638	0.080421
1092.072463	0.077990
1092.234271	0.081109
1092.396060	0.078603
1092.557831	0.076556
1092.719584	0.081433
1092.881319	0.082934
1093.043035	0.080343
1093.204733	0.081440
1093.366413	0.080336
1093.528075	0.082407
1093.689718	0.081553
1093.851343	0.086860
1094.012950	0.090921
1094.174539	0.087895
1094.336110	0.090900
1094.497662	0.092324
1094.659196	0.097184
1094.820712	0.096282
1094.982210	0.097197
1095.143689	0.095902
1095.305151	0.090927
1095.466594	0.088818
1095.628018	0.089026
1095.789425	0.087286
1095.950813	0.089345
1096.112183	0.084340
1096.273535	0.084275
1096.434869	0.081969
1096.596184	0.085499
1096.757482	0.088841
1096.918761	0.091512
1097.080021	0.089577
1097.241264	0.086568
1097.402488	0.085510
1097.563694	0.085378
1097.724882	0.083071
1097.886052	0.084368
1098.047203	0.081270
1098.208336	0.079613
1098.369451	0.081282
1098.530548	0.083568
1098.691627	0.087447
1098.852687	0.081620
1099.013729	0.085063
1099.174753	0.086405
1099.335758	0.090343
1099.496746	0.088651
1099.657715	0.089329
1099.818666	0.085539
1099.979599	0.084759
1100.140513	0.081438
1100.301409	0.083641
1100.462287	0.082192
1100.623147	0.084359
1100.783989	0.081361
1100.944812	0.080991
1101.105617	0.078588
1101.266404	0.076977
1101.427173	0.075999
1101.587923	0.075461
1101.748656	0.075403
1101.909370	0.075009
1102.070066	0.076824
1102.230743	0.075583
1102.391403	0.079749
1102.552044	0.081944
1102.712667	0.083707
1102.873271	0.085926
1103.033858	0.085264
1103.194426	0.089811
1103.354976	0.091855
1103.515508	0.088528
1103.676021	0.084906
1103.836517	0.078494
1103.996994	0.077830
1104.157453	0.074034
1104.317893	0.075252
1104.478316	0.079866
1104.638720	0.077505
1104.799106	0.079882
1104.959474	0.081335
1105.119823	0.083478
1105.280155	0.085980
1105.440468	0.084938
1105.600763	0.086985
1105.761039	0.089070
1105.921298	0.084835
1106.081538	0.086598
1106.241760	0.085472
1106.401964	0.085484
1106.562149	0.087380
1106.722316	0.088360
1106.882465	0.085979
1107.042596	0.089575
1107.202709	0.090195
1107.362803	0.092143
1107.522879	0.090063
1107.682937	0.088829
1107.842977	0.091629
1108.002999	0.092726
1108.163002	0.091322
1108.322987	0.095843
1108.482954	0.095137
1108.642902	0.093516
1108.802833	0.092979
1108.962745	0.095573
1109.122639	0.094031
1109.282515	0.093565
1109.442372	0.093550
1109.602211	0.093087
1109.762032	0.095602
1109.921835	0.098509
1110.081620	0.095499
1110.241386	0.097020
1110.401134	0.093387
1110.560864	0.096618
1110.720576	0.093618
1110.880269	0.092834
1111.039945	0.092181
1111.199602	0.090286
1111.359240	0.084095
1111.518861	0.084639
1111.678463	0.079307
1111.838047	0.080116
1111.997613	0.081901
1112.157161	0.085526
1112.316690	0.087894
1112.476202	0.090153
1112.635695	0.089948
1112.795169	0.093336
1112.954626	0.096452
1113.114064	0.100712
1113.273484	0.104770
1113.432886	0.100647
1113.592270	0.096929
1113.751635	0.092271
1113.910983	0.092338
1114.070312	0.091195
1114.229622	0.087994
1114.388915	0.088684
1114.548189	0.086020
1114.707445	0.085205
1114.866683	0.084706
1115.025903	0.084417
1115.185104	0.086328
1115.344287	0.089133
1115.503452	0.088692
1115.662599	0.089015
1115.821727	0.084677
1115.980838	0.086685
1116.139930	0.084783
1116.299004	0.086254
1116.458059	0.085161
1116.617097	0.089141
1116.776116	0.091996
1116.935117	0.087917
1117.094099	0.087343
1117.253064	0.091624
1117.412010	0.090447
1117.570938	0.086121
1117.729848	0.086541
1117.888740	0.089185
1118.047613	0.088100
1118.206468	0.083792
1118.365305	0.085750
1118.524124	0.086892
1118.682924	0.084392
1118.841707	0.083941
1119.000471	0.090030
1119.159216	0.085800
1119.317944	0.084514
1119.476653	0.083807
1119.635344	0.085581
1119.794017	0.089260
1119.952672	0.091670
1120.111308	0.091046
1120.269927	0.094833
1120.428527	0.091164
1120.587108	0.094055
1120.745672	0.094042
1120.904217	0.092743
1121.062744	0.090134
1121.221253	0.085050
1121.379744	0.083539
1121.538216	0.084976
1121.696671	0.083880
1121.855107	0.084713
1122.013524	0.088612
1122.171924	0.090934
1122.330305	0.090949
1122.488668	0.092936
1122.647013	0.097819
1122.805340	0.097445
1122.963648	0.095751
1123.121938	0.094578
1123.280210	0.095770
1123.438464	0.092801
1123.596700	0.090897
1123.754917	0.091580
1123.913116	0.091024
1124.071297	0.089583
1124.229459	0.093992
1124.387604	0.096267
1124.545730	0.096240
1124.703838	0.098655
1124.861928	0.096905
1125.019999	0.097549
1125.178052	0.098360
1125.336088	0.096309
1125.494104	0.095052
1125.652103	0.093031
1125.810083	0.087647
1125.968045	0.090313
1126.125989	0.087772
1126.283915	0.090679
1126.441823	0.089628
1126.599712	0.088597
1126.757583	0.096048
1126.915436	0.099367
1127.073270	0.100893
1127.231087	0.103405
1127.388885	0.103664
1127.546665	0.104876
1127.704426	0.109637
1127.862170	0.109791
1128.019895	0.106988
1128.177602	0.104869
1128.335291	0.104056
1128.492961	0.102077
1128.650614	0.107744
1128.808248	0.108046
1128.965864	0.104445
1129.123461	0.098620
1129.281041	0.096684
1129.438602	0.104078
1129.596145	0.100021
1129.753670	0.096902
1129.911176	0.096779
1130.068665	0.093173
1130.226135	0.091300
1130.383587	0.091487
1130.541020	0.090644
1130.698436	0.092653
1130.855833	0.090114
1131.013212	0.090439
1131.170573	0.092468
1131.327915	0.088871
1131.485239	0.090326
1131.642545	0.090894
1131.799833	0.094296
1131.957103	0.090336
1132.114354	0.097792
1132.271588	0.095274
1132.428803	0.096426
1132.585999	0.093233
1132.743178	0.098217
1132.900338	0.101422
1133.057480	0.099048
1133.214604	0.099857
1133.371710	0.104729
1133.528797	0.100241
1133.685866	0.098635
1133.842917	0.093744
1133.999950	0.095342
1134.156964	0.094236
1134.313960	0.092568
1134.470938	0.092023
1134.627898	0.088765
1134.784840	0.084667
1134.941763	0.081067
1135.098668	0.078565
1135.255555	0.084317
1135.412424	0.086853
1135.569274	0.088415
1135.726107	0.082074
1135.882921	0.085441
1136.039716	0.091311
1136.196494	0.093866
1136.353253	0.099077
1136.509995	0.101713
1136.666717	0.103346
1136.823422	0.109990
1136.980109	0.108757
1137.136777	0.113558
1137.293427	0.112969
1137.450059	0.110864
1137.606672	0.102770
1137.763267	0.095669
1137.919844	0.102225
1138.076403	0.096501
1138.232944	0.089950
1138.389466	0.086762
1138.545971	0.083512
1138.702457	0.086346
1138.858924	0.087415
1139.015374	0.092164
1139.171805	0.101090
1139.328218	0.094466
1139.484613	0.094767
1139.640990	0.095988
1139.797348	0.097718
1139.953688	0.096070
1140.110010	0.092730
1140.266314	0.086842
1140.422600	0.091854
1140.578867	0.086949
1140.735116	0.091110
1140.891347	0.093759
1141.047559	0.091865
1141.203754	0.095707
1141.359930	0.104732
1141.516088	0.106012
1141.672228	0.105525
1141.828349	0.102978
1141.984452	0.099413
1142.140537	0.093310
1142.296604	0.089674
1142.452653	0.097595
1142.608683	0.094329
1142.764695	0.089641
1142.920689	0.089620
1143.076665	0.093908
1143.232622	0.098023
1143.388562	0.103480
1143.544483	0.110301
1143.700385	0.112948
1143.856270	0.107510
1144.012136	0.110047
1144.167985	0.115797
1144.323814	0.119105
1144.479626	0.111509
1144.635420	0.105265
1144.791195	0.101228
1144.946952	0.098790
1145.102691	0.107344
1145.258411	0.107415
1145.414113	0.105862
1145.569798	0.098453
1145.725463	0.097006
1145.881111	0.100976
1146.036741	0.102464
1146.192352	0.102682
1146.347945	0.102101
1146.503519	0.097219
1146.659076	0.089413
1146.814614	0.093873
1146.970134	0.094919
1147.125636	0.085721
1147.281120	0.086990
1147.436585	0.089999
1147.592032	0.082362
1147.747461	0.082439
1147.902872	0.075322
1148.058265	0.084719
1148.213639	0.076126
1148.368995	0.074861
1148.524333	0.087142
1148.679653	0.091800
1148.834954	0.096018
1148.990237	0.109802
1149.145502	0.115083
1149.300749	0.124926
1149.455977	0.120701
1149.611188	0.126019
1149.766380	0.130356
1149.921553	0.119725
1150.076709	0.129386
1150.231846	0.118371
1150.386966	0.115404
1150.542066	0.109470
1150.697149	0.103731
1150.852214	0.100891
1151.007260	0.104602
1151.162288	0.109757
1151.317298	0.111255
1151.472289	0.101064
1151.627263	0.099577
1151.782218	0.097181
1151.937155	0.104656
1152.092073	0.110166
1152.246974	0.107151
1152.401856	0.091400
1152.556720	0.075191
1152.711566	0.080435
1152.866393	0.074850
1153.021203	0.079746
1153.175994	0.082769
1153.330767	0.073903
1153.485521	0.066421
1153.640258	0.075294
1153.794976	0.082490
1153.949676	0.084595
1154.104358	0.077161
1154.259021	0.090603
1154.413667	0.091188
1154.568294	0.087642
1154.722903	0.094989
1154.877493	0.092968
1155.032066	0.094378
1155.186620	0.100515
1155.341156	0.096208
1155.495674	0.096048
1155.650173	0.086067
1155.804654	0.082656
1155.959118	0.077593
1156.113562	0.072930
1156.267989	0.067510
1156.422397	0.059654
1156.576788	0.059395
1156.731160	0.075249
1156.885513	0.075452
1157.039849	0.069204
1157.194166	0.079334
1157.348465	0.090554
1157.502746	0.090008
1157.657009	0.099772
1157.811253	0.099425
1157.965479	0.094334
1158.119687	0.092933
1158.273877	0.100012
1158.428048	0.113424
1158.582201	0.108162
1158.736337	0.105135
1158.890453	0.105119
1159.044552	0.097933
1159.198632	0.107529
1159.352694	0.107663
1159.506738	0.107797
1159.660764	0.109228
1159.814771	0.105894
1159.968761	0.105645
1160.122732	0.106068
1160.276685	0.106459
1160.430619	0.104739
1160.584535	0.092909
1160.738434	0.089652
1160.892313	0.099676
1161.046175	0.093609
1161.200019	0.095135
1161.353844	0.094974
1161.507651	0.089338
1161.661440	0.087001
1161.815210	0.093061
1161.968962	0.090796
1162.122697	0.102241
1162.276412	0.086972
1162.430110	0.090246
1162.583789	0.082735
1162.737451	0.080073
1162.891094	0.079177
1163.044718	0.084214
1163.198325	0.089325
1163.351913	0.094327
1163.505483	0.087096
1163.659035	0.087549
1163.812569	0.091942
1163.966084	0.095171
1164.119581	0.101511
1164.273060	0.105131
1164.426521	0.098190
1164.579964	0.093081
1164.733388	0.093828
1164.886794	0.098978
1165.040182	0.101711
1165.193551	0.096101
1165.346903	0.089910
1165.500236	0.082293
1165.653551	0.080870
1165.806848	0.082736
1165.960126	0.084784
1166.113386	0.082489
1166.266628	0.082769
1166.419852	0.076915
1166.573058	0.077138
1166.726245	0.068600
1166.879414	0.083658
1167.032565	0.086365
1167.185698	0.087960
1167.338812	0.091073
1167.491909	0.099876
1167.644987	0.096037
1167.798046	0.096135
1167.951088	0.087601
1168.104111	0.100432
1168.257117	0.079156
1168.410103	0.080366
1168.563072	0.076884
1168.716023	0.067738
1168.868955	0.059678
1169.021869	0.061053
1169.174765	0.060759
1169.327642	0.064981
1169.480501	0.054204
1169.633343	0.063292
1169.786165	0.055255
1169.938970	0.064050
1170.091757	0.076079
1170.244525	0.076342
1170.397275	0.082101
1170.550007	0.086229
1170.702720	0.091796
1170.855415	0.100066
1171.008092	0.115872
1171.160751	0.140239
1171.313392	0.151250
1171.466014	0.060330
1171.618619	0.273016
1171.771205	0.273016
1171.923772	0.273016
