sample name	sample
index	465
start time	 03-11-2021  12:05:25 PM


Wavelength (nm)	Absorbance
494.344910	NaN
494.563924	NaN
494.782919	NaN
495.001897	-0.131113
495.220856	-0.189279
495.439797	-0.235744
495.658719	-0.216353
495.877624	-0.224266
496.096510	-0.179334
496.315378	-0.107451
496.534227	0.063443
496.753059	0.131168
496.971872	0.116667
497.190667	0.082769
497.409444	0.088141
497.628203	0.090206
497.846943	0.090917
498.065665	0.091060
498.284369	0.090655
498.503055	0.089861
498.721723	0.091161
498.940372	0.091016
499.159003	0.091530
499.377616	0.091456
499.596210	0.090844
499.814787	0.090623
500.033345	0.090452
500.251885	0.090138
500.470406	0.091124
500.688910	0.090904
500.907395	0.091529
501.125862	0.091881
501.344311	0.092093
501.562742	0.092933
501.781154	0.093454
501.999548	0.093326
502.217924	0.094307
502.436282	0.094317
502.654621	0.093846
502.872942	0.093511
503.091245	0.092839
503.309530	0.092686
503.527797	0.092205
503.746045	0.091700
503.964275	0.092687
504.182487	0.092285
504.400681	0.092151
504.618856	0.092984
504.837013	0.092680
505.055152	0.093467
505.273273	0.093054
505.491376	0.092927
505.709460	0.092425
505.927526	0.092576
506.145574	0.092136
506.363604	0.091580
506.581615	0.090522
506.799608	0.091516
507.017583	0.091339
507.235540	0.092923
507.453478	0.093544
507.671399	0.094162
507.889301	0.093019
508.107185	0.092398
508.325050	0.093257
508.542898	0.092944
508.760727	0.092279
508.978538	0.092273
509.196330	0.091845
509.414105	0.091450
509.631861	0.090801
509.849599	0.091122
510.067319	0.092555
510.285021	0.091855
510.502704	0.093508
510.720369	0.094006
510.938016	0.094549
511.155645	0.093561
511.373255	0.093053
511.590848	0.093991
511.808422	0.093862
512.025977	0.093480
512.243515	0.094099
512.461034	0.093473
512.678536	0.093636
512.896018	0.093338
513.113483	0.094262
513.330930	0.094388
513.548358	0.095291
513.765768	0.096186
513.983160	0.096387
514.200533	0.095874
514.417889	0.095824
514.635226	0.095662
514.852545	0.095902
515.069845	0.095398
515.287128	0.095574
515.504392	0.094729
515.721638	0.094055
515.938866	0.093855
516.156075	0.093850
516.373267	0.094481
516.590440	0.094460
516.807594	0.094649
517.024731	0.095687
517.241850	0.096304
517.458950	0.096448
517.676032	0.096746
517.893095	0.097253
518.110141	0.097667
518.327168	0.097210
518.544177	0.096797
518.761168	0.097093
518.978141	0.096608
519.195095	0.096372
519.412031	0.096278
519.628949	0.096204
519.845849	0.095966
520.062731	0.096260
520.279594	0.096104
520.496439	0.097037
520.713266	0.096985
520.930074	0.097120
521.146865	0.097560
521.363637	0.097324
521.580391	0.097122
521.797127	0.097615
522.013844	0.096988
522.230543	0.097566
522.447224	0.097560
522.663887	0.097619
522.880532	0.097729
523.097158	0.097573
523.313766	0.098148
523.530356	0.099106
523.746928	0.099218
523.963481	0.099713
524.180017	0.099924
524.396534	0.099962
524.613032	0.100217
524.829513	0.100166
525.045975	0.100667
525.262420	0.100655
525.478845	0.100354
525.695253	0.099937
525.911643	0.100289
526.128014	0.099889
526.344367	0.100323
526.560702	0.099639
526.777018	0.099833
526.993316	0.100013
527.209597	0.100312
527.425858	0.100945
527.642102	0.101633
527.858328	0.101478
528.074535	0.102453
528.290724	0.102158
528.506894	0.102872
528.723047	0.103571
528.939181	0.102730
529.155297	0.101935
529.371395	0.101716
529.587475	0.101586
529.803536	0.102280
530.019579	0.101787
530.235604	0.102029
530.451611	0.102121
530.667600	0.101708
530.883570	0.102119
531.099522	0.103088
531.315456	0.103479
531.531372	0.103644
531.747269	0.103855
531.963148	0.104370
532.179009	0.104519
532.394852	0.104215
532.610676	0.104818
532.826482	0.105451
533.042271	0.105517
533.258040	0.105292
533.473792	0.105331
533.689525	0.105257
533.905240	0.104888
534.120937	0.104850
534.336616	0.105383
534.552277	0.105106
534.767919	0.104574
534.983543	0.104440
535.199149	0.104412
535.414736	0.104847
535.630306	0.104617
535.845857	0.105382
536.061390	0.105675
536.276904	0.105488
536.492401	0.105660
536.707879	0.106002
536.923339	0.106666
537.138781	0.106806
537.354204	0.106649
537.569610	0.106901
537.784997	0.106437
538.000366	0.106574
538.215716	0.107049
538.431049	0.107515
538.646363	0.107573
538.861659	0.107330
539.076937	0.107745
539.292196	0.107772
539.507438	0.108076
539.722661	0.108389
539.937866	0.108473
540.153052	0.108547
540.368221	0.108372
540.583371	0.108493
540.798503	0.108820
541.013617	0.109049
541.228712	0.109407
541.443789	0.109097
541.658848	0.109012
541.873889	0.109227
542.088912	0.109280
542.303916	0.109290
542.518902	0.109577
542.733870	0.109257
542.948820	0.109305
543.163752	0.109322
543.378665	0.109748
543.593560	0.110197
543.808437	0.110264
544.023295	0.110418
544.238136	0.110662
544.452958	0.110932
544.667762	0.111401
544.882548	0.111872
545.097315	0.111621
545.312064	0.111572
545.526795	0.111346
545.741508	0.111530
545.956203	0.111649
546.170879	0.111765
546.385537	0.111993
546.600177	0.112460
546.814799	0.111848
547.029402	0.112675
547.243988	0.112755
547.458555	0.112839
547.673103	0.112993
547.887634	0.113557
548.102146	0.114072
548.316640	0.113934
548.531116	0.113726
548.745574	0.113922
548.960013	0.113653
549.174435	0.113902
549.388838	0.114024
549.603222	0.113999
549.817589	0.114042
550.031937	0.113900
550.246267	0.114144
550.460579	0.114464
550.674873	0.114700
550.889148	0.114760
551.103405	0.114810
551.317644	0.114985
551.531865	0.115192
551.746068	0.115166
551.960252	0.115080
552.174418	0.115233
552.388566	0.114966
552.602696	0.114755
552.816807	0.114739
553.030900	0.115050
553.244975	0.115388
553.459032	0.115397
553.673070	0.115361
553.887091	0.115021
554.101093	0.115135
554.315077	0.115434
554.529042	0.115655
554.742990	0.115978
554.956919	0.115904
555.170830	0.116121
555.384722	0.116207
555.598597	0.116003
555.812453	0.116482
556.026291	0.116483
556.240111	0.116382
556.453913	0.116781
556.667696	0.116659
556.881461	0.116797
557.095208	0.116548
557.308937	0.116502
557.522647	0.116564
557.736339	0.116556
557.950013	0.116594
558.163669	0.116922
558.377307	0.116665
558.590926	0.117131
558.804527	0.117233
559.018110	0.117404
559.231675	0.117256
559.445221	0.117387
559.658749	0.117509
559.872259	0.117506
560.085751	0.117683
560.299225	0.118230
560.512680	0.118264
560.726117	0.118152
560.939536	0.118462
561.152937	0.118548
561.366319	0.118467
561.579683	0.118805
561.793029	0.118916
562.006357	0.118634
562.219667	0.118390
562.432958	0.118254
562.646231	0.118627
562.859486	0.118708
563.072723	0.119264
563.285941	0.119587
563.499141	0.119703
563.712323	0.119745
563.925487	0.119996
564.138632	0.120259
564.351760	0.120478
564.564869	0.120422
564.777960	0.120108
564.991032	0.119973
565.204087	0.120272
565.417123	0.120421
565.630141	0.120623
565.843140	0.120585
566.056122	0.120470
566.269085	0.120522
566.482030	0.120268
566.694957	0.120457
566.907866	0.120404
567.120756	0.120334
567.333628	0.120120
567.546482	0.120159
567.759318	0.120504
567.972135	0.120661
568.184935	0.120489
568.397716	0.120970
568.610478	0.121196
568.823223	0.121613
569.035949	0.121511
569.248657	0.121235
569.461347	0.121142
569.674019	0.121056
569.886672	0.121313
570.099308	0.121750
570.311925	0.121553
570.524523	0.121420
570.737104	0.121244
570.949666	0.121286
571.162210	0.121684
571.374736	0.122095
571.587244	0.122228
571.799733	0.121843
572.012205	0.121371
572.224658	0.121459
572.437092	0.121478
572.649509	0.121971
572.861907	0.122036
573.074287	0.122029
573.286649	0.121831
573.498993	0.121744
573.711318	0.121972
573.923625	0.122353
574.135914	0.122685
574.348185	0.123033
574.560438	0.122881
574.772672	0.123276
574.984888	0.123150
575.197086	0.123288
575.409266	0.123380
575.621427	0.123702
575.833570	0.123468
576.045695	0.123227
576.257802	0.123091
576.469890	0.123054
576.681961	0.123235
576.894013	0.123652
577.106046	0.123544
577.318062	0.123603
577.530059	0.123072
577.742039	0.123750
577.954000	0.123794
578.165942	0.124020
578.377867	0.124167
578.589773	0.124049
578.801661	0.124011
579.013531	0.124308
579.225382	0.124408
579.437216	0.124756
579.649031	0.124607
579.860828	0.124768
580.072606	0.125014
580.284367	0.124720
580.496109	0.124832
580.707833	0.124678
580.919539	0.124837
581.131227	0.124731
581.342896	0.124967
581.554547	0.124908
581.766180	0.124827
581.977795	0.124685
582.189391	0.124941
582.400969	0.124722
582.612529	0.125012
582.824071	0.124948
583.035595	0.125279
583.247100	0.125313
583.458587	0.125242
583.670056	0.125788
583.881506	0.126088
584.092939	0.126266
584.304353	0.126657
584.515749	0.127001
584.727127	0.127198
584.938486	0.127353
585.149828	0.127919
585.361151	0.128666
585.572456	0.128761
585.783742	0.128715
585.995011	0.128720
586.206261	0.128752
586.417493	0.128682
586.628706	0.128580
586.839902	0.128687
587.051079	0.128486
587.262238	0.128288
587.473379	0.128471
587.684502	0.128853
587.895606	0.129033
588.106692	0.129153
588.317760	0.129245
588.528810	0.129650
588.739841	0.129470
588.950855	0.129142
589.161850	0.129079
589.372827	0.128767
589.583785	0.128013
589.794726	0.128279
590.005648	0.128343
590.216552	0.128484
590.427437	0.128410
590.638305	0.128586
590.849154	0.129078
591.059985	0.129403
591.270798	0.129592
591.481592	0.129875
591.692369	0.129958
591.903127	0.129808
592.113867	0.129664
592.324588	0.129756
592.535292	0.129816
592.745977	0.129740
592.956644	0.129563
593.167293	0.129668
593.377923	0.130154
593.588536	0.130039
593.799130	0.130077
594.009706	0.130348
594.220263	0.130081
594.430803	0.130106
594.641324	0.130250
594.851827	0.130473
595.062312	0.130425
595.272778	0.130395
595.483227	0.130349
595.693657	0.130407
595.904069	0.130388
596.114462	0.130490
596.324838	0.130925
596.535195	0.131193
596.745534	0.131053
596.955855	0.131236
597.166157	0.131335
597.376441	0.131746
597.586707	0.132271
597.796955	0.132773
598.007185	0.132925
598.217396	0.132812
598.427589	0.132797
598.637764	0.132582
598.847921	0.132391
599.058060	0.132192
599.268180	0.132144
599.478282	0.131900
599.688366	0.131543
599.898431	0.132058
600.108479	0.131872
600.318508	0.131851
600.528519	0.132452
600.738511	0.132623
600.948486	0.132998
601.158442	0.132983
601.368380	0.132925
601.578300	0.132840
601.788202	0.132618
601.998085	0.132867
602.207950	0.133023
602.417797	0.133014
602.627626	0.133090
602.837436	0.133347
603.047228	0.133554
603.257002	0.134012
603.466758	0.134137
603.676496	0.134319
603.886215	0.134400
604.095916	0.134404
604.305599	0.134244
604.515264	0.134307
604.724910	0.134393
604.934538	0.134157
605.144148	0.134262
605.353740	0.134553
605.563314	0.134533
605.772869	0.134515
605.982406	0.134604
606.191925	0.134858
606.401425	0.134948
606.610908	0.134817
606.820372	0.134862
607.029818	0.134571
607.239246	0.134526
607.448655	0.134414
607.658047	0.134411
607.867420	0.134456
608.076775	0.134180
608.286111	0.134409
608.495430	0.134452
608.704730	0.134612
608.914012	0.134679
609.123275	0.134801
609.332521	0.134969
609.541748	0.135326
609.750957	0.135509
609.960148	0.136126
610.169321	0.136249
610.378475	0.136288
610.587611	0.136438
610.796729	0.136635
611.005829	0.136667
611.214910	0.137050
611.423974	0.137110
611.633019	0.137168
611.842045	0.137163
612.051054	0.136863
612.260044	0.136555
612.469017	0.136638
612.677970	0.136742
612.886906	0.136754
613.095824	0.136476
613.304723	0.136453
613.513604	0.136566
613.722467	0.136643
613.931311	0.137099
614.140138	0.137643
614.348946	0.137562
614.557736	0.137522
614.766507	0.137637
614.975261	0.137692
615.183996	0.137763
615.392713	0.137758
615.601412	0.137772
615.810092	0.137543
616.018754	0.137631
616.227399	0.137881
616.436024	0.138153
616.644632	0.138229
616.853222	0.138295
617.061793	0.138282
617.270346	0.138017
617.478880	0.138099
617.687397	0.138398
617.895895	0.138235
618.104375	0.138332
618.312837	0.138144
618.521281	0.138146
618.729706	0.138449
618.938113	0.138649
619.146502	0.138960
619.354873	0.138770
619.563226	0.138801
619.771560	0.138949
619.979876	0.138976
620.188174	0.139228
620.396453	0.139296
620.604715	0.139104
620.812958	0.139235
621.021183	0.139372
621.229390	0.139846
621.437578	0.139971
621.645748	0.140093
621.853900	0.140162
622.062034	0.140026
622.270150	0.139958
622.478247	0.140265
622.686326	0.140260
622.894387	0.140371
623.102430	0.140274
623.310454	0.140375
623.518461	0.140460
623.726449	0.140506
623.934418	0.140782
624.142370	0.141112
624.350303	0.140922
624.558218	0.140781
624.766115	0.140572
624.973994	0.140441
625.181855	0.140408
625.389697	0.140297
625.597521	0.140349
625.805327	0.140585
626.013114	0.140574
626.220883	0.141103
626.428634	0.141250
626.636367	0.141204
626.844082	0.141394
627.051778	0.141384
627.259457	0.141389
627.467117	0.141443
627.674758	0.141342
627.882382	0.141611
628.089987	0.141348
628.297574	0.141480
628.505143	0.141804
628.712694	0.142071
628.920226	0.142426
629.127740	0.142835
629.335236	0.142843
629.542714	0.142929
629.750174	0.142625
629.957615	0.142767
630.165038	0.142873
630.372443	0.143093
630.579829	0.142979
630.787198	0.142725
630.994548	0.142680
631.201880	0.142824
631.409194	0.142782
631.616489	0.142976
631.823766	0.143062
632.031025	0.143051
632.238266	0.143225
632.445489	0.143348
632.652693	0.143435
632.859879	0.143345
633.067047	0.143503
633.274197	0.143560
633.481329	0.143494
633.688442	0.143474
633.895537	0.143556
634.102614	0.143198
634.309672	0.143046
634.516713	0.143256
634.723735	0.143377
634.930739	0.143264
635.137724	0.143281
635.344692	0.143655
635.551641	0.143862
635.758572	0.143888
635.965485	0.144041
636.172379	0.144099
636.379256	0.143989
636.586114	0.144095
636.792954	0.144066
636.999775	0.143997
637.206579	0.143995
637.413364	0.144028
637.620131	0.144131
637.826880	0.144131
638.033610	0.144376
638.240323	0.144692
638.447017	0.144671
638.653692	0.144848
638.860350	0.145096
639.066990	0.144932
639.273611	0.144779
639.480214	0.144974
639.686798	0.145295
639.893365	0.145220
640.099913	0.145090
640.306443	0.145095
640.512955	0.145369
640.719449	0.145544
640.925924	0.145890
641.132381	0.146242
641.338820	0.146164
641.545241	0.146030
641.751644	0.146231
641.958028	0.146374
642.164394	0.146600
642.370742	0.146458
642.577071	0.146585
642.783383	0.146507
642.989676	0.146426
643.195951	0.146623
643.402207	0.146901
643.608446	0.147058
643.814666	0.147285
644.020868	0.147357
644.227052	0.147479
644.433218	0.147513
644.639365	0.147797
644.845494	0.147851
645.051605	0.147706
645.257698	0.147660
645.463772	0.147557
645.669828	0.147451
645.875866	0.147459
646.081886	0.147419
646.287888	0.147508
646.493871	0.147163
646.699836	0.147189
646.905783	0.147408
647.111712	0.147591
647.317622	0.147592
647.523514	0.147774
647.729388	0.147823
647.935244	0.148019
648.141082	0.148067
648.346901	0.148601
648.552702	0.148711
648.758485	0.148894
648.964250	0.148850
649.169996	0.149027
649.375724	0.149272
649.581434	0.149422
649.787126	0.149688
649.992800	0.149856
650.198455	0.149751
650.404092	0.149848
650.609711	0.149961
650.815311	0.149852
651.020894	0.150141
651.226458	0.149917
651.432004	0.149862
651.637532	0.149642
651.843041	0.149588
652.048532	0.149573
652.254006	0.149592
652.459460	0.149670
652.664897	0.149970
652.870315	0.149784
653.075716	0.149754
653.281097	0.150110
653.486461	0.150434
653.691807	0.150680
653.897134	0.150892
654.102443	0.151157
654.307734	0.151200
654.513006	0.151335
654.718261	0.151550
654.923497	0.151834
655.128715	0.151652
655.333915	0.151659
655.539096	0.151539
655.744259	0.151580
655.949404	0.151607
656.154531	0.151555
656.359640	0.151606
656.564730	0.151906
656.769802	0.151903
656.974856	0.152192
657.179892	0.152545
657.384909	0.152619
657.589908	0.152510
657.794889	0.152747
657.999852	0.152766
658.204797	0.152770
658.409723	0.152525
658.614631	0.152690
658.819521	0.152776
659.024393	0.152522
659.229246	0.152613
659.434081	0.152902
659.638898	0.152868
659.843697	0.153052
660.048478	0.153260
660.253240	0.153323
660.457984	0.153461
660.662710	0.153582
660.867417	0.153934
661.072107	0.154108
661.276778	0.154267
661.481431	0.154516
661.686066	0.154644
661.890682	0.154704
662.095281	0.154907
662.299861	0.154794
662.504422	0.154738
662.708966	0.154574
662.913491	0.154632
663.117999	0.154663
663.322488	0.154621
663.526958	0.154794
663.731411	0.154795
663.935845	0.154886
664.140261	0.155105
664.344659	0.155129
664.549038	0.155053
664.753400	0.155202
664.957743	0.155319
665.162068	0.155332
665.366375	0.155483
665.570663	0.155448
665.774933	0.155541
665.979185	0.155607
666.183419	0.155809
666.387635	0.156111
666.591832	0.156193
666.796011	0.156289
667.000172	0.156359
667.204315	0.156156
667.408439	0.156176
667.612545	0.156151
667.816634	0.156238
668.020703	0.156491
668.224755	0.156501
668.428788	0.156424
668.632803	0.156403
668.836800	0.156458
669.040779	0.156727
669.244739	0.157043
669.448681	0.156955
669.652605	0.156966
669.856511	0.156823
670.060399	0.156919
670.264268	0.157093
670.468119	0.157350
670.671952	0.157494
670.875767	0.157522
671.079563	0.157616
671.283341	0.157779
671.487101	0.157822
671.690843	0.157802
671.894567	0.157832
672.098272	0.157811
672.301959	0.157889
672.505628	0.157771
672.709278	0.158009
672.912911	0.157992
673.116525	0.158257
673.320121	0.158267
673.523699	0.158374
673.727258	0.158567
673.930799	0.158865
674.134322	0.158731
674.337827	0.158916
674.541314	0.158885
674.744782	0.159082
674.948232	0.159059
675.151664	0.159293
675.355078	0.159524
675.558474	0.159840
675.761851	0.159779
675.965210	0.159948
676.168551	0.159987
676.371873	0.159915
676.575178	0.159832
676.778464	0.160094
676.981732	0.160163
677.184981	0.160132
677.388213	0.159894
677.591426	0.160230
677.794621	0.160361
677.997798	0.160523
678.200956	0.160788
678.404097	0.161088
678.607219	0.161100
678.810323	0.161317
679.013408	0.161539
679.216476	0.161823
679.419525	0.161757
679.622556	0.161825
679.825569	0.161942
680.028563	0.162022
680.231540	0.162066
680.434498	0.162069
680.637438	0.162012
680.840359	0.161885
681.043263	0.161994
681.246148	0.161851
681.449015	0.161979
681.651864	0.161778
681.854694	0.161740
682.057506	0.161831
682.260301	0.162064
682.463076	0.162233
682.665834	0.162415
682.868573	0.162472
683.071295	0.162708
683.273998	0.162730
683.476682	0.163135
683.679349	0.163272
683.881997	0.163343
684.084627	0.163225
684.287239	0.163146
684.489833	0.163274
684.692408	0.163290
684.894965	0.163371
685.097504	0.163560
685.300025	0.163712
685.502527	0.163904
685.705012	0.163967
685.907478	0.164186
686.109925	0.164418
686.312355	0.164702
686.514766	0.164638
686.717159	0.165008
686.919534	0.165145
687.121891	0.165174
687.324230	0.165173
687.526550	0.165243
687.728852	0.165244
687.931136	0.165372
688.133401	0.165188
688.335649	0.165383
688.537878	0.165044
688.740089	0.165034
688.942281	0.164889
689.144456	0.164768
689.346612	0.164827
689.548750	0.164891
689.750870	0.165063
689.952971	0.165242
690.155055	0.165214
690.357120	0.165267
690.559167	0.165468
690.761195	0.165509
690.963206	0.165740
691.165198	0.165850
691.367172	0.165966
691.569128	0.165790
691.771065	0.165689
691.972984	0.165745
692.174885	0.166052
692.376768	0.165892
692.578633	0.166125
692.780479	0.166140
692.982308	0.166127
693.184118	0.166284
693.385909	0.166321
693.587683	0.166436
693.789438	0.166564
693.991175	0.166478
694.192894	0.166665
694.394595	0.166578
694.596277	0.166673
694.797941	0.166744
694.999587	0.166832
695.201215	0.166784
695.402824	0.167066
695.604416	0.167103
695.805989	0.167277
696.007543	0.167180
696.209080	0.167358
696.410598	0.167471
696.612099	0.167521
696.813580	0.167607
697.015044	0.168032
697.216490	0.168028
697.417917	0.168202
697.619326	0.168156
697.820717	0.168266
698.022089	0.168467
698.223444	0.168606
698.424780	0.168747
698.626098	0.168704
698.827397	0.168635
699.028679	0.168555
699.229942	0.168513
699.431187	0.168623
699.632414	0.168761
699.833622	0.168784
700.034813	0.168818
700.235985	0.168928
700.437139	0.168943
700.638274	0.168845
700.839392	0.169086
701.040491	0.169439
701.241572	0.169672
701.442635	0.169719
701.643679	0.169646
701.844706	0.169730
702.045714	0.169683
702.246704	0.169884
702.447675	0.170197
702.648629	0.170197
702.849564	0.170079
703.050481	0.169862
703.251380	0.169897
703.452260	0.170235
703.653122	0.170177
703.853966	0.170123
704.054792	0.169777
704.255600	0.169817
704.456389	0.169768
704.657160	0.169780
704.857913	0.169820
705.058648	0.169937
705.259365	0.169482
705.460063	0.169207
705.660743	0.169383
705.861405	0.169565
706.062048	0.169471
706.262674	0.169375
706.463281	0.169117
706.663870	0.169031
706.864441	0.168839
707.064993	0.169082
707.265527	0.169281
707.466043	0.169387
707.666541	0.169403
707.867021	0.169597
708.067482	0.169759
708.267925	0.169987
708.468350	0.170165
708.668757	0.170180
708.869145	0.170427
709.069516	0.170487
709.269868	0.170536
709.470201	0.170691
709.670517	0.170585
709.870814	0.170661
710.071093	0.170916
710.271354	0.171228
710.471597	0.171415
710.671821	0.171300
710.872028	0.171301
711.072216	0.171229
711.272385	0.171081
711.472537	0.171119
711.672670	0.171170
711.872785	0.170937
712.072882	0.170803
712.272961	0.170751
712.473021	0.170867
712.673063	0.170838
712.873087	0.170735
713.073093	0.170768
713.273081	0.170771
713.473050	0.170690
713.673001	0.170789
713.872934	0.170985
714.072849	0.171289
714.272745	0.171244
714.472623	0.171315
714.672483	0.171631
714.872325	0.171980
715.072148	0.172042
715.271954	0.172080
715.471741	0.172175
715.671509	0.171955
715.871260	0.171659
716.070992	0.171812
716.270707	0.171900
716.470403	0.171629
716.670080	0.171425
716.869740	0.171204
717.069381	0.171392
717.269004	0.171213
717.468609	0.171008
717.668195	0.170936
717.867764	0.170626
718.067314	0.170506
718.266846	0.170728
718.466360	0.170907
718.665855	0.170964
718.865332	0.170643
719.064791	0.170825
719.264232	0.170925
719.463655	0.171168
719.663059	0.171200
719.862445	0.171336
720.061813	0.171272
720.261163	0.171108
720.460494	0.171205
720.659807	0.171327
720.859102	0.171154
721.058379	0.171326
721.257638	0.171031
721.456878	0.170901
721.656100	0.170728
721.855304	0.170700
722.054490	0.170896
722.253657	0.170961
722.452806	0.171066
722.651937	0.171105
722.851050	0.170804
723.050145	0.170912
723.249221	0.170975
723.448279	0.171031
723.647319	0.170752
723.846340	0.170286
724.045344	0.170140
724.244329	0.169814
724.443296	0.169597
724.642245	0.169798
724.841175	0.169721
725.040088	0.169697
725.238982	0.169672
725.437857	0.169668
725.636715	0.169826
725.835554	0.169781
726.034376	0.170025
726.233179	0.170134
726.431963	0.170015
726.630730	0.170105
726.829478	0.170165
727.028208	0.170242
727.226920	0.170290
727.425614	0.170453
727.624289	0.170358
727.822946	0.170242
728.021585	0.170162
728.220206	0.170110
728.418808	0.169981
728.617392	0.170093
728.815958	0.170025
729.014506	0.170136
729.213036	0.169994
729.411547	0.170150
729.610040	0.170243
729.808515	0.170213
730.006972	0.170380
730.205410	0.170350
730.403831	0.170213
730.602233	0.170225
730.800616	0.170112
730.998982	0.170054
731.197329	0.169948
731.395658	0.169946
731.593969	0.169874
731.792262	0.169668
731.990536	0.169684
732.188793	0.169840
732.387031	0.169691
732.585250	0.169792
732.783452	0.169572
732.981635	0.169413
733.179800	0.169158
733.377947	0.169204
733.576076	0.169163
733.774186	0.169184
733.972278	0.168919
734.170352	0.168839
734.368408	0.168684
734.566446	0.168870
734.764465	0.168761
734.962466	0.168634
735.160449	0.168419
735.358413	0.168318
735.556360	0.168105
735.754288	0.167931
735.952198	0.167811
736.150090	0.167747
736.347963	0.167452
736.545818	0.167450
736.743655	0.167574
736.941474	0.167522
737.139275	0.167667
737.337057	0.167690
737.534821	0.167743
737.732567	0.167922
737.930295	0.167810
738.128005	0.167847
738.325696	0.167867
738.523369	0.167655
738.721024	0.167798
738.918660	0.167652
739.116279	0.167479
739.313879	0.167352
739.511461	0.167195
739.709024	0.167048
739.906570	0.167242
740.104097	0.167273
740.301606	0.167177
740.499097	0.167234
740.696569	0.166905
740.894024	0.166987
741.091460	0.166958
741.288878	0.166844
741.486277	0.166943
741.683659	0.166563
741.881022	0.166324
742.078367	0.166426
742.275694	0.166217
742.473002	0.166353
742.670293	0.166167
742.867565	0.166140
743.064819	0.166054
743.262054	0.165809
743.459272	0.165659
743.656471	0.165718
743.853652	0.165774
744.050815	0.165684
744.247959	0.165641
744.445085	0.165681
744.642194	0.165621
744.839283	0.165671
745.036355	0.165589
745.233408	0.165990
745.430444	0.166025
745.627461	0.165754
745.824459	0.165797
746.021440	0.165684
746.218402	0.165805
746.415346	0.165911
746.612272	0.165819
746.809180	0.165831
747.006069	0.165458
747.202940	0.165104
747.399793	0.165048
747.596628	0.165118
747.793444	0.165084
747.990243	0.164900
748.187023	0.164575
748.383784	0.164480
748.580528	0.164507
748.777253	0.164418
748.973960	0.164559
749.170649	0.164636
749.367320	0.164305
749.563973	0.164172
749.760607	0.163839
749.957223	0.163919
750.153821	0.163826
750.350400	0.163693
750.546962	0.163711
750.743505	0.163723
750.940030	0.163507
751.136536	0.163624
751.333025	0.163665
751.529495	0.163647
751.725947	0.163382
751.922381	0.163423
752.118796	0.163325
752.315194	0.163272
752.511573	0.163080
752.707934	0.163175
752.904276	0.162990
753.100601	0.162761
753.296907	0.162826
753.493195	0.163012
753.689465	0.162907
753.885716	0.162899
754.081949	0.162822
754.278164	0.162889
754.474361	0.162683
754.670540	0.162525
754.866700	0.162701
755.062843	0.162615
755.258967	0.162422
755.455072	0.162421
755.651160	0.162439
755.847229	0.162445
756.043280	0.162156
756.239313	0.162114
756.435328	0.162157
756.631324	0.161909
756.827302	0.161802
757.023262	0.161771
757.219204	0.161566
757.415127	0.161328
757.611033	0.161325
757.806920	0.161408
758.002788	0.161479
758.198639	0.161456
758.394471	0.161657
758.590286	0.161777
758.786081	0.161625
758.981859	0.161693
759.177619	0.161842
759.373360	0.161596
759.569083	0.161447
759.764788	0.161141
759.960474	0.160936
760.156143	0.160603
760.351793	0.160407
760.547425	0.160452
760.743038	0.160423
760.938634	0.160488
761.134211	0.160533
761.329770	0.160695
761.525311	0.160974
761.720833	0.160991
761.916338	0.161068
762.111824	0.160965
762.307292	0.160958
762.502741	0.160956
762.698173	0.160642
762.893586	0.160535
763.088981	0.160169
763.284358	0.159814
763.479716	0.159882
763.675057	0.159707
763.870379	0.159782
764.065683	0.159551
764.260968	0.159353
764.456236	0.159236
764.651485	0.159283
764.846716	0.159419
765.041929	0.159408
765.237123	0.159436
765.432299	0.159459
765.627457	0.159246
765.822597	0.159249
766.017719	0.159131
766.212822	0.159155
766.407907	0.159038
766.602974	0.158815
766.798023	0.158669
766.993054	0.158269
767.188066	0.158219
767.383060	0.158209
767.578036	0.158281
767.772993	0.158345
767.967933	0.158272
768.162854	0.158374
768.357757	0.158430
768.552642	0.158421
768.747508	0.158463
768.942356	0.158578
769.137186	0.158585
769.331998	0.158627
769.526792	0.158414
769.721567	0.158571
769.916324	0.158388
770.111063	0.158279
770.305784	0.158373
770.500486	0.158466
770.695171	0.158410
770.889837	0.158230
771.084484	0.157919
771.279114	0.157995
771.473725	0.157968
771.668318	0.157955
771.862893	0.158041
772.057450	0.157791
772.251988	0.157696
772.446509	0.157504
772.641011	0.157571
772.835494	0.157790
773.029960	0.157855
773.224407	0.157619
773.418836	0.157782
773.613247	0.157696
773.807640	0.157889
774.002014	0.158093
774.196370	0.158173
774.390708	0.158267
774.585028	0.157999
774.779330	0.157803
774.973613	0.157959
775.167878	0.157861
775.362125	0.157973
775.556354	0.157855
775.750564	0.157532
775.944756	0.157241
776.138930	0.156982
776.333086	0.156912
776.527223	0.156814
776.721343	0.156707
776.915444	0.156638
777.109526	0.156444
777.303591	0.156501
777.497637	0.156457
777.691666	0.156544
777.885676	0.156521
778.079667	0.156577
778.273641	0.156583
778.467596	0.156536
778.661533	0.156230
778.855452	0.156266
779.049352	0.156200
779.243235	0.156400
779.437099	0.156367
779.630945	0.156464
779.824773	0.156599
780.018582	0.156526
780.212373	0.156631
780.406146	0.156913
780.599901	0.157016
780.793638	0.157166
780.987356	0.157105
781.181056	0.157203
781.374738	0.157239
781.568402	0.157011
781.762047	0.157156
781.955674	0.156907
782.149283	0.156827
782.342874	0.156926
782.536447	0.156747
782.730001	0.156781
782.923537	0.156696
783.117055	0.156746
783.310555	0.156842
783.504036	0.156981
783.697499	0.157354
783.890944	0.157222
784.084371	0.156971
784.277780	0.157173
784.471170	0.157220
784.664542	0.157233
784.857896	0.157249
785.051231	0.157413
785.244549	0.157256
785.437848	0.157202
785.631129	0.157426
785.824392	0.157399
786.017636	0.157220
786.210863	0.157048
786.404071	0.157223
786.597260	0.157361
786.790432	0.157388
786.983585	0.157671
787.176721	0.157560
787.369838	0.157541
787.562936	0.157524
787.756017	0.157631
787.949079	0.157419
788.142123	0.157182
788.335149	0.157019
788.528156	0.156928
788.721146	0.156830
788.914117	0.156767
789.107070	0.156730
789.300005	0.156859
789.492921	0.156964
789.685819	0.157171
789.878699	0.157375
790.071561	0.157274
790.264405	0.157317
790.457230	0.157359
790.650037	0.157340
790.842826	0.157317
791.035597	0.157165
791.228349	0.157087
791.421084	0.157257
791.613800	0.157174
791.806497	0.157314
791.999177	0.157526
792.191838	0.157449
792.384481	0.157477
792.577106	0.157427
792.769713	0.157589
792.962301	0.157674
793.154871	0.157610
793.347423	0.157932
793.539957	0.157922
793.732473	0.157904
793.924970	0.157927
794.117449	0.158042
794.309910	0.158049
794.502353	0.158103
794.694777	0.158037
794.887183	0.158024
795.079571	0.157829
795.271941	0.157717
795.464293	0.157522
795.656626	0.157433
795.848941	0.157595
796.041238	0.157544
796.233516	0.157477
796.425777	0.157408
796.618019	0.157398
796.810243	0.157432
797.002449	0.157683
797.194636	0.157758
797.386805	0.157795
797.578956	0.157778
797.771089	0.158024
797.963204	0.158100
798.155300	0.158221
798.347378	0.158370
798.539438	0.158456
798.731480	0.158374
798.923503	0.158359
799.115509	0.158512
799.307496	0.158596
799.499465	0.158727
799.691415	0.158857
799.883348	0.159049
800.075262	0.159014
800.267158	0.159030
800.459035	0.159176
800.650895	0.159410
800.842736	0.159460
801.034559	0.159224
801.226364	0.159153
801.418150	0.159381
801.609919	0.159458
801.801669	0.159578
801.993401	0.159810
802.185114	0.160015
802.376810	0.159990
802.568487	0.159986
802.760146	0.160123
802.951787	0.160409
803.143409	0.160413
803.335014	0.160171
803.526600	0.160248
803.718168	0.160136
803.909717	0.160069
804.101249	0.160289
804.292762	0.160626
804.484257	0.160758
804.675734	0.160698
804.867192	0.160525
805.058632	0.160827
805.250054	0.161007
805.441458	0.161171
805.632844	0.161316
805.824211	0.161439
806.015561	0.161396
806.206891	0.161645
806.398204	0.161854
806.589499	0.162213
806.780775	0.162410
806.972033	0.162488
807.163273	0.162756
807.354495	0.162889
807.545698	0.162885
807.736883	0.163001
807.928050	0.163030
808.119199	0.163205
808.310329	0.163157
808.501441	0.163195
808.692535	0.163318
808.883611	0.163474
809.074669	0.163697
809.265708	0.163912
809.456729	0.164078
809.647732	0.164435
809.838717	0.164285
810.029683	0.164636
810.220632	0.164679
810.411562	0.164905
810.602474	0.164768
810.793367	0.164858
810.984242	0.164873
811.175100	0.165153
811.365938	0.165021
811.556759	0.165285
811.747562	0.165349
811.938346	0.165768
812.129112	0.165739
812.319860	0.165927
812.510589	0.166134
812.701300	0.166106
812.891994	0.166019
813.082668	0.166076
813.273325	0.166210
813.463964	0.166261
813.654584	0.166226
813.845186	0.166231
814.035769	0.166170
814.226335	0.166142
814.416882	0.166290
814.607411	0.166428
814.797922	0.166582
814.988415	0.166486
815.178889	0.166409
815.369345	0.166546
815.559783	0.166914
815.750203	0.167153
815.940605	0.167160
816.130988	0.167355
816.321353	0.167271
816.511700	0.167355
816.702028	0.167623
816.892339	0.167708
817.082631	0.167827
817.272905	0.167938
817.463161	0.168020
817.653398	0.168261
817.843617	0.168392
818.033819	0.168602
818.224001	0.168824
818.414166	0.168887
818.604312	0.169182
818.794440	0.169044
818.984550	0.168916
819.174642	0.168995
819.364716	0.168723
819.554771	0.168845
819.744808	0.169043
819.934827	0.169146
820.124827	0.169222
820.314810	0.169123
820.504774	0.169513
820.694720	0.169837
820.884647	0.169968
821.074557	0.170524
821.264448	0.170650
821.454321	0.170547
821.644176	0.170554
821.834012	0.170728
822.023831	0.171086
822.213631	0.171106
822.403413	0.171173
822.593176	0.171225
822.782922	0.171213
822.972649	0.171376
823.162358	0.171754
823.352049	0.172168
823.541721	0.172287
823.731376	0.172321
823.921012	0.172423
824.110629	0.172803
824.300229	0.173154
824.489811	0.173310
824.679374	0.173322
824.868919	0.173424
825.058445	0.173251
825.247954	0.173700
825.437444	0.174012
825.626916	0.174372
825.816370	0.174534
826.005806	0.174634
826.195223	0.174659
826.384622	0.174862
826.574003	0.175151
826.763366	0.174996
826.952711	0.174766
827.142037	0.174791
827.331345	0.174648
827.520635	0.174295
827.709906	0.174562
827.899160	0.174825
828.088395	0.175272
828.277612	0.175653
828.466810	0.176398
828.655991	0.176643
828.845153	0.176985
829.034297	0.177588
829.223423	0.178159
829.412531	0.178292
829.601620	0.178362
829.790691	0.178355
829.979744	0.178065
830.168779	0.178109
830.357795	0.178365
830.546793	0.178574
830.735773	0.178592
830.924735	0.178598
831.113679	0.178667
831.302604	0.178883
831.491511	0.178826
831.680400	0.179235
831.869271	0.179439
832.058123	0.179802
832.246957	0.179944
832.435773	0.179668
832.624571	0.179966
832.813351	0.180115
833.002112	0.180527
833.190855	0.181026
833.379580	0.181162
833.568287	0.181313
833.756975	0.181455
833.945645	0.181454
834.134297	0.181964
834.322931	0.182123
834.511547	0.182222
834.700144	0.182399
834.888723	0.182659
835.077284	0.183016
835.265826	0.183172
835.454351	0.182906
835.642857	0.183190
835.831345	0.183386
836.019815	0.183667
836.208266	0.183999
836.396699	0.184144
836.585114	0.184237
836.773511	0.184139
836.961890	0.184411
837.150250	0.184625
837.338592	0.184832
837.526916	0.184885
837.715222	0.185005
837.903510	0.185574
838.091779	0.185725
838.280030	0.185945
838.468263	0.186330
838.656477	0.186582
838.844674	0.187228
839.032852	0.187223
839.221012	0.187569
839.409153	0.187428
839.597277	0.187338
839.785382	0.187485
839.973469	0.187348
840.161538	0.187241
840.349589	0.187361
840.537621	0.187478
840.725635	0.188091
840.913631	0.188348
841.101609	0.188723
841.289568	0.188611
841.477509	0.188876
841.665432	0.189398
841.853337	0.189783
842.041224	0.189937
842.229092	0.189941
842.416942	0.189823
842.604774	0.189589
842.792588	0.189772
842.980383	0.190120
843.168160	0.190254
843.355919	0.190120
843.543660	0.190292
843.731382	0.190574
843.919087	0.190948
844.106773	0.191246
844.294441	0.191900
844.482090	0.192215
844.669722	0.192596
844.857335	0.192838
845.044930	0.193114
845.232507	0.193307
845.420065	0.193386
845.607605	0.193576
845.795127	0.193972
845.982631	0.193967
846.170117	0.194202
846.357584	0.194573
846.545033	0.194685
846.732464	0.195238
846.919877	0.195610
847.107272	0.195590
847.294648	0.195863
847.482006	0.195960
847.669346	0.196238
847.856667	0.196460
848.043971	0.196535
848.231256	0.196908
848.418523	0.196721
848.605771	0.196937
848.793002	0.197376
848.980214	0.197493
849.167408	0.197806
849.354584	0.198017
849.541742	0.198214
849.728881	0.198283
849.916002	0.198633
850.103105	0.198988
850.290190	0.199132
850.477256	0.199706
850.664304	0.200177
850.851334	0.200212
851.038346	0.200521
851.225340	0.200610
851.412315	0.200933
851.599272	0.200706
851.786211	0.201194
851.973132	0.201272
852.160034	0.201045
852.346918	0.200711
852.533784	0.200823
852.720632	0.201068
852.907462	0.201314
853.094273	0.201322
853.281066	0.201709
853.467841	0.201797
853.654598	0.202187
853.841336	0.202583
854.028056	0.202997
854.214758	0.203425
854.401442	0.203613
854.588107	0.204024
854.774755	0.204488
854.961384	0.204866
855.147995	0.204861
855.334587	0.204806
855.521162	0.204805
855.707718	0.205156
855.894256	0.205051
856.080775	0.205102
856.267277	0.205041
856.453760	0.204943
856.640225	0.205100
856.826672	0.205415
857.013101	0.205602
857.199511	0.206160
857.385903	0.206241
857.572277	0.206743
857.758633	0.207016
857.944970	0.207264
858.131290	0.207389
858.317591	0.207430
858.503873	0.207464
858.690138	0.207815
858.876384	0.207883
859.062612	0.207934
859.248822	0.207929
859.435014	0.208150
859.621188	0.208412
859.807343	0.208711
859.993480	0.209130
860.179599	0.209340
860.365699	0.209564
860.551781	0.209685
860.737846	0.209981
860.923891	0.210227
861.109919	0.210298
861.295929	0.210636
861.481920	0.210731
861.667893	0.210738
861.853848	0.210790
862.039784	0.210553
862.225702	0.210840
862.411603	0.211115
862.597484	0.211281
862.783348	0.211473
862.969193	0.211325
863.155021	0.211417
863.340830	0.211467
863.526620	0.211715
863.712393	0.212221
863.898147	0.212120
864.083883	0.212185
864.269601	0.212373
864.455301	0.212719
864.640982	0.213282
864.826645	0.213594
865.012290	0.213706
865.197917	0.213640
865.383526	0.213851
865.569116	0.213885
865.754688	0.214049
865.940242	0.213949
866.125777	0.214018
866.311295	0.213704
866.496794	0.213938
866.682275	0.214108
866.867737	0.214820
867.053182	0.215115
867.238608	0.215293
867.424016	0.215473
867.609406	0.215675
867.794778	0.215637
867.980131	0.216087
868.165466	0.215838
868.350783	0.215903
868.536082	0.215415
868.721362	0.215213
868.906625	0.215472
869.091869	0.215841
869.277094	0.215893
869.462302	0.216118
869.647491	0.216205
869.832662	0.216632
870.017815	0.217000
870.202950	0.217627
870.388066	0.217916
870.573165	0.217921
870.758245	0.217755
870.943306	0.218231
871.128350	0.218111
871.313375	0.217929
871.498382	0.218294
871.683371	0.218225
871.868342	0.218344
872.053294	0.218344
872.238229	0.218599
872.423144	0.218775
872.608042	0.218952
872.792922	0.219392
872.977783	0.219841
873.162626	0.219613
873.347451	0.219846
873.532258	0.219867
873.717046	0.219793
873.901816	0.219671
874.086568	0.219708
874.271302	0.219368
874.456017	0.219018
874.640715	0.218900
874.825394	0.219194
875.010055	0.219092
875.194697	0.219278
875.379322	0.219438
875.563928	0.219807
875.748516	0.219606
875.933085	0.219864
876.117637	0.220379
876.302170	0.220542
876.486685	0.220463
876.671182	0.220846
876.855661	0.220552
877.040121	0.220747
877.224563	0.221027
877.408987	0.221058
877.593393	0.221184
877.777780	0.221115
877.962150	0.220978
878.146501	0.221348
878.330833	0.221671
878.515148	0.222044
878.699444	0.222084
878.883722	0.222155
879.067982	0.222805
879.252224	0.222939
879.436447	0.223252
879.620653	0.223905
879.804840	0.224044
879.989008	0.223898
880.173159	0.223971
880.357291	0.224145
880.541405	0.224132
880.725501	0.224190
880.909579	0.224286
881.093638	0.224141
881.277680	0.223726
881.461703	0.223750
881.645707	0.223581
881.829694	0.223761
882.013662	0.223727
882.197612	0.223622
882.381544	0.223300
882.565458	0.223468
882.749353	0.223260
882.933230	0.223381
883.117089	0.223170
883.300930	0.223374
883.484753	0.223133
883.668557	0.223630
883.852343	0.223434
884.036111	0.223652
884.219861	0.223584
884.403592	0.223760
884.587305	0.223806
884.771000	0.223693
884.954677	0.223246
885.138335	0.223256
885.321976	0.222938
885.505598	0.223091
885.689201	0.223236
885.872787	0.223151
886.056354	0.223253
886.239904	0.223424
886.423434	0.223721
886.606947	0.224074
886.790442	0.224061
886.973918	0.224068
887.157376	0.224102
887.340816	0.223970
887.524237	0.224295
887.707641	0.224524
887.891026	0.223869
888.074393	0.223965
888.257741	0.223836
888.441072	0.223730
888.624384	0.223691
888.807678	0.223658
888.990954	0.223386
889.174211	0.223077
889.357451	0.222965
889.540672	0.223331
889.723875	0.223107
889.907059	0.223646
890.090226	0.224003
890.273374	0.224052
890.456504	0.224198
890.639616	0.224255
890.822709	0.224374
891.005785	0.224133
891.188842	0.224492
891.371881	0.224513
891.554901	0.224228
891.737904	0.223661
891.920888	0.223816
892.103854	0.223878
892.286802	0.224079
892.469731	0.223938
892.652643	0.224134
892.835536	0.223671
893.018410	0.223826
893.201267	0.223544
893.384106	0.223852
893.566926	0.223618
893.749728	0.223685
893.932511	0.223800
894.115277	0.223748
894.298024	0.223982
894.480753	0.224007
894.663464	0.223695
894.846157	0.224035
895.028831	0.224055
895.211487	0.223563
895.394125	0.222969
895.576745	0.222745
895.759346	0.222793
895.941930	0.222356
896.124495	0.221936
896.307041	0.221726
896.489570	0.221377
896.672080	0.221562
896.854573	0.222109
897.037046	0.222236
897.219502	0.221897
897.401940	0.221509
897.584359	0.221541
897.766760	0.221860
897.949143	0.221866
898.131507	0.222051
898.313854	0.221278
898.496182	0.220977
898.678492	0.220961
898.860783	0.220973
899.043057	0.221215
899.225312	0.220971
899.407549	0.220975
899.589768	0.221228
899.771968	0.221249
899.954151	0.221500
900.136315	0.221262
900.318461	0.221099
900.500588	0.220814
900.682698	0.220638
900.864789	0.220584
901.046862	0.220224
901.228917	0.219804
901.410953	0.219712
901.592971	0.219946
901.774972	0.220284
901.956953	0.219991
902.138917	0.219846
902.320862	0.219440
902.502790	0.218756
902.684699	0.218453
902.866589	0.218620
903.048462	0.217876
903.230316	0.217251
903.412152	0.216876
903.593970	0.216865
903.775770	0.216665
903.957551	0.216847
904.139314	0.216854
904.321059	0.216916
904.502786	0.216323
904.684494	0.216126
904.866185	0.215756
905.047857	0.215278
905.229510	0.215060
905.411146	0.214788
905.592763	0.214428
905.774363	0.214236
905.955943	0.213910
906.137506	0.213690
906.319051	0.213600
906.500577	0.213602
906.682085	0.213437
906.863575	0.213557
907.045046	0.213661
907.226500	0.213353
907.407935	0.213530
907.589352	0.213074
907.770750	0.212961
907.952131	0.212956
908.133493	0.213215
908.314837	0.212991
908.496163	0.212267
908.677470	0.212070
908.858760	0.211576
909.040031	0.211393
909.221284	0.211556
909.402518	0.211767
909.583735	0.211131
909.764933	0.210485
909.946113	0.210445
910.127275	0.210207
910.308418	0.209834
910.489544	0.209697
910.670651	0.209428
910.851740	0.209182
911.032810	0.208553
911.213863	0.208641
911.394897	0.208148
911.575913	0.207555
911.756911	0.207750
911.937890	0.207377
912.118851	0.207284
912.299794	0.206461
912.480719	0.205804
912.661626	0.205150
912.842514	0.204819
913.023384	0.205032
913.204236	0.204787
913.385070	0.203868
913.565886	0.203946
913.746683	0.203511
913.927462	0.203482
914.108223	0.203351
914.288965	0.203493
914.469690	0.202808
914.650396	0.202101
914.831084	0.201889
915.011754	0.202094
915.192405	0.202049
915.373038	0.201745
915.553653	0.201090
915.734250	0.200947
915.914829	0.200370
916.095389	0.200150
916.275931	0.199976
916.456455	0.199926
916.636961	0.199457
916.817448	0.199098
916.997917	0.198767
917.178368	0.198426
917.358801	0.197849
917.539216	0.197627
917.719612	0.197643
917.899990	0.196893
918.080350	0.196166
918.260692	0.195915
918.441015	0.195026
918.621320	0.195181
918.801607	0.195066
918.981876	0.195102
919.162127	0.195588
919.342359	0.194886
919.522573	0.195086
919.702769	0.195020
919.882947	0.194917
920.063106	0.195028
920.243247	0.194242
920.423370	0.194744
920.603475	0.194748
920.783562	0.193989
920.963630	0.193795
921.143680	0.193812
921.323712	0.193202
921.503725	0.192845
921.683721	0.192110
921.863698	0.191668
922.043657	0.190686
922.223598	0.190056
922.403520	0.189274
922.583424	0.189390
922.763311	0.187994
922.943178	0.187749
923.123028	0.186891
923.302859	0.186827
923.482673	0.187107
923.662467	0.186786
923.842244	0.186650
924.022003	0.186565
924.201743	0.185589
924.381465	0.185617
924.561169	0.185164
924.740854	0.184632
924.920522	0.183404
925.100171	0.182444
925.279802	0.181902
925.459414	0.180827
925.639009	0.180132
925.818585	0.179559
925.998143	0.178855
926.177683	0.178470
926.357205	0.178367
926.536708	0.178451
926.716193	0.177393
926.895660	0.177403
927.075109	0.177087
927.254539	0.176181
927.433951	0.175960
927.613345	0.175147
927.792721	0.175150
927.972079	0.174152
928.151418	0.173467
928.330739	0.173427
928.510042	0.171881
928.689327	0.171721
928.868593	0.171846
929.047841	0.171213
929.227071	0.171914
929.406283	0.170880
929.585476	0.170570
929.764652	0.169945
929.943809	0.169834
930.122948	0.169649
930.302068	0.169262
930.481171	0.168389
930.660255	0.167821
930.839321	0.166727
931.018369	0.166158
931.197398	0.165636
931.376409	0.165147
931.555402	0.164529
931.734377	0.163479
931.913334	0.161812
932.092272	0.161155
932.271192	0.160696
932.450094	0.160470
932.628978	0.159883
932.807844	0.159802
932.986691	0.159399
933.165520	0.158772
933.344331	0.158902
933.523123	0.159232
933.701898	0.158380
933.880654	0.158275
934.059392	0.157537
934.238111	0.157062
934.416813	0.156428
934.595496	0.155833
934.774161	0.154696
934.952808	0.154942
935.131437	0.154314
935.310047	0.155081
935.488639	0.154206
935.667213	0.153588
935.845769	0.153398
936.024306	0.152670
936.202825	0.153581
936.381326	0.153847
936.559809	0.152225
936.738274	0.151881
936.916720	0.150003
937.095148	0.149845
937.273558	0.148822
937.451950	0.148512
937.630323	0.148663
937.808678	0.146906
937.987015	0.146203
938.165334	0.146292
938.343635	0.145470
938.521917	0.145138
938.700181	0.143939
938.878427	0.144413
939.056655	0.143632
939.234864	0.142415
939.413055	0.141802
939.591228	0.140513
939.769383	0.139704
939.947519	0.139030
940.125638	0.138932
940.303738	0.138564
940.481820	0.137488
940.659883	0.136629
940.837929	0.135428
941.015956	0.134818
941.193965	0.135304
941.371955	0.134971
941.549928	0.134567
941.727882	0.134063
941.905818	0.133473
942.083736	0.133747
942.261636	0.133161
942.439517	0.133739
942.617380	0.133951
942.795225	0.132730
942.973052	0.131861
943.150860	0.131462
943.328651	0.130456
943.506423	0.129767
943.684176	0.128632
943.861912	0.128485
944.039629	0.128525
944.217328	0.127285
944.395009	0.127077
944.572672	0.127188
944.750317	0.125965
944.927943	0.126608
945.105551	0.127202
945.283141	0.125295
945.460712	0.123700
945.638265	0.122814
945.815801	0.122196
945.993317	0.122308
946.170816	0.120682
946.348297	0.120781
946.525759	0.119612
946.703203	0.118408
946.880629	0.118556
947.058036	0.119559
947.235425	0.118678
947.412797	0.118264
947.590149	0.117626
947.767484	0.116991
947.944800	0.115497
948.122099	0.115035
948.299379	0.113316
948.476640	0.112923
948.653884	0.111155
948.831109	0.109539
949.008316	0.108339
949.185505	0.107855
949.362676	0.108240
949.539828	0.108760
949.716962	0.107949
949.894078	0.107926
950.071176	0.106805
950.248256	0.106444
950.425317	0.106742
950.602360	0.108072
950.779385	0.106217
950.956391	0.105793
951.133380	0.105037
951.310350	0.105262
951.487302	0.107018
951.664235	0.107683
951.841151	0.106368
952.018048	0.105913
952.194927	0.105280
952.371788	0.105623
952.548631	0.106297
952.725455	0.106196
952.902261	0.105095
953.079049	0.103471
953.255819	0.103883
953.432570	0.105653
953.609303	0.105494
953.786018	0.104446
953.962715	0.103994
954.139394	0.102801
954.316054	0.101937
954.492696	0.100772
954.669320	0.100875
954.845926	0.100099
955.022513	0.100659
955.199083	0.100336
955.375634	0.099606
955.552166	0.100857
955.728681	0.100722
955.905177	0.100768
956.081655	0.100752
956.258115	0.098935
956.434557	0.097916
956.610980	0.096294
956.787385	0.093829
956.963772	0.092281
957.140141	0.092233
957.316492	0.091041
957.492824	0.090376
957.669138	0.093218
957.845434	0.093405
958.021712	0.093686
958.197971	0.092588
958.374212	0.094067
958.550435	0.095072
958.726640	0.092907
958.902826	0.091549
959.078995	0.090918
959.255145	0.088405
959.431277	0.090009
959.607390	0.086792
959.783486	0.087276
959.959563	0.087935
960.135622	0.087132
960.311662	0.087139
960.487685	0.088989
960.663689	0.090134
960.839675	0.090461
961.015643	0.087274
961.191593	0.092025
961.367524	0.090987
961.543437	0.090498
961.719332	0.089955
961.895209	0.088976
962.071067	0.088720
962.246907	0.087805
962.422730	0.086358
962.598533	0.086773
962.774319	0.084583
962.950086	0.085618
963.125835	0.086145
963.301566	0.088675
963.477279	0.091042
963.652973	0.091949
963.828650	0.092542
964.004308	0.093206
964.179947	0.095243
964.355569	0.094035
964.531172	0.093304
964.706757	0.092417
964.882324	0.092138
965.057873	0.090546
965.233403	0.090260
965.408916	0.090355
965.584410	0.092003
965.759885	0.091152
965.935343	0.091373
966.110782	0.090002
966.286203	0.090714
966.461606	0.089217
966.636991	0.086709
966.812357	0.085942
966.987705	0.085488
967.163035	0.083531
967.338347	0.082580
967.513641	0.083378
967.688916	0.085106
967.864173	0.084622
968.039412	0.086424
968.214632	0.087917
968.389835	0.088629
968.565019	0.089092
968.740185	0.091289
968.915333	0.092416
969.090462	0.094281
969.265573	0.094517
969.440667	0.094386
969.615741	0.092897
969.790798	0.091858
969.965836	0.090633
970.140856	0.090498
970.315858	0.086850
970.490842	0.087404
970.665808	0.084952
970.840755	0.085111
971.015684	0.087502
971.190595	0.088011
971.365487	0.089812
971.540362	0.091423
971.715218	0.091149
971.890056	0.092130
972.064875	0.092242
972.239677	0.092889
972.414460	0.091738
972.589225	0.089037
972.763972	0.090665
972.938700	0.090856
973.113411	0.090067
973.288103	0.089962
973.462777	0.091531
973.637432	0.091265
973.812070	0.090683
973.986689	0.090755
974.161290	0.091456
974.335873	0.090387
974.510437	0.089983
974.684984	0.089100
974.859512	0.089617
975.034022	0.089985
975.208513	0.088128
975.382987	0.088070
975.557442	0.088194
975.731879	0.086110
975.906298	0.085749
976.080698	0.085216
976.255080	0.085707
976.429445	0.084513
976.603790	0.084465
976.778118	0.086719
976.952427	0.087727
977.126719	0.087846
977.300992	0.091786
977.475246	0.090530
977.649483	0.092753
977.823701	0.093529
977.997901	0.094854
978.172083	0.094496
978.346247	0.092969
978.520392	0.092118
978.694519	0.092402
978.868628	0.090441
979.042719	0.092377
979.216791	0.092451
979.390845	0.091672
979.564882	0.089511
979.738899	0.089899
979.912899	0.091114
980.086880	0.091932
980.260843	0.091045
980.434788	0.091501
980.608715	0.091027
980.782623	0.091473
980.956514	0.090679
981.130386	0.093193
981.304240	0.092235
981.478075	0.090125
981.651892	0.087689
981.825692	0.088782
981.999472	0.086525
982.173235	0.085833
982.346980	0.085245
982.520706	0.085110
982.694414	0.083638
982.868104	0.084549
983.041775	0.084901
983.215428	0.087879
983.389064	0.085859
983.562680	0.087678
983.736279	0.087720
983.909860	0.085618
984.083422	0.087313
984.256966	0.089985
984.430491	0.089014
984.603999	0.089389
984.777488	0.087968
984.950959	0.089577
985.124412	0.086290
985.297847	0.087695
985.471263	0.087977
985.644661	0.089137
985.818041	0.087295
985.991403	0.088500
986.164747	0.088697
986.338072	0.090184
986.511379	0.090370
986.684668	0.093969
986.857938	0.093153
987.031191	0.094239
987.204425	0.093499
987.377641	0.094757
987.550839	0.093205
987.724018	0.093902
987.897179	0.094384
988.070322	0.095763
988.243447	0.094048
988.416554	0.092235
988.589642	0.093013
988.762712	0.091337
988.935764	0.087355
989.108798	0.089675
989.281813	0.090243
989.454811	0.089914
989.627790	0.087348
989.800751	0.087634
989.973693	0.088384
990.146617	0.088174
990.319524	0.088414
990.492412	0.089981
990.665281	0.088425
990.838133	0.087247
991.010966	0.087132
991.183781	0.088354
991.356578	0.089161
991.529356	0.089975
991.702117	0.090249
991.874859	0.090052
992.047583	0.091601
992.220288	0.090704
992.392976	0.091462
992.565645	0.091198
992.738296	0.092803
992.910929	0.092309
993.083543	0.092127
993.256139	0.090123
993.428718	0.091194
993.601277	0.090256
993.773819	0.091355
993.946342	0.090897
994.118848	0.090120
994.291335	0.087411
994.463803	0.090158
994.636254	0.089195
994.808686	0.090710
994.981100	0.088294
995.153496	0.088851
995.325874	0.088921
995.498233	0.089424
995.670574	0.090146
995.842897	0.091493
996.015202	0.088985
996.187488	0.089597
996.359757	0.090250
996.532007	0.092249
996.704239	0.091484
996.876452	0.091210
997.048648	0.089641
997.220825	0.088184
997.392984	0.088789
997.565124	0.090011
997.737247	0.089877
997.909351	0.088773
998.081437	0.087946
998.253505	0.087359
998.425554	0.087500
998.597586	0.088634
998.769599	0.090641
998.941594	0.088233
999.113571	0.086559
999.285529	0.086934
999.457469	0.086890
999.629391	0.086436
999.801295	0.087124
999.973181	0.086608
1000.145048	0.086222
1000.316897	0.084268
1000.488728	0.084244
1000.660541	0.085312
1000.832335	0.084724
1001.004111	0.082369
1001.175869	0.083803
1001.347609	0.084510
1001.519331	0.084335
1001.691034	0.085164
1001.862719	0.086483
1002.034386	0.087968
1002.206035	0.087451
1002.377665	0.087274
1002.549277	0.089944
1002.720871	0.088757
1002.892447	0.087771
1003.064004	0.088936
1003.235544	0.088411
1003.407065	0.087767
1003.578568	0.087338
1003.750052	0.085847
1003.921519	0.085967
1004.092967	0.085244
1004.264397	0.085652
1004.435809	0.087501
1004.607202	0.088367
1004.778577	0.088291
1004.949934	0.088262
1005.121273	0.089184
1005.292594	0.090558
1005.463896	0.091171
1005.635180	0.090759
1005.806446	0.091198
1005.977694	0.090917
1006.148923	0.089051
1006.320135	0.087841
1006.491328	0.087972
1006.662503	0.089064
1006.833659	0.089405
1007.004798	0.087863
1007.175918	0.089135
1007.347020	0.088556
1007.518103	0.087819
1007.689169	0.088626
1007.860216	0.090399
1008.031245	0.091314
1008.202256	0.090657
1008.373248	0.090688
1008.544223	0.093030
1008.715179	0.094255
1008.886117	0.093788
1009.057036	0.094496
1009.227938	0.093561
1009.398821	0.091998
1009.569686	0.091525
1009.740533	0.089085
1009.911361	0.088225
1010.082172	0.086399
1010.252964	0.082527
1010.423738	0.082453
1010.594493	0.082278
1010.765231	0.082287
1010.935950	0.081709
1011.106651	0.080774
1011.277334	0.082989
1011.447998	0.083612
1011.618645	0.083100
1011.789273	0.084623
1011.959882	0.087182
1012.130474	0.083853
1012.301048	0.083627
1012.471603	0.085380
1012.642140	0.084902
1012.812658	0.083367
1012.983159	0.082878
1013.153641	0.084127
1013.324105	0.082522
1013.494551	0.080565
1013.664979	0.082512
1013.835388	0.081774
1014.005779	0.080773
1014.176152	0.081776
1014.346507	0.082008
1014.516843	0.082652
1014.687162	0.082855
1014.857462	0.084981
1015.027744	0.086388
1015.198007	0.086762
1015.368252	0.088097
1015.538480	0.088975
1015.708689	0.089652
1015.878879	0.089505
1016.049052	0.089344
1016.219206	0.086858
1016.389342	0.085900
1016.559460	0.085358
1016.729559	0.085466
1016.899641	0.084864
1017.069704	0.084728
1017.239749	0.084550
1017.409775	0.085755
1017.579784	0.086629
1017.749774	0.087591
1017.919746	0.089015
1018.089700	0.089077
1018.259635	0.089182
1018.429553	0.089195
1018.599452	0.088267
1018.769333	0.087902
1018.939195	0.086764
1019.109040	0.085661
1019.278866	0.086115
1019.448674	0.085939
1019.618464	0.085645
1019.788235	0.085070
1019.957989	0.086979
1020.127724	0.087063
1020.297441	0.085817
1020.467139	0.087733
1020.636820	0.087681
1020.806482	0.086865
1020.976126	0.086676
1021.145752	0.085835
1021.315359	0.086174
1021.484948	0.084966
1021.654519	0.084942
1021.824072	0.085343
1021.993607	0.084057
1022.163123	0.083649
1022.332621	0.084806
1022.502101	0.085100
1022.671563	0.085852
1022.841007	0.086858
1023.010432	0.086364
1023.179839	0.087234
1023.349228	0.088185
1023.518598	0.088004
1023.687951	0.087745
1023.857285	0.087111
1024.026601	0.086741
1024.195899	0.086161
1024.365178	0.085632
1024.534439	0.086170
1024.703682	0.085306
1024.872907	0.084309
1025.042114	0.083534
1025.211302	0.083555
1025.380472	0.083020
1025.549624	0.081112
1025.718758	0.081964
1025.887873	0.081764
1026.056970	0.082211
1026.226049	0.081033
1026.395110	0.080805
1026.564153	0.083061
1026.733177	0.085473
1026.902183	0.087188
1027.071171	0.088087
1027.240141	0.086471
1027.409092	0.087123
1027.578026	0.086719
1027.746940	0.088016
1027.915837	0.089012
1028.084716	0.088901
1028.253576	0.087023
1028.422418	0.085503
1028.591242	0.085766
1028.760048	0.085676
1028.928835	0.085283
1029.097604	0.084411
1029.266355	0.085269
1029.435088	0.084092
1029.603803	0.082673
1029.772499	0.082604
1029.941177	0.083250
1030.109837	0.082523
1030.278478	0.084415
1030.447102	0.085000
1030.615707	0.085061
1030.784294	0.084050
1030.952863	0.085274
1031.121413	0.085358
1031.289945	0.084931
1031.458460	0.085446
1031.626955	0.087793
1031.795433	0.086171
1031.963892	0.084308
1032.132334	0.085490
1032.300756	0.085239
1032.469161	0.084025
1032.637548	0.084361
1032.805916	0.084164
1032.974266	0.084739
1033.142598	0.085371
1033.310911	0.087616
1033.479207	0.088688
1033.647484	0.087732
1033.815743	0.088358
1033.983983	0.089436
1034.152206	0.088666
1034.320410	0.088935
1034.488596	0.089643
1034.656764	0.087780
1034.824914	0.088051
1034.993045	0.088437
1035.161158	0.088701
1035.329253	0.087537
1035.497330	0.087362
1035.665388	0.086227
1035.833428	0.087130
1036.001450	0.086009
1036.169454	0.084572
1036.337440	0.082108
1036.505407	0.081356
1036.673356	0.080599
1036.841287	0.081335
1037.009200	0.081190
1037.177094	0.082918
1037.344970	0.081357
1037.512828	0.079938
1037.680668	0.081619
1037.848489	0.081148
1038.016293	0.080919
1038.184078	0.080880
1038.351845	0.080031
1038.519593	0.079937
1038.687324	0.079539
1038.855036	0.080851
1039.022730	0.083758
1039.190406	0.083165
1039.358063	0.082660
1039.525702	0.083301
1039.693323	0.083381
1039.860926	0.083493
1040.028511	0.083555
1040.196077	0.083733
1040.363625	0.083516
1040.531155	0.080306
1040.698667	0.080573
1040.866161	0.081111
1041.033636	0.080438
1041.201093	0.080900
1041.368532	0.082186
1041.535952	0.082612
1041.703355	0.082093
1041.870739	0.082807
1042.038105	0.084601
1042.205452	0.084067
1042.372782	0.085706
1042.540093	0.084839
1042.707386	0.084760
1042.874661	0.084187
1043.041918	0.084262
1043.209156	0.085211
1043.376376	0.082646
1043.543578	0.081627
1043.710762	0.081979
1043.877927	0.081793
1044.045074	0.081822
1044.212203	0.083399
1044.379314	0.084749
1044.546407	0.084720
1044.713481	0.084902
1044.880537	0.085537
1045.047575	0.086654
1045.214595	0.086857
1045.381596	0.086797
1045.548579	0.087470
1045.715544	0.084826
1045.882491	0.083311
1046.049420	0.083364
1046.216330	0.083202
1046.383222	0.084118
1046.550096	0.083953
1046.716951	0.083683
1046.883789	0.083304
1047.050608	0.082169
1047.217409	0.083070
1047.384192	0.084843
1047.550956	0.084409
1047.717703	0.085326
1047.884431	0.084831
1048.051140	0.083578
1048.217832	0.083645
1048.384505	0.083659
1048.551161	0.086615
1048.717798	0.086330
1048.884416	0.085565
1049.051017	0.086209
1049.217599	0.084033
1049.384163	0.085838
1049.550709	0.086906
1049.717237	0.088467
1049.883746	0.089365
1050.050237	0.088638
1050.216710	0.088473
1050.383165	0.087935
1050.549601	0.086035
1050.716019	0.085850
1050.882420	0.084380
1051.048801	0.085154
1051.215165	0.083875
1051.381510	0.083611
1051.547837	0.082119
1051.714146	0.083250
1051.880437	0.084904
1052.046709	0.085380
1052.212964	0.087172
1052.379200	0.087187
1052.545417	0.087536
1052.711617	0.087959
1052.877798	0.085938
1053.043961	0.086577
1053.210106	0.086823
1053.376233	0.085164
1053.542341	0.086616
1053.708432	0.084906
1053.874504	0.083720
1054.040557	0.081716
1054.206593	0.079423
1054.372610	0.081686
1054.538609	0.082849
1054.704590	0.080966
1054.870553	0.080260
1055.036497	0.079845
1055.202424	0.079111
1055.368331	0.080526
1055.534221	0.082533
1055.700093	0.083926
1055.865946	0.082540
1056.031781	0.082017
1056.197598	0.082477
1056.363397	0.084035
1056.529177	0.084626
1056.694939	0.085621
1056.860683	0.087852
1057.026409	0.087232
1057.192116	0.086899
1057.357806	0.087686
1057.523477	0.088877
1057.689130	0.089097
1057.854764	0.089153
1058.020381	0.088587
1058.185979	0.088843
1058.351559	0.085008
1058.517120	0.083782
1058.682664	0.085119
1058.848189	0.086035
1059.013696	0.085300
1059.179185	0.085937
1059.344656	0.086149
1059.510108	0.087049
1059.675542	0.086670
1059.840958	0.087985
1060.006356	0.090025
1060.171735	0.089262
1060.337096	0.086170
1060.502439	0.083598
1060.667764	0.082470
1060.833071	0.082258
1060.998359	0.080363
1061.163629	0.080450
1061.328881	0.080320
1061.494115	0.079708
1061.659330	0.081915
1061.824527	0.083495
1061.989706	0.083557
1062.154867	0.083940
1062.320010	0.080880
1062.485134	0.083410
1062.650240	0.083684
1062.815328	0.082633
1062.980398	0.081291
1063.145449	0.078192
1063.310482	0.078685
1063.475497	0.078900
1063.640494	0.078279
1063.805473	0.081310
1063.970433	0.078056
1064.135375	0.077944
1064.300299	0.080479
1064.465204	0.081254
1064.630092	0.084405
1064.794961	0.084606
1064.959812	0.087754
1065.124645	0.089390
1065.289459	0.089651
1065.454256	0.090136
1065.619034	0.090040
1065.783793	0.091033
1065.948535	0.091917
1066.113258	0.091287
1066.277964	0.091053
1066.442651	0.089353
1066.607319	0.089914
1066.771970	0.089620
1066.936602	0.090345
1067.101216	0.092009
1067.265812	0.090108
1067.430389	0.087816
1067.594949	0.086998
1067.759490	0.086547
1067.924013	0.085076
1068.088518	0.082157
1068.253004	0.082705
1068.417472	0.081929
1068.581922	0.081113
1068.746354	0.081584
1068.910768	0.083207
1069.075163	0.083855
1069.239540	0.082831
1069.403899	0.082789
1069.568240	0.085057
1069.732562	0.083675
1069.896866	0.085642
1070.061152	0.085882
1070.225420	0.087255
1070.389670	0.087923
1070.553901	0.087689
1070.718114	0.090262
1070.882309	0.091542
1071.046486	0.091852
1071.210644	0.090828
1071.374784	0.089210
1071.538906	0.089035
1071.703010	0.089872
1071.867096	0.088757
1072.031163	0.087078
1072.195212	0.086397
1072.359243	0.087463
1072.523256	0.086873
1072.687250	0.088257
1072.851226	0.089818
1073.015184	0.089615
1073.179124	0.085895
1073.343045	0.085427
1073.506949	0.085854
1073.670834	0.085491
1073.834701	0.086421
1073.998549	0.085262
1074.162380	0.086772
1074.326192	0.087841
1074.489986	0.086817
1074.653761	0.087325
1074.817519	0.089555
1074.981258	0.090313
1075.144979	0.091070
1075.308682	0.089247
1075.472367	0.091911
1075.636033	0.090353
1075.799681	0.088891
1075.963311	0.088424
1076.126923	0.088354
1076.290516	0.085382
1076.454092	0.083052
1076.617649	0.081687
1076.781187	0.082297
1076.944708	0.080261
1077.108210	0.080511
1077.271695	0.080547
1077.435160	0.082992
1077.598608	0.082942
1077.762038	0.085484
1077.925449	0.086974
1078.088842	0.088231
1078.252217	0.087598
1078.415573	0.088297
1078.578912	0.088246
1078.742232	0.089737
1078.905534	0.088032
1079.068817	0.090128
1079.232083	0.089992
1079.395330	0.092073
1079.558559	0.092587
1079.721770	0.093442
1079.884962	0.093070
1080.048136	0.094244
1080.211293	0.092553
1080.374430	0.093114
1080.537550	0.093218
1080.700651	0.090951
1080.863735	0.089133
1081.026800	0.087159
1081.189846	0.086262
1081.352875	0.084623
1081.515885	0.086150
1081.678877	0.086669
1081.841851	0.088230
1082.004807	0.087109
1082.167744	0.088584
1082.330663	0.087856
1082.493564	0.090284
1082.656447	0.091270
1082.819312	0.095655
1082.982158	0.092771
1083.144986	0.093127
1083.307796	0.092226
1083.470587	0.090006
1083.633361	0.090761
1083.796116	0.093702
1083.958853	0.092896
1084.121571	0.093136
1084.284272	0.090216
1084.446954	0.090070
1084.609618	0.089992
1084.772264	0.089570
1084.934892	0.091688
1085.097501	0.090935
1085.260092	0.091612
1085.422665	0.089974
1085.585220	0.090642
1085.747756	0.089429
1085.910274	0.089739
1086.072774	0.088131
1086.235256	0.089113
1086.397720	0.090248
1086.560165	0.090566
1086.722592	0.089702
1086.885001	0.092380
1087.047392	0.089703
1087.209764	0.091752
1087.372119	0.090337
1087.534455	0.092239
1087.696772	0.091259
1087.859072	0.089877
1088.021353	0.090507
1088.183616	0.087084
1088.345861	0.085942
1088.508088	0.087888
1088.670296	0.090839
1088.832486	0.094971
1088.994658	0.092245
1089.156812	0.092204
1089.318948	0.096245
1089.481065	0.096835
1089.643164	0.101282
1089.805245	0.102206
1089.967308	0.101886
1090.129352	0.100871
1090.291378	0.096804
1090.453386	0.098141
1090.615376	0.102200
1090.777347	0.095360
1090.939301	0.094773
1091.101236	0.093921
1091.263153	0.091852
1091.425051	0.093356
1091.586932	0.092641
1091.748794	0.095004
1091.910638	0.094734
1092.072463	0.093184
1092.234271	0.093965
1092.396060	0.094132
1092.557831	0.091069
1092.719584	0.091634
1092.881319	0.090675
1093.043035	0.088767
1093.204733	0.086955
1093.366413	0.088755
1093.528075	0.085857
1093.689718	0.087197
1093.851343	0.084940
1094.012950	0.087190
1094.174539	0.084790
1094.336110	0.087100
1094.497662	0.090158
1094.659196	0.093738
1094.820712	0.095199
1094.982210	0.098861
1095.143689	0.103352
1095.305151	0.106777
1095.466594	0.105698
1095.628018	0.107922
1095.789425	0.105741
1095.950813	0.103275
1096.112183	0.099807
1096.273535	0.099058
1096.434869	0.099144
1096.596184	0.095429
1096.757482	0.095920
1096.918761	0.098588
1097.080021	0.101017
1097.241264	0.098045
1097.402488	0.098512
1097.563694	0.099301
1097.724882	0.099551
1097.886052	0.099468
1098.047203	0.099068
1098.208336	0.098445
1098.369451	0.096764
1098.530548	0.100076
1098.691627	0.101801
1098.852687	0.100803
1099.013729	0.100147
1099.174753	0.101139
1099.335758	0.100409
1099.496746	0.101413
1099.657715	0.099661
1099.818666	0.096700
1099.979599	0.093135
1100.140513	0.092405
1100.301409	0.090040
1100.462287	0.090082
1100.623147	0.089628
1100.783989	0.089749
1100.944812	0.089660
1101.105617	0.095713
1101.266404	0.095583
1101.427173	0.096234
1101.587923	0.097271
1101.748656	0.100033
1101.909370	0.101922
1102.070066	0.098547
1102.230743	0.095609
1102.391403	0.096414
1102.552044	0.088217
1102.712667	0.089126
1102.873271	0.085594
1103.033858	0.087145
1103.194426	0.087754
1103.354976	0.088307
1103.515508	0.091788
1103.676021	0.093933
1103.836517	0.094819
1103.996994	0.093605
1104.157453	0.090876
1104.317893	0.095654
1104.478316	0.095006
1104.638720	0.094226
1104.799106	0.093041
1104.959474	0.092001
1105.119823	0.091177
1105.280155	0.092546
1105.440468	0.098546
1105.600763	0.102621
1105.761039	0.099227
1105.921298	0.101365
1106.081538	0.100437
1106.241760	0.100107
1106.401964	0.097037
1106.562149	0.094884
1106.722316	0.091460
1106.882465	0.087199
1107.042596	0.087545
1107.202709	0.088160
1107.362803	0.085526
1107.522879	0.087054
1107.682937	0.089992
1107.842977	0.091807
1108.002999	0.092459
1108.163002	0.094490
1108.322987	0.097127
1108.482954	0.097532
1108.642902	0.096386
1108.802833	0.099748
1108.962745	0.103199
1109.122639	0.097658
1109.282515	0.097452
1109.442372	0.099414
1109.602211	0.099521
1109.762032	0.098348
1109.921835	0.099083
1110.081620	0.101592
1110.241386	0.097488
1110.401134	0.093370
1110.560864	0.096933
1110.720576	0.097475
1110.880269	0.096039
1111.039945	0.094110
1111.199602	0.093310
1111.359240	0.096332
1111.518861	0.094401
1111.678463	0.095789
1111.838047	0.096346
1111.997613	0.095344
1112.157161	0.096660
1112.316690	0.098211
1112.476202	0.099364
1112.635695	0.098852
1112.795169	0.092997
1112.954626	0.093897
1113.114064	0.088346
1113.273484	0.090185
1113.432886	0.088029
1113.592270	0.088598
1113.751635	0.087873
1113.910983	0.087513
1114.070312	0.089081
1114.229622	0.089636
1114.388915	0.089905
1114.548189	0.090709
1114.707445	0.089813
1114.866683	0.089348
1115.025903	0.088066
1115.185104	0.089085
1115.344287	0.088050
1115.503452	0.087377
1115.662599	0.088507
1115.821727	0.087887
1115.980838	0.098170
1116.139930	0.098166
1116.299004	0.105418
1116.458059	0.103829
1116.617097	0.101898
1116.776116	0.103717
1116.935117	0.108005
1117.094099	0.112378
1117.253064	0.113945
1117.412010	0.109908
1117.570938	0.109527
1117.729848	0.105096
1117.888740	0.109865
1118.047613	0.109111
1118.206468	0.104149
1118.365305	0.097711
1118.524124	0.091429
1118.682924	0.090674
1118.841707	0.091165
1119.000471	0.091264
1119.159216	0.093641
1119.317944	0.088484
1119.476653	0.084912
1119.635344	0.090282
1119.794017	0.094894
1119.952672	0.097748
1120.111308	0.099569
1120.269927	0.098214
1120.428527	0.102623
1120.587108	0.096790
1120.745672	0.098056
1120.904217	0.108591
1121.062744	0.109722
1121.221253	0.107020
1121.379744	0.103822
1121.538216	0.100501
1121.696671	0.103813
1121.855107	0.102418
1122.013524	0.106113
1122.171924	0.107590
1122.330305	0.104580
1122.488668	0.100254
1122.647013	0.101288
1122.805340	0.104496
1122.963648	0.107532
1123.121938	0.106782
1123.280210	0.109809
1123.438464	0.107259
1123.596700	0.107968
1123.754917	0.108565
1123.913116	0.110464
1124.071297	0.113242
1124.229459	0.111671
1124.387604	0.108568
1124.545730	0.108315
1124.703838	0.100006
1124.861928	0.098068
1125.019999	0.096883
1125.178052	0.096560
1125.336088	0.101281
1125.494104	0.097647
1125.652103	0.100117
1125.810083	0.100195
1125.968045	0.096491
1126.125989	0.096547
1126.283915	0.103074
1126.441823	0.105306
1126.599712	0.098979
1126.757583	0.094963
1126.915436	0.097502
1127.073270	0.097629
1127.231087	0.098043
1127.388885	0.098572
1127.546665	0.100875
1127.704426	0.104772
1127.862170	0.105541
1128.019895	0.110531
1128.177602	0.109970
1128.335291	0.109451
1128.492961	0.110436
1128.650614	0.107638
1128.808248	0.103895
1128.965864	0.107860
1129.123461	0.097557
1129.281041	0.089318
1129.438602	0.090308
1129.596145	0.093120
1129.753670	0.092297
1129.911176	0.095373
1130.068665	0.103303
1130.226135	0.108131
1130.383587	0.110350
1130.541020	0.113622
1130.698436	0.119868
1130.855833	0.121087
1131.013212	0.122940
1131.170573	0.129890
1131.327915	0.129847
1131.485239	0.127738
1131.642545	0.128608
1131.799833	0.124175
1131.957103	0.130691
1132.114354	0.127329
1132.271588	0.127210
1132.428803	0.123223
1132.585999	0.115798
1132.743178	0.113258
1132.900338	0.111529
1133.057480	0.113064
1133.214604	0.114897
1133.371710	0.111538
1133.528797	0.115039
1133.685866	0.115402
1133.842917	0.116347
1133.999950	0.115963
1134.156964	0.115417
1134.313960	0.119872
1134.470938	0.121203
1134.627898	0.119463
1134.784840	0.114662
1134.941763	0.110912
1135.098668	0.107298
1135.255555	0.106060
1135.412424	0.108686
1135.569274	0.103356
1135.726107	0.106474
1135.882921	0.106292
1136.039716	0.108520
1136.196494	0.114676
1136.353253	0.113484
1136.509995	0.115758
1136.666717	0.118120
1136.823422	0.120916
1136.980109	0.127343
1137.136777	0.118897
1137.293427	0.120245
1137.450059	0.115440
1137.606672	0.116200
1137.763267	0.118671
1137.919844	0.119915
1138.076403	0.121644
1138.232944	0.112806
1138.389466	0.110528
1138.545971	0.116850
1138.702457	0.114522
1138.858924	0.116153
1139.015374	0.113351
1139.171805	0.119864
1139.328218	0.124637
1139.484613	0.124899
1139.640990	0.134092
1139.797348	0.133360
1139.953688	0.122594
1140.110010	0.122343
1140.266314	0.124093
1140.422600	0.125363
1140.578867	0.121585
1140.735116	0.114034
1140.891347	0.109843
1141.047559	0.107131
1141.203754	0.111228
1141.359930	0.111248
1141.516088	0.110705
1141.672228	0.107670
1141.828349	0.104396
1141.984452	0.103778
1142.140537	0.100644
1142.296604	0.103442
1142.452653	0.103766
1142.608683	0.099344
1142.764695	0.111648
1142.920689	0.104992
1143.076665	0.109446
1143.232622	0.113942
1143.388562	0.122988
1143.544483	0.133990
1143.700385	0.130907
1143.856270	0.131606
1144.012136	0.129442
1144.167985	0.118256
1144.323814	0.125549
1144.479626	0.125674
1144.635420	0.124699
1144.791195	0.113779
1144.946952	0.109492
1145.102691	0.104340
1145.258411	0.105804
1145.414113	0.107820
1145.569798	0.112398
1145.725463	0.106502
1145.881111	0.094893
1146.036741	0.093280
1146.192352	0.095654
1146.347945	0.090178
1146.503519	0.091602
1146.659076	0.093610
1146.814614	0.094959
1146.970134	0.089934
1147.125636	0.095444
1147.281120	0.102969
1147.436585	0.095219
1147.592032	0.096015
1147.747461	0.092489
1147.902872	0.092148
1148.058265	0.091351
1148.213639	0.093889
1148.368995	0.092063
1148.524333	0.087832
1148.679653	0.100966
1148.834954	0.113192
1148.990237	0.109824
1149.145502	0.116256
1149.300749	0.125074
1149.455977	0.119417
1149.611188	0.112882
1149.766380	0.122934
1149.921553	0.120516
1150.076709	0.105970
1150.231846	0.095818
1150.386966	0.101539
1150.542066	0.100382
1150.697149	0.094143
1150.852214	0.099047
1151.007260	0.094772
1151.162288	0.085224
1151.317298	0.090081
1151.472289	0.090408
1151.627263	0.094879
1151.782218	0.090623
1151.937155	0.098297
1152.092073	0.104073
1152.246974	0.100057
1152.401856	0.107443
1152.556720	0.109603
1152.711566	0.116202
1152.866393	0.116830
1153.021203	0.123463
1153.175994	0.125809
1153.330767	0.125849
1153.485521	0.124531
1153.640258	0.128815
1153.794976	0.128071
1153.949676	0.129687
1154.104358	0.122374
1154.259021	0.119856
1154.413667	0.116776
1154.568294	0.117924
1154.722903	0.117021
1154.877493	0.118095
1155.032066	0.120237
1155.186620	0.113706
1155.341156	0.116909
1155.495674	0.110754
1155.650173	0.118315
1155.804654	0.109526
1155.959118	0.105528
1156.113562	0.094989
1156.267989	0.085382
1156.422397	0.079793
1156.576788	0.088884
1156.731160	0.096469
1156.885513	0.108404
1157.039849	0.107629
1157.194166	0.115114
1157.348465	0.116712
1157.502746	0.128124
1157.657009	0.137807
1157.811253	0.137015
1157.965479	0.129814
1158.119687	0.130159
1158.273877	0.128281
1158.428048	0.130666
1158.582201	0.130552
1158.736337	0.129491
1158.890453	0.120352
1159.044552	0.113910
1159.198632	0.114976
1159.352694	0.124483
1159.506738	0.123413
1159.660764	0.116363
1159.814771	0.111665
1159.968761	0.109856
1160.122732	0.118587
1160.276685	0.121351
1160.430619	0.132001
1160.584535	0.127837
1160.738434	0.123846
1160.892313	0.112717
1161.046175	0.115628
1161.200019	0.123564
1161.353844	0.119406
1161.507651	0.111530
1161.661440	0.110454
1161.815210	0.108356
1161.968962	0.109587
1162.122697	0.115135
1162.276412	0.111933
1162.430110	0.115287
1162.583789	0.105996
1162.737451	0.108493
1162.891094	0.108793
1163.044718	0.112531
1163.198325	0.099794
1163.351913	0.093896
1163.505483	0.086232
1163.659035	0.096822
1163.812569	0.099062
1163.966084	0.098817
1164.119581	0.114910
1164.273060	0.109528
1164.426521	0.107323
1164.579964	0.118135
1164.733388	0.127511
1164.886794	0.122821
1165.040182	0.117210
1165.193551	0.109938
1165.346903	0.109175
1165.500236	0.099365
1165.653551	0.093436
1165.806848	0.106996
1165.960126	0.098647
1166.113386	0.090912
1166.266628	0.103998
1166.419852	0.100014
1166.573058	0.095754
1166.726245	0.098054
1166.879414	0.096739
1167.032565	0.109835
1167.185698	0.090127
1167.338812	0.104936
1167.491909	0.112574
1167.644987	0.120281
1167.798046	0.137591
1167.951088	0.134482
1168.104111	0.125501
1168.257117	0.123863
1168.410103	0.122093
1168.563072	0.146119
1168.716023	0.135439
1168.868955	0.149115
1169.021869	0.136847
1169.174765	0.113915
1169.327642	0.117213
1169.480501	0.137152
1169.633343	0.134118
1169.786165	0.131552
1169.938970	0.108797
1170.091757	0.101459
1170.244525	0.092598
1170.397275	0.100744
1170.550007	0.116666
1170.702720	0.124589
1170.855415	0.133273
1171.008092	0.129459
1171.160751	0.124214
1171.313392	0.122280
1171.466014	0.374224
1171.618619	0.045707
1171.771205	0.045707
1171.923772	0.045707
