sample name	sample
index	897
start time	 04-08-2021  03:23:50 PM


Wavelength (nm)	Absorbance
494.344910	NaN
494.563924	NaN
494.782919	NaN
495.001897	NaN
495.220856	NaN
495.439797	1.400538
495.658719	0.049003
495.877624	-0.293737
496.096510	-0.176488
496.315378	-0.191257
496.534227	-0.278662
496.753059	-0.228570
496.971872	-0.144335
497.190667	0.188182
497.409444	0.195868
497.628203	0.197548
497.846943	0.200414
498.065665	0.198721
498.284369	0.197904
498.503055	0.199597
498.721723	0.198019
498.940372	0.200230
499.159003	0.201403
499.377616	0.201085
499.596210	0.199682
499.814787	0.199757
500.033345	0.200302
500.251885	0.200551
500.470406	0.199445
500.688910	0.200552
500.907395	0.198107
501.125862	0.196920
501.344311	0.197482
501.562742	0.199292
501.781154	0.199325
501.999548	0.199092
502.217924	0.199093
502.436282	0.200628
502.654621	0.200911
502.872942	0.202196
503.091245	0.201608
503.309530	0.201704
503.527797	0.201978
503.746045	0.202344
503.964275	0.203094
504.182487	0.204297
504.400681	0.202226
504.618856	0.202216
504.837013	0.203091
505.055152	0.204223
505.273273	0.204753
505.491376	0.203903
505.709460	0.204134
505.927526	0.204686
506.145574	0.204120
506.363604	0.206076
506.581615	0.206216
506.799608	0.206441
507.017583	0.205990
507.235540	0.205638
507.453478	0.205667
507.671399	0.204704
507.889301	0.204971
508.107185	0.204557
508.325050	0.203957
508.542898	0.203824
508.760727	0.203148
508.978538	0.204595
509.196330	0.205317
509.414105	0.206159
509.631861	0.207190
509.849599	0.207137
510.067319	0.207727
510.285021	0.208010
510.502704	0.208520
510.720369	0.208338
510.938016	0.207524
511.155645	0.207501
511.373255	0.207470
511.590848	0.207791
511.808422	0.207732
512.025977	0.207838
512.243515	0.207535
512.461034	0.207224
512.678536	0.208102
512.896018	0.208501
513.113483	0.207820
513.330930	0.208511
513.548358	0.207909
513.765768	0.208014
513.983160	0.208115
514.200533	0.208835
514.417889	0.209265
514.635226	0.209103
514.852545	0.209789
515.069845	0.210746
515.287128	0.210581
515.504392	0.211634
515.721638	0.211865
515.938866	0.212640
516.156075	0.213088
516.373267	0.213632
516.590440	0.213204
516.807594	0.212799
517.024731	0.213281
517.241850	0.213865
517.458950	0.213663
517.676032	0.213218
517.893095	0.213045
518.110141	0.213587
518.327168	0.213032
518.544177	0.214990
518.761168	0.215492
518.978141	0.215473
519.195095	0.216111
519.412031	0.216097
519.628949	0.216760
519.845849	0.217170
520.062731	0.216787
520.279594	0.217800
520.496439	0.216865
520.713266	0.217385
520.930074	0.217517
521.146865	0.216951
521.363637	0.217886
521.580391	0.218780
521.797127	0.218994
522.013844	0.218994
522.230543	0.219468
522.447224	0.219882
522.663887	0.220130
522.880532	0.220726
523.097158	0.220692
523.313766	0.220446
523.530356	0.220351
523.746928	0.221219
523.963481	0.222480
524.180017	0.222115
524.396534	0.222684
524.613032	0.222255
524.829513	0.222486
525.045975	0.223852
525.262420	0.223711
525.478845	0.223891
525.695253	0.223915
525.911643	0.223563
526.128014	0.224102
526.344367	0.224409
526.560702	0.225312
526.777018	0.225715
526.993316	0.226456
527.209597	0.227504
527.425858	0.228187
527.642102	0.228111
527.858328	0.228257
528.074535	0.228044
528.290724	0.228745
528.506894	0.228234
528.723047	0.228378
528.939181	0.227163
529.155297	0.227275
529.371395	0.226964
529.587475	0.227425
529.803536	0.228073
530.019579	0.228214
530.235604	0.228007
530.451611	0.229616
530.667600	0.229828
530.883570	0.231029
531.099522	0.231307
531.315456	0.231913
531.531372	0.232287
531.747269	0.232548
531.963148	0.233504
532.179009	0.234281
532.394852	0.234330
532.610676	0.234864
532.826482	0.234967
533.042271	0.235638
533.258040	0.236585
533.473792	0.236668
533.689525	0.237000
533.905240	0.237709
534.120937	0.237857
534.336616	0.237669
534.552277	0.237737
534.767919	0.238510
534.983543	0.238481
535.199149	0.238470
535.414736	0.239477
535.630306	0.240487
535.845857	0.240232
536.061390	0.240870
536.276904	0.241001
536.492401	0.241647
536.707879	0.241312
536.923339	0.242042
537.138781	0.242355
537.354204	0.242359
537.569610	0.242440
537.784997	0.243285
538.000366	0.242893
538.215716	0.243753
538.431049	0.243960
538.646363	0.243688
538.861659	0.243722
539.076937	0.244266
539.292196	0.244439
539.507438	0.244229
539.722661	0.244049
539.937866	0.245356
540.153052	0.244938
540.368221	0.245108
540.583371	0.246337
540.798503	0.246401
541.013617	0.246611
541.228712	0.247442
541.443789	0.248211
541.658848	0.248835
541.873889	0.247852
542.088912	0.249093
542.303916	0.249400
542.518902	0.250247
542.733870	0.250889
542.948820	0.251279
543.163752	0.251288
543.378665	0.251309
543.593560	0.251343
543.808437	0.252236
544.023295	0.252131
544.238136	0.252710
544.452958	0.252598
544.667762	0.253066
544.882548	0.253189
545.097315	0.253396
545.312064	0.254001
545.526795	0.254370
545.741508	0.254701
545.956203	0.255207
546.170879	0.254873
546.385537	0.254999
546.600177	0.255001
546.814799	0.254756
547.029402	0.254947
547.243988	0.254412
547.458555	0.254702
547.673103	0.254752
547.887634	0.255122
548.102146	0.255433
548.316640	0.255701
548.531116	0.256015
548.745574	0.256728
548.960013	0.256602
549.174435	0.256969
549.388838	0.257309
549.603222	0.257907
549.817589	0.257799
550.031937	0.258601
550.246267	0.258453
550.460579	0.258289
550.674873	0.258295
550.889148	0.258858
551.103405	0.259819
551.317644	0.260005
551.531865	0.259936
551.746068	0.259689
551.960252	0.259809
552.174418	0.260271
552.388566	0.260964
552.602696	0.261327
552.816807	0.261789
553.030900	0.261989
553.244975	0.262015
553.459032	0.262328
553.673070	0.263367
553.887091	0.263842
554.101093	0.264671
554.315077	0.265140
554.529042	0.265616
554.742990	0.265636
554.956919	0.265491
555.170830	0.265859
555.384722	0.266132
555.598597	0.265863
555.812453	0.265933
556.026291	0.265860
556.240111	0.265722
556.453913	0.265739
556.667696	0.266093
556.881461	0.266497
557.095208	0.266604
557.308937	0.266250
557.522647	0.266696
557.736339	0.266647
557.950013	0.266605
558.163669	0.266786
558.377307	0.267498
558.590926	0.267677
558.804527	0.267560
559.018110	0.268342
559.231675	0.269197
559.445221	0.269473
559.658749	0.269833
559.872259	0.270280
560.085751	0.270965
560.299225	0.270407
560.512680	0.270530
560.726117	0.270852
560.939536	0.270842
561.152937	0.271049
561.366319	0.270873
561.579683	0.271084
561.793029	0.271158
562.006357	0.271020
562.219667	0.271568
562.432958	0.271490
562.646231	0.271874
562.859486	0.271971
563.072723	0.272390
563.285941	0.273002
563.499141	0.273626
563.712323	0.273583
563.925487	0.273859
564.138632	0.273944
564.351760	0.274876
564.564869	0.274543
564.777960	0.274768
564.991032	0.274739
565.204087	0.274393
565.417123	0.274020
565.630141	0.274254
565.843140	0.274338
566.056122	0.274375
566.269085	0.274191
566.482030	0.274795
566.694957	0.274930
566.907866	0.275196
567.120756	0.275940
567.333628	0.276224
567.546482	0.276524
567.759318	0.276791
567.972135	0.277380
568.184935	0.277451
568.397716	0.277674
568.610478	0.278338
568.823223	0.278666
569.035949	0.278848
569.248657	0.278929
569.461347	0.279099
569.674019	0.279289
569.886672	0.279118
570.099308	0.279741
570.311925	0.279949
570.524523	0.279576
570.737104	0.279430
570.949666	0.279212
571.162210	0.279618
571.374736	0.279616
571.587244	0.279617
571.799733	0.279766
572.012205	0.279491
572.224658	0.279871
572.437092	0.280066
572.649509	0.280281
572.861907	0.280333
573.074287	0.280355
573.286649	0.281065
573.498993	0.281296
573.711318	0.281903
573.923625	0.282229
574.135914	0.282082
574.348185	0.282441
574.560438	0.282184
574.772672	0.282677
574.984888	0.282934
575.197086	0.282786
575.409266	0.283253
575.621427	0.283076
575.833570	0.283313
576.045695	0.283494
576.257802	0.283791
576.469890	0.284466
576.681961	0.284434
576.894013	0.284555
577.106046	0.284388
577.318062	0.284056
577.530059	0.284245
577.742039	0.284043
577.954000	0.284460
578.165942	0.284282
578.377867	0.284455
578.589773	0.284520
578.801661	0.284838
579.013531	0.285141
579.225382	0.285974
579.437216	0.285820
579.649031	0.286281
579.860828	0.285779
580.072606	0.286122
580.284367	0.286511
580.496109	0.287088
580.707833	0.287164
580.919539	0.287789
581.131227	0.287873
581.342896	0.288244
581.554547	0.288206
581.766180	0.288767
581.977795	0.288884
582.189391	0.288537
582.400969	0.288523
582.612529	0.288461
582.824071	0.288401
583.035595	0.288379
583.247100	0.289165
583.458587	0.289361
583.670056	0.289843
583.881506	0.290254
584.092939	0.290475
584.304353	0.290846
584.515749	0.291128
584.727127	0.291242
584.938486	0.291247
585.149828	0.290752
585.361151	0.290990
585.572456	0.291049
585.783742	0.290530
585.995011	0.291185
586.206261	0.291476
586.417493	0.291557
586.628706	0.292112
586.839902	0.292312
587.051079	0.292764
587.262238	0.292842
587.473379	0.293040
587.684502	0.293617
587.895606	0.293191
588.106692	0.293142
588.317760	0.293437
588.528810	0.293014
588.739841	0.292853
588.950855	0.293249
589.161850	0.293605
589.372827	0.293714
589.583785	0.293890
589.794726	0.294079
590.005648	0.294285
590.216552	0.294141
590.427437	0.294525
590.638305	0.294916
590.849154	0.294879
591.059985	0.294705
591.270798	0.294522
591.481592	0.294624
591.692369	0.294869
591.903127	0.294654
592.113867	0.294796
592.324588	0.294588
592.535292	0.294646
592.745977	0.294484
592.956644	0.294302
593.167293	0.294362
593.377923	0.294463
593.588536	0.294373
593.799130	0.294944
594.009706	0.294930
594.220263	0.295414
594.430803	0.296200
594.641324	0.296288
594.851827	0.296804
595.062312	0.297191
595.272778	0.297318
595.483227	0.297706
595.693657	0.298227
595.904069	0.298925
596.114462	0.298870
596.324838	0.298496
596.535195	0.298908
596.745534	0.299220
596.955855	0.299136
597.166157	0.299347
597.376441	0.299694
597.586707	0.299245
597.796955	0.299385
598.007185	0.299513
598.217396	0.299949
598.427589	0.300066
598.637764	0.300194
598.847921	0.300779
599.058060	0.300640
599.268180	0.300564
599.478282	0.300590
599.688366	0.300648
599.898431	0.301061
600.108479	0.300958
600.318508	0.300920
600.528519	0.300845
600.738511	0.300874
600.948486	0.301335
601.158442	0.301446
601.368380	0.301948
601.578300	0.301816
601.788202	0.301794
601.998085	0.301928
602.207950	0.302540
602.417797	0.303325
602.627626	0.303557
602.837436	0.303626
603.047228	0.304046
603.257002	0.304136
603.466758	0.304912
603.676496	0.305450
603.886215	0.305613
604.095916	0.305409
604.305599	0.305317
604.515264	0.305464
604.724910	0.305595
604.934538	0.305643
605.144148	0.305539
605.353740	0.305228
605.563314	0.305109
605.772869	0.305271
605.982406	0.305474
606.191925	0.305444
606.401425	0.305500
606.610908	0.305684
606.820372	0.305388
607.029818	0.305518
607.239246	0.305584
607.448655	0.305657
607.658047	0.305772
607.867420	0.305645
608.076775	0.305815
608.286111	0.305735
608.495430	0.305492
608.704730	0.305916
608.914012	0.306127
609.123275	0.306310
609.332521	0.306338
609.541748	0.306425
609.750957	0.306615
609.960148	0.306656
610.169321	0.306701
610.378475	0.307162
610.587611	0.307526
610.796729	0.307629
611.005829	0.307725
611.214910	0.307776
611.423974	0.307896
611.633019	0.308079
611.842045	0.308123
612.051054	0.308319
612.260044	0.308543
612.469017	0.308526
612.677970	0.308704
612.886906	0.309028
613.095824	0.309516
613.304723	0.310346
613.513604	0.310272
613.722467	0.310158
613.931311	0.310486
614.140138	0.310575
614.348946	0.310420
614.557736	0.310518
614.766507	0.310463
614.975261	0.310472
615.183996	0.310082
615.392713	0.310363
615.601412	0.310748
615.810092	0.310667
616.018754	0.310613
616.227399	0.310754
616.436024	0.310479
616.644632	0.310793
616.853222	0.310897
617.061793	0.310756
617.270346	0.310683
617.478880	0.310753
617.687397	0.310928
617.895895	0.311331
618.104375	0.311930
618.312837	0.312409
618.521281	0.312346
618.729706	0.312368
618.938113	0.312504
619.146502	0.312934
619.354873	0.313253
619.563226	0.313834
619.771560	0.313883
619.979876	0.313941
620.188174	0.314192
620.396453	0.314595
620.604715	0.314782
620.812958	0.315101
621.021183	0.315474
621.229390	0.315375
621.437578	0.315002
621.645748	0.315098
621.853900	0.315138
622.062034	0.315149
622.270150	0.315154
622.478247	0.315402
622.686326	0.315352
622.894387	0.315340
623.102430	0.315424
623.310454	0.315556
623.518461	0.315211
623.726449	0.315158
623.934418	0.315325
624.142370	0.315298
624.350303	0.315349
624.558218	0.315571
624.766115	0.315677
624.973994	0.315958
625.181855	0.316507
625.389697	0.317236
625.597521	0.317580
625.805327	0.317899
626.013114	0.318242
626.220883	0.318582
626.428634	0.318896
626.636367	0.319038
626.844082	0.319345
627.051778	0.319017
627.259457	0.319019
627.467117	0.318770
627.674758	0.318819
627.882382	0.318922
628.089987	0.318749
628.297574	0.318861
628.505143	0.319084
628.712694	0.318927
628.920226	0.319141
629.127740	0.319047
629.335236	0.319453
629.542714	0.319503
629.750174	0.319459
629.957615	0.319423
630.165038	0.319483
630.372443	0.319269
630.579829	0.319849
630.787198	0.319872
630.994548	0.320155
631.201880	0.320284
631.409194	0.320743
631.616489	0.321131
631.823766	0.321874
632.031025	0.321539
632.238266	0.321721
632.445489	0.321725
632.652693	0.322215
632.859879	0.322487
633.067047	0.322473
633.274197	0.322177
633.481329	0.322199
633.688442	0.321947
633.895537	0.322698
634.102614	0.323086
634.309672	0.323178
634.516713	0.323478
634.723735	0.323672
634.930739	0.323885
635.137724	0.324446
635.344692	0.324782
635.551641	0.325250
635.758572	0.325608
635.965485	0.325625
636.172379	0.325973
636.379256	0.326003
636.586114	0.326047
636.792954	0.326492
636.999775	0.326486
637.206579	0.326517
637.413364	0.326488
637.620131	0.326554
637.826880	0.327024
638.033610	0.327387
638.240323	0.327418
638.447017	0.327714
638.653692	0.327573
638.860350	0.328124
639.066990	0.328180
639.273611	0.328376
639.480214	0.328389
639.686798	0.328570
639.893365	0.328327
640.099913	0.328354
640.306443	0.328612
640.512955	0.329008
640.719449	0.328872
640.925924	0.329050
641.132381	0.329273
641.338820	0.329517
641.545241	0.329464
641.751644	0.329557
641.958028	0.329974
642.164394	0.330122
642.370742	0.329999
642.577071	0.330120
642.783383	0.330534
642.989676	0.330846
643.195951	0.330932
643.402207	0.331105
643.608446	0.331304
643.814666	0.331631
644.020868	0.331689
644.227052	0.332050
644.433218	0.332087
644.639365	0.331953
644.845494	0.332161
645.051605	0.332477
645.257698	0.332659
645.463772	0.332740
645.669828	0.332868
645.875866	0.332933
646.081886	0.333359
646.287888	0.333513
646.493871	0.333956
646.699836	0.334257
646.905783	0.334208
647.111712	0.334416
647.317622	0.334921
647.523514	0.334953
647.729388	0.335133
647.935244	0.335404
648.141082	0.336029
648.346901	0.336155
648.552702	0.336145
648.758485	0.336566
648.964250	0.336937
649.169996	0.336920
649.375724	0.337244
649.581434	0.337521
649.787126	0.337588
649.992800	0.337353
650.198455	0.337698
650.404092	0.338042
650.609711	0.338103
650.815311	0.338084
651.020894	0.338299
651.226458	0.338422
651.432004	0.338544
651.637532	0.338749
651.843041	0.339202
652.048532	0.339440
652.254006	0.339241
652.459460	0.339395
652.664897	0.339716
652.870315	0.339909
653.075716	0.339942
653.281097	0.340253
653.486461	0.340193
653.691807	0.339996
653.897134	0.339849
654.102443	0.340030
654.307734	0.340343
654.513006	0.340446
654.718261	0.340807
654.923497	0.340979
655.128715	0.341314
655.333915	0.341857
655.539096	0.342417
655.744259	0.342481
655.949404	0.342844
656.154531	0.342840
656.359640	0.342952
656.564730	0.343181
656.769802	0.343604
656.974856	0.343868
657.179892	0.343917
657.384909	0.344090
657.589908	0.344587
657.794889	0.344738
657.999852	0.345432
658.204797	0.346093
658.409723	0.346002
658.614631	0.346343
658.819521	0.346587
659.024393	0.346762
659.229246	0.347092
659.434081	0.347296
659.638898	0.347893
659.843697	0.347593
660.048478	0.347573
660.253240	0.348117
660.457984	0.348374
660.662710	0.348393
660.867417	0.348827
661.072107	0.349051
661.276778	0.349451
661.481431	0.349497
661.686066	0.350086
661.890682	0.350432
662.095281	0.350939
662.299861	0.350663
662.504422	0.350805
662.708966	0.350701
662.913491	0.350646
663.117999	0.350811
663.322488	0.350831
663.526958	0.350924
663.731411	0.351225
663.935845	0.351004
664.140261	0.351660
664.344659	0.351995
664.549038	0.352237
664.753400	0.352522
664.957743	0.352844
665.162068	0.353452
665.366375	0.353587
665.570663	0.353349
665.774933	0.353648
665.979185	0.353836
666.183419	0.353945
666.387635	0.354349
666.591832	0.354638
666.796011	0.354286
667.000172	0.353872
667.204315	0.353925
667.408439	0.354426
667.612545	0.354500
667.816634	0.354591
668.020703	0.354778
668.224755	0.355180
668.428788	0.355415
668.632803	0.356210
668.836800	0.356739
669.040779	0.357407
669.244739	0.357447
669.448681	0.357643
669.652605	0.357798
669.856511	0.358395
670.060399	0.358431
670.264268	0.358703
670.468119	0.358656
670.671952	0.359037
670.875767	0.359068
671.079563	0.359419
671.283341	0.359516
671.487101	0.359888
671.690843	0.359878
671.894567	0.359861
672.098272	0.359844
672.301959	0.360189
672.505628	0.360306
672.709278	0.360629
672.912911	0.360662
673.116525	0.361053
673.320121	0.361426
673.523699	0.361608
673.727258	0.361934
673.930799	0.362303
674.134322	0.362610
674.337827	0.362988
674.541314	0.363077
674.744782	0.363513
674.948232	0.363738
675.151664	0.363640
675.355078	0.363824
675.558474	0.364300
675.761851	0.364713
675.965210	0.364793
676.168551	0.364572
676.371873	0.364809
676.575178	0.365142
676.778464	0.365541
676.981732	0.365488
677.184981	0.365805
677.388213	0.365814
677.591426	0.365587
677.794621	0.365789
677.997798	0.366180
678.200956	0.366328
678.404097	0.366304
678.607219	0.366246
678.810323	0.366925
679.013408	0.367148
679.216476	0.367194
679.419525	0.367520
679.622556	0.368030
679.825569	0.368255
680.028563	0.368424
680.231540	0.368817
680.434498	0.369329
680.637438	0.369416
680.840359	0.369670
681.043263	0.370139
681.246148	0.370598
681.449015	0.370467
681.651864	0.370715
681.854694	0.370888
682.057506	0.370998
682.260301	0.371274
682.463076	0.371410
682.665834	0.371417
682.868573	0.371698
683.071295	0.371835
683.273998	0.372288
683.476682	0.372607
683.679349	0.372964
683.881997	0.373218
684.084627	0.373322
684.287239	0.373800
684.489833	0.374365
684.692408	0.374298
684.894965	0.374352
685.097504	0.374371
685.300025	0.374422
685.502527	0.374451
685.705012	0.374797
685.907478	0.375000
686.109925	0.375178
686.312355	0.375308
686.514766	0.375828
686.717159	0.376357
686.919534	0.376622
687.121891	0.377043
687.324230	0.377141
687.526550	0.377093
687.728852	0.377391
687.931136	0.377548
688.133401	0.377595
688.335649	0.377700
688.537878	0.377706
688.740089	0.377786
688.942281	0.377951
689.144456	0.378256
689.346612	0.378683
689.548750	0.378941
689.750870	0.379346
689.952971	0.379322
690.155055	0.379588
690.357120	0.379895
690.559167	0.380371
690.761195	0.380660
690.963206	0.381062
691.165198	0.381161
691.367172	0.381105
691.569128	0.381316
691.771065	0.381791
691.972984	0.381745
692.174885	0.382016
692.376768	0.382108
692.578633	0.381917
692.780479	0.382015
692.982308	0.382151
693.184118	0.382423
693.385909	0.382260
693.587683	0.382249
693.789438	0.382608
693.991175	0.382605
694.192894	0.382689
694.394595	0.382884
694.596277	0.382764
694.797941	0.382875
694.999587	0.383018
695.201215	0.383268
695.402824	0.383367
695.604416	0.383290
695.805989	0.383324
696.007543	0.383336
696.209080	0.383650
696.410598	0.384334
696.612099	0.384543
696.813580	0.384883
697.015044	0.385069
697.216490	0.385211
697.417917	0.385683
697.619326	0.386008
697.820717	0.386308
698.022089	0.386615
698.223444	0.386944
698.424780	0.387095
698.626098	0.387040
698.827397	0.387267
699.028679	0.387859
699.229942	0.387955
699.431187	0.388064
699.632414	0.388036
699.833622	0.388037
700.034813	0.387707
700.235985	0.387711
700.437139	0.387961
700.638274	0.387895
700.839392	0.387732
701.040491	0.387440
701.241572	0.387589
701.442635	0.387864
701.643679	0.387977
701.844706	0.388189
702.045714	0.388334
702.246704	0.388329
702.447675	0.388398
702.648629	0.388561
702.849564	0.388739
703.050481	0.388877
703.251380	0.388858
703.452260	0.388983
703.653122	0.388979
703.853966	0.389110
704.054792	0.389277
704.255600	0.389598
704.456389	0.389718
704.657160	0.389982
704.857913	0.389899
705.058648	0.390179
705.259365	0.390160
705.460063	0.390226
705.660743	0.390378
705.861405	0.390288
706.062048	0.390079
706.262674	0.389917
706.463281	0.389786
706.663870	0.389873
706.864441	0.390067
707.064993	0.389897
707.265527	0.389867
707.466043	0.389816
707.666541	0.389747
707.867021	0.389972
708.067482	0.389974
708.267925	0.390364
708.468350	0.390351
708.668757	0.390112
708.869145	0.390284
709.069516	0.390376
709.269868	0.390384
709.470201	0.390386
709.670517	0.390288
709.870814	0.390292
710.071093	0.390149
710.271354	0.390304
710.471597	0.390500
710.671821	0.390620
710.872028	0.390285
711.072216	0.390269
711.272385	0.390137
711.472537	0.390047
711.672670	0.389851
711.872785	0.389701
712.072882	0.389733
712.272961	0.389709
712.473021	0.389443
712.673063	0.389771
712.873087	0.389861
713.073093	0.389978
713.273081	0.389997
713.473050	0.390309
713.673001	0.390334
713.872934	0.389828
714.072849	0.389529
714.272745	0.389880
714.472623	0.389899
714.672483	0.389947
714.872325	0.390272
715.072148	0.390385
715.271954	0.390394
715.471741	0.390474
715.671509	0.390731
715.871260	0.391166
716.070992	0.390779
716.270707	0.390833
716.470403	0.390566
716.670080	0.390146
716.869740	0.390025
717.069381	0.389847
717.269004	0.389951
717.468609	0.389861
717.668195	0.389465
717.867764	0.389585
718.067314	0.389421
718.266846	0.389488
718.466360	0.389434
718.665855	0.389425
718.865332	0.389364
719.064791	0.388914
719.264232	0.388962
719.463655	0.388872
719.663059	0.388607
719.862445	0.388319
720.061813	0.388151
720.261163	0.388509
720.460494	0.388000
720.659807	0.388003
720.859102	0.387967
721.058379	0.387787
721.257638	0.387510
721.456878	0.387689
721.656100	0.387717
721.855304	0.387713
722.054490	0.386960
722.253657	0.387174
722.452806	0.386927
722.651937	0.386691
722.851050	0.386542
723.050145	0.386565
723.249221	0.386294
723.448279	0.386158
723.647319	0.385961
723.846340	0.385942
724.045344	0.385841
724.244329	0.385745
724.443296	0.385994
724.642245	0.386082
724.841175	0.385888
725.040088	0.385712
725.238982	0.386007
725.437857	0.386076
725.636715	0.386088
725.835554	0.385832
726.034376	0.385930
726.233179	0.385730
726.431963	0.385290
726.630730	0.385263
726.829478	0.385119
727.028208	0.384753
727.226920	0.384470
727.425614	0.384463
727.624289	0.384489
727.822946	0.384238
728.021585	0.383914
728.220206	0.384195
728.418808	0.384273
728.617392	0.384374
728.815958	0.383818
729.014506	0.383517
729.213036	0.383299
729.411547	0.383245
729.610040	0.383143
729.808515	0.383092
730.006972	0.382677
730.205410	0.382380
730.403831	0.382054
730.602233	0.382033
730.800616	0.381757
730.998982	0.381420
731.197329	0.381038
731.395658	0.380849
731.593969	0.380813
731.792262	0.380854
731.990536	0.380496
732.188793	0.380527
732.387031	0.380500
732.585250	0.380742
732.783452	0.380884
732.981635	0.380855
733.179800	0.380862
733.377947	0.380490
733.576076	0.380053
733.774186	0.380021
733.972278	0.379410
734.170352	0.379360
734.368408	0.378962
734.566446	0.378520
734.764465	0.378230
734.962466	0.378004
735.160449	0.378074
735.358413	0.377994
735.556360	0.377717
735.754288	0.377815
735.952198	0.377456
736.150090	0.377437
736.347963	0.377259
736.545818	0.377006
736.743655	0.376822
736.941474	0.376340
737.139275	0.376169
737.337057	0.376106
737.534821	0.375942
737.732567	0.375785
737.930295	0.375511
738.128005	0.375201
738.325696	0.375084
738.523369	0.374667
738.721024	0.374656
738.918660	0.374654
739.116279	0.374508
739.313879	0.374261
739.511461	0.373973
739.709024	0.373756
739.906570	0.373937
740.104097	0.373677
740.301606	0.373071
740.499097	0.372830
740.696569	0.372441
740.894024	0.372091
741.091460	0.371773
741.288878	0.371522
741.486277	0.371333
741.683659	0.370761
741.881022	0.370575
742.078367	0.370801
742.275694	0.370499
742.473002	0.370150
742.670293	0.369804
742.867565	0.369581
743.064819	0.369426
743.262054	0.368998
743.459272	0.368932
743.656471	0.368779
743.853652	0.368542
744.050815	0.368366
744.247959	0.368060
744.445085	0.367983
744.642194	0.367781
744.839283	0.367673
745.036355	0.367501
745.233408	0.367296
745.430444	0.367073
745.627461	0.366824
745.824459	0.366493
746.021440	0.366305
746.218402	0.366098
746.415346	0.365892
746.612272	0.365713
746.809180	0.365833
747.006069	0.365642
747.202940	0.365386
747.399793	0.364983
747.596628	0.365026
747.793444	0.364754
747.990243	0.364378
748.187023	0.363995
748.383784	0.363551
748.580528	0.363221
748.777253	0.362943
748.973960	0.362674
749.170649	0.362795
749.367320	0.362379
749.563973	0.362292
749.760607	0.362260
749.957223	0.362273
750.153821	0.362006
750.350400	0.361752
750.546962	0.361449
750.743505	0.361258
750.940030	0.360865
751.136536	0.360509
751.333025	0.360277
751.529495	0.359613
751.725947	0.359288
751.922381	0.359178
752.118796	0.358521
752.315194	0.358395
752.511573	0.358108
752.707934	0.358034
752.904276	0.358253
753.100601	0.358126
753.296907	0.358073
753.493195	0.357838
753.689465	0.357837
753.885716	0.358056
754.081949	0.357791
754.278164	0.357937
754.474361	0.357536
754.670540	0.357019
754.866700	0.357262
755.062843	0.357201
755.258967	0.357354
755.455072	0.357199
755.651160	0.356837
755.847229	0.356569
756.043280	0.356299
756.239313	0.356184
756.435328	0.356023
756.631324	0.355445
756.827302	0.355301
757.023262	0.354930
757.219204	0.354471
757.415127	0.354306
757.611033	0.354292
757.806920	0.353866
758.002788	0.353636
758.198639	0.353436
758.394471	0.353152
758.590286	0.352968
758.786081	0.352757
758.981859	0.352919
759.177619	0.352886
759.373360	0.352911
759.569083	0.352720
759.764788	0.352526
759.960474	0.352593
760.156143	0.352623
760.351793	0.352550
760.547425	0.352320
760.743038	0.351754
760.938634	0.351659
761.134211	0.351221
761.329770	0.351176
761.525311	0.351006
761.720833	0.350564
761.916338	0.350115
762.111824	0.349690
762.307292	0.349401
762.502741	0.349152
762.698173	0.348770
762.893586	0.348795
763.088981	0.348289
763.284358	0.348215
763.479716	0.348253
763.675057	0.348098
763.870379	0.348165
764.065683	0.348200
764.260968	0.348396
764.456236	0.348285
764.651485	0.347847
764.846716	0.348145
765.041929	0.347955
765.237123	0.347561
765.432299	0.347523
765.627457	0.347396
765.822597	0.347341
766.017719	0.347010
766.212822	0.346953
766.407907	0.346999
766.602974	0.346575
766.798023	0.346667
766.993054	0.346657
767.188066	0.346471
767.383060	0.346279
767.578036	0.346094
767.772993	0.346111
767.967933	0.345739
768.162854	0.345621
768.357757	0.345747
768.552642	0.345330
768.747508	0.345166
768.942356	0.344975
769.137186	0.344899
769.331998	0.344816
769.526792	0.344786
769.721567	0.344825
769.916324	0.344878
770.111063	0.344714
770.305784	0.345000
770.500486	0.345361
770.695171	0.345581
770.889837	0.345591
771.084484	0.345630
771.279114	0.345499
771.473725	0.345247
771.668318	0.345130
771.862893	0.345136
772.057450	0.345010
772.251988	0.344699
772.446509	0.344337
772.641011	0.344226
772.835494	0.344158
773.029960	0.344028
773.224407	0.344227
773.418836	0.344288
773.613247	0.344011
773.807640	0.343912
774.002014	0.343733
774.196370	0.344023
774.390708	0.343999
774.585028	0.343643
774.779330	0.343945
774.973613	0.343908
775.167878	0.343528
775.362125	0.343558
775.556354	0.343366
775.750564	0.343588
775.944756	0.343271
776.138930	0.343086
776.333086	0.343310
776.527223	0.342605
776.721343	0.342523
776.915444	0.342665
777.109526	0.342519
777.303591	0.342655
777.497637	0.342350
777.691666	0.342301
777.885676	0.342380
778.079667	0.342461
778.273641	0.343105
778.467596	0.343194
778.661533	0.343307
778.855452	0.343385
779.049352	0.343381
779.243235	0.343879
779.437099	0.343924
779.630945	0.344013
779.824773	0.344075
780.018582	0.343978
780.212373	0.344059
780.406146	0.343694
780.599901	0.343728
780.793638	0.343558
780.987356	0.343228
781.181056	0.343233
781.374738	0.342998
781.568402	0.342882
781.762047	0.342822
781.955674	0.342776
782.149283	0.343247
782.342874	0.343347
782.536447	0.343327
782.730001	0.343294
782.923537	0.343441
783.117055	0.343855
783.310555	0.343893
783.504036	0.343637
783.697499	0.343641
783.890944	0.343640
784.084371	0.343920
784.277780	0.343909
784.471170	0.343674
784.664542	0.343879
784.857896	0.343839
785.051231	0.343692
785.244549	0.343814
785.437848	0.343838
785.631129	0.343689
785.824392	0.343767
786.017636	0.343910
786.210863	0.344202
786.404071	0.344100
786.597260	0.344075
786.790432	0.344327
786.983585	0.344476
787.176721	0.344867
787.369838	0.345464
787.562936	0.345635
787.756017	0.345869
787.949079	0.346280
788.142123	0.346528
788.335149	0.346658
788.528156	0.346274
788.721146	0.346617
788.914117	0.346385
789.107070	0.346218
789.300005	0.346202
789.492921	0.346411
789.685819	0.346278
789.878699	0.346216
790.071561	0.346403
790.264405	0.347025
790.457230	0.347036
790.650037	0.347149
790.842826	0.347107
791.035597	0.347251
791.228349	0.347634
791.421084	0.347816
791.613800	0.348027
791.806497	0.348249
791.999177	0.348698
792.191838	0.348868
792.384481	0.349437
792.577106	0.349491
792.769713	0.349411
792.962301	0.349001
793.154871	0.349027
793.347423	0.349196
793.539957	0.348891
793.732473	0.348617
793.924970	0.348735
794.117449	0.348450
794.309910	0.348795
794.502353	0.348838
794.694777	0.349466
794.887183	0.349543
795.079571	0.349386
795.271941	0.349615
795.464293	0.349863
795.656626	0.349970
795.848941	0.350446
796.041238	0.350499
796.233516	0.350939
796.425777	0.350973
796.618019	0.351560
796.810243	0.351977
797.002449	0.352502
797.194636	0.352737
797.386805	0.353291
797.578956	0.353395
797.771089	0.353782
797.963204	0.353857
798.155300	0.353990
798.347378	0.354025
798.539438	0.354110
798.731480	0.354237
798.923503	0.354042
799.115509	0.353705
799.307496	0.353528
799.499465	0.353447
799.691415	0.353835
799.883348	0.353925
800.075262	0.354279
800.267158	0.354857
800.459035	0.355268
800.650895	0.355892
800.842736	0.356409
801.034559	0.356691
801.226364	0.357153
801.418150	0.357332
801.609919	0.357702
801.801669	0.357985
801.993401	0.358315
802.185114	0.358597
802.376810	0.358884
802.568487	0.358908
802.760146	0.359119
802.951787	0.359266
803.143409	0.359683
803.335014	0.359861
803.526600	0.359939
803.718168	0.360188
803.909717	0.359878
804.101249	0.360197
804.292762	0.360800
804.484257	0.361505
804.675734	0.361842
804.867192	0.362032
805.058632	0.362312
805.250054	0.362809
805.441458	0.362893
805.632844	0.363447
805.824211	0.363624
806.015561	0.363888
806.206891	0.364248
806.398204	0.364455
806.589499	0.364903
806.780775	0.364923
806.972033	0.364810
807.163273	0.365006
807.354495	0.365165
807.545698	0.365411
807.736883	0.365613
807.928050	0.365725
808.119199	0.365933
808.310329	0.365632
808.501441	0.366151
808.692535	0.366638
808.883611	0.367029
809.074669	0.367583
809.265708	0.367787
809.456729	0.368208
809.647732	0.368523
809.838717	0.369090
810.029683	0.369765
810.220632	0.370406
810.411562	0.370524
810.602474	0.370834
810.793367	0.371118
810.984242	0.371620
811.175100	0.371941
811.365938	0.372125
811.556759	0.372384
811.747562	0.372797
811.938346	0.373169
812.129112	0.373812
812.319860	0.374060
812.510589	0.374281
812.701300	0.374652
812.891994	0.374899
813.082668	0.375636
813.273325	0.376027
813.463964	0.376378
813.654584	0.376332
813.845186	0.376519
814.035769	0.376804
814.226335	0.377429
814.416882	0.377695
814.607411	0.378059
814.797922	0.378024
814.988415	0.378641
815.178889	0.379040
815.369345	0.379538
815.559783	0.379885
815.750203	0.380680
815.940605	0.381187
816.130988	0.381629
816.321353	0.382323
816.511700	0.383183
816.702028	0.383339
816.892339	0.383754
817.082631	0.384478
817.272905	0.385132
817.463161	0.385245
817.653398	0.385786
817.843617	0.386378
818.033819	0.386440
818.224001	0.386888
818.414166	0.387502
818.604312	0.387803
818.794440	0.388023
818.984550	0.388433
819.174642	0.388906
819.364716	0.389374
819.554771	0.389563
819.744808	0.389824
819.934827	0.390057
820.124827	0.390593
820.314810	0.390926
820.504774	0.391248
820.694720	0.392036
820.884647	0.392460
821.074557	0.392710
821.264448	0.393407
821.454321	0.394012
821.644176	0.394336
821.834012	0.394888
822.023831	0.395491
822.213631	0.396111
822.403413	0.396303
822.593176	0.396974
822.782922	0.397208
822.972649	0.397512
823.162358	0.398028
823.352049	0.398318
823.541721	0.398768
823.731376	0.399021
823.921012	0.399681
824.110629	0.399883
824.300229	0.400418
824.489811	0.401116
824.679374	0.401649
824.868919	0.402064
825.058445	0.402514
825.247954	0.402674
825.437444	0.403504
825.626916	0.403437
825.816370	0.403992
826.005806	0.404050
826.195223	0.404504
826.384622	0.404643
826.574003	0.405115
826.763366	0.405750
826.952711	0.406487
827.142037	0.406852
827.331345	0.407588
827.520635	0.408160
827.709906	0.408850
827.899160	0.409260
828.088395	0.409811
828.277612	0.410563
828.466810	0.411412
828.655991	0.411562
828.845153	0.411827
829.034297	0.412300
829.223423	0.412183
829.412531	0.412390
829.601620	0.412867
829.790691	0.413645
829.979744	0.413725
830.168779	0.413747
830.357795	0.414291
830.546793	0.414953
830.735773	0.415223
830.924735	0.415831
831.113679	0.416661
831.302604	0.416956
831.491511	0.416914
831.680400	0.417408
831.869271	0.417714
832.058123	0.418227
832.246957	0.418743
832.435773	0.419111
832.624571	0.420172
832.813351	0.420301
833.002112	0.420718
833.190855	0.421818
833.379580	0.422177
833.568287	0.423210
833.756975	0.423389
833.945645	0.423915
834.134297	0.424869
834.322931	0.425389
834.511547	0.426194
834.700144	0.426930
834.888723	0.427206
835.077284	0.427989
835.265826	0.428300
835.454351	0.429298
835.642857	0.429470
835.831345	0.429699
836.019815	0.429968
836.208266	0.430098
836.396699	0.430526
836.585114	0.431014
836.773511	0.431675
836.961890	0.432121
837.150250	0.432399
837.338592	0.433327
837.526916	0.434440
837.715222	0.434695
837.903510	0.435546
838.091779	0.435932
838.280030	0.436565
838.468263	0.437127
838.656477	0.437715
838.844674	0.438177
839.032852	0.438594
839.221012	0.438468
839.409153	0.439191
839.597277	0.439794
839.785382	0.440734
839.973469	0.441147
840.161538	0.441631
840.349589	0.442211
840.537621	0.442819
840.725635	0.443123
840.913631	0.443877
841.101609	0.444560
841.289568	0.444956
841.477509	0.445344
841.665432	0.445971
841.853337	0.446652
842.041224	0.447037
842.229092	0.447403
842.416942	0.447997
842.604774	0.448460
842.792588	0.448814
842.980383	0.449734
843.168160	0.450067
843.355919	0.450406
843.543660	0.450490
843.731382	0.451195
843.919087	0.451918
844.106773	0.452420
844.294441	0.453221
844.482090	0.453712
844.669722	0.454161
844.857335	0.454757
845.044930	0.455257
845.232507	0.455884
845.420065	0.456350
845.607605	0.457177
845.795127	0.457915
845.982631	0.458247
846.170117	0.458896
846.357584	0.459307
846.545033	0.459936
846.732464	0.460884
846.919877	0.461478
847.107272	0.462292
847.294648	0.462588
847.482006	0.463372
847.669346	0.464018
847.856667	0.464340
848.043971	0.464401
848.231256	0.464988
848.418523	0.465565
848.605771	0.466323
848.793002	0.466727
848.980214	0.467389
849.167408	0.467383
849.354584	0.467999
849.541742	0.468562
849.728881	0.469487
849.916002	0.469983
850.103105	0.470490
850.290190	0.471112
850.477256	0.471255
850.664304	0.471842
850.851334	0.472962
851.038346	0.473635
851.225340	0.474493
851.412315	0.474907
851.599272	0.475725
851.786211	0.475765
851.973132	0.476255
852.160034	0.476918
852.346918	0.477071
852.533784	0.477207
852.720632	0.477993
852.907462	0.478230
853.094273	0.479091
853.281066	0.479103
853.467841	0.479813
853.654598	0.480252
853.841336	0.480607
854.028056	0.481105
854.214758	0.482019
854.401442	0.482220
854.588107	0.482810
854.774755	0.483240
854.961384	0.484126
855.147995	0.484727
855.334587	0.485420
855.521162	0.486428
855.707718	0.486826
855.894256	0.487276
856.080775	0.487668
856.267277	0.488438
856.453760	0.488496
856.640225	0.488674
856.826672	0.489147
857.013101	0.489212
857.199511	0.489755
857.385903	0.490528
857.572277	0.490890
857.758633	0.491435
857.944970	0.492172
858.131290	0.493137
858.317591	0.493865
858.503873	0.494370
858.690138	0.495117
858.876384	0.495433
859.062612	0.495781
859.248822	0.496106
859.435014	0.496250
859.621188	0.496327
859.807343	0.496803
859.993480	0.497826
860.179599	0.498703
860.365699	0.499301
860.551781	0.500080
860.737846	0.500146
860.923891	0.501045
861.109919	0.501941
861.295929	0.502616
861.481920	0.503240
861.667893	0.503298
861.853848	0.503886
862.039784	0.503988
862.225702	0.504126
862.411603	0.505309
862.597484	0.505731
862.783348	0.506137
862.969193	0.506693
863.155021	0.507224
863.340830	0.507772
863.526620	0.508080
863.712393	0.509288
863.898147	0.509686
864.083883	0.510287
864.269601	0.510262
864.455301	0.510523
864.640982	0.510926
864.826645	0.511471
865.012290	0.512042
865.197917	0.512431
865.383526	0.512529
865.569116	0.513048
865.754688	0.513196
865.940242	0.513836
866.125777	0.514750
866.311295	0.515046
866.496794	0.515037
866.682275	0.514790
866.867737	0.515124
867.053182	0.515325
867.238608	0.515975
867.424016	0.516572
867.609406	0.517018
867.794778	0.517490
867.980131	0.517770
868.165466	0.518352
868.350783	0.518883
868.536082	0.519293
868.721362	0.520050
868.906625	0.519838
869.091869	0.520104
869.277094	0.520379
869.462302	0.520024
869.647491	0.520312
869.832662	0.520628
870.017815	0.520938
870.202950	0.521289
870.388066	0.521105
870.573165	0.522081
870.758245	0.522614
870.943306	0.523188
871.128350	0.523677
871.313375	0.524077
871.498382	0.523754
871.683371	0.524419
871.868342	0.524638
872.053294	0.525154
872.238229	0.525144
872.423144	0.525634
872.608042	0.526252
872.792922	0.526748
872.977783	0.527421
873.162626	0.528420
873.347451	0.528580
873.532258	0.528546
873.717046	0.528944
873.901816	0.529397
874.086568	0.529475
874.271302	0.529581
874.456017	0.529487
874.640715	0.529535
874.825394	0.529759
875.010055	0.530345
875.194697	0.531410
875.379322	0.532150
875.563928	0.532080
875.748516	0.532245
875.933085	0.532077
876.117637	0.533404
876.302170	0.534098
876.486685	0.535056
876.671182	0.535427
876.855661	0.535171
877.040121	0.535170
877.224563	0.535485
877.408987	0.535846
877.593393	0.536770
877.777780	0.536439
877.962150	0.536386
878.146501	0.536205
878.330833	0.536427
878.515148	0.536766
878.699444	0.537362
878.883722	0.537745
879.067982	0.538300
879.252224	0.538125
879.436447	0.538721
879.620653	0.538990
879.804840	0.539276
879.989008	0.539208
880.173159	0.539062
880.357291	0.539212
880.541405	0.539721
880.725501	0.539879
880.909579	0.539903
881.093638	0.539873
881.277680	0.540113
881.461703	0.540373
881.645707	0.540684
881.829694	0.541684
882.013662	0.541195
882.197612	0.540725
882.381544	0.540595
882.565458	0.540929
882.749353	0.540547
882.933230	0.540845
883.117089	0.540238
883.300930	0.540602
883.484753	0.540480
883.668557	0.540987
883.852343	0.541718
884.036111	0.542113
884.219861	0.542720
884.403592	0.542829
884.587305	0.542774
884.771000	0.543374
884.954677	0.543323
885.138335	0.543604
885.321976	0.543578
885.505598	0.543755
885.689201	0.543486
885.872787	0.543396
886.056354	0.544321
886.239904	0.544419
886.423434	0.545129
886.606947	0.545304
886.790442	0.545633
886.973918	0.546191
887.157376	0.546387
887.340816	0.547021
887.524237	0.546811
887.707641	0.546773
887.891026	0.547255
888.074393	0.546163
888.257741	0.545738
888.441072	0.545190
888.624384	0.544743
888.807678	0.544269
888.990954	0.543790
889.174211	0.543716
889.357451	0.543553
889.540672	0.543676
889.723875	0.544277
889.907059	0.544360
890.090226	0.544516
890.273374	0.544570
890.456504	0.544750
890.639616	0.545104
890.822709	0.545496
891.005785	0.545941
891.188842	0.545477
891.371881	0.544515
891.554901	0.544742
891.737904	0.544690
891.920888	0.544663
892.103854	0.544801
892.286802	0.544882
892.469731	0.544436
892.652643	0.543801
892.835536	0.543258
893.018410	0.544043
893.201267	0.544164
893.384106	0.543993
893.566926	0.543979
893.749728	0.544309
893.932511	0.543699
894.115277	0.543830
894.298024	0.543270
894.480753	0.544027
894.663464	0.543960
894.846157	0.544197
895.028831	0.544228
895.211487	0.544437
895.394125	0.543915
895.576745	0.544648
895.759346	0.544616
895.941930	0.545248
896.124495	0.545191
896.307041	0.544942
896.489570	0.544717
896.672080	0.544819
896.854573	0.544401
897.037046	0.544354
897.219502	0.543419
897.401940	0.543440
897.584359	0.543220
897.766760	0.542345
897.949143	0.542379
898.131507	0.541491
898.313854	0.541002
898.496182	0.540913
898.678492	0.540772
898.860783	0.540562
899.043057	0.539822
899.225312	0.539316
899.407549	0.539462
899.589768	0.539156
899.771968	0.539209
899.954151	0.538713
900.136315	0.538238
900.318461	0.538023
900.500588	0.537832
900.682698	0.537590
900.864789	0.537730
901.046862	0.537335
901.228917	0.537802
901.410953	0.537645
901.592971	0.537691
901.774972	0.537829
901.956953	0.537336
902.138917	0.536410
902.320862	0.536655
902.502790	0.536613
902.684699	0.536234
902.866589	0.535326
903.048462	0.534251
903.230316	0.534193
903.412152	0.533174
903.593970	0.532990
903.775770	0.532841
903.957551	0.531503
904.139314	0.530847
904.321059	0.530451
904.502786	0.529795
904.684494	0.529797
904.866185	0.529367
905.047857	0.529324
905.229510	0.528882
905.411146	0.528809
905.592763	0.529333
905.774363	0.528535
905.955943	0.528214
906.137506	0.527915
906.319051	0.527470
906.500577	0.527002
906.682085	0.527112
906.863575	0.527430
907.045046	0.526736
907.226500	0.526085
907.407935	0.525847
907.589352	0.525077
907.770750	0.524074
907.952131	0.524126
908.133493	0.523000
908.314837	0.521889
908.496163	0.520334
908.677470	0.519982
908.858760	0.518876
909.040031	0.518353
909.221284	0.518159
909.402518	0.517830
909.583735	0.516938
909.764933	0.516825
909.946113	0.515870
910.127275	0.515806
910.308418	0.515068
910.489544	0.514807
910.670651	0.513883
910.851740	0.513353
911.032810	0.513615
911.213863	0.513126
911.394897	0.512718
911.575913	0.512988
911.756911	0.512978
911.937890	0.513257
912.118851	0.512643
912.299794	0.512040
912.480719	0.511787
912.661626	0.510362
912.842514	0.509133
913.023384	0.508658
913.204236	0.507400
913.385070	0.505996
913.565886	0.504785
913.746683	0.504068
913.927462	0.503978
914.108223	0.502322
914.288965	0.502157
914.469690	0.501874
914.650396	0.500637
914.831084	0.500135
915.011754	0.498824
915.192405	0.498075
915.373038	0.497126
915.553653	0.495428
915.734250	0.495231
915.914829	0.493780
916.095389	0.493234
916.275931	0.492786
916.456455	0.492287
916.636961	0.491977
916.817448	0.491554
916.997917	0.491353
917.178368	0.492059
917.358801	0.490834
917.539216	0.490568
917.719612	0.490011
917.899990	0.489466
918.080350	0.488230
918.260692	0.487566
918.441015	0.486739
918.621320	0.485955
918.801607	0.484799
918.981876	0.484480
919.162127	0.483411
919.342359	0.482037
919.522573	0.481289
919.702769	0.479975
919.882947	0.480222
920.063106	0.479185
920.243247	0.477972
920.423370	0.476501
920.603475	0.475409
920.783562	0.474962
920.963630	0.474111
921.143680	0.473257
921.323712	0.472962
921.503725	0.471246
921.683721	0.470683
921.863698	0.470680
922.043657	0.470109
922.223598	0.469945
922.403520	0.468878
922.583424	0.467721
922.763311	0.466492
922.943178	0.465801
923.123028	0.464790
923.302859	0.463897
923.482673	0.463330
923.662467	0.462516
923.842244	0.460984
924.022003	0.461282
924.201743	0.461148
924.381465	0.460241
924.561169	0.459089
924.740854	0.457706
924.920522	0.457049
925.100171	0.455242
925.279802	0.453852
925.459414	0.453627
925.639009	0.451845
925.818585	0.450539
925.998143	0.449943
926.177683	0.448888
926.357205	0.448626
926.536708	0.448172
926.716193	0.447714
926.895660	0.447153
927.075109	0.445975
927.254539	0.444753
927.433951	0.443651
927.613345	0.442802
927.792721	0.443371
927.972079	0.441977
928.151418	0.440082
928.330739	0.439623
928.510042	0.438365
928.689327	0.437254
928.868593	0.436334
929.047841	0.435800
929.227071	0.434856
929.406283	0.433320
929.585476	0.432798
929.764652	0.432214
929.943809	0.430631
930.122948	0.429919
930.302068	0.429461
930.481171	0.428604
930.660255	0.427052
930.839321	0.425273
931.018369	0.423051
931.197398	0.421488
931.376409	0.420788
931.555402	0.419310
931.734377	0.418415
931.913334	0.416381
932.092272	0.415247
932.271192	0.414435
932.450094	0.413926
932.628978	0.412725
932.807844	0.412097
932.986691	0.410597
933.165520	0.409939
933.344331	0.408307
933.523123	0.407719
933.701898	0.406435
933.880654	0.405362
934.059392	0.404137
934.238111	0.404706
934.416813	0.403196
934.595496	0.401565
934.774161	0.399521
934.952808	0.398326
935.131437	0.397361
935.310047	0.396545
935.488639	0.395516
935.667213	0.394148
935.845769	0.391432
936.024306	0.390834
936.202825	0.389848
936.381326	0.389898
936.559809	0.388721
936.738274	0.386487
936.916720	0.384929
937.095148	0.384326
937.273558	0.382705
937.451950	0.382578
937.630323	0.381932
937.808678	0.381015
937.987015	0.379971
938.165334	0.379409
938.343635	0.378512
938.521917	0.378080
938.700181	0.376903
938.878427	0.375586
939.056655	0.374880
939.234864	0.372126
939.413055	0.370320
939.591228	0.366899
939.769383	0.365208
939.947519	0.364717
940.125638	0.361907
940.303738	0.359070
940.481820	0.359549
940.659883	0.356612
940.837929	0.356254
941.015956	0.354597
941.193965	0.354714
941.371955	0.354113
941.549928	0.352202
941.727882	0.352427
941.905818	0.351590
942.083736	0.349532
942.261636	0.347695
942.439517	0.345949
942.617380	0.345858
942.795225	0.343595
942.973052	0.342069
943.150860	0.341819
943.328651	0.339172
943.506423	0.339209
943.684176	0.337313
943.861912	0.337260
944.039629	0.337041
944.217328	0.335526
944.395009	0.335632
944.572672	0.334377
944.750317	0.332197
944.927943	0.331318
945.105551	0.329922
945.283141	0.328703
945.460712	0.327920
945.638265	0.324980
945.815801	0.323094
945.993317	0.321044
946.170816	0.318228
946.348297	0.316940
946.525759	0.314940
946.703203	0.312388
946.880629	0.311175
947.058036	0.308805
947.235425	0.307018
947.412797	0.305881
947.590149	0.303424
947.767484	0.303196
947.944800	0.301198
948.122099	0.300766
948.299379	0.299439
948.476640	0.298937
948.653884	0.298491
948.831109	0.299282
949.008316	0.297937
949.185505	0.297662
949.362676	0.297261
949.539828	0.297110
949.716962	0.293968
949.894078	0.293275
950.071176	0.291054
950.248256	0.289893
950.425317	0.286692
950.602360	0.285981
950.779385	0.285113
950.956391	0.284313
951.133380	0.282998
951.310350	0.285977
951.487302	0.283404
951.664235	0.282603
951.841151	0.281491
952.018048	0.280203
952.194927	0.277468
952.371788	0.274477
952.548631	0.270089
952.725455	0.266679
952.902261	0.262199
953.079049	0.262227
953.255819	0.261410
953.432570	0.261025
953.609303	0.261953
953.786018	0.262265
953.962715	0.263028
954.139394	0.263443
954.316054	0.266141
954.492696	0.265170
954.669320	0.264626
954.845926	0.262291
955.022513	0.257811
955.199083	0.256731
955.375634	0.255552
955.552166	0.255019
955.728681	0.251682
955.905177	0.246104
956.081655	0.246609
956.258115	0.244759
956.434557	0.243984
956.610980	0.241707
956.787385	0.239904
956.963772	0.236536
957.140141	0.234948
957.316492	0.235399
957.492824	0.237947
957.669138	0.233814
957.845434	0.236574
958.021712	0.236276
958.197971	0.236785
958.374212	0.231079
958.550435	0.232287
958.726640	0.229655
958.902826	0.229933
959.078995	0.227082
959.255145	0.228654
959.431277	0.225510
959.607390	0.222805
959.783486	0.222390
959.959563	0.225209
960.135622	0.221590
960.311662	0.222426
960.487685	0.220756
960.663689	0.217161
960.839675	0.216354
961.015643	0.213557
961.191593	0.215327
961.367524	0.216124
961.543437	0.216331
961.719332	0.218922
961.895209	0.217553
962.071067	0.217113
962.246907	0.219739
962.422730	0.218818
962.598533	0.219628
962.774319	0.217670
962.950086	0.214677
963.125835	0.213169
963.301566	0.210584
963.477279	0.211639
963.652973	0.212321
963.828650	0.210777
964.004308	0.211719
964.179947	0.209416
964.355569	0.206714
964.531172	0.205302
964.706757	0.204644
964.882324	0.203560
965.057873	0.201694
965.233403	0.198925
965.408916	0.199229
965.584410	0.201046
965.759885	0.202023
965.935343	0.203790
966.110782	0.205839
966.286203	0.204165
966.461606	0.206052
966.636991	0.207055
966.812357	0.207878
966.987705	0.207179
967.163035	0.206524
967.338347	0.205158
967.513641	0.202692
967.688916	0.202607
967.864173	0.201621
968.039412	0.199871
968.214632	0.199145
968.389835	0.197773
968.565019	0.197160
968.740185	0.194868
968.915333	0.194874
969.090462	0.197323
969.265573	0.194307
969.440667	0.196071
969.615741	0.196612
969.790798	0.194943
969.965836	0.196691
970.140856	0.199339
970.315858	0.198578
970.490842	0.200168
970.665808	0.196293
970.840755	0.199404
971.015684	0.200381
971.190595	0.199312
971.365487	0.201054
971.540362	0.199813
971.715218	0.199960
971.890056	0.202408
972.064875	0.201208
972.239677	0.203285
972.414460	0.204139
972.589225	0.202751
972.763972	0.202555
972.938700	0.200149
973.113411	0.200996
973.288103	0.199569
973.462777	0.194779
973.637432	0.195465
973.812070	0.195505
973.986689	0.195500
974.161290	0.195809
974.335873	0.197207
974.510437	0.199540
974.684984	0.199696
974.859512	0.198505
975.034022	0.200155
975.208513	0.200053
975.382987	0.201736
975.557442	0.200906
975.731879	0.200316
975.906298	0.197723
976.080698	0.197361
976.255080	0.196955
976.429445	0.196544
976.603790	0.194098
976.778118	0.193223
976.952427	0.192124
977.126719	0.188434
977.300992	0.188194
977.475246	0.188165
977.649483	0.189026
977.823701	0.187368
977.997901	0.185896
978.172083	0.187027
978.346247	0.187694
978.520392	0.187366
978.694519	0.188299
978.868628	0.189768
979.042719	0.189021
979.216791	0.190029
979.390845	0.193224
979.564882	0.195910
979.738899	0.196446
979.912899	0.196972
980.086880	0.198062
980.260843	0.201492
980.434788	0.199876
980.608715	0.202416
980.782623	0.199773
980.956514	0.198281
981.130386	0.197276
981.304240	0.199978
981.478075	0.199036
981.651892	0.199602
981.825692	0.198858
981.999472	0.198842
982.173235	0.200196
982.346980	0.198217
982.520706	0.199139
982.694414	0.198505
982.868104	0.194029
983.041775	0.193929
983.215428	0.194417
983.389064	0.193215
983.562680	0.192067
983.736279	0.189917
983.909860	0.194167
984.083422	0.191442
984.256966	0.191192
984.430491	0.193857
984.603999	0.196398
984.777488	0.194248
984.950959	0.194172
985.124412	0.195217
985.297847	0.197037
985.471263	0.194764
985.644661	0.195458
985.818041	0.196754
985.991403	0.196784
986.164747	0.194889
986.338072	0.192832
986.511379	0.195063
986.684668	0.194580
986.857938	0.194069
987.031191	0.193566
987.204425	0.194651
987.377641	0.192611
987.550839	0.192559
987.724018	0.192517
987.897179	0.196512
988.070322	0.195799
988.243447	0.195023
988.416554	0.194914
988.589642	0.196405
988.762712	0.195471
988.935764	0.197668
989.108798	0.196782
989.281813	0.196803
989.454811	0.195167
989.627790	0.192664
989.800751	0.194692
989.973693	0.195076
990.146617	0.193385
990.319524	0.194019
990.492412	0.192785
990.665281	0.192954
990.838133	0.192393
991.010966	0.191689
991.183781	0.191436
991.356578	0.190536
991.529356	0.187532
991.702117	0.189826
991.874859	0.189480
992.047583	0.188438
992.220288	0.188021
992.392976	0.188309
992.565645	0.189900
992.738296	0.192405
992.910929	0.192481
993.083543	0.196390
993.256139	0.195432
993.428718	0.196856
993.601277	0.199572
993.773819	0.202105
993.946342	0.203586
994.118848	0.201258
994.291335	0.199096
994.463803	0.198783
994.636254	0.195176
994.808686	0.193985
994.981100	0.193568
995.153496	0.192334
995.325874	0.187698
995.498233	0.184418
995.670574	0.184741
995.842897	0.185222
996.015202	0.185672
996.187488	0.189888
996.359757	0.189777
996.532007	0.190134
996.704239	0.190320
996.876452	0.193240
997.048648	0.192421
997.220825	0.192501
997.392984	0.191855
997.565124	0.193368
997.737247	0.190972
997.909351	0.191000
998.081437	0.187950
998.253505	0.189889
998.425554	0.190129
998.597586	0.193230
998.769599	0.194997
998.941594	0.195747
999.113571	0.196185
999.285529	0.195748
999.457469	0.198650
999.629391	0.200548
999.801295	0.198495
999.973181	0.197397
1000.145048	0.195931
1000.316897	0.195168
1000.488728	0.196121
1000.660541	0.194359
1000.832335	0.195231
1001.004111	0.191245
1001.175869	0.191074
1001.347609	0.191427
1001.519331	0.191120
1001.691034	0.191003
1001.862719	0.189861
1002.034386	0.189706
1002.206035	0.191420
1002.377665	0.192437
1002.549277	0.195407
1002.720871	0.196236
1002.892447	0.196845
1003.064004	0.197675
1003.235544	0.197812
1003.407065	0.198216
1003.578568	0.198227
1003.750052	0.197120
1003.921519	0.195810
1004.092967	0.193781
1004.264397	0.194062
1004.435809	0.192558
1004.607202	0.194583
1004.778577	0.195310
1004.949934	0.195512
1005.121273	0.195408
1005.292594	0.196370
1005.463896	0.197527
1005.635180	0.197616
1005.806446	0.196181
1005.977694	0.195703
1006.148923	0.193869
1006.320135	0.193063
1006.491328	0.194670
1006.662503	0.192880
1006.833659	0.190818
1007.004798	0.189996
1007.175918	0.190739
1007.347020	0.190915
1007.518103	0.191670
1007.689169	0.191389
1007.860216	0.191163
1008.031245	0.190400
1008.202256	0.190657
1008.373248	0.192402
1008.544223	0.192623
1008.715179	0.193325
1008.886117	0.192922
1009.057036	0.193303
1009.227938	0.194450
1009.398821	0.195235
1009.569686	0.195117
1009.740533	0.197261
1009.911361	0.196504
1010.082172	0.198403
1010.252964	0.198131
1010.423738	0.197519
1010.594493	0.197608
1010.765231	0.196560
1010.935950	0.198959
1011.106651	0.199370
1011.277334	0.199463
1011.447998	0.200358
1011.618645	0.197004
1011.789273	0.196459
1011.959882	0.197577
1012.130474	0.197980
1012.301048	0.199519
1012.471603	0.197629
1012.642140	0.196364
1012.812658	0.195525
1012.983159	0.194580
1013.153641	0.196137
1013.324105	0.198518
1013.494551	0.199815
1013.664979	0.197050
1013.835388	0.195357
1014.005779	0.193524
1014.176152	0.196137
1014.346507	0.196434
1014.516843	0.196759
1014.687162	0.198470
1014.857462	0.196448
1015.027744	0.196270
1015.198007	0.197144
1015.368252	0.197832
1015.538480	0.201080
1015.708689	0.197917
1015.878879	0.198016
1016.049052	0.197258
1016.219206	0.196718
1016.389342	0.195776
1016.559460	0.193969
1016.729559	0.197624
1016.899641	0.197143
1017.069704	0.195739
1017.239749	0.196030
1017.409775	0.195577
1017.579784	0.195919
1017.749774	0.191697
1017.919746	0.192952
1018.089700	0.193103
1018.259635	0.191177
1018.429553	0.190808
1018.599452	0.192040
1018.769333	0.191784
1018.939195	0.192387
1019.109040	0.190994
1019.278866	0.195267
1019.448674	0.195554
1019.618464	0.196273
1019.788235	0.194281
1019.957989	0.194299
1020.127724	0.191861
1020.297441	0.192315
1020.467139	0.193139
1020.636820	0.194555
1020.806482	0.193224
1020.976126	0.192899
1021.145752	0.194786
1021.315359	0.196855
1021.484948	0.196314
1021.654519	0.197772
1021.824072	0.198384
1021.993607	0.196908
1022.163123	0.196770
1022.332621	0.198159
1022.502101	0.196346
1022.671563	0.194881
1022.841007	0.195606
1023.010432	0.196842
1023.179839	0.194531
1023.349228	0.192674
1023.518598	0.191570
1023.687951	0.190498
1023.857285	0.187403
1024.026601	0.186032
1024.195899	0.185123
1024.365178	0.185651
1024.534439	0.183807
1024.703682	0.185388
1024.872907	0.187756
1025.042114	0.188800
1025.211302	0.190156
1025.380472	0.193157
1025.549624	0.195291
1025.718758	0.196157
1025.887873	0.194250
1026.056970	0.195731
1026.226049	0.198300
1026.395110	0.197764
1026.564153	0.199128
1026.733177	0.199231
1026.902183	0.197358
1027.071171	0.198109
1027.240141	0.197109
1027.409092	0.197109
1027.578026	0.197953
1027.746940	0.195887
1027.915837	0.197756
1028.084716	0.196460
1028.253576	0.196698
1028.422418	0.197147
1028.591242	0.195965
1028.760048	0.195209
1028.928835	0.194738
1029.097604	0.193784
1029.266355	0.191142
1029.435088	0.190348
1029.603803	0.189354
1029.772499	0.186217
1029.941177	0.186004
1030.109837	0.186649
1030.278478	0.189468
1030.447102	0.188717
1030.615707	0.190019
1030.784294	0.191918
1030.952863	0.187807
1031.121413	0.188907
1031.289945	0.191012
1031.458460	0.190599
1031.626955	0.191614
1031.795433	0.189308
1031.963892	0.190370
1032.132334	0.189895
1032.300756	0.189785
1032.469161	0.192462
1032.637548	0.191943
1032.805916	0.192242
1032.974266	0.191595
1033.142598	0.190468
1033.310911	0.191733
1033.479207	0.191873
1033.647484	0.192154
1033.815743	0.193072
1033.983983	0.192843
1034.152206	0.192938
1034.320410	0.192945
1034.488596	0.194064
1034.656764	0.193373
1034.824914	0.193412
1034.993045	0.193350
1035.161158	0.192503
1035.329253	0.194443
1035.497330	0.195010
1035.665388	0.193723
1035.833428	0.193219
1036.001450	0.192312
1036.169454	0.191989
1036.337440	0.190238
1036.505407	0.190358
1036.673356	0.189594
1036.841287	0.186539
1037.009200	0.185202
1037.177094	0.185127
1037.344970	0.185609
1037.512828	0.185671
1037.680668	0.186040
1037.848489	0.188392
1038.016293	0.188918
1038.184078	0.190666
1038.351845	0.191303
1038.519593	0.191434
1038.687324	0.190934
1038.855036	0.190113
1039.022730	0.189787
1039.190406	0.191246
1039.358063	0.189189
1039.525702	0.187158
1039.693323	0.187095
1039.860926	0.186414
1040.028511	0.186150
1040.196077	0.187903
1040.363625	0.188431
1040.531155	0.187060
1040.698667	0.185048
1040.866161	0.184260
1041.033636	0.186553
1041.201093	0.185716
1041.368532	0.186687
1041.535952	0.185703
1041.703355	0.185735
1041.870739	0.185892
1042.038105	0.187543
1042.205452	0.188683
1042.372782	0.189085
1042.540093	0.186027
1042.707386	0.186994
1042.874661	0.187811
1043.041918	0.190964
1043.209156	0.190114
1043.376376	0.190564
1043.543578	0.191280
1043.710762	0.192987
1043.877927	0.193212
1044.045074	0.195282
1044.212203	0.194677
1044.379314	0.194319
1044.546407	0.194731
1044.713481	0.196512
1044.880537	0.197296
1045.047575	0.197178
1045.214595	0.195886
1045.381596	0.199054
1045.548579	0.197869
1045.715544	0.195980
1045.882491	0.196459
1046.049420	0.194008
1046.216330	0.194691
1046.383222	0.194218
1046.550096	0.195105
1046.716951	0.195582
1046.883789	0.195121
1047.050608	0.195693
1047.217409	0.196809
1047.384192	0.196066
1047.550956	0.197194
1047.717703	0.195151
1047.884431	0.194222
1048.051140	0.194121
1048.217832	0.193447
1048.384505	0.190498
1048.551161	0.190677
1048.717798	0.191347
1048.884416	0.191668
1049.051017	0.189006
1049.217599	0.190284
1049.384163	0.191512
1049.550709	0.189386
1049.717237	0.189598
1049.883746	0.191298
1050.050237	0.193147
1050.216710	0.192630
1050.383165	0.189672
1050.549601	0.191221
1050.716019	0.189089
1050.882420	0.189446
1051.048801	0.190780
1051.215165	0.192169
1051.381510	0.191131
1051.547837	0.187115
1051.714146	0.187308
1051.880437	0.189072
1052.046709	0.189822
1052.212964	0.190817
1052.379200	0.186894
1052.545417	0.185661
1052.711617	0.181916
1052.877798	0.182690
1053.043961	0.182244
1053.210106	0.181518
1053.376233	0.181004
1053.542341	0.181304
1053.708432	0.182096
1053.874504	0.185683
1054.040557	0.186348
1054.206593	0.187198
1054.372610	0.186997
1054.538609	0.189465
1054.704590	0.189403
1054.870553	0.191654
1055.036497	0.190357
1055.202424	0.190859
1055.368331	0.189234
1055.534221	0.190756
1055.700093	0.192330
1055.865946	0.193477
1056.031781	0.194048
1056.197598	0.194513
1056.363397	0.194702
1056.529177	0.196533
1056.694939	0.196559
1056.860683	0.197500
1057.026409	0.196338
1057.192116	0.196446
1057.357806	0.194281
1057.523477	0.193983
1057.689130	0.194207
1057.854764	0.193583
1058.020381	0.191309
1058.185979	0.191733
1058.351559	0.191076
1058.517120	0.191948
1058.682664	0.193682
1058.848189	0.193740
1059.013696	0.196867
1059.179185	0.198264
1059.344656	0.196875
1059.510108	0.198844
1059.675542	0.197792
1059.840958	0.197230
1060.006356	0.196499
1060.171735	0.194074
1060.337096	0.195769
1060.502439	0.194142
1060.667764	0.193750
1060.833071	0.193063
1060.998359	0.192978
1061.163629	0.192659
1061.328881	0.194722
1061.494115	0.193318
1061.659330	0.193932
1061.824527	0.192110
1061.989706	0.193118
1062.154867	0.192370
1062.320010	0.195131
1062.485134	0.193465
1062.650240	0.193663
1062.815328	0.192521
1062.980398	0.195877
1063.145449	0.195156
1063.310482	0.196548
1063.475497	0.195286
1063.640494	0.194807
1063.805473	0.195086
1063.970433	0.197381
1064.135375	0.199749
1064.300299	0.199958
1064.465204	0.197246
1064.630092	0.200626
1064.794961	0.200082
1064.959812	0.201934
1065.124645	0.202149
1065.289459	0.199249
1065.454256	0.200627
1065.619034	0.198279
1065.783793	0.198045
1065.948535	0.200111
1066.113258	0.196883
1066.277964	0.197958
1066.442651	0.197814
1066.607319	0.200278
1066.771970	0.201623
1066.936602	0.199793
1067.101216	0.200301
1067.265812	0.200844
1067.430389	0.203127
1067.594949	0.201223
1067.759490	0.201589
1067.924013	0.199450
1068.088518	0.198107
1068.253004	0.200876
1068.417472	0.201353
1068.581922	0.200434
1068.746354	0.201855
1068.910768	0.201046
1069.075163	0.205556
1069.239540	0.204728
1069.403899	0.204947
1069.568240	0.204147
1069.732562	0.201038
1069.896866	0.200832
1070.061152	0.203377
1070.225420	0.200334
1070.389670	0.199137
1070.553901	0.197856
1070.718114	0.199447
1070.882309	0.198132
1071.046486	0.197454
1071.210644	0.197840
1071.374784	0.197136
1071.538906	0.193429
1071.703010	0.197457
1071.867096	0.197604
1072.031163	0.196411
1072.195212	0.196933
1072.359243	0.199887
1072.523256	0.201687
1072.687250	0.202425
1072.851226	0.205091
1073.015184	0.207977
1073.179124	0.207000
1073.343045	0.202474
1073.506949	0.204012
1073.670834	0.204024
1073.834701	0.200189
1073.998549	0.199199
1074.162380	0.200484
1074.326192	0.199418
1074.489986	0.201315
1074.653761	0.198946
1074.817519	0.203356
1074.981258	0.200604
1075.144979	0.200388
1075.308682	0.203148
1075.472367	0.204748
1075.636033	0.203533
1075.799681	0.203736
1075.963311	0.201453
1076.126923	0.202630
1076.290516	0.199204
1076.454092	0.201334
1076.617649	0.199607
1076.781187	0.200781
1076.944708	0.201462
1077.108210	0.201751
1077.271695	0.200735
1077.435160	0.202937
1077.598608	0.202928
1077.762038	0.204836
1077.925449	0.206361
1078.088842	0.205074
1078.252217	0.203943
1078.415573	0.201912
1078.578912	0.202473
1078.742232	0.202614
1078.905534	0.200289
1079.068817	0.203363
1079.232083	0.205510
1079.395330	0.202640
1079.558559	0.203630
1079.721770	0.205565
1079.884962	0.206030
1080.048136	0.206111
1080.211293	0.206893
1080.374430	0.208328
1080.537550	0.205530
1080.700651	0.205157
1080.863735	0.208045
1081.026800	0.212443
1081.189846	0.211707
1081.352875	0.210839
1081.515885	0.209447
1081.678877	0.208195
1081.841851	0.207965
1082.004807	0.209839
1082.167744	0.210069
1082.330663	0.211137
1082.493564	0.207155
1082.656447	0.208571
1082.819312	0.208970
1082.982158	0.210414
1083.144986	0.212865
1083.307796	0.215712
1083.470587	0.215747
1083.633361	0.213738
1083.796116	0.214319
1083.958853	0.214695
1084.121571	0.212685
1084.284272	0.213852
1084.446954	0.212177
1084.609618	0.209236
1084.772264	0.206145
1084.934892	0.206330
1085.097501	0.208204
1085.260092	0.206756
1085.422665	0.206397
1085.585220	0.206806
1085.747756	0.212059
1085.910274	0.212348
1086.072774	0.210974
1086.235256	0.210839
1086.397720	0.215208
1086.560165	0.216925
1086.722592	0.217063
1086.885001	0.218178
1087.047392	0.221420
1087.209764	0.216390
1087.372119	0.219100
1087.534455	0.225253
1087.696772	0.226149
1087.859072	0.218451
1088.021353	0.217981
1088.183616	0.215388
1088.345861	0.217541
1088.508088	0.214919
1088.670296	0.215285
1088.832486	0.213748
1088.994658	0.209660
1089.156812	0.211298
1089.318948	0.213351
1089.481065	0.213534
1089.643164	0.217780
1089.805245	0.214064
1089.967308	0.216116
1090.129352	0.216460
1090.291378	0.216729
1090.453386	0.218368
1090.615376	0.220258
1090.777347	0.222558
1090.939301	0.223511
1091.101236	0.220323
1091.263153	0.227164
1091.425051	0.224819
1091.586932	0.225840
1091.748794	0.225639
1091.910638	0.225583
1092.072463	0.224191
1092.234271	0.222744
1092.396060	0.222843
1092.557831	0.223143
1092.719584	0.221409
1092.881319	0.221571
1093.043035	0.222641
1093.204733	0.223006
1093.366413	0.221925
1093.528075	0.219607
1093.689718	0.220035
1093.851343	0.221493
1094.012950	0.222850
1094.174539	0.221597
1094.336110	0.221146
1094.497662	0.217271
1094.659196	0.219465
1094.820712	0.224188
1094.982210	0.228038
1095.143689	0.227691
1095.305151	0.225321
1095.466594	0.227086
1095.628018	0.225840
1095.789425	0.228338
1095.950813	0.228824
1096.112183	0.226748
1096.273535	0.227338
1096.434869	0.222755
1096.596184	0.225458
1096.757482	0.222489
1096.918761	0.221534
1097.080021	0.222254
1097.241264	0.219284
1097.402488	0.222359
1097.563694	0.217879
1097.724882	0.217688
1097.886052	0.220528
1098.047203	0.219669
1098.208336	0.225046
1098.369451	0.224191
1098.530548	0.219066
1098.691627	0.222052
1098.852687	0.219878
1099.013729	0.226909
1099.174753	0.226536
1099.335758	0.226876
1099.496746	0.223870
1099.657715	0.219616
1099.818666	0.222321
1099.979599	0.225846
1100.140513	0.225444
1100.301409	0.225606
1100.462287	0.223370
1100.623147	0.220997
1100.783989	0.219837
1100.944812	0.221642
1101.105617	0.227003
1101.266404	0.223097
1101.427173	0.223515
1101.587923	0.229127
1101.748656	0.231468
1101.909370	0.229359
1102.070066	0.232480
1102.230743	0.230356
1102.391403	0.230098
1102.552044	0.227045
1102.712667	0.229433
1102.873271	0.235697
1103.033858	0.224524
1103.194426	0.225433
1103.354976	0.228602
1103.515508	0.231408
1103.676021	0.239919
1103.836517	0.242543
1103.996994	0.241471
1104.157453	0.241126
1104.317893	0.234758
1104.478316	0.240152
1104.638720	0.241646
1104.799106	0.245552
1104.959474	0.246447
1105.119823	0.241693
1105.280155	0.242157
1105.440468	0.239950
1105.600763	0.243346
1105.761039	0.243441
1105.921298	0.244535
1106.081538	0.241729
1106.241760	0.235147
1106.401964	0.233892
1106.562149	0.231770
1106.722316	0.236399
1106.882465	0.237679
1107.042596	0.238611
1107.202709	0.236804
1107.362803	0.237498
1107.522879	0.235801
1107.682937	0.243491
1107.842977	0.237262
1108.002999	0.242390
1108.163002	0.238880
1108.322987	0.240594
1108.482954	0.236454
1108.642902	0.240609
1108.802833	0.242220
1108.962745	0.239312
1109.122639	0.235070
1109.282515	0.238471
1109.442372	0.234953
1109.602211	0.226810
1109.762032	0.228412
1109.921835	0.233756
1110.081620	0.237705
1110.241386	0.237652
1110.401134	0.243202
1110.560864	0.246812
1110.720576	0.242487
1110.880269	0.241118
1111.039945	0.245412
1111.199602	0.248257
1111.359240	0.243552
1111.518861	0.242473
1111.678463	0.237787
1111.838047	0.232067
1111.997613	0.233781
1112.157161	0.236390
1112.316690	0.241566
1112.476202	0.241404
1112.635695	0.238008
1112.795169	0.242776
1112.954626	0.238861
1113.114064	0.243351
1113.273484	0.248305
1113.432886	0.240530
1113.592270	0.237145
1113.751635	0.233632
1113.910983	0.233342
1114.070312	0.233355
1114.229622	0.229100
1114.388915	0.228573
1114.548189	0.227365
1114.707445	0.226868
1114.866683	0.229417
1115.025903	0.233077
1115.185104	0.228888
1115.344287	0.230313
1115.503452	0.234185
1115.662599	0.233348
1115.821727	0.236384
1115.980838	0.234861
1116.139930	0.235162
1116.299004	0.236481
1116.458059	0.236593
1116.617097	0.237651
1116.776116	0.234070
1116.935117	0.232641
1117.094099	0.236816
1117.253064	0.235202
1117.412010	0.238487
1117.570938	0.238030
1117.729848	0.238586
1117.888740	0.244929
1118.047613	0.247977
1118.206468	0.250378
1118.365305	0.252614
1118.524124	0.252951
1118.682924	0.250861
1118.841707	0.247731
1119.000471	0.249355
1119.159216	0.250879
1119.317944	0.243603
1119.476653	0.246037
1119.635344	0.241999
1119.794017	0.235851
1119.952672	0.232723
1120.111308	0.236790
1120.269927	0.238022
1120.428527	0.240087
1120.587108	0.239573
1120.745672	0.241740
1120.904217	0.241417
1121.062744	0.249996
1121.221253	0.256045
1121.379744	0.259285
1121.538216	0.259803
1121.696671	0.257496
1121.855107	0.263601
1122.013524	0.265960
1122.171924	0.267227
1122.330305	0.273548
1122.488668	0.268890
1122.647013	0.266917
1122.805340	0.262574
1122.963648	0.263436
1123.121938	0.266481
1123.280210	0.253806
1123.438464	0.249984
1123.596700	0.249165
1123.754917	0.239517
1123.913116	0.242809
1124.071297	0.242260
1124.229459	0.248372
1124.387604	0.250392
1124.545730	0.247439
1124.703838	0.252826
1124.861928	0.255910
1125.019999	0.248456
1125.178052	0.251853
1125.336088	0.253425
1125.494104	0.252485
1125.652103	0.247317
1125.810083	0.240785
1125.968045	0.241675
1126.125989	0.245506
1126.283915	0.244753
1126.441823	0.246109
1126.599712	0.250702
1126.757583	0.246590
1126.915436	0.246906
1127.073270	0.243970
1127.231087	0.246495
1127.388885	0.248253
1127.546665	0.245305
1127.704426	0.246923
1127.862170	0.259962
1128.019895	0.258117
1128.177602	0.263602
1128.335291	0.262234
1128.492961	0.272622
1128.650614	0.272259
1128.808248	0.273273
1128.965864	0.279750
1129.123461	0.285178
1129.281041	0.277311
1129.438602	0.266355
1129.596145	0.264353
1129.753670	0.269946
1129.911176	0.261734
1130.068665	0.259233
1130.226135	0.253102
1130.383587	0.254910
1130.541020	0.242056
1130.698436	0.240289
1130.855833	0.248007
1131.013212	0.250221
1131.170573	0.249939
1131.327915	0.252131
1131.485239	0.262289
1131.642545	0.268224
1131.799833	0.255380
1131.957103	0.259338
1132.114354	0.262690
1132.271588	0.262136
1132.428803	0.258403
1132.585999	0.252954
1132.743178	0.257313
1132.900338	0.249271
1133.057480	0.251456
1133.214604	0.257111
1133.371710	0.257379
1133.528797	0.258937
1133.685866	0.256537
1133.842917	0.255516
1133.999950	0.258817
1134.156964	0.258569
1134.313960	0.257900
1134.470938	0.253071
1134.627898	0.257451
1134.784840	0.256078
1134.941763	0.258242
1135.098668	0.258027
1135.255555	0.262786
1135.412424	0.265419
1135.569274	0.261974
1135.726107	0.272719
1135.882921	0.281164
1136.039716	0.269332
1136.196494	0.275055
1136.353253	0.264807
1136.509995	0.271690
1136.666717	0.270493
1136.823422	0.261970
1136.980109	0.257076
1137.136777	0.255803
1137.293427	0.248821
1137.450059	0.253696
1137.606672	0.248832
1137.763267	0.257571
1137.919844	0.260463
1138.076403	0.265376
1138.232944	0.265877
1138.389466	0.269088
1138.545971	0.259945
1138.702457	0.265159
1138.858924	0.266353
1139.015374	0.265144
1139.171805	0.265191
1139.328218	0.256947
1139.484613	0.252625
1139.640990	0.261537
1139.797348	0.260589
1139.953688	0.263804
1140.110010	0.256399
1140.266314	0.253232
1140.422600	0.264392
1140.578867	0.266715
1140.735116	0.270032
1140.891347	0.275535
1141.047559	0.274378
1141.203754	0.289746
1141.359930	0.292519
1141.516088	0.293201
1141.672228	0.285814
1141.828349	0.275625
1141.984452	0.267251
1142.140537	0.269023
1142.296604	0.264630
1142.452653	0.258856
1142.608683	0.246187
1142.764695	0.237627
1142.920689	0.244469
1143.076665	0.245477
1143.232622	0.242127
1143.388562	0.242533
1143.544483	0.231493
1143.700385	0.228838
1143.856270	0.236622
1144.012136	0.233793
1144.167985	0.243143
1144.323814	0.242897
1144.479626	0.259600
1144.635420	0.262315
1144.791195	0.261457
1144.946952	0.262750
1145.102691	0.269365
1145.258411	0.256153
1145.414113	0.263937
1145.569798	0.255045
1145.725463	0.251948
1145.881111	0.242461
1146.036741	0.241926
1146.192352	0.247612
1146.347945	0.246462
1146.503519	0.246585
1146.659076	0.248062
1146.814614	0.241978
1146.970134	0.252724
1147.125636	0.258091
1147.281120	0.261243
1147.436585	0.263530
1147.592032	0.261698
1147.747461	0.272845
1147.902872	0.269237
1148.058265	0.287910
1148.213639	0.290845
1148.368995	0.282497
1148.524333	0.271716
1148.679653	0.262961
1148.834954	0.261355
1148.990237	0.274253
1149.145502	0.277006
1149.300749	0.273907
1149.455977	0.256477
1149.611188	0.260794
1149.766380	0.256724
1149.921553	0.256249
1150.076709	0.266107
1150.231846	0.272238
1150.386966	0.262713
1150.542066	0.254395
1150.697149	0.244243
1150.852214	0.241233
1151.007260	0.240595
1151.162288	0.248344
1151.317298	0.260843
1151.472289	0.261229
1151.627263	0.261003
1151.782218	0.265405
1151.937155	0.263180
1152.092073	0.274016
1152.246974	0.287792
1152.401856	0.285604
1152.556720	0.282761
1152.711566	0.275266
1152.866393	0.267158
1153.021203	0.265774
1153.175994	0.263860
1153.330767	0.276547
1153.485521	0.268110
1153.640258	0.264168
1153.794976	0.267999
1153.949676	0.270645
1154.104358	0.275251
1154.259021	0.287846
1154.413667	0.285970
1154.568294	0.281099
1154.722903	0.268684
1154.877493	0.276851
1155.032066	0.278126
1155.186620	0.269406
1155.341156	0.267489
1155.495674	0.264834
1155.650173	0.262458
1155.804654	0.270163
1155.959118	0.277642
1156.113562	0.288067
1156.267989	0.283544
1156.422397	0.282019
1156.576788	0.293268
1156.731160	0.296181
1156.885513	0.305260
1157.039849	0.311727
1157.194166	0.297847
1157.348465	0.295998
1157.502746	0.291663
1157.657009	0.297431
1157.811253	0.302989
1157.965479	0.286750
1158.119687	0.299355
1158.273877	0.305446
1158.428048	0.295374
1158.582201	0.287237
1158.736337	0.285207
1158.890453	0.281357
1159.044552	0.280431
1159.198632	0.270485
1159.352694	0.277766
1159.506738	0.266789
1159.660764	0.252167
1159.814771	0.267899
1159.968761	0.285778
1160.122732	0.274793
1160.276685	0.274013
1160.430619	0.263881
1160.584535	0.269628
1160.738434	0.267184
1160.892313	0.265119
1161.046175	0.260792
1161.200019	0.234860
1161.353844	0.222365
1161.507651	0.232234
1161.661440	0.234875
1161.815210	0.254935
1161.968962	0.250695
1162.122697	0.253059
1162.276412	0.250823
1162.430110	0.258496
1162.583789	0.271825
1162.737451	0.276037
1162.891094	0.286310
1163.044718	0.287968
1163.198325	0.289852
1163.351913	0.297908
1163.505483	0.297069
1163.659035	0.299090
1163.812569	0.286744
1163.966084	0.282566
1164.119581	0.289614
1164.273060	0.279095
1164.426521	0.274722
1164.579964	0.260350
1164.733388	0.257737
1164.886794	0.256577
1165.040182	0.254848
1165.193551	0.274175
1165.346903	0.258356
1165.500236	0.260936
1165.653551	0.255804
1165.806848	0.272896
1165.960126	0.280167
1166.113386	0.267239
1166.266628	0.270176
1166.419852	0.275095
1166.573058	0.266344
1166.726245	0.287988
1166.879414	0.287905
1167.032565	0.285846
1167.185698	0.278573
1167.338812	0.273559
1167.491909	0.280334
1167.644987	0.271207
1167.798046	0.263470
1167.951088	0.266234
1168.104111	0.257304
1168.257117	0.257798
1168.410103	0.259540
1168.563072	0.246932
1168.716023	0.234334
1168.868955	0.237701
1169.021869	0.251017
1169.174765	0.245103
1169.327642	0.225475
1169.480501	0.219625
1169.633343	0.213380
1169.786165	0.218693
1169.938970	0.224312
1170.091757	0.242092
1170.244525	0.244932
1170.397275	0.246971
1170.550007	0.249480
1170.702720	0.267234
1170.855415	0.280661
1171.008092	0.286416
1171.160751	0.283683
1171.313392	0.287542
1171.466014	0.267602
1171.618619	0.299000
1171.771205	0.299000
1171.923772	0.299000
