sample name	sample
index	829
start time	 03-31-2021  04:18:07 PM
880	0.396920
Peak Time (s)	92.538
Peak Height 	0.3969
calc peak height	90,93
Baseline Time (s)	11.536
Baseline Value 	-0.003453
subtract baseline	10,4
Abs	0.296927
Peak Time (s)	91.037
Peak Height 	0.2969
calc peak height	90,93
Baseline Time (s)	10.534
Baseline Value 	0.002048
subtract baseline	10,3
PK_550	0.166129
Peak Time (s)	91.037
Peak Height 	0.1661
calc peak height	90,93
Baseline Time (s)	11.536
Baseline Value 	3.7163E-4
subtract baseline	10,2
PK_880	0.282669
Peak Time (s)	90.537
Peak Height 	0.2827
calc peak height	90,93
Baseline Time (s)	11.035
Baseline Value 	9.1035E-4
subtract baseline	10,1


Time (s)	A880-A510	A880-A775	A880-A975	A880	I510	I775	I975	I880	
0.040000	-0.001752	-0.000294	0.000835	0.002579	6622.750758	39194.200167	4045.306398	21456.092862
0.537500	-0.000586	-0.000777	-0.000268	0.003309	6626.243689	39093.789204	4041.389215	21425.348475
1.037500	-0.002446	-0.001262	-0.001546	0.003870	6606.904973	39007.355936	4037.474357	21401.737469
1.538000	-0.001774	-0.000296	-0.002540	0.002284	6624.941035	39218.585486	4038.732976	21468.569644
2.035500	-0.002677	0.000083	-0.003479	0.007009	6580.166503	38859.709776	4026.764810	21270.222288
2.536000	0.000527	0.000657	-0.004742	0.002309	6643.208180	39295.579527	4034.008123	21467.477715
3.036500	-0.000078	-0.000126	0.001065	-0.001502	6669.113377	39548.324092	4054.587908	21629.043509
3.539000	0.000618	-0.000387	0.000770	0.000534	6658.266196	39356.483114	4049.558457	21542.558571
4.037000	-0.002937	0.000223	-0.001394	0.004465	6598.271440	39080.944428	4036.534450	21376.754125
4.539000	0.001418	-0.001357	-0.006643	-0.000535	6673.406625	39364.685455	4036.005592	21587.915770
5.037500	0.000766	0.000447	-0.000746	0.000255	6661.716190	39449.288572	4046.899515	21554.368258
5.535000	0.000926	0.000249	-0.003893	0.000055	6664.626842	39449.419292	4040.598294	21562.853553
6.034500	-0.000067	0.000317	0.001456	0.003265	6630.761301	39188.042780	4045.169135	21427.207819
6.535500	0.000460	-0.000220	0.002429	0.000136	6660.202562	39403.586290	4053.994205	21559.424210
7.035500	0.001880	-0.000158	-0.000240	-0.000148	6674.011533	39432.463476	4048.852366	21571.484857
7.536000	-0.000111	0.000387	-0.005747	0.000629	6651.609889	39413.006201	4035.436247	21538.519646
8.036500	-0.000163	0.000090	-0.002222	0.000415	6652.914421	39406.127117	4043.396754	21547.599995
8.536500	-0.000633	-0.000253	0.001941	-0.000147	6653.659648	39424.362483	4053.550847	21571.427674
9.036500	-0.001487	0.000189	0.001807	-0.000218	6647.346879	39467.325487	4053.416063	21574.465908
9.537000	0.000991	0.000372	-0.003578	0.000208	6663.922821	39447.021160	4040.944584	21556.399754
10.037500	0.002796	-0.000675	-0.004037	-0.000302	6682.712856	39402.102759	4041.050517	21578.005255
10.534500	0.001346	0.000924	0.000000	0.000747	6662.429599	39448.050129	4047.446638	21533.557728
11.035000	0.000000	-0.000031	-0.003448	0.000098	6656.790069	39422.440796	4041.454507	21561.032803
11.535500	-0.001485	0.000000	0.002176	0.000000	6645.607059	39433.271892	4053.742815	21565.203301
12.035500	-0.000134	-0.000957	-0.003800	-0.000603	6661.382782	39403.777710	4042.199967	21590.819904
12.536000	0.001010	0.000126	0.000324	-0.000305	6668.226149	39469.269660	4050.405805	21578.155778
13.036000	-0.000453	0.000436	-0.002588	0.000170	6652.556901	39455.554669	4043.138152	21558.008346
13.539000	-0.001512	-0.000139	0.003646	0.000719	6639.600127	39361.647769	4055.366504	21534.704312
14.036500	-0.001782	0.000231	0.001233	0.002346	6624.380891	39257.128366	4046.659091	21465.930040
14.537000	-0.002473	-0.000243	-0.004506	0.002344	6618.868242	39217.973452	4034.434491	21466.015406
15.042500	0.001179	0.000386	-0.002160	0.001026	6658.824215	39379.847613	4042.223567	21521.721452
15.534500	-0.001761	-0.000623	0.000449	-0.000003	6643.407098	39381.507915	4050.023074	21565.324976
16.035000	-0.000396	-0.000443	-0.004631	0.001544	6641.945942	39267.788183	4035.865472	21499.828440
16.535500	0.001634	0.000455	0.002251	0.000940	6663.191132	39392.771308	4051.873141	21525.345807
17.036000	0.002792	0.000525	-0.001487	-0.003110	6705.610560	39737.983260	4052.547456	21697.634196
17.536500	-0.000709	-0.001305	-0.004733	0.000002	6651.841615	39324.303287	4038.922310	21565.123648
18.036500	0.000855	0.000611	0.001943	0.001836	6649.663888	39331.171494	4049.280094	21487.464909
18.539500	-0.000953	0.000090	0.003022	0.001563	6637.307526	39310.494307	4052.194781	21499.015452
19.039500	0.001744	0.000221	0.000100	0.001586	6658.865175	39319.521966	4045.861249	21498.045144
19.537500	-0.002573	-0.000678	-0.003265	0.000953	6629.203996	39297.378368	4040.023079	21524.826975
20.034500	-0.000631	-0.000152	-0.001658	0.001299	6642.024995	39312.391019	4042.712679	21510.178554
20.535000	-0.000346	-0.000159	-0.006032	0.000985	6646.845630	39337.919565	4034.079199	21523.451903
21.035500	-0.001954	0.000621	-0.000460	0.001512	6629.687458	39359.020480	4044.820522	21501.181950
21.535500	-0.002698	0.000164	-0.001500	0.001314	6625.307794	39337.390295	4043.018843	21509.535221
22.036000	0.000102	-0.000817	-0.001414	0.000507	6654.308579	39322.872674	4044.928487	21543.693996
22.536000	-0.000491	0.000917	0.000685	0.001861	6638.626830	39354.597810	4046.525804	21486.430797
23.039500	-0.001502	-0.000592	-0.004122	0.000597	6640.663595	39334.131232	4038.956049	21539.894816
23.536500	0.001839	0.000497	0.004841	0.001385	6661.251998	39359.211991	4056.512424	21506.526315
24.037000	0.001138	-0.000034	0.001786	0.001592	6653.917659	39297.814254	4049.469049	21497.796494
24.537000	-0.001318	-0.000256	-0.006602	0.000944	6639.351800	39333.219763	4032.960924	21525.193238
25.037500	-0.002218	-0.001090	-0.001218	0.000228	6637.867373	39323.433621	4045.945631	21555.529583
25.535000	0.000070	-0.000161	0.003951	0.001193	6648.525962	39320.448358	4055.002639	21514.667213
26.035500	0.000457	-0.000351	-0.001506	0.000566	6656.707853	39356.812230	4044.605866	21541.206839
26.535500	-0.002088	-0.000674	-0.004305	0.000615	6635.812377	39325.859255	4038.530869	21539.146649
27.036000	0.003068	0.000355	-0.001128	-0.000658	6687.828211	39517.935726	4048.039428	21593.139062
27.537000	0.000727	0.000245	-0.002641	-0.000824	6670.140677	39522.557873	4045.151250	21600.183610
28.037000	-0.000319	0.000462	-0.002219	0.002309	6636.411207	39279.474187	4039.364015	21467.513573
28.537000	0.000983	-0.000068	0.002561	0.000404	6662.265316	39393.951889	4053.700968	21548.080173
29.037000	-0.001174	-0.000952	0.002232	-0.000342	6650.872221	39382.378661	4054.603228	21579.734859
29.537500	-0.000452	-0.000405	0.000624	0.000227	6652.095920	39380.526079	4049.904747	21555.564777
30.035000	-0.000553	0.000442	-0.002947	0.001997	6637.038349	39303.727925	4038.479107	21480.676162
30.535000	0.000539	-0.000705	-0.006767	0.001468	6650.086973	39252.323589	4031.505603	21503.021108
31.036000	-0.002160	-0.000118	-0.002113	0.001865	6625.202653	39268.123800	4040.533605	21486.239909
31.535500	0.000656	0.000224	-0.003712	0.000461	6659.163058	39413.480521	4040.120079	21545.666895
32.036000	0.000261	0.000182	0.002648	0.002041	6643.228684	39278.391201	4050.355833	21478.797747
32.536500	-0.000312	0.000395	0.002257	0.000810	6648.533077	39398.686188	4052.168633	21530.877575
33.039000	0.000278	0.000300	0.005730	0.000634	6654.705971	39405.345946	4060.075141	21538.309808
33.537500	0.002719	-0.000313	-0.002107	-0.001965	6695.648729	39571.410433	4048.745675	21648.761179
34.037000	0.000063	0.000121	-0.002590	0.002355	6639.109600	39247.310601	4038.475647	21465.567237
34.535000	-0.000082	0.000169	-0.001619	0.001805	6642.365963	39296.980898	4041.716415	21488.788847
35.035000	0.000388	0.000088	0.001577	0.001854	6645.760472	39286.211235	4048.456415	21486.724898
35.535000	-0.002716	-0.000627	-0.001597	0.001689	6622.167837	39240.493682	4042.011166	21493.685974
36.036500	0.000182	0.000079	0.002156	0.001956	6643.276264	39276.919389	4049.481288	21482.392627
36.536000	0.000343	-0.000998	-0.002199	0.001408	6648.989611	39233.028638	4041.326265	21505.578111
37.039000	-0.000919	-0.000366	-0.003623	0.001551	6637.680362	39273.581591	4037.988945	21499.522010
37.536500	-0.002299	-0.000653	-0.000788	0.001253	6628.994504	39274.529461	4044.671761	21512.122393
38.036500	-0.000911	-0.000417	-0.002959	0.001744	6636.197170	39253.389765	4038.991665	21491.373077
38.537000	-0.001284	-0.000826	-0.001676	0.001584	6634.478447	39232.616410	4042.065183	21498.109813
39.035000	0.000081	-0.000059	-0.002320	0.002063	6641.599589	39256.542039	4039.670782	21477.871325
39.535000	-0.002419	-0.000470	0.001295	0.001444	6626.501996	39273.886958	4048.730716	21504.051011
40.035000	0.000181	0.000166	-0.002230	0.002216	6641.179617	39262.592071	4039.537719	21471.443517
40.535500	-0.000266	0.000007	0.001385	0.001799	6640.934106	39283.997547	4048.162421	21489.049167
41.035500	-0.001762	0.000077	0.003606	0.001719	6629.564579	39296.483781	4053.118919	21492.419853
41.538500	-0.000084	-0.000551	-0.001135	0.001391	6645.688583	39271.512246	4043.634563	21506.291114
42.036500	-0.002524	-0.000502	-0.003993	0.001015	6629.103005	39306.868225	4038.342069	21522.201661
42.537000	0.000638	-0.000810	-0.001532	0.001191	6653.121343	39266.640470	4043.213961	21514.748761
43.037000	-0.001105	-0.000071	0.000703	0.001289	6638.288036	39319.943203	4047.791860	21510.589994
43.537500	0.000626	0.000500	-0.000760	0.001482	6650.672710	39351.426217	4044.241555	21502.441426
44.038000	0.003177	0.000699	0.001558	-0.002766	6705.947081	39723.676835	4058.396747	21682.930486
44.535500	0.001682	-0.000161	0.002831	0.000313	6668.664254	39393.665583	4054.480546	21551.909468
45.035500	0.001497	-0.000000	-0.002660	0.000347	6666.890441	39404.283964	4042.604938	21550.475044
45.535500	0.002194	-0.000075	0.006773	0.000149	6674.145578	39414.524028	4063.405386	21558.866816
46.038500	0.000703	0.000088	-0.002543	0.000756	6657.155395	39377.552571	4041.982092	21533.139246
46.536000	-0.000090	-0.000769	0.001045	-0.000156	6658.117131	39382.151261	4051.636848	21571.817040
47.036500	0.001550	-0.000256	-0.002673	0.000318	6667.550390	39385.361892	4042.640019	21551.697279
47.536500	-0.000481	0.000271	-0.002244	0.001812	6639.103523	39304.926854	4040.369369	21488.501519
48.037000	0.000551	-0.000294	0.007304	0.000708	6656.316143	39349.668923	4063.345206	21535.182443
48.535000	-0.002410	-0.001145	-0.001103	-0.000303	6640.599216	39363.085505	4047.332579	21578.077508
49.037500	0.000562	-0.000017	-0.004525	0.000442	6658.558546	39394.956559	4038.429601	21546.470077
49.535000	0.003430	0.000503	-0.001630	-0.001079	6694.211289	39565.548617	4047.865277	21611.033393
50.035000	-0.000731	-0.000091	-0.003678	-0.000984	6659.631055	39507.943901	4043.275793	21607.019978
50.536000	0.001294	0.000443	0.000409	0.015606	6543.801932	38189.362669	4016.933337	20914.852696
51.036000	-0.050112	-0.010322	-0.007762	0.044530	5970.299945	35131.687455	3943.091688	19769.541307
51.536500	-0.031840	-0.007088	-0.005051	-0.095852	7214.994260	47654.724607	4266.254858	26115.672535
52.036500	-0.069713	-0.029146	-0.016220	-0.142603	7298.999004	50256.799178	4364.549304	28727.077811
52.536500	-0.027086	-0.118037	-0.007902	-0.353556	10591.031098	65535.000000	5185.254297	44729.058414
53.037000	-0.031509	-0.135330	-0.005310	-0.370850	10814.929302	65535.000000	5282.252409	46418.594778
53.535000	-0.015632	-0.119570	-0.004754	-0.355089	10816.980742	65535.000000	5207.689709	44876.130244
54.035000	-0.010516	-0.069647	0.003527	-0.302794	10027.485853	65195.231226	5005.994662	40141.199771
54.535500	0.012020	-0.036028	0.016358	-0.258099	9685.253615	63633.601135	4872.222085	36522.568859
55.035500	0.026012	-0.018785	0.028969	-0.232062	9506.421057	62421.787932	4818.727387	34579.956167
55.536000	0.038836	-0.005630	0.036305	-0.210456	9379.134608	61280.199732	4763.657990	33054.066357
56.036000	0.056884	0.014975	0.057209	-0.153185	8841.007196	56576.135689	4631.222097	29358.174404
56.536500	0.073854	0.030830	0.074581	-0.086524	8225.466967	50681.128935	4468.552473	25627.424780
57.037000	0.091087	0.042277	0.091927	-0.031390	7801.118475	46135.201258	4355.756700	22946.315923
57.537000	0.109340	0.054032	0.113705	0.029340	7367.524031	41554.237288	4249.318918	20361.489919
58.037500	0.134029	0.070558	0.133762	0.069801	7217.020253	39496.462556	4197.257008	18829.446759
58.535000	0.146520	0.078056	0.145146	0.124163	6843.000001	35781.597135	4095.286251	16983.397513
59.035000	0.160605	0.085817	0.163924	0.162845	6639.526459	33541.037997	4051.374114	15803.631048
59.535500	0.176448	0.096842	0.181117	0.187167	6572.018654	32625.565802	4036.129566	15113.894075
60.038500	0.190658	0.104944	0.193134	0.216749	6452.925262	31204.540334	3999.617456	14325.379326
60.535000	0.197810	0.111685	0.205448	0.248574	6270.381635	29631.739668	3960.754978	13534.973742
61.036000	0.207160	0.118297	0.213296	0.282068	6101.510463	28043.975423	3912.256680	12763.355886
61.539500	0.218994	0.125193	0.222069	0.298916	6067.604654	27480.669027	3897.570666	12397.145057
62.039500	0.226941	0.130369	0.231218	0.294717	6150.421076	28010.960263	3921.995507	12487.090798
62.539500	0.235006	0.132767	0.231478	0.288404	6251.502863	28514.119267	3934.303284	12623.979703
63.035000	0.243441	0.137690	0.239536	0.294447	6268.643644	28448.888592	3938.113552	12492.921657
63.534500	0.246381	0.139936	0.246802	0.298141	6263.230404	28364.749450	3944.910874	12413.684349
64.036500	0.250478	0.142087	0.241081	0.302892	6258.540949	28214.409716	3925.140343	12312.785562
64.538000	0.251816	0.142909	0.252034	0.309152	6223.477550	27902.864015	3933.940917	12181.494722
65.036000	0.254409	0.144999	0.251936	0.315169	6199.328081	27680.331905	3922.491918	12057.091742
65.536000	0.257734	0.147480	0.254982	0.321936	6175.237953	27439.757899	3915.603759	11919.216010
66.037000	0.256104	0.148200	0.254667	0.326587	6131.766421	27221.143523	3906.500103	11825.689173
66.537000	0.258275	0.147564	0.259624	0.330690	6118.520657	26960.203429	3908.056692	11744.001316
67.037500	0.262279	0.149843	0.267569	0.336925	6103.296184	26744.556134	3911.187308	11621.350324
67.537500	0.263159	0.150714	0.268336	0.342821	6069.362360	26473.475896	3901.839922	11506.982934
68.035000	0.265412	0.152623	0.268798	0.345895	6063.838791	26411.046187	3897.121748	11447.956350
68.535500	0.267450	0.153153	0.272522	0.348929	6057.161387	26277.507197	3898.364737	11390.116777
69.035500	0.268567	0.154871	0.273766	0.353574	6033.617321	26122.354941	3892.253900	11302.338197
69.536000	0.266238	0.155349	0.268748	0.357409	5992.953276	25945.730558	3876.571554	11230.576649
70.036000	0.271849	0.156578	0.271165	0.358713	6021.305328	25941.775470	3878.525902	11206.316803
70.536000	0.274221	0.158095	0.272278	0.360545	6024.875681	25925.226480	3877.261654	11172.345815
71.036500	0.275370	0.157667	0.272611	0.361783	6024.289351	25838.147650	3875.674854	11149.484420
71.536500	0.274215	0.157405	0.278887	0.363826	6003.184482	25718.233599	3883.125214	11111.891246
72.034500	0.275072	0.158801	0.274520	0.365593	5997.212630	25698.999165	3872.353388	11079.527407
72.534000	0.277424	0.159694	0.272720	0.367389	6000.860852	25652.209358	3866.107097	11046.747554
73.035000	0.276064	0.160383	0.281758	0.368990	5981.472283	25605.054600	3879.079032	11017.647916
73.534500	0.275994	0.160014	0.279628	0.372644	5957.280275	25398.307009	3868.972122	10951.651443
74.035500	0.278883	0.160266	0.280521	0.370568	5989.581841	25517.657732	3874.142742	10989.070959
74.536000	0.281633	0.163006	0.284604	0.374302	5983.149206	25466.621440	3874.753728	10921.877876
75.036000	0.279623	0.162446	0.286865	0.374737	5967.228271	25415.608183	3877.954370	10914.082993
75.536500	0.283042	0.164013	0.279438	0.377416	5972.038431	25358.775389	3860.407084	10866.275640
76.037000	0.280892	0.163049	0.285380	0.378911	5948.432012	25233.518063	3868.077144	10839.716852
76.536500	0.280491	0.164495	0.284933	0.380760	5933.963833	25213.126669	3864.108560	10807.011389
77.034500	0.279099	0.162701	0.282538	0.380515	5926.612004	25134.641498	3860.407686	10811.329492
77.535000	0.280331	0.163102	0.281765	0.382939	5918.994950	25032.606487	3854.941867	10768.632899
78.035500	0.282662	0.164609	0.284657	0.385277	5918.949148	24990.781657	3855.884854	10727.659745
78.538000	0.282306	0.164006	0.282130	0.384738	5920.120820	24987.606988	3852.501712	10737.088218
79.038500	0.281102	0.165368	0.290490	0.386421	5901.743890	24971.484637	3863.927868	10707.695021
79.535500	0.281842	0.163751	0.284661	0.385882	5909.874545	24917.494467	3854.860945	10717.109296
80.036500	0.282432	0.164903	0.283538	0.386846	5907.494787	24926.906540	3851.314995	10700.307491
80.536500	0.280423	0.164127	0.287162	0.386905	5894.384205	24885.102748	3857.382848	10699.279214
81.037000	0.282017	0.166095	0.288989	0.388631	5893.545200	24897.184628	3857.555347	10669.277877
81.537000	0.283965	0.164355	0.294215	0.388174	5908.799269	24833.155390	3867.336934	10677.212788
82.035000	0.282909	0.165379	0.288165	0.389586	5893.150574	24813.819625	3854.520594	10652.749086
82.535000	0.283101	0.166751	0.286607	0.391144	5884.529639	24804.506430	3849.232318	10625.836157
83.038000	0.285045	0.165644	0.292779	0.389747	5905.661289	24818.972213	3862.141440	10649.954477
83.535500	0.284004	0.163752	0.285363	0.389170	5902.718225	24753.553488	3850.468542	10659.943530
84.035500	0.284248	0.165013	0.291428	0.390312	5897.030225	24759.472104	3858.851992	10640.195447
84.536000	0.284657	0.166233	0.286943	0.392107	5888.263387	24730.877031	3848.173774	10609.248977
85.036500	0.280790	0.165636	0.280071	0.390549	5873.737351	24778.645123	3839.257265	10636.100240
85.536500	0.281932	0.165674	0.289029	0.396957	5840.876926	24464.164531	3843.522992	10526.296082
86.034500	0.282435	0.164718	0.289692	0.391577	5877.606181	24682.087002	3853.729449	10618.371471
86.534500	0.281916	0.165628	0.292351	0.391647	5873.911269	24723.733285	3858.147019	10617.172034
87.034500	0.282366	0.165616	0.288690	0.392071	5874.073230	24702.093816	3851.190195	10609.872818
87.537500	0.279081	0.165762	0.283737	0.398220	5815.488492	24406.673982	3832.610065	10504.854370
88.035500	0.286653	0.167055	0.292837	0.394502	5885.751461	24653.027058	3854.106018	10568.181429
88.535500	0.283268	0.167343	0.292281	0.394836	5862.405473	24650.727127	3852.592325	10562.467946
89.035500	0.283830	0.164962	0.293286	0.393388	5874.998848	24604.653779	3856.769918	10587.258653
89.536500	0.282317	0.165782	0.286161	0.393666	5863.771123	24631.383451	3844.231873	10582.488348
90.036500	0.281454	0.164717	0.288171	0.393321	5860.538279	24595.907354	3848.198270	10588.413631
90.536500	0.282669	0.165214	0.289830	0.394054	5863.553281	24584.251728	3849.763276	10575.850849
91.036500	0.280231	0.166129	0.296927	0.394998	5842.484826	24582.824649	3860.247271	10559.701580
91.537500	0.282244	0.165450	0.290754	0.395873	5849.555323	24506.343912	3848.250478	10544.763663
92.034500	0.279094	0.164440	0.293214	0.394695	5837.314280	24514.618507	3854.417518	10564.878367
92.538000	0.280851	0.165884	0.296619	0.396920	5834.417512	24476.271259	3856.429567	10526.930693
93.035500	0.280142	0.165493	0.290413	0.396054	5835.379841	24499.555466	3847.368049	10541.666320
93.538500	0.282479	0.165499	0.288789	0.396831	5845.054164	24461.760248	3843.331179	10528.434573
94.036000	0.279021	0.164936	0.290890	0.396428	5826.151775	24453.931224	3847.542958	10535.309863
94.536500	0.279977	0.164939	0.290693	0.397400	5826.051624	24406.515173	3845.572911	10518.767080
95.036000	0.280175	0.165703	0.289330	0.397860	5824.436807	24421.404336	3842.514489	10510.961428
95.537000	0.277587	0.164302	0.285316	0.397104	5813.166591	24389.850881	3837.075712	10523.798607
96.037000	0.278998	0.165076	0.291076	0.398304	5814.458573	24369.028655	3844.697539	10503.416005
