sample name	sample
index	457
start time	 03-11-2021  11:32:28 AM


Wavelength (nm)	Absorbance
494.344910	-0.032166
494.563924	-0.032166
494.782919	-0.032166
495.001897	0.495346
495.220856	0.023886
495.439797	-0.001029
495.658719	0.008798
495.877624	-0.008401
496.096510	-0.043523
496.315378	-0.074311
496.534227	-0.054646
496.753059	-0.043693
496.971872	-0.022738
497.190667	0.113108
497.409444	0.141762
497.628203	0.147164
497.846943	0.151396
498.065665	0.154832
498.284369	0.157144
498.503055	0.157402
498.721723	0.157957
498.940372	0.160023
499.159003	0.161922
499.377616	0.162094
499.596210	0.163122
499.814787	0.162923
500.033345	0.162162
500.251885	0.160056
500.470406	0.160171
500.688910	0.160191
500.907395	0.158933
501.125862	0.157930
501.344311	0.158485
501.562742	0.158021
501.781154	0.158571
501.999548	0.159317
502.217924	0.160964
502.436282	0.160717
502.654621	0.160886
502.872942	0.161191
503.091245	0.161151
503.309530	0.161655
503.527797	0.160013
503.746045	0.160768
503.964275	0.160486
504.182487	0.162298
504.400681	0.162453
504.618856	0.162324
504.837013	0.162901
505.055152	0.164093
505.273273	0.163197
505.491376	0.164865
505.709460	0.164315
505.927526	0.164557
506.145574	0.163422
506.363604	0.163540
506.581615	0.163299
506.799608	0.163122
507.017583	0.162218
507.235540	0.163313
507.453478	0.162867
507.671399	0.163327
507.889301	0.163278
508.107185	0.162956
508.325050	0.163813
508.542898	0.164910
508.760727	0.164719
508.978538	0.164909
509.196330	0.165214
509.414105	0.166124
509.631861	0.166404
509.849599	0.167473
510.067319	0.167816
510.285021	0.167340
510.502704	0.167395
510.720369	0.167528
510.938016	0.168516
511.155645	0.168237
511.373255	0.168811
511.590848	0.168964
511.808422	0.168696
512.025977	0.168378
512.243515	0.168470
512.461034	0.168786
512.678536	0.168984
512.896018	0.169027
513.113483	0.169045
513.330930	0.168912
513.548358	0.168959
513.765768	0.168692
513.983160	0.169415
514.200533	0.169937
514.417889	0.170697
514.635226	0.171810
514.852545	0.171510
515.069845	0.171192
515.287128	0.171125
515.504392	0.171568
515.721638	0.172675
515.938866	0.172942
516.156075	0.173574
516.373267	0.172918
516.590440	0.171980
516.807594	0.172450
517.024731	0.173242
517.241850	0.173327
517.458950	0.172972
517.676032	0.171970
517.893095	0.172035
518.110141	0.172195
518.327168	0.173083
518.544177	0.173677
518.761168	0.174607
518.978141	0.174798
519.195095	0.175234
519.412031	0.175930
519.628949	0.177108
519.845849	0.177541
520.062731	0.177104
520.279594	0.176310
520.496439	0.176903
520.713266	0.176658
520.930074	0.177105
521.146865	0.177572
521.363637	0.177538
521.580391	0.176843
521.797127	0.176642
522.013844	0.177466
522.230543	0.178295
522.447224	0.177867
522.663887	0.178113
522.880532	0.178493
523.097158	0.178748
523.313766	0.178999
523.530356	0.179704
523.746928	0.179864
523.963481	0.179736
524.180017	0.179831
524.396534	0.180853
524.613032	0.181099
524.829513	0.181619
525.045975	0.181797
525.262420	0.182660
525.478845	0.183119
525.695253	0.183869
525.911643	0.184182
526.128014	0.185209
526.344367	0.185133
526.560702	0.185315
526.777018	0.185080
526.993316	0.185531
527.209597	0.185339
527.425858	0.185173
527.642102	0.185571
527.858328	0.185667
528.074535	0.185827
528.290724	0.186128
528.506894	0.187191
528.723047	0.187355
528.939181	0.187878
529.155297	0.188638
529.371395	0.189399
529.587475	0.190099
529.803536	0.190629
530.019579	0.190513
530.235604	0.190589
530.451611	0.190188
530.667600	0.190267
530.883570	0.189938
531.099522	0.189120
531.315456	0.189132
531.531372	0.189443
531.747269	0.189847
531.963148	0.189560
532.179009	0.190272
532.394852	0.190505
532.610676	0.191454
532.826482	0.192202
533.042271	0.193273
533.258040	0.193702
533.473792	0.193982
533.689525	0.194378
533.905240	0.194996
534.120937	0.195189
534.336616	0.195237
534.552277	0.195478
534.767919	0.196146
534.983543	0.195791
535.199149	0.196490
535.414736	0.196366
535.630306	0.196151
535.845857	0.196407
536.061390	0.196287
536.276904	0.196520
536.492401	0.196849
536.707879	0.196530
536.923339	0.197137
537.138781	0.196818
537.354204	0.197168
537.569610	0.197357
537.784997	0.197971
538.000366	0.198948
538.215716	0.199408
538.431049	0.199381
538.646363	0.200104
538.861659	0.200120
539.076937	0.200659
539.292196	0.200328
539.507438	0.201174
539.722661	0.201470
539.937866	0.201389
540.153052	0.202345
540.368221	0.202908
540.583371	0.202427
540.798503	0.203012
541.013617	0.203151
541.228712	0.203751
541.443789	0.203949
541.658848	0.204181
541.873889	0.204589
542.088912	0.204347
542.303916	0.204744
542.518902	0.205105
542.733870	0.205738
542.948820	0.206267
543.163752	0.207036
543.378665	0.207660
543.593560	0.207896
543.808437	0.208008
544.023295	0.208659
544.238136	0.208699
544.452958	0.209716
544.667762	0.209852
544.882548	0.210415
545.097315	0.209978
545.312064	0.210246
545.526795	0.210351
545.741508	0.210264
545.956203	0.210110
546.170879	0.210497
546.385537	0.210319
546.600177	0.210355
546.814799	0.210297
547.029402	0.211027
547.243988	0.210766
547.458555	0.210880
547.673103	0.211855
547.887634	0.212306
548.102146	0.212366
548.316640	0.212556
548.531116	0.212920
548.745574	0.212741
548.960013	0.212665
549.174435	0.213376
549.388838	0.213695
549.603222	0.213730
549.817589	0.213803
550.031937	0.214120
550.246267	0.214299
550.460579	0.214162
550.674873	0.214746
550.889148	0.215221
551.103405	0.214793
551.317644	0.214923
551.531865	0.214827
551.746068	0.215033
551.960252	0.215389
552.174418	0.215817
552.388566	0.216831
552.602696	0.216848
552.816807	0.216777
553.030900	0.217351
553.244975	0.217712
553.459032	0.218028
553.673070	0.218367
553.887091	0.218038
554.101093	0.217954
554.315077	0.217566
554.529042	0.217639
554.742990	0.217881
554.956919	0.218103
555.170830	0.218286
555.384722	0.218659
555.598597	0.218873
555.812453	0.219280
556.026291	0.219952
556.240111	0.220251
556.453913	0.220723
556.667696	0.221448
556.881461	0.221997
557.095208	0.222104
557.308937	0.222191
557.522647	0.222342
557.736339	0.223132
557.950013	0.223337
558.163669	0.223742
558.377307	0.224112
558.590926	0.223576
558.804527	0.223633
559.018110	0.224042
559.231675	0.224458
559.445221	0.224679
559.658749	0.224565
559.872259	0.224875
560.085751	0.225168
560.299225	0.224990
560.512680	0.225517
560.726117	0.225625
560.939536	0.225546
561.152937	0.225288
561.366319	0.225349
561.579683	0.225314
561.793029	0.225144
562.006357	0.225562
562.219667	0.225851
562.432958	0.226153
562.646231	0.226560
562.859486	0.227070
563.072723	0.227843
563.285941	0.227675
563.499141	0.227902
563.712323	0.227431
563.925487	0.227106
564.138632	0.227637
564.351760	0.227628
564.564869	0.227027
564.777960	0.226732
564.991032	0.226699
565.204087	0.227155
565.417123	0.226978
565.630141	0.227819
565.843140	0.228088
566.056122	0.227748
566.269085	0.228221
566.482030	0.228402
566.694957	0.228973
566.907866	0.229010
567.120756	0.228793
567.333628	0.229549
567.546482	0.229359
567.759318	0.229198
567.972135	0.229957
568.184935	0.229628
568.397716	0.230001
568.610478	0.230347
568.823223	0.230526
569.035949	0.231232
569.248657	0.230886
569.461347	0.230972
569.674019	0.231297
569.886672	0.231164
570.099308	0.231797
570.311925	0.231692
570.524523	0.231943
570.737104	0.232111
570.949666	0.232219
571.162210	0.232645
571.374736	0.233199
571.587244	0.233347
571.799733	0.233558
572.012205	0.233191
572.224658	0.233783
572.437092	0.233756
572.649509	0.233719
572.861907	0.233881
573.074287	0.233822
573.286649	0.234212
573.498993	0.234735
573.711318	0.234850
573.923625	0.235360
574.135914	0.235391
574.348185	0.235300
574.560438	0.235773
574.772672	0.235598
574.984888	0.236004
575.197086	0.236193
575.409266	0.236458
575.621427	0.236564
575.833570	0.236741
576.045695	0.236789
576.257802	0.236881
576.469890	0.236818
576.681961	0.237308
576.894013	0.237479
577.106046	0.237432
577.318062	0.237181
577.530059	0.237061
577.742039	0.237343
577.954000	0.237912
578.165942	0.238105
578.377867	0.238540
578.589773	0.238768
578.801661	0.238881
579.013531	0.238930
579.225382	0.239113
579.437216	0.239454
579.649031	0.239489
579.860828	0.239578
580.072606	0.240708
580.284367	0.240673
580.496109	0.240645
580.707833	0.240803
580.919539	0.240884
581.131227	0.240948
581.342896	0.241248
581.554547	0.241843
581.766180	0.241918
581.977795	0.241205
582.189391	0.241530
582.400969	0.241590
582.612529	0.241753
582.824071	0.242359
583.035595	0.242516
583.247100	0.242817
583.458587	0.242569
583.670056	0.242945
583.881506	0.243398
584.092939	0.243816
584.304353	0.244018
584.515749	0.244494
584.727127	0.244248
584.938486	0.244454
585.149828	0.244358
585.361151	0.244255
585.572456	0.244006
585.783742	0.243813
585.995011	0.243421
586.206261	0.243817
586.417493	0.243588
586.628706	0.243717
586.839902	0.244202
587.051079	0.244601
587.262238	0.245041
587.473379	0.245254
587.684502	0.245701
587.895606	0.246289
588.106692	0.246466
588.317760	0.246380
588.528810	0.246689
588.739841	0.246587
588.950855	0.246985
589.161850	0.247265
589.372827	0.247555
589.583785	0.247835
589.794726	0.248220
590.005648	0.248225
590.216552	0.248971
590.427437	0.249222
590.638305	0.249564
590.849154	0.249706
591.059985	0.249580
591.270798	0.249998
591.481592	0.249886
591.692369	0.249646
591.903127	0.249824
592.113867	0.249842
592.324588	0.249960
592.535292	0.249894
592.745977	0.249833
592.956644	0.250537
593.167293	0.249907
593.377923	0.250178
593.588536	0.250392
593.799130	0.250766
594.009706	0.250701
594.220263	0.250794
594.430803	0.251046
594.641324	0.251325
594.851827	0.251450
595.062312	0.252236
595.272778	0.252547
595.483227	0.252660
595.693657	0.253035
595.904069	0.253291
596.114462	0.253575
596.324838	0.253798
596.535195	0.253940
596.745534	0.253994
596.955855	0.254168
597.166157	0.254243
597.376441	0.254529
597.586707	0.254133
597.796955	0.254519
598.007185	0.254445
598.217396	0.254873
598.427589	0.255081
598.637764	0.255348
598.847921	0.255518
599.058060	0.255475
599.268180	0.255563
599.478282	0.255913
599.688366	0.256213
599.898431	0.256498
600.108479	0.256610
600.318508	0.256351
600.528519	0.256164
600.738511	0.256137
600.948486	0.256669
601.158442	0.256738
601.368380	0.257090
601.578300	0.257092
601.788202	0.257117
601.998085	0.257023
602.207950	0.257339
602.417797	0.257740
602.627626	0.258079
602.837436	0.258099
603.047228	0.258230
603.257002	0.258478
603.466758	0.258483
603.676496	0.258833
603.886215	0.259200
604.095916	0.259669
604.305599	0.259507
604.515264	0.259272
604.724910	0.259253
604.934538	0.259572
605.144148	0.259273
605.353740	0.259364
605.563314	0.259579
605.772869	0.259135
605.982406	0.258947
606.191925	0.259263
606.401425	0.259595
606.610908	0.260040
606.820372	0.260004
607.029818	0.260320
607.239246	0.260554
607.448655	0.260641
607.658047	0.261074
607.867420	0.261043
608.076775	0.261305
608.286111	0.261890
608.495430	0.262011
608.704730	0.262387
608.914012	0.262599
609.123275	0.262923
609.332521	0.263104
609.541748	0.263101
609.750957	0.263484
609.960148	0.263316
610.169321	0.263129
610.378475	0.263208
610.587611	0.263391
610.796729	0.263627
611.005829	0.263607
611.214910	0.263702
611.423974	0.264160
611.633019	0.264218
611.842045	0.264500
612.051054	0.264790
612.260044	0.264831
612.469017	0.264948
612.677970	0.264985
612.886906	0.265161
613.095824	0.265443
613.304723	0.265784
613.513604	0.266222
613.722467	0.266347
613.931311	0.266173
614.140138	0.266232
614.348946	0.266075
614.557736	0.266102
614.766507	0.266199
614.975261	0.266207
615.183996	0.265831
615.392713	0.265628
615.601412	0.265641
615.810092	0.265774
616.018754	0.266122
616.227399	0.266733
616.436024	0.267035
616.644632	0.267385
616.853222	0.267856
617.061793	0.268474
617.270346	0.268771
617.478880	0.269200
617.687397	0.269469
617.895895	0.269428
618.104375	0.269308
618.312837	0.269615
618.521281	0.269646
618.729706	0.269543
618.938113	0.269483
619.146502	0.269781
619.354873	0.269835
619.563226	0.269957
619.771560	0.270126
619.979876	0.270251
620.188174	0.270359
620.396453	0.270532
620.604715	0.270613
620.812958	0.270977
621.021183	0.270967
621.229390	0.270907
621.437578	0.271382
621.645748	0.271595
621.853900	0.271738
622.062034	0.271636
622.270150	0.271827
622.478247	0.272380
622.686326	0.272277
622.894387	0.272428
623.102430	0.272609
623.310454	0.272524
623.518461	0.272830
623.726449	0.272832
623.934418	0.273463
624.142370	0.273424
624.350303	0.273124
624.558218	0.273495
624.766115	0.273627
624.973994	0.273945
625.181855	0.274038
625.389697	0.273992
625.597521	0.274280
625.805327	0.274089
626.013114	0.274188
626.220883	0.274634
626.428634	0.274932
626.636367	0.275067
626.844082	0.275157
627.051778	0.275460
627.259457	0.275480
627.467117	0.275294
627.674758	0.275343
627.882382	0.275836
628.089987	0.275835
628.297574	0.275678
628.505143	0.275789
628.712694	0.275988
628.920226	0.276366
629.127740	0.276597
629.335236	0.276904
629.542714	0.277087
629.750174	0.276784
629.957615	0.276775
630.165038	0.277120
630.372443	0.277277
630.579829	0.277387
630.787198	0.277078
630.994548	0.277480
631.201880	0.277626
631.409194	0.278055
631.616489	0.278514
631.823766	0.278864
632.031025	0.278800
632.238266	0.279167
632.445489	0.279250
632.652693	0.279806
632.859879	0.279716
633.067047	0.280158
633.274197	0.280001
633.481329	0.280046
633.688442	0.280065
633.895537	0.280233
634.102614	0.280255
634.309672	0.280404
634.516713	0.280386
634.723735	0.280662
634.930739	0.281095
635.137724	0.281336
635.344692	0.281450
635.551641	0.281336
635.758572	0.281517
635.965485	0.281530
636.172379	0.281681
636.379256	0.282001
636.586114	0.282279
636.792954	0.282321
636.999775	0.282687
637.206579	0.282773
637.413364	0.283439
637.620131	0.283649
637.826880	0.284043
638.033610	0.284197
638.240323	0.284154
638.447017	0.284032
638.653692	0.283904
638.860350	0.283681
639.066990	0.283924
639.273611	0.284172
639.480214	0.284338
639.686798	0.284543
639.893365	0.284888
640.099913	0.285102
640.306443	0.285569
640.512955	0.285805
640.719449	0.286240
640.925924	0.286617
641.132381	0.286475
641.338820	0.286535
641.545241	0.286741
641.751644	0.286836
641.958028	0.286853
642.164394	0.286795
642.370742	0.286953
642.577071	0.286892
642.783383	0.286923
642.989676	0.287103
643.195951	0.287746
643.402207	0.287744
643.608446	0.287909
643.814666	0.288257
644.020868	0.288514
644.227052	0.288718
644.433218	0.289009
644.639365	0.289372
644.845494	0.289744
645.051605	0.289628
645.257698	0.289667
645.463772	0.289875
645.669828	0.289979
645.875866	0.290278
646.081886	0.290441
646.287888	0.290265
646.493871	0.290253
646.699836	0.290330
646.905783	0.290341
647.111712	0.290700
647.317622	0.290809
647.523514	0.291204
647.729388	0.291523
647.935244	0.291498
648.141082	0.292071
648.346901	0.292108
648.552702	0.292352
648.758485	0.292312
648.964250	0.292475
649.169996	0.292682
649.375724	0.292689
649.581434	0.292772
649.787126	0.293216
649.992800	0.293298
650.198455	0.293692
650.404092	0.293645
650.609711	0.294183
650.815311	0.294272
651.020894	0.294763
651.226458	0.294802
651.432004	0.294700
651.637532	0.294704
651.843041	0.294853
652.048532	0.294846
652.254006	0.294966
652.459460	0.294895
652.664897	0.295115
652.870315	0.294858
653.075716	0.294900
653.281097	0.295213
653.486461	0.295269
653.691807	0.295240
653.897134	0.295452
654.102443	0.295813
654.307734	0.295946
654.513006	0.296182
654.718261	0.296643
654.923497	0.297047
655.128715	0.297196
655.333915	0.297518
655.539096	0.298031
655.744259	0.298165
655.949404	0.298297
656.154531	0.298761
656.359640	0.299091
656.564730	0.299168
656.769802	0.299315
656.974856	0.299562
657.179892	0.300070
657.384909	0.300250
657.589908	0.300658
657.794889	0.300804
657.999852	0.301061
658.204797	0.300922
658.409723	0.301357
658.614631	0.301753
658.819521	0.301653
659.024393	0.301620
659.229246	0.302067
659.434081	0.302264
659.638898	0.302580
659.843697	0.302541
660.048478	0.303051
660.253240	0.302996
660.457984	0.303123
660.662710	0.303546
660.867417	0.303774
661.072107	0.303762
661.276778	0.303989
661.481431	0.304114
661.686066	0.304385
661.890682	0.304323
662.095281	0.304561
662.299861	0.304754
662.504422	0.305027
662.708966	0.305173
662.913491	0.305179
663.117999	0.305276
663.322488	0.305481
663.526958	0.305816
663.731411	0.306112
663.935845	0.306243
664.140261	0.306251
664.344659	0.306097
664.549038	0.306476
664.753400	0.306726
664.957743	0.306874
665.162068	0.307076
665.366375	0.307145
665.570663	0.307423
665.774933	0.307825
665.979185	0.308261
666.183419	0.308513
666.387635	0.308564
666.591832	0.308877
666.796011	0.309230
667.000172	0.309292
667.204315	0.309490
667.408439	0.309640
667.612545	0.309828
667.816634	0.309831
668.020703	0.310524
668.224755	0.310907
668.428788	0.311041
668.632803	0.311160
668.836800	0.311571
669.040779	0.312137
669.244739	0.312474
669.448681	0.312532
669.652605	0.312655
669.856511	0.312651
670.060399	0.312799
670.264268	0.313197
670.468119	0.313211
670.671952	0.313351
670.875767	0.313071
671.079563	0.313159
671.283341	0.313343
671.487101	0.313589
671.690843	0.313726
671.894567	0.313722
672.098272	0.313767
672.301959	0.314127
672.505628	0.314110
672.709278	0.314759
672.912911	0.315067
673.116525	0.315324
673.320121	0.315677
673.523699	0.315825
673.727258	0.315928
673.930799	0.316157
674.134322	0.316290
674.337827	0.316482
674.541314	0.316389
674.744782	0.316714
674.948232	0.316952
675.151664	0.316984
675.355078	0.317560
675.558474	0.317948
675.761851	0.318057
675.965210	0.318369
676.168551	0.318874
676.371873	0.319295
676.575178	0.319275
676.778464	0.319475
676.981732	0.319810
677.184981	0.319982
677.388213	0.320232
677.591426	0.320713
677.794621	0.320854
677.997798	0.321056
678.200956	0.321140
678.404097	0.321564
678.607219	0.321789
678.810323	0.322052
679.013408	0.322038
679.216476	0.322157
679.419525	0.322301
679.622556	0.322589
679.825569	0.322883
680.028563	0.322914
680.231540	0.323040
680.434498	0.323187
680.637438	0.323242
680.840359	0.323360
681.043263	0.323783
681.246148	0.323964
681.449015	0.324067
681.651864	0.324331
681.854694	0.324613
682.057506	0.324662
682.260301	0.324588
682.463076	0.325089
682.665834	0.325410
682.868573	0.325520
683.071295	0.325747
683.273998	0.326031
683.476682	0.326033
683.679349	0.326288
683.881997	0.326623
684.084627	0.327276
684.287239	0.327182
684.489833	0.327308
684.692408	0.327371
684.894965	0.327173
685.097504	0.327512
685.300025	0.327536
685.502527	0.327747
685.705012	0.328037
685.907478	0.327997
686.109925	0.328301
686.312355	0.328521
686.514766	0.328913
686.717159	0.329514
686.919534	0.329520
687.121891	0.329952
687.324230	0.330228
687.526550	0.330102
687.728852	0.330620
687.931136	0.330566
688.133401	0.330811
688.335649	0.330701
688.537878	0.330644
688.740089	0.330741
688.942281	0.330992
689.144456	0.330770
689.346612	0.331122
689.548750	0.331143
689.750870	0.331685
689.952971	0.331584
690.155055	0.332055
690.357120	0.332265
690.559167	0.332614
690.761195	0.332440
690.963206	0.332856
691.165198	0.332990
691.367172	0.332913
691.569128	0.332831
691.771065	0.333100
691.972984	0.333156
692.174885	0.333482
692.376768	0.333405
692.578633	0.333928
692.780479	0.334189
692.982308	0.334315
693.184118	0.334708
693.385909	0.335011
693.587683	0.335430
693.789438	0.335478
693.991175	0.335298
694.192894	0.335698
694.394595	0.335669
694.596277	0.335560
694.797941	0.335623
694.999587	0.335495
695.201215	0.335436
695.402824	0.335272
695.604416	0.335319
695.805989	0.335767
696.007543	0.335616
696.209080	0.335685
696.410598	0.335854
696.612099	0.335794
696.813580	0.335878
697.015044	0.336087
697.216490	0.336338
697.417917	0.336398
697.619326	0.336484
697.820717	0.336918
698.022089	0.337032
698.223444	0.337543
698.424780	0.337962
698.626098	0.338216
698.827397	0.338446
699.028679	0.338539
699.229942	0.338898
699.431187	0.338844
699.632414	0.338906
699.833622	0.339171
700.034813	0.339225
700.235985	0.339201
700.437139	0.339519
700.638274	0.339690
700.839392	0.340108
701.040491	0.340250
701.241572	0.340514
701.442635	0.340585
701.643679	0.340552
701.844706	0.340376
702.045714	0.340690
702.246704	0.340949
702.447675	0.341246
702.648629	0.341140
702.849564	0.341127
703.050481	0.341423
703.251380	0.341575
703.452260	0.341980
703.653122	0.342131
703.853966	0.342116
704.054792	0.342070
704.255600	0.341700
704.456389	0.341685
704.657160	0.341838
704.857913	0.341620
705.058648	0.341544
705.259365	0.341502
705.460063	0.341453
705.660743	0.341766
705.861405	0.341499
706.062048	0.341892
706.262674	0.342033
706.463281	0.341878
706.663870	0.342024
706.864441	0.341988
707.064993	0.341814
707.265527	0.341954
707.466043	0.341793
707.666541	0.342004
707.867021	0.342094
708.067482	0.342072
708.267925	0.342251
708.468350	0.342356
708.668757	0.342620
708.869145	0.342821
709.069516	0.343001
709.269868	0.343034
709.470201	0.343084
709.670517	0.343001
709.870814	0.343169
710.071093	0.343202
710.271354	0.343182
710.471597	0.343345
710.671821	0.343350
710.872028	0.343290
711.072216	0.343681
711.272385	0.343740
711.472537	0.343575
711.672670	0.343416
711.872785	0.343382
712.072882	0.343503
712.272961	0.343258
712.473021	0.343334
712.673063	0.343318
712.873087	0.342851
713.073093	0.342883
713.273081	0.342707
713.473050	0.342836
713.673001	0.342818
713.872934	0.342918
714.072849	0.343313
714.272745	0.343226
714.472623	0.343115
714.672483	0.343136
714.872325	0.343212
715.072148	0.343627
715.271954	0.343661
715.471741	0.343822
715.671509	0.343722
715.871260	0.343477
716.070992	0.343592
716.270707	0.343688
716.470403	0.343707
716.670080	0.343696
716.869740	0.343699
717.069381	0.343709
717.269004	0.343583
717.468609	0.343198
717.668195	0.343186
717.867764	0.343078
718.067314	0.343180
718.266846	0.343340
718.466360	0.343160
718.665855	0.342979
718.865332	0.342835
719.064791	0.342868
719.264232	0.343033
719.463655	0.343049
719.663059	0.343002
719.862445	0.343018
720.061813	0.343009
720.261163	0.343226
720.460494	0.343131
720.659807	0.342985
720.859102	0.342878
721.058379	0.342649
721.257638	0.342696
721.456878	0.342662
721.656100	0.342623
721.855304	0.342349
722.054490	0.342106
722.253657	0.342080
722.452806	0.342115
722.651937	0.342130
722.851050	0.342372
723.050145	0.342065
723.249221	0.341962
723.448279	0.341537
723.647319	0.341501
723.846340	0.341378
724.045344	0.341380
724.244329	0.341142
724.443296	0.341045
724.642245	0.340767
724.841175	0.340557
725.040088	0.340612
725.238982	0.340718
725.437857	0.340548
725.636715	0.340109
725.835554	0.339912
726.034376	0.339957
726.233179	0.340008
726.431963	0.340037
726.630730	0.339924
726.829478	0.339667
727.028208	0.339515
727.226920	0.339508
727.425614	0.339825
727.624289	0.339646
727.822946	0.339665
728.021585	0.339610
728.220206	0.339482
728.418808	0.339543
728.617392	0.339426
728.815958	0.339454
729.014506	0.339381
729.213036	0.339383
729.411547	0.339503
729.610040	0.339253
729.808515	0.339081
730.006972	0.338946
730.205410	0.338807
730.403831	0.338841
730.602233	0.338770
730.800616	0.338646
730.998982	0.338260
731.197329	0.338009
731.395658	0.337972
731.593969	0.337679
731.792262	0.337441
731.990536	0.337472
732.188793	0.337185
732.387031	0.336793
732.585250	0.336549
732.783452	0.336545
732.981635	0.336374
733.179800	0.336083
733.377947	0.336044
733.576076	0.335984
733.774186	0.335833
733.972278	0.335682
734.170352	0.335813
734.368408	0.335724
734.566446	0.335692
734.764465	0.335705
734.962466	0.335493
735.160449	0.335401
735.358413	0.335308
735.556360	0.334884
735.754288	0.334609
735.952198	0.334263
736.150090	0.334007
736.347963	0.333443
736.545818	0.333330
736.743655	0.333385
736.941474	0.333379
737.139275	0.333515
737.337057	0.333393
737.534821	0.333303
737.732567	0.333271
737.930295	0.333171
738.128005	0.333350
738.325696	0.333178
738.523369	0.332742
738.721024	0.332271
738.918660	0.331742
739.116279	0.331833
739.313879	0.331684
739.511461	0.331490
739.709024	0.331172
739.906570	0.330886
740.104097	0.330755
740.301606	0.330692
740.499097	0.330533
740.696569	0.330264
740.894024	0.329811
741.091460	0.329728
741.288878	0.329619
741.486277	0.329603
741.683659	0.329256
741.881022	0.328837
742.078367	0.328780
742.275694	0.328709
742.473002	0.328722
742.670293	0.328671
742.867565	0.328438
743.064819	0.328073
743.262054	0.327919
743.459272	0.327941
743.656471	0.327810
743.853652	0.327454
744.050815	0.327054
744.247959	0.327181
744.445085	0.327008
744.642194	0.327014
744.839283	0.326989
745.036355	0.326914
745.233408	0.326664
745.430444	0.326519
745.627461	0.326604
745.824459	0.326377
746.021440	0.325933
746.218402	0.325928
746.415346	0.325695
746.612272	0.325445
746.809180	0.325420
747.006069	0.325290
747.202940	0.325119
747.399793	0.324836
747.596628	0.325050
747.793444	0.325242
747.990243	0.324930
748.187023	0.324546
748.383784	0.324396
748.580528	0.323880
748.777253	0.323681
748.973960	0.323366
749.170649	0.323305
749.367320	0.322970
749.563973	0.322497
749.760607	0.322431
749.957223	0.322555
750.153821	0.322345
750.350400	0.322340
750.546962	0.322193
750.743505	0.322367
750.940030	0.322344
751.136536	0.322142
751.333025	0.321898
751.529495	0.321407
751.725947	0.321215
751.922381	0.321305
752.118796	0.321108
752.315194	0.320801
752.511573	0.320573
752.707934	0.320442
752.904276	0.320347
753.100601	0.320315
753.296907	0.320404
753.493195	0.320266
753.689465	0.320005
753.885716	0.319912
754.081949	0.319943
754.278164	0.319829
754.474361	0.319387
754.670540	0.319259
754.866700	0.318898
755.062843	0.318680
755.258967	0.318744
755.455072	0.318498
755.651160	0.318240
755.847229	0.318282
756.043280	0.318036
756.239313	0.317890
756.435328	0.317649
756.631324	0.317653
756.827302	0.317705
757.023262	0.317292
757.219204	0.317208
757.415127	0.317087
757.611033	0.317074
757.806920	0.316921
758.002788	0.317039
758.198639	0.316893
758.394471	0.316716
758.590286	0.316474
758.786081	0.316300
758.981859	0.315819
759.177619	0.315588
759.373360	0.315128
759.569083	0.314692
759.764788	0.314285
759.960474	0.314128
760.156143	0.313983
760.351793	0.313992
760.547425	0.313850
760.743038	0.314181
760.938634	0.314418
761.134211	0.314153
761.329770	0.314501
761.525311	0.314686
761.720833	0.314773
761.916338	0.314793
762.111824	0.314446
762.307292	0.314298
762.502741	0.314022
762.698173	0.313659
762.893586	0.314044
763.088981	0.313635
763.284358	0.313217
763.479716	0.313033
763.675057	0.312678
763.870379	0.312550
764.065683	0.312373
764.260968	0.312050
764.456236	0.311761
764.651485	0.311519
764.846716	0.311428
765.041929	0.311325
765.237123	0.311133
765.432299	0.311096
765.627457	0.310860
765.822597	0.310745
766.017719	0.310759
766.212822	0.310711
766.407907	0.310504
766.602974	0.310324
766.798023	0.309842
766.993054	0.309460
767.188066	0.309283
767.383060	0.309255
767.578036	0.309350
767.772993	0.309126
767.967933	0.309033
768.162854	0.308870
768.357757	0.308788
768.552642	0.309139
768.747508	0.309348
768.942356	0.309271
769.137186	0.309046
769.331998	0.308973
769.526792	0.309144
769.721567	0.309166
769.916324	0.309008
770.111063	0.308987
770.305784	0.309103
770.500486	0.309061
770.695171	0.309133
770.889837	0.309236
771.084484	0.308962
771.279114	0.308773
771.473725	0.308852
771.668318	0.308727
771.862893	0.308463
772.057450	0.307980
772.251988	0.307670
772.446509	0.307458
772.641011	0.307338
772.835494	0.307226
773.029960	0.307231
773.224407	0.306999
773.418836	0.307283
773.613247	0.307288
773.807640	0.307178
774.002014	0.307162
774.196370	0.306836
774.390708	0.306882
774.585028	0.306824
774.779330	0.306516
774.973613	0.306339
775.167878	0.305914
775.362125	0.306397
775.556354	0.306573
775.750564	0.306507
775.944756	0.306841
776.138930	0.306719
776.333086	0.306678
776.527223	0.306681
776.721343	0.306602
776.915444	0.306559
777.109526	0.305898
777.303591	0.305751
777.497637	0.305642
777.691666	0.305428
777.885676	0.305102
778.079667	0.305234
778.273641	0.305139
778.467596	0.305256
778.661533	0.305005
778.855452	0.305229
779.049352	0.305191
779.243235	0.305223
779.437099	0.305360
779.630945	0.305442
779.824773	0.305273
780.018582	0.305406
780.212373	0.305524
780.406146	0.305849
780.599901	0.305647
780.793638	0.305879
780.987356	0.305954
781.181056	0.305798
781.374738	0.306175
781.568402	0.306180
781.762047	0.306225
781.955674	0.306285
782.149283	0.306061
782.342874	0.306171
782.536447	0.306016
782.730001	0.306035
782.923537	0.305870
783.117055	0.305538
783.310555	0.305578
783.504036	0.305389
783.697499	0.305069
783.890944	0.305365
784.084371	0.305615
784.277780	0.305702
784.471170	0.305540
784.664542	0.305725
784.857896	0.306014
785.051231	0.306049
785.244549	0.306165
785.437848	0.306109
785.631129	0.306151
785.824392	0.306134
786.017636	0.305954
786.210863	0.306013
786.404071	0.306153
786.597260	0.305891
786.790432	0.305830
786.983585	0.305701
787.176721	0.305888
787.369838	0.305785
787.562936	0.305564
787.756017	0.305774
787.949079	0.305792
788.142123	0.305722
788.335149	0.305859
788.528156	0.306100
788.721146	0.306252
788.914117	0.306609
789.107070	0.306405
789.300005	0.306364
789.492921	0.306260
789.685819	0.306670
789.878699	0.306555
790.071561	0.306662
790.264405	0.306551
790.457230	0.306915
790.650037	0.306517
790.842826	0.306864
791.035597	0.307029
791.228349	0.307274
791.421084	0.307175
791.613800	0.307500
791.806497	0.307678
791.999177	0.307562
792.191838	0.307536
792.384481	0.307879
792.577106	0.307677
792.769713	0.307670
792.962301	0.307522
793.154871	0.307437
793.347423	0.307346
793.539957	0.307257
793.732473	0.307594
793.924970	0.307367
794.117449	0.307510
794.309910	0.307804
794.502353	0.307934
794.694777	0.307896
794.887183	0.307798
795.079571	0.307858
795.271941	0.307868
795.464293	0.307830
795.656626	0.307979
795.848941	0.307748
796.041238	0.307686
796.233516	0.307714
796.425777	0.308067
796.618019	0.308276
796.810243	0.308589
797.002449	0.308616
797.194636	0.308741
797.386805	0.308796
797.578956	0.309118
797.771089	0.309405
797.963204	0.309413
798.155300	0.309362
798.347378	0.309575
798.539438	0.309538
798.731480	0.309986
798.923503	0.310225
799.115509	0.310523
799.307496	0.310455
799.499465	0.310595
799.691415	0.310984
799.883348	0.311362
800.075262	0.311651
800.267158	0.311666
800.459035	0.311743
800.650895	0.311602
800.842736	0.311426
801.034559	0.311746
801.226364	0.311649
801.418150	0.311807
801.609919	0.311801
801.801669	0.311787
801.993401	0.312202
802.185114	0.312206
802.376810	0.312267
802.568487	0.312872
802.760146	0.312817
802.951787	0.313250
803.143409	0.313290
803.335014	0.313536
803.526600	0.313656
803.718168	0.313717
803.909717	0.313874
804.101249	0.314190
804.292762	0.314168
804.484257	0.314480
804.675734	0.314546
804.867192	0.314896
805.058632	0.314979
805.250054	0.315512
805.441458	0.315555
805.632844	0.315826
805.824211	0.316458
806.015561	0.316858
806.206891	0.317265
806.398204	0.317298
806.589499	0.317524
806.780775	0.317919
806.972033	0.318048
807.163273	0.318469
807.354495	0.318910
807.545698	0.318737
807.736883	0.319032
807.928050	0.318883
808.119199	0.319246
808.310329	0.319430
808.501441	0.319838
808.692535	0.320051
808.883611	0.320328
809.074669	0.320227
809.265708	0.320605
809.456729	0.320929
809.647732	0.321642
809.838717	0.322267
810.029683	0.322480
810.220632	0.322696
810.411562	0.323055
810.602474	0.323436
810.793367	0.324035
810.984242	0.324238
811.175100	0.324459
811.365938	0.324648
811.556759	0.324710
811.747562	0.325112
811.938346	0.325465
812.129112	0.325861
812.319860	0.326128
812.510589	0.326238
812.701300	0.326675
812.891994	0.326710
813.082668	0.326998
813.273325	0.327165
813.463964	0.327277
813.654584	0.327271
813.845186	0.327221
814.035769	0.327282
814.226335	0.327261
814.416882	0.327488
814.607411	0.327454
814.797922	0.327245
814.988415	0.327976
815.178889	0.328135
815.369345	0.328292
815.559783	0.328295
815.750203	0.328441
815.940605	0.328783
816.130988	0.328959
816.321353	0.329491
816.511700	0.330153
816.702028	0.329986
816.892339	0.330472
817.082631	0.330504
817.272905	0.330748
817.463161	0.331179
817.653398	0.331556
817.843617	0.331790
818.033819	0.332046
818.224001	0.332263
818.414166	0.332486
818.604312	0.332707
818.794440	0.333474
818.984550	0.333916
819.174642	0.333982
819.364716	0.334400
819.554771	0.334700
819.744808	0.334974
819.934827	0.334799
820.124827	0.335127
820.314810	0.335339
820.504774	0.335486
820.694720	0.335773
820.884647	0.336106
821.074557	0.336333
821.264448	0.336537
821.454321	0.336914
821.644176	0.337539
821.834012	0.337769
822.023831	0.338052
822.213631	0.338331
822.403413	0.338690
822.593176	0.339068
822.782922	0.339298
822.972649	0.339883
823.162358	0.339999
823.352049	0.340249
823.541721	0.340797
823.731376	0.341054
823.921012	0.341316
824.110629	0.341454
824.300229	0.341817
824.489811	0.342217
824.679374	0.342389
824.868919	0.342647
825.058445	0.343181
825.247954	0.343363
825.437444	0.343719
825.626916	0.343935
825.816370	0.344777
826.005806	0.345193
826.195223	0.345620
826.384622	0.345764
826.574003	0.346584
826.763366	0.346875
826.952711	0.347198
827.142037	0.347894
827.331345	0.348029
827.520635	0.347993
827.709906	0.348201
827.899160	0.348592
828.088395	0.349308
828.277612	0.349419
828.466810	0.349859
828.655991	0.350216
828.845153	0.350257
829.034297	0.350978
829.223423	0.351427
829.412531	0.352121
829.601620	0.352320
829.790691	0.352358
829.979744	0.352630
830.168779	0.353060
830.357795	0.353477
830.546793	0.353828
830.735773	0.354150
830.924735	0.354384
831.113679	0.354551
831.302604	0.354965
831.491511	0.355567
831.680400	0.356089
831.869271	0.356119
832.058123	0.356330
832.246957	0.356569
832.435773	0.356932
832.624571	0.357747
832.813351	0.358345
833.002112	0.358655
833.190855	0.359231
833.379580	0.359658
833.568287	0.360157
833.756975	0.360835
833.945645	0.361543
834.134297	0.362043
834.322931	0.362252
834.511547	0.362392
834.700144	0.362983
834.888723	0.363156
835.077284	0.363664
835.265826	0.364279
835.454351	0.364272
835.642857	0.364690
835.831345	0.365234
836.019815	0.365696
836.208266	0.366055
836.396699	0.366173
836.585114	0.366251
836.773511	0.366405
836.961890	0.366414
837.150250	0.367126
837.338592	0.367406
837.526916	0.367920
837.715222	0.368106
837.903510	0.368466
838.091779	0.369076
838.280030	0.369888
838.468263	0.370456
838.656477	0.371146
838.844674	0.371420
839.032852	0.371962
839.221012	0.372063
839.409153	0.372294
839.597277	0.372755
839.785382	0.373356
839.973469	0.373705
840.161538	0.374037
840.349589	0.374444
840.537621	0.374915
840.725635	0.375110
840.913631	0.375212
841.101609	0.375596
841.289568	0.376023
841.477509	0.376060
841.665432	0.376144
841.853337	0.376757
842.041224	0.376836
842.229092	0.377274
842.416942	0.377795
842.604774	0.378434
842.792588	0.378916
842.980383	0.378701
843.168160	0.379278
843.355919	0.380174
843.543660	0.380510
843.731382	0.381073
843.919087	0.381476
844.106773	0.381894
844.294441	0.382555
844.482090	0.383114
844.669722	0.384071
844.857335	0.384546
845.044930	0.384751
845.232507	0.385040
845.420065	0.385778
845.607605	0.386160
845.795127	0.386567
845.982631	0.386704
846.170117	0.387037
846.357584	0.387296
846.545033	0.387568
846.732464	0.387980
846.919877	0.388466
847.107272	0.388463
847.294648	0.389332
847.482006	0.390023
847.669346	0.390550
847.856667	0.391059
848.043971	0.391953
848.231256	0.392668
848.418523	0.393389
848.605771	0.393668
848.793002	0.394310
848.980214	0.394367
849.167408	0.394543
849.354584	0.395028
849.541742	0.395604
849.728881	0.395533
849.916002	0.395408
850.103105	0.395470
850.290190	0.395787
850.477256	0.396358
850.664304	0.396753
850.851334	0.397224
851.038346	0.397622
851.225340	0.397860
851.412315	0.398829
851.599272	0.399702
851.786211	0.399857
851.973132	0.400424
852.160034	0.400505
852.346918	0.400814
852.533784	0.400961
852.720632	0.401600
852.907462	0.401794
853.094273	0.401984
853.281066	0.402556
853.467841	0.403139
853.654598	0.403402
853.841336	0.403940
854.028056	0.404624
854.214758	0.405209
854.401442	0.405391
854.588107	0.406128
854.774755	0.406481
854.961384	0.406734
855.147995	0.407610
855.334587	0.408422
855.521162	0.409008
855.707718	0.409296
855.894256	0.409942
856.080775	0.410320
856.267277	0.410702
856.453760	0.411048
856.640225	0.410978
856.826672	0.410856
857.013101	0.411128
857.199511	0.411474
857.385903	0.412154
857.572277	0.412138
857.758633	0.412247
857.944970	0.412634
858.131290	0.413127
858.317591	0.413358
858.503873	0.414125
858.690138	0.414262
858.876384	0.414349
859.062612	0.414381
859.248822	0.414867
859.435014	0.415341
859.621188	0.415948
859.807343	0.416283
859.993480	0.417242
860.179599	0.417535
860.365699	0.418437
860.551781	0.419058
860.737846	0.419549
860.923891	0.420003
861.109919	0.420497
861.295929	0.420611
861.481920	0.420975
861.667893	0.421135
861.853848	0.421387
862.039784	0.421269
862.225702	0.421825
862.411603	0.422099
862.597484	0.422271
862.783348	0.422750
862.969193	0.423147
863.155021	0.423410
863.340830	0.423787
863.526620	0.424283
863.712393	0.424736
863.898147	0.424980
864.083883	0.425292
864.269601	0.425852
864.455301	0.425903
864.640982	0.426132
864.826645	0.426392
865.012290	0.427014
865.197917	0.427333
865.383526	0.427499
865.569116	0.427794
865.754688	0.427750
865.940242	0.428081
866.125777	0.428340
866.311295	0.428852
866.496794	0.429374
866.682275	0.429443
866.867737	0.429517
867.053182	0.429840
867.238608	0.430453
867.424016	0.431107
867.609406	0.431545
867.794778	0.432066
867.980131	0.432559
868.165466	0.432753
868.350783	0.433198
868.536082	0.433355
868.721362	0.433895
868.906625	0.434048
869.091869	0.434910
869.277094	0.435083
869.462302	0.435718
869.647491	0.435975
869.832662	0.436588
870.017815	0.436845
870.202950	0.437327
870.388066	0.437360
870.573165	0.437083
870.758245	0.436491
870.943306	0.436130
871.128350	0.435966
871.313375	0.435875
871.498382	0.435710
871.683371	0.436280
871.868342	0.436485
872.053294	0.436890
872.238229	0.437500
872.423144	0.437908
872.608042	0.438829
872.792922	0.439170
872.977783	0.439353
873.162626	0.439200
873.347451	0.438852
873.532258	0.438752
873.717046	0.438628
873.901816	0.438742
874.086568	0.439362
874.271302	0.439650
874.456017	0.439638
874.640715	0.440120
874.825394	0.440790
875.010055	0.440646
875.194697	0.440796
875.379322	0.441046
875.563928	0.441318
875.748516	0.440823
875.933085	0.440636
876.117637	0.440621
876.302170	0.440564
876.486685	0.440827
876.671182	0.440994
876.855661	0.441784
877.040121	0.442066
877.224563	0.442289
877.408987	0.442629
877.593393	0.442542
877.777780	0.443249
877.962150	0.443282
878.146501	0.443307
878.330833	0.443816
878.515148	0.443720
878.699444	0.444008
878.883722	0.444044
879.067982	0.444189
879.252224	0.444680
879.436447	0.444747
879.620653	0.445078
879.804840	0.445583
879.989008	0.445839
880.173159	0.445748
880.357291	0.446003
880.541405	0.446066
880.725501	0.447002
880.909579	0.447247
881.093638	0.447795
881.277680	0.448391
881.461703	0.448676
881.645707	0.449074
881.829694	0.449452
882.013662	0.449868
882.197612	0.450076
882.381544	0.449522
882.565458	0.449648
882.749353	0.449496
882.933230	0.449611
883.117089	0.449476
883.300930	0.449233
883.484753	0.449473
883.668557	0.449337
883.852343	0.449299
884.036111	0.449126
884.219861	0.449203
884.403592	0.448954
884.587305	0.448648
884.771000	0.448913
884.954677	0.449193
885.138335	0.449151
885.321976	0.449146
885.505598	0.449538
885.689201	0.449857
885.872787	0.449469
886.056354	0.449749
886.239904	0.449671
886.423434	0.449680
886.606947	0.449524
886.790442	0.449672
886.973918	0.449566
887.157376	0.449613
887.340816	0.449711
887.524237	0.450214
887.707641	0.450204
887.891026	0.450104
888.074393	0.449326
888.257741	0.449337
888.441072	0.448600
888.624384	0.448732
888.807678	0.448896
888.990954	0.449209
889.174211	0.448954
889.357451	0.449028
889.540672	0.449027
889.723875	0.449571
889.907059	0.449856
890.090226	0.450342
890.273374	0.449883
890.456504	0.449280
890.639616	0.448826
890.822709	0.448832
891.005785	0.448608
891.188842	0.448399
891.371881	0.448058
891.554901	0.447437
891.737904	0.447364
891.920888	0.447364
892.103854	0.447606
892.286802	0.447927
892.469731	0.448086
892.652643	0.448604
892.835536	0.448954
893.018410	0.449457
893.201267	0.449562
893.384106	0.450003
893.566926	0.450307
893.749728	0.449981
893.932511	0.450100
894.115277	0.449215
894.298024	0.448489
894.480753	0.448543
894.663464	0.447965
894.846157	0.448102
895.028831	0.447520
895.211487	0.447400
895.394125	0.447759
895.576745	0.447191
895.759346	0.447367
895.941930	0.447438
896.124495	0.446746
896.307041	0.446526
896.489570	0.445439
896.672080	0.445117
896.854573	0.444612
897.037046	0.443649
897.219502	0.443366
897.401940	0.443728
897.584359	0.443891
897.766760	0.444342
897.949143	0.443914
898.131507	0.444168
898.313854	0.444078
898.496182	0.444109
898.678492	0.444137
898.860783	0.443728
899.043057	0.443067
899.225312	0.442229
899.407549	0.441530
899.589768	0.441421
899.771968	0.440868
899.954151	0.440621
900.136315	0.440274
900.318461	0.440120
900.500588	0.439877
900.682698	0.439083
900.864789	0.438060
901.046862	0.438386
901.228917	0.438252
901.410953	0.438597
901.592971	0.438473
901.774972	0.438159
901.956953	0.437536
902.138917	0.437085
902.320862	0.437091
902.502790	0.437583
902.684699	0.436857
902.866589	0.436437
903.048462	0.436222
903.230316	0.435397
903.412152	0.435135
903.593970	0.435347
903.775770	0.435495
903.957551	0.435773
904.139314	0.435227
904.321059	0.434182
904.502786	0.434201
904.684494	0.433729
904.866185	0.433986
905.047857	0.433875
905.229510	0.433379
905.411146	0.432413
905.592763	0.431893
905.774363	0.431453
905.955943	0.431871
906.137506	0.431175
906.319051	0.430924
906.500577	0.429856
906.682085	0.429067
906.863575	0.428306
907.045046	0.428132
907.226500	0.427569
907.407935	0.427353
907.589352	0.426837
907.770750	0.426067
907.952131	0.425499
908.133493	0.425698
908.314837	0.425107
908.496163	0.425190
908.677470	0.424934
908.858760	0.424468
909.040031	0.424206
909.221284	0.423861
909.402518	0.423489
909.583735	0.423087
909.764933	0.422601
909.946113	0.422226
910.127275	0.421863
910.308418	0.421055
910.489544	0.420561
910.670651	0.420191
910.851740	0.419269
911.032810	0.418959
911.213863	0.418276
911.394897	0.417525
911.575913	0.416953
911.756911	0.416202
911.937890	0.415898
912.118851	0.415315
912.299794	0.414498
912.480719	0.413742
912.661626	0.412943
912.842514	0.412599
913.023384	0.412374
913.204236	0.411829
913.385070	0.411463
913.565886	0.410481
913.746683	0.409741
913.927462	0.409257
914.108223	0.408865
914.288965	0.408838
914.469690	0.408135
914.650396	0.407487
914.831084	0.407219
915.011754	0.406252
915.192405	0.405920
915.373038	0.405668
915.553653	0.405299
915.734250	0.404646
915.914829	0.403587
916.095389	0.402826
916.275931	0.402358
916.456455	0.400874
916.636961	0.400242
916.817448	0.399274
916.997917	0.399247
917.178368	0.398027
917.358801	0.397782
917.539216	0.397083
917.719612	0.396626
917.899990	0.395296
918.080350	0.395922
918.260692	0.395956
918.441015	0.395891
918.621320	0.394406
918.801607	0.393784
918.981876	0.392700
919.162127	0.392280
919.342359	0.391648
919.522573	0.391115
919.702769	0.389667
919.882947	0.388088
920.063106	0.386766
920.243247	0.385965
920.423370	0.385837
920.603475	0.385456
920.783562	0.385040
920.963630	0.383719
921.143680	0.382770
921.323712	0.382190
921.503725	0.381067
921.683721	0.380868
921.863698	0.380505
922.043657	0.379635
922.223598	0.378556
922.403520	0.377686
922.583424	0.377331
922.763311	0.377140
922.943178	0.376227
923.123028	0.375967
923.302859	0.375159
923.482673	0.374269
923.662467	0.372834
923.842244	0.372302
924.022003	0.371507
924.201743	0.370713
924.381465	0.369543
924.561169	0.368320
924.740854	0.367471
924.920522	0.367009
925.100171	0.365720
925.279802	0.365366
925.459414	0.364555
925.639009	0.364257
925.818585	0.363223
925.998143	0.362042
926.177683	0.361299
926.357205	0.360735
926.536708	0.359460
926.716193	0.359371
926.895660	0.358219
927.075109	0.357173
927.254539	0.355268
927.433951	0.354547
927.613345	0.353728
927.792721	0.353148
927.972079	0.351847
928.151418	0.350828
928.330739	0.350063
928.510042	0.349298
928.689327	0.348260
928.868593	0.347667
929.047841	0.347174
929.227071	0.346693
929.406283	0.345638
929.585476	0.344990
929.764652	0.343554
929.943809	0.342209
930.122948	0.341238
930.302068	0.340183
930.481171	0.339275
930.660255	0.337862
930.839321	0.336331
931.018369	0.335191
931.197398	0.333703
931.376409	0.333540
931.555402	0.332926
931.734377	0.332055
931.913334	0.331383
932.092272	0.330469
932.271192	0.329641
932.450094	0.328708
932.628978	0.328006
932.807844	0.327237
932.986691	0.325929
933.165520	0.324013
933.344331	0.322939
933.523123	0.322559
933.701898	0.321776
933.880654	0.320625
934.059392	0.320074
934.238111	0.319432
934.416813	0.318411
934.595496	0.316613
934.774161	0.316503
934.952808	0.315932
935.131437	0.314011
935.310047	0.312264
935.488639	0.311227
935.667213	0.310293
935.845769	0.309017
936.024306	0.308172
936.202825	0.308528
936.381326	0.306443
936.559809	0.305584
936.738274	0.304952
936.916720	0.304072
937.095148	0.302849
937.273558	0.301470
937.451950	0.300395
937.630323	0.299589
937.808678	0.297890
937.987015	0.296652
938.165334	0.293965
938.343635	0.292519
938.521917	0.292009
938.700181	0.291255
938.878427	0.290532
939.056655	0.289393
939.234864	0.287758
939.413055	0.286600
939.591228	0.286268
939.769383	0.286609
939.947519	0.286249
940.125638	0.285200
940.303738	0.284223
940.481820	0.282755
940.659883	0.282333
940.837929	0.281445
941.015956	0.280454
941.193965	0.279634
941.371955	0.276760
941.549928	0.274592
941.727882	0.273211
941.905818	0.271678
942.083736	0.270686
942.261636	0.269454
942.439517	0.268262
942.617380	0.266555
942.795225	0.264607
942.973052	0.265310
943.150860	0.265366
943.328651	0.264029
943.506423	0.264046
943.684176	0.262725
943.861912	0.259936
944.039629	0.258499
944.217328	0.258867
944.395009	0.258614
944.572672	0.256762
944.750317	0.256316
944.927943	0.254910
945.105551	0.253591
945.283141	0.252592
945.460712	0.251967
945.638265	0.251633
945.815801	0.250455
945.993317	0.248141
946.170816	0.247231
946.348297	0.244730
946.525759	0.243652
946.703203	0.241459
946.880629	0.240551
947.058036	0.240012
947.235425	0.237539
947.412797	0.234589
947.590149	0.233966
947.767484	0.232491
947.944800	0.230908
948.122099	0.230663
948.299379	0.228731
948.476640	0.228834
948.653884	0.227046
948.831109	0.227033
949.008316	0.227302
949.185505	0.226687
949.362676	0.225787
949.539828	0.225104
949.716962	0.223779
949.894078	0.223167
950.071176	0.219617
950.248256	0.219641
950.425317	0.218578
950.602360	0.217983
950.779385	0.216274
950.956391	0.214283
951.133380	0.213082
951.310350	0.210054
951.487302	0.209933
951.664235	0.208366
951.841151	0.206415
952.018048	0.205577
952.194927	0.203931
952.371788	0.203399
952.548631	0.204620
952.725455	0.202609
952.902261	0.201874
953.079049	0.200569
953.255819	0.201030
953.432570	0.199453
953.609303	0.197274
953.786018	0.196247
953.962715	0.194344
954.139394	0.192029
954.316054	0.191410
954.492696	0.191252
954.669320	0.189092
954.845926	0.188986
955.022513	0.187301
955.199083	0.185027
955.375634	0.182995
955.552166	0.183233
955.728681	0.181744
955.905177	0.180538
956.081655	0.179735
956.258115	0.181367
956.434557	0.179860
956.610980	0.180314
956.787385	0.181979
956.963772	0.181131
957.140141	0.181276
957.316492	0.181530
957.492824	0.179597
957.669138	0.179600
957.845434	0.175843
958.021712	0.174532
958.197971	0.175303
958.374212	0.174436
958.550435	0.173615
958.726640	0.168697
958.902826	0.167352
959.078995	0.168560
959.255145	0.168616
959.431277	0.169824
959.607390	0.167150
959.783486	0.164134
959.959563	0.163647
960.135622	0.164337
960.311662	0.167430
960.487685	0.166745
960.663689	0.165202
960.839675	0.162061
961.015643	0.160517
961.191593	0.161791
961.367524	0.161214
961.543437	0.158747
961.719332	0.158175
961.895209	0.158728
962.071067	0.157308
962.246907	0.158124
962.422730	0.159341
962.598533	0.157736
962.774319	0.158181
962.950086	0.158207
963.125835	0.156417
963.301566	0.153849
963.477279	0.151140
963.652973	0.151106
963.828650	0.149079
964.004308	0.147791
964.179947	0.146585
964.355569	0.145889
964.531172	0.146573
964.706757	0.148111
964.882324	0.149372
965.057873	0.148723
965.233403	0.148946
965.408916	0.150624
965.584410	0.151553
965.759885	0.151969
965.935343	0.152902
966.110782	0.151429
966.286203	0.151782
966.461606	0.152465
966.636991	0.153214
966.812357	0.152716
966.987705	0.151912
967.163035	0.152451
967.338347	0.154030
967.513641	0.153362
967.688916	0.152966
967.864173	0.153574
968.039412	0.153391
968.214632	0.151775
968.389835	0.152995
968.565019	0.151717
968.740185	0.150604
968.915333	0.150929
969.090462	0.151126
969.265573	0.152171
969.440667	0.151308
969.615741	0.150687
969.790798	0.152154
969.965836	0.150063
970.140856	0.149441
970.315858	0.148840
970.490842	0.146778
970.665808	0.146005
970.840755	0.147345
971.015684	0.147830
971.190595	0.148886
971.365487	0.149176
971.540362	0.149598
971.715218	0.149886
971.890056	0.152489
972.064875	0.153696
972.239677	0.153544
972.414460	0.152960
972.589225	0.152273
972.763972	0.150631
972.938700	0.150291
973.113411	0.150422
973.288103	0.152170
973.462777	0.149288
973.637432	0.149622
973.812070	0.150787
973.986689	0.149475
974.161290	0.149383
974.335873	0.148524
974.510437	0.148984
974.684984	0.147642
974.859512	0.146591
975.034022	0.146451
975.208513	0.145987
975.382987	0.145829
975.557442	0.147004
975.731879	0.148550
975.906298	0.147498
976.080698	0.145167
976.255080	0.145205
976.429445	0.146983
976.603790	0.147928
976.778118	0.148039
976.952427	0.146584
977.126719	0.145076
977.300992	0.145512
977.475246	0.147013
977.649483	0.148852
977.823701	0.151815
977.997901	0.151310
978.172083	0.148762
978.346247	0.147819
978.520392	0.149035
978.694519	0.150130
978.868628	0.149794
979.042719	0.149553
979.216791	0.150161
979.390845	0.147953
979.564882	0.146041
979.738899	0.150499
979.912899	0.150544
980.086880	0.150259
980.260843	0.149718
980.434788	0.148392
980.608715	0.147634
980.782623	0.147900
980.956514	0.150022
981.130386	0.150274
981.304240	0.148762
981.478075	0.148541
981.651892	0.147995
981.825692	0.149698
981.999472	0.150686
982.173235	0.153330
982.346980	0.152048
982.520706	0.150333
982.694414	0.149924
982.868104	0.148495
983.041775	0.149641
983.215428	0.150675
983.389064	0.150643
983.562680	0.150633
983.736279	0.151612
983.909860	0.150740
984.083422	0.151178
984.256966	0.151354
984.430491	0.151707
984.603999	0.150862
984.777488	0.148584
984.950959	0.149067
985.124412	0.148732
985.297847	0.146396
985.471263	0.147748
985.644661	0.147975
985.818041	0.149301
985.991403	0.149821
986.164747	0.151138
986.338072	0.153315
986.511379	0.150306
986.684668	0.150090
986.857938	0.150814
987.031191	0.151097
987.204425	0.149588
987.377641	0.148834
987.550839	0.148034
987.724018	0.149367
987.897179	0.148770
988.070322	0.148232
988.243447	0.148085
988.416554	0.149375
988.589642	0.150388
988.762712	0.150212
988.935764	0.152583
989.108798	0.152590
989.281813	0.150438
989.454811	0.151686
989.627790	0.154409
989.800751	0.154109
989.973693	0.151623
990.146617	0.150986
990.319524	0.153390
990.492412	0.151439
990.665281	0.153506
990.838133	0.152873
991.010966	0.150593
991.183781	0.150980
991.356578	0.153720
991.529356	0.153406
991.702117	0.150661
991.874859	0.150200
992.047583	0.149808
992.220288	0.148737
992.392976	0.150355
992.565645	0.151705
992.738296	0.152066
992.910929	0.149986
993.083543	0.150956
993.256139	0.153102
993.428718	0.154717
993.601277	0.155829
993.773819	0.154982
993.946342	0.153480
994.118848	0.153747
994.291335	0.153009
994.463803	0.153622
994.636254	0.153623
994.808686	0.152606
994.981100	0.152130
995.153496	0.151839
995.325874	0.153078
995.498233	0.152274
995.670574	0.150589
995.842897	0.150793
996.015202	0.151164
996.187488	0.152717
996.359757	0.152636
996.532007	0.150476
996.704239	0.150427
996.876452	0.151107
997.048648	0.150079
997.220825	0.151173
997.392984	0.150665
997.565124	0.148458
997.737247	0.148034
997.909351	0.150159
998.081437	0.150143
998.253505	0.150008
998.425554	0.148242
998.597586	0.151930
998.769599	0.153348
998.941594	0.153488
999.113571	0.154885
999.285529	0.154275
999.457469	0.153320
999.629391	0.154233
999.801295	0.153028
999.973181	0.155238
1000.145048	0.154105
1000.316897	0.151470
1000.488728	0.149678
1000.660541	0.150102
1000.832335	0.149095
1001.004111	0.148083
1001.175869	0.147478
1001.347609	0.146841
1001.519331	0.143756
1001.691034	0.146186
1001.862719	0.146724
1002.034386	0.147773
1002.206035	0.147105
1002.377665	0.147841
1002.549277	0.149604
1002.720871	0.149993
1002.892447	0.151861
1003.064004	0.152559
1003.235544	0.149675
1003.407065	0.149603
1003.578568	0.150998
1003.750052	0.150758
1003.921519	0.151671
1004.092967	0.150469
1004.264397	0.149579
1004.435809	0.150028
1004.607202	0.149780
1004.778577	0.152109
1004.949934	0.152313
1005.121273	0.152238
1005.292594	0.152045
1005.463896	0.151627
1005.635180	0.151208
1005.806446	0.150687
1005.977694	0.150631
1006.148923	0.151021
1006.320135	0.148565
1006.491328	0.149310
1006.662503	0.148257
1006.833659	0.147554
1007.004798	0.149565
1007.175918	0.151740
1007.347020	0.153998
1007.518103	0.155196
1007.689169	0.154465
1007.860216	0.154744
1008.031245	0.154460
1008.202256	0.155181
1008.373248	0.157162
1008.544223	0.155609
1008.715179	0.154793
1008.886117	0.153459
1009.057036	0.151791
1009.227938	0.153064
1009.398821	0.153921
1009.569686	0.154667
1009.740533	0.155831
1009.911361	0.155555
1010.082172	0.153811
1010.252964	0.153581
1010.423738	0.152962
1010.594493	0.152758
1010.765231	0.153177
1010.935950	0.154076
1011.106651	0.153271
1011.277334	0.152164
1011.447998	0.151602
1011.618645	0.150639
1011.789273	0.150625
1011.959882	0.152501
1012.130474	0.153179
1012.301048	0.151377
1012.471603	0.150825
1012.642140	0.150387
1012.812658	0.148130
1012.983159	0.147401
1013.153641	0.150494
1013.324105	0.150036
1013.494551	0.150796
1013.664979	0.149375
1013.835388	0.151274
1014.005779	0.151077
1014.176152	0.150183
1014.346507	0.151369
1014.516843	0.150729
1014.687162	0.149386
1014.857462	0.150128
1015.027744	0.147834
1015.198007	0.149082
1015.368252	0.148317
1015.538480	0.146916
1015.708689	0.148171
1015.878879	0.149956
1016.049052	0.152211
1016.219206	0.151726
1016.389342	0.152656
1016.559460	0.153918
1016.729559	0.155284
1016.899641	0.154845
1017.069704	0.153652
1017.239749	0.152889
1017.409775	0.151337
1017.579784	0.150878
1017.749774	0.151714
1017.919746	0.148966
1018.089700	0.148428
1018.259635	0.148100
1018.429553	0.147982
1018.599452	0.149934
1018.769333	0.151392
1018.939195	0.151760
1019.109040	0.151602
1019.278866	0.150579
1019.448674	0.150898
1019.618464	0.151415
1019.788235	0.150585
1019.957989	0.152300
1020.127724	0.151552
1020.297441	0.151726
1020.467139	0.150743
1020.636820	0.150490
1020.806482	0.152771
1020.976126	0.152562
1021.145752	0.150677
1021.315359	0.150764
1021.484948	0.150543
1021.654519	0.152705
1021.824072	0.153285
1021.993607	0.153016
1022.163123	0.151089
1022.332621	0.150553
1022.502101	0.151167
1022.671563	0.152755
1022.841007	0.152261
1023.010432	0.151954
1023.179839	0.150570
1023.349228	0.148616
1023.518598	0.149057
1023.687951	0.150640
1023.857285	0.148989
1024.026601	0.149377
1024.195899	0.150223
1024.365178	0.150293
1024.534439	0.147770
1024.703682	0.149197
1024.872907	0.150378
1025.042114	0.150008
1025.211302	0.150613
1025.380472	0.151200
1025.549624	0.150763
1025.718758	0.149184
1025.887873	0.149157
1026.056970	0.151458
1026.226049	0.151034
1026.395110	0.148983
1026.564153	0.149802
1026.733177	0.150054
1026.902183	0.150251
1027.071171	0.151220
1027.240141	0.149220
1027.409092	0.149167
1027.578026	0.148643
1027.746940	0.147554
1027.915837	0.149630
1028.084716	0.149655
1028.253576	0.149725
1028.422418	0.148382
1028.591242	0.146646
1028.760048	0.149864
1028.928835	0.149430
1029.097604	0.151031
1029.266355	0.151339
1029.435088	0.149847
1029.603803	0.151018
1029.772499	0.149978
1029.941177	0.151314
1030.109837	0.152098
1030.278478	0.151884
1030.447102	0.153406
1030.615707	0.152440
1030.784294	0.151624
1030.952863	0.152280
1031.121413	0.149054
1031.289945	0.150523
1031.458460	0.149235
1031.626955	0.149419
1031.795433	0.148276
1031.963892	0.145175
1032.132334	0.144849
1032.300756	0.144955
1032.469161	0.145071
1032.637548	0.145196
1032.805916	0.144173
1032.974266	0.145888
1033.142598	0.146850
1033.310911	0.147229
1033.479207	0.148945
1033.647484	0.147992
1033.815743	0.147877
1033.983983	0.148676
1034.152206	0.150681
1034.320410	0.151305
1034.488596	0.152937
1034.656764	0.151089
1034.824914	0.150115
1034.993045	0.150562
1035.161158	0.151715
1035.329253	0.150082
1035.497330	0.147397
1035.665388	0.146404
1035.833428	0.146367
1036.001450	0.144424
1036.169454	0.143344
1036.337440	0.145068
1036.505407	0.144021
1036.673356	0.141720
1036.841287	0.143427
1037.009200	0.145811
1037.177094	0.147831
1037.344970	0.147792
1037.512828	0.147676
1037.680668	0.148140
1037.848489	0.146522
1038.016293	0.147082
1038.184078	0.150703
1038.351845	0.151105
1038.519593	0.149464
1038.687324	0.148492
1038.855036	0.147994
1039.022730	0.146209
1039.190406	0.147191
1039.358063	0.148715
1039.525702	0.148513
1039.693323	0.145992
1039.860926	0.144254
1040.028511	0.143649
1040.196077	0.142416
1040.363625	0.141019
1040.531155	0.143352
1040.698667	0.141730
1040.866161	0.140097
1041.033636	0.141167
1041.201093	0.143391
1041.368532	0.144300
1041.535952	0.145042
1041.703355	0.145935
1041.870739	0.147863
1042.038105	0.146233
1042.205452	0.147801
1042.372782	0.147479
1042.540093	0.145608
1042.707386	0.143664
1042.874661	0.145984
1043.041918	0.146971
1043.209156	0.146610
1043.376376	0.146789
1043.543578	0.148195
1043.710762	0.148145
1043.877927	0.150799
1044.045074	0.152087
1044.212203	0.153098
1044.379314	0.153039
1044.546407	0.153611
1044.713481	0.152638
1044.880537	0.151216
1045.047575	0.151469
1045.214595	0.152809
1045.381596	0.151112
1045.548579	0.151561
1045.715544	0.149734
1045.882491	0.146581
1046.049420	0.146357
1046.216330	0.147300
1046.383222	0.147484
1046.550096	0.144775
1046.716951	0.144293
1046.883789	0.143182
1047.050608	0.143527
1047.217409	0.143737
1047.384192	0.142940
1047.550956	0.141809
1047.717703	0.144201
1047.884431	0.144481
1048.051140	0.145317
1048.217832	0.143693
1048.384505	0.147667
1048.551161	0.146865
1048.717798	0.148000
1048.884416	0.150368
1049.051017	0.151964
1049.217599	0.149389
1049.384163	0.151885
1049.550709	0.153800
1049.717237	0.155590
1049.883746	0.153939
1050.050237	0.153745
1050.216710	0.154041
1050.383165	0.154740
1050.549601	0.152760
1050.716019	0.153105
1050.882420	0.151589
1051.048801	0.150325
1051.215165	0.149668
1051.381510	0.149263
1051.547837	0.149397
1051.714146	0.150433
1051.880437	0.147779
1052.046709	0.150126
1052.212964	0.151049
1052.379200	0.148917
1052.545417	0.150416
1052.711617	0.150536
1052.877798	0.148628
1053.043961	0.147930
1053.210106	0.145731
1053.376233	0.147617
1053.542341	0.145147
1053.708432	0.143427
1053.874504	0.144702
1054.040557	0.144440
1054.206593	0.142857
1054.372610	0.144070
1054.538609	0.145002
1054.704590	0.146520
1054.870553	0.147734
1055.036497	0.149062
1055.202424	0.149497
1055.368331	0.149890
1055.534221	0.150225
1055.700093	0.150555
1055.865946	0.151424
1056.031781	0.150758
1056.197598	0.149041
1056.363397	0.147681
1056.529177	0.147772
1056.694939	0.149362
1056.860683	0.145900
1057.026409	0.144236
1057.192116	0.143564
1057.357806	0.143955
1057.523477	0.143290
1057.689130	0.142698
1057.854764	0.142461
1058.020381	0.143009
1058.185979	0.142175
1058.351559	0.145462
1058.517120	0.146316
1058.682664	0.149480
1058.848189	0.148228
1059.013696	0.149163
1059.179185	0.150150
1059.344656	0.150392
1059.510108	0.150747
1059.675542	0.151191
1059.840958	0.150976
1060.006356	0.150191
1060.171735	0.149408
1060.337096	0.150646
1060.502439	0.151835
1060.667764	0.151085
1060.833071	0.152298
1060.998359	0.151083
1061.163629	0.150196
1061.328881	0.149999
1061.494115	0.150046
1061.659330	0.149269
1061.824527	0.147461
1061.989706	0.148278
1062.154867	0.150840
1062.320010	0.149710
1062.485134	0.150865
1062.650240	0.152043
1062.815328	0.152349
1062.980398	0.153482
1063.145449	0.154674
1063.310482	0.155355
1063.475497	0.152599
1063.640494	0.151193
1063.805473	0.151550
1063.970433	0.153185
1064.135375	0.152038
1064.300299	0.151641
1064.465204	0.150633
1064.630092	0.150812
1064.794961	0.150682
1064.959812	0.151257
1065.124645	0.153592
1065.289459	0.154607
1065.454256	0.152479
1065.619034	0.154334
1065.783793	0.154865
1065.948535	0.154237
1066.113258	0.151657
1066.277964	0.152154
1066.442651	0.152379
1066.607319	0.152460
1066.771970	0.153056
1066.936602	0.152515
1067.101216	0.151931
1067.265812	0.150926
1067.430389	0.153116
1067.594949	0.156908
1067.759490	0.154873
1067.924013	0.155186
1068.088518	0.152220
1068.253004	0.149570
1068.417472	0.147546
1068.581922	0.145208
1068.746354	0.145568
1068.910768	0.144667
1069.075163	0.143790
1069.239540	0.146369
1069.403899	0.147218
1069.568240	0.149475
1069.732562	0.151619
1069.896866	0.155220
1070.061152	0.158912
1070.225420	0.158240
1070.389670	0.158361
1070.553901	0.158592
1070.718114	0.159440
1070.882309	0.157035
1071.046486	0.156693
1071.210644	0.155196
1071.374784	0.155329
1071.538906	0.153334
1071.703010	0.153902
1071.867096	0.155103
1072.031163	0.155642
1072.195212	0.154351
1072.359243	0.155221
1072.523256	0.154210
1072.687250	0.156657
1072.851226	0.153833
1073.015184	0.153748
1073.179124	0.154223
1073.343045	0.153975
1073.506949	0.153745
1073.670834	0.153751
1073.834701	0.154841
1073.998549	0.155837
1074.162380	0.155965
1074.326192	0.158740
1074.489986	0.159195
1074.653761	0.159089
1074.817519	0.156889
1074.981258	0.156472
1075.144979	0.156472
1075.308682	0.155482
1075.472367	0.154980
1075.636033	0.153458
1075.799681	0.153599
1075.963311	0.153134
1076.126923	0.154963
1076.290516	0.157358
1076.454092	0.157652
1076.617649	0.157644
1076.781187	0.160312
1076.944708	0.160171
1077.108210	0.160159
1077.271695	0.157721
1077.435160	0.157166
1077.598608	0.155974
1077.762038	0.154313
1077.925449	0.155759
1078.088842	0.156193
1078.252217	0.153220
1078.415573	0.152142
1078.578912	0.152585
1078.742232	0.154076
1078.905534	0.155679
1079.068817	0.154160
1079.232083	0.155687
1079.395330	0.152547
1079.558559	0.155115
1079.721770	0.156413
1079.884962	0.157408
1080.048136	0.156342
1080.211293	0.153907
1080.374430	0.156743
1080.537550	0.156506
1080.700651	0.154797
1080.863735	0.155596
1081.026800	0.153410
1081.189846	0.156362
1081.352875	0.157649
1081.515885	0.159862
1081.678877	0.163125
1081.841851	0.159045
1082.004807	0.161611
1082.167744	0.160414
1082.330663	0.160342
1082.493564	0.160282
1082.656447	0.159436
1082.819312	0.159291
1082.982158	0.159198
1083.144986	0.157597
1083.307796	0.158000
1083.470587	0.158688
1083.633361	0.159809
1083.796116	0.159695
1083.958853	0.158538
1084.121571	0.158663
1084.284272	0.160480
1084.446954	0.159388
1084.609618	0.161136
1084.772264	0.162523
1084.934892	0.162099
1085.097501	0.165831
1085.260092	0.168670
1085.422665	0.170048
1085.585220	0.168755
1085.747756	0.167435
1085.910274	0.167807
1086.072774	0.169556
1086.235256	0.169386
1086.397720	0.171309
1086.560165	0.166887
1086.722592	0.164580
1086.885001	0.163780
1087.047392	0.161814
1087.209764	0.161886
1087.372119	0.160387
1087.534455	0.160744
1087.696772	0.163773
1087.859072	0.161353
1088.021353	0.159740
1088.183616	0.160749
1088.345861	0.161674
1088.508088	0.161595
1088.670296	0.161775
1088.832486	0.166029
1088.994658	0.162630
1089.156812	0.161450
1089.318948	0.163667
1089.481065	0.166458
1089.643164	0.168564
1089.805245	0.172535
1089.967308	0.174115
1090.129352	0.174395
1090.291378	0.171103
1090.453386	0.174140
1090.615376	0.171939
1090.777347	0.172846
1090.939301	0.172135
1091.101236	0.168961
1091.263153	0.162524
1091.425051	0.165042
1091.586932	0.163551
1091.748794	0.163531
1091.910638	0.164582
1092.072463	0.164019
1092.234271	0.158448
1092.396060	0.160951
1092.557831	0.159878
1092.719584	0.163510
1092.881319	0.160848
1093.043035	0.160451
1093.204733	0.163163
1093.366413	0.159184
1093.528075	0.163387
1093.689718	0.166326
1093.851343	0.166159
1094.012950	0.167614
1094.174539	0.168105
1094.336110	0.170162
1094.497662	0.172973
1094.659196	0.168731
1094.820712	0.168302
1094.982210	0.166713
1095.143689	0.169170
1095.305151	0.171191
1095.466594	0.169827
1095.628018	0.167106
1095.789425	0.164493
1095.950813	0.165184
1096.112183	0.169463
1096.273535	0.172250
1096.434869	0.172060
1096.596184	0.169639
1096.757482	0.164954
1096.918761	0.167267
1097.080021	0.167034
1097.241264	0.165837
1097.402488	0.167493
1097.563694	0.165314
1097.724882	0.161387
1097.886052	0.162094
1098.047203	0.160500
1098.208336	0.162972
1098.369451	0.163324
1098.530548	0.168039
1098.691627	0.171772
1098.852687	0.168246
1099.013729	0.167015
1099.174753	0.171170
1099.335758	0.169917
1099.496746	0.172102
1099.657715	0.169964
1099.818666	0.167915
1099.979599	0.166789
1100.140513	0.166415
1100.301409	0.165196
1100.462287	0.169680
1100.623147	0.170149
1100.783989	0.166770
1100.944812	0.167141
1101.105617	0.168617
1101.266404	0.170500
1101.427173	0.169126
1101.587923	0.169611
1101.748656	0.175000
1101.909370	0.171939
1102.070066	0.166514
1102.230743	0.168344
1102.391403	0.165033
1102.552044	0.168455
1102.712667	0.172141
1102.873271	0.172104
1103.033858	0.171591
1103.194426	0.167130
1103.354976	0.165653
1103.515508	0.173091
1103.676021	0.174582
1103.836517	0.176521
1103.996994	0.174391
1104.157453	0.167179
1104.317893	0.170650
1104.478316	0.172549
1104.638720	0.172531
1104.799106	0.175801
1104.959474	0.174086
1105.119823	0.176197
1105.280155	0.174365
1105.440468	0.175742
1105.600763	0.179385
1105.761039	0.173955
1105.921298	0.169861
1106.081538	0.168656
1106.241760	0.165479
1106.401964	0.165173
1106.562149	0.158795
1106.722316	0.161300
1106.882465	0.161790
1107.042596	0.163697
1107.202709	0.166204
1107.362803	0.170135
1107.522879	0.169178
1107.682937	0.171745
1107.842977	0.172931
1108.002999	0.175791
1108.163002	0.179816
1108.322987	0.183597
1108.482954	0.177777
1108.642902	0.178261
1108.802833	0.173186
1108.962745	0.177001
1109.122639	0.180222
1109.282515	0.178341
1109.442372	0.184346
1109.602211	0.183497
1109.762032	0.177632
1109.921835	0.182015
1110.081620	0.183367
1110.241386	0.186405
1110.401134	0.183131
1110.560864	0.179991
1110.720576	0.177299
1110.880269	0.175194
1111.039945	0.175978
1111.199602	0.175404
1111.359240	0.179721
1111.518861	0.179190
1111.678463	0.182812
1111.838047	0.186816
1111.997613	0.188838
1112.157161	0.190134
1112.316690	0.191690
1112.476202	0.191301
1112.635695	0.193040
1112.795169	0.185925
1112.954626	0.186527
1113.114064	0.183220
1113.273484	0.177006
1113.432886	0.175320
1113.592270	0.182126
1113.751635	0.179110
1113.910983	0.177564
1114.070312	0.180450
1114.229622	0.182575
1114.388915	0.180963
1114.548189	0.183389
1114.707445	0.187614
1114.866683	0.185692
1115.025903	0.180800
1115.185104	0.175767
1115.344287	0.176429
1115.503452	0.172349
1115.662599	0.175100
1115.821727	0.176276
1115.980838	0.173355
1116.139930	0.173750
1116.299004	0.179361
1116.458059	0.176352
1116.617097	0.183591
1116.776116	0.184103
1116.935117	0.184087
1117.094099	0.180487
1117.253064	0.182923
1117.412010	0.185533
1117.570938	0.191714
1117.729848	0.185922
1117.888740	0.189316
1118.047613	0.186344
1118.206468	0.181974
1118.365305	0.182569
1118.524124	0.183141
1118.682924	0.182266
1118.841707	0.183472
1119.000471	0.178819
1119.159216	0.179436
1119.317944	0.178037
1119.476653	0.175395
1119.635344	0.173681
1119.794017	0.171241
1119.952672	0.169636
1120.111308	0.164952
1120.269927	0.164054
1120.428527	0.164397
1120.587108	0.165843
1120.745672	0.169493
1120.904217	0.172452
1121.062744	0.172875
1121.221253	0.175674
1121.379744	0.178313
1121.538216	0.179207
1121.696671	0.172015
1121.855107	0.167960
1122.013524	0.166301
1122.171924	0.163731
1122.330305	0.160613
1122.488668	0.164271
1122.647013	0.164197
1122.805340	0.163031
1122.963648	0.165556
1123.121938	0.173491
1123.280210	0.179055
1123.438464	0.180778
1123.596700	0.182911
1123.754917	0.180438
1123.913116	0.177097
1124.071297	0.179140
1124.229459	0.178795
1124.387604	0.180132
1124.545730	0.176617
1124.703838	0.174667
1124.861928	0.175759
1125.019999	0.177196
1125.178052	0.184216
1125.336088	0.186556
1125.494104	0.186739
1125.652103	0.188394
1125.810083	0.187975
1125.968045	0.188103
1126.125989	0.182090
1126.283915	0.180253
1126.441823	0.175017
1126.599712	0.169950
1126.757583	0.173503
1126.915436	0.172021
1127.073270	0.165088
1127.231087	0.162239
1127.388885	0.159983
1127.546665	0.165906
1127.704426	0.165150
1127.862170	0.169279
1128.019895	0.181417
1128.177602	0.173794
1128.335291	0.173780
1128.492961	0.177814
1128.650614	0.181540
1128.808248	0.185250
1128.965864	0.185991
1129.123461	0.188420
1129.281041	0.187203
1129.438602	0.181905
1129.596145	0.186429
1129.753670	0.185484
1129.911176	0.186102
1130.068665	0.177787
1130.226135	0.176710
1130.383587	0.171558
1130.541020	0.168506
1130.698436	0.167178
1130.855833	0.161054
1131.013212	0.160956
1131.170573	0.158788
1131.327915	0.163312
1131.485239	0.164686
1131.642545	0.167516
1131.799833	0.171663
1131.957103	0.174630
1132.114354	0.175988
1132.271588	0.182210
1132.428803	0.187452
1132.585999	0.191487
1132.743178	0.187777
1132.900338	0.190513
1133.057480	0.187830
1133.214604	0.185960
1133.371710	0.182320
1133.528797	0.172552
1133.685866	0.168100
1133.842917	0.163066
1133.999950	0.165389
1134.156964	0.160243
1134.313960	0.160047
1134.470938	0.156036
1134.627898	0.158343
1134.784840	0.167688
1134.941763	0.180881
1135.098668	0.181730
1135.255555	0.188215
1135.412424	0.182760
1135.569274	0.190636
1135.726107	0.192244
1135.882921	0.204682
1136.039716	0.206421
1136.196494	0.195583
1136.353253	0.189073
1136.509995	0.192513
1136.666717	0.187547
1136.823422	0.183707
1136.980109	0.184017
1137.136777	0.179076
1137.293427	0.167166
1137.450059	0.162649
1137.606672	0.161826
1137.763267	0.159188
1137.919844	0.154419
1138.076403	0.150465
1138.232944	0.158551
1138.389466	0.154842
1138.545971	0.162583
1138.702457	0.166191
1138.858924	0.165418
1139.015374	0.174710
1139.171805	0.174378
1139.328218	0.180067
1139.484613	0.187539
1139.640990	0.182467
1139.797348	0.185317
1139.953688	0.180008
1140.110010	0.182534
1140.266314	0.184294
1140.422600	0.174869
1140.578867	0.187703
1140.735116	0.181238
1140.891347	0.183432
1141.047559	0.186779
1141.203754	0.188721
1141.359930	0.195353
1141.516088	0.201054
1141.672228	0.200657
1141.828349	0.204674
1141.984452	0.194623
1142.140537	0.198441
1142.296604	0.188899
1142.452653	0.183278
1142.608683	0.174240
1142.764695	0.172245
1142.920689	0.160458
1143.076665	0.154055
1143.232622	0.161244
1143.388562	0.161714
1143.544483	0.162461
1143.700385	0.167550
1143.856270	0.174505
1144.012136	0.178405
1144.167985	0.171195
1144.323814	0.174060
1144.479626	0.177180
1144.635420	0.181448
1144.791195	0.186334
1144.946952	0.179523
1145.102691	0.180784
1145.258411	0.180597
1145.414113	0.178473
1145.569798	0.188729
1145.725463	0.188502
1145.881111	0.198184
1146.036741	0.187409
1146.192352	0.186270
1146.347945	0.191662
1146.503519	0.183120
1146.659076	0.183452
1146.814614	0.190875
1146.970134	0.183497
1147.125636	0.178710
1147.281120	0.177344
1147.436585	0.178886
1147.592032	0.170818
1147.747461	0.175117
1147.902872	0.182600
1148.058265	0.180041
1148.213639	0.184701
1148.368995	0.187153
1148.524333	0.193386
1148.679653	0.188955
1148.834954	0.179522
1148.990237	0.185546
1149.145502	0.185050
1149.300749	0.177236
1149.455977	0.180858
1149.611188	0.181250
1149.766380	0.184186
1149.921553	0.187117
1150.076709	0.189069
1150.231846	0.198063
1150.386966	0.198657
1150.542066	0.191118
1150.697149	0.201891
1150.852214	0.197811
1151.007260	0.191999
1151.162288	0.183234
1151.317298	0.183986
1151.472289	0.190778
1151.627263	0.190769
1151.782218	0.183135
1151.937155	0.185700
1152.092073	0.179870
1152.246974	0.183477
1152.401856	0.185081
1152.556720	0.184092
1152.711566	0.186619
1152.866393	0.176645
1153.021203	0.179090
1153.175994	0.172092
1153.330767	0.178508
1153.485521	0.172042
1153.640258	0.170632
1153.794976	0.165991
1153.949676	0.161899
1154.104358	0.155259
1154.259021	0.155150
1154.413667	0.150088
1154.568294	0.162568
1154.722903	0.157519
1154.877493	0.163630
1155.032066	0.153902
1155.186620	0.150693
1155.341156	0.159283
1155.495674	0.168603
1155.650173	0.176886
1155.804654	0.169961
1155.959118	0.166460
1156.113562	0.169294
1156.267989	0.166243
1156.422397	0.172609
1156.576788	0.171454
1156.731160	0.177083
1156.885513	0.169040
1157.039849	0.163199
1157.194166	0.169992
1157.348465	0.172643
1157.502746	0.171654
1157.657009	0.171479
1157.811253	0.170052
1157.965479	0.169957
1158.119687	0.161248
1158.273877	0.162743
1158.428048	0.166642
1158.582201	0.165195
1158.736337	0.170276
1158.890453	0.170854
1159.044552	0.173648
1159.198632	0.171636
1159.352694	0.180000
1159.506738	0.182876
1159.660764	0.185950
1159.814771	0.182660
1159.968761	0.179810
1160.122732	0.169749
1160.276685	0.165707
1160.430619	0.170133
1160.584535	0.169180
1160.738434	0.158445
1160.892313	0.152377
1161.046175	0.146658
1161.200019	0.158611
1161.353844	0.174032
1161.507651	0.170711
1161.661440	0.179718
1161.815210	0.177344
1161.968962	0.191178
1162.122697	0.204748
1162.276412	0.209959
1162.430110	0.209826
1162.583789	0.202865
1162.737451	0.196459
1162.891094	0.211975
1163.044718	0.210915
1163.198325	0.218396
1163.351913	0.204005
1163.505483	0.194147
1163.659035	0.206450
1163.812569	0.213740
1163.966084	0.209271
1164.119581	0.200191
1164.273060	0.190349
1164.426521	0.186686
1164.579964	0.183260
1164.733388	0.184463
1164.886794	0.189621
1165.040182	0.181639
1165.193551	0.166246
1165.346903	0.158318
1165.500236	0.165384
1165.653551	0.170420
1165.806848	0.160248
1165.960126	0.157139
1166.113386	0.159839
1166.266628	0.154019
1166.419852	0.150309
1166.573058	0.166573
1166.726245	0.176430
1166.879414	0.169838
1167.032565	0.171462
1167.185698	0.184525
1167.338812	0.177316
1167.491909	0.185603
1167.644987	0.201045
1167.798046	0.205582
1167.951088	0.199809
1168.104111	0.191270
1168.257117	0.186813
1168.410103	0.183660
1168.563072	0.164367
1168.716023	0.162476
1168.868955	0.166935
1169.021869	0.160999
1169.174765	0.152778
1169.327642	0.148925
1169.480501	0.154362
1169.633343	0.164618
1169.786165	0.165331
1169.938970	0.178054
1170.091757	0.192661
1170.244525	0.171296
1170.397275	0.167461
1170.550007	0.173522
1170.702720	0.179420
1170.855415	0.181666
1171.008092	0.177450
1171.160751	0.175923
1171.313392	0.174770
1171.466014	0.248330
1171.618619	0.165158
1171.771205	0.165158
1171.923772	0.165158
