sample name	sample
index	1383
start time	 05-03-2021  02:58:34 PM
880	0.443028
Peak Time (s)	91.546
Peak Height 	0.443
calc peak height	90,93
Baseline Time (s)	9.539
Baseline Value 	-0.002043
subtract baseline	10,4
Abs	0.305580
Peak Time (s)	92.538
Peak Height 	0.3056
calc peak height	90,93
Baseline Time (s)	8.538
Baseline Value 	4.813E-4
subtract baseline	10,3
PK_550	0.160900
Peak Time (s)	90.538
Peak Height 	0.1609
calc peak height	90,93
Baseline Time (s)	9.539
Baseline Value 	5.8535E-4
subtract baseline	10,2
PK_880	0.290108
Peak Time (s)	91.068
Peak Height 	0.2901
calc peak height	90,93
Baseline Time (s)	9.04
Baseline Value 	-1.9031E-4
subtract baseline	10,1


Time (s)	A880-A510	A880-A775	A880-A975	A880	I510	I775	I975	I880	
0.037000	-0.004005	-0.001121	-0.004245	0.005206	6099.122207	42106.917283	3925.090439	21949.404000
0.540500	0.000362	0.000453	-0.002227	0.003971	6139.552649	42360.669521	3932.306039	22003.427331
1.038000	-0.001515	-0.000395	0.001742	0.003176	6131.701795	42355.834257	3942.969367	22038.267649
1.549500	-0.000473	-0.000063	0.001311	0.001291	6152.977370	42557.147385	3946.247333	22121.130816
2.044500	-0.003275	-0.000966	-0.005422	0.005402	6102.955265	42103.263241	3922.063880	21940.862156
2.536000	-0.000047	-0.000585	-0.003788	0.001008	6158.157649	42535.404078	3935.433574	22133.617527
3.037000	0.001973	-0.000475	0.002616	-0.001844	6193.949774	42805.881491	3956.326288	22259.781723
3.539500	0.000135	-0.000064	0.000745	0.000056	6166.454958	42669.673041	3947.760045	22175.644370
4.039500	-0.001702	0.000050	-0.002800	0.004996	6117.198783	42231.554190	3928.756164	21958.608071
4.539500	0.001606	0.000291	0.002580	0.000923	6170.879238	42622.864831	3949.950618	22137.350199
5.037000	-0.000623	-0.000776	-0.002259	-0.000107	6162.101926	42619.616096	3941.356798	22182.864986
5.535500	-0.001390	-0.000433	-0.001577	-0.000084	6156.321186	42648.685635	3942.836235	22181.810962
6.037500	0.000181	-0.000197	-0.000555	-0.000166	6168.414004	42677.750083	3945.324331	22185.432369
6.537500	-0.002086	-0.000424	0.000927	-0.000268	6152.588575	42666.362745	3948.904692	22189.955924
7.038000	-0.000321	-0.000180	-0.001921	-0.000134	6164.509155	42676.397345	3942.175967	22184.044627
7.537500	-0.000637	0.000724	-0.003330	0.000118	6160.351285	42735.979761	3938.448497	22172.897319
8.037000	0.001769	0.000312	0.007710	0.000354	6176.248504	42676.751034	3962.955087	22162.457807
8.538000	-0.001545	0.000017	0.000000	0.000042	6154.274935	42678.360213	3946.108642	22176.264606
9.039500	0.000000	-0.000600	-0.002571	-0.000147	6166.949339	42639.196089	3940.742817	22184.597240
9.538500	-0.000247	0.000000	-0.000481	0.000000	6164.065170	42680.613305	3945.117559	22178.114532
10.037000	0.000525	-0.000871	0.004298	-0.000637	6174.397021	42659.187504	3957.410756	22206.277223
10.547000	-0.001294	0.000499	0.004070	0.000316	6154.104674	42697.332822	3954.715974	22164.149481
11.037500	0.001102	-0.000179	-0.000201	-0.000479	6177.472698	42708.035707	3946.830432	22199.299750
11.540500	0.002441	0.000824	0.001481	0.000244	6182.005281	42733.570937	3948.999815	22167.330838
12.046500	-0.001391	0.000219	0.001786	-0.000398	6158.608205	42737.044967	3951.148231	22195.715042
12.547000	-0.001428	-0.000950	-0.000382	-0.001378	6165.508145	42719.690307	3948.453966	22239.094012
13.056000	0.000339	0.001039	0.006639	-0.001682	6180.706827	42929.853847	3965.172926	22252.578137
13.536500	0.000238	0.000293	-0.000386	-0.000272	6169.607909	42732.260680	3945.944474	22190.132858
14.039500	-0.001071	-0.000560	-0.001951	0.000888	6151.561818	42548.575186	3939.814100	22138.917609
14.545000	0.000332	0.000299	0.001676	0.002256	6151.814197	42502.341639	3944.895846	22078.687861
15.045500	-0.001449	-0.000678	0.002572	-0.000897	6161.840555	42700.652329	3954.068789	22217.814195
15.548500	0.000889	0.000032	0.000568	-0.000207	6173.916475	42702.488670	3947.955542	22187.286267
16.046500	0.001153	-0.000449	0.002335	-0.001121	6182.571650	42742.022597	3954.037752	22227.711413
16.541000	-0.000192	-0.000260	-0.000682	-0.000152	6165.581565	42670.794827	3945.008097	22184.848143
17.049500	0.002768	-0.000592	0.002070	-0.001265	6195.553029	42742.173477	3953.763296	22234.113833
17.545000	0.001823	-0.000500	0.002350	-0.003865	6207.809932	42989.086566	3960.339644	22349.683846
18.047500	-0.000360	0.000165	-0.001208	0.000748	6157.766927	42627.336757	3941.795198	22145.071867
18.539500	0.000837	0.000366	0.001594	0.001094	6163.988538	42614.189690	3947.331267	22129.815484
19.042500	-0.000023	-0.000052	-0.001098	0.000731	6160.361661	42609.209423	3942.081980	22145.848157
19.539500	0.000433	0.000030	0.000033	0.000330	6166.634163	42653.224394	3945.532446	22163.545581
20.049000	-0.001012	-0.001073	-0.001365	-0.000221	6160.083245	42602.841812	3943.622802	22187.878435
20.545000	-0.000468	-0.000703	-0.006739	-0.000233	6164.152673	42637.704812	3931.620897	22188.416216
21.041500	0.001858	-0.000205	0.003295	0.000543	6175.522299	42612.347507	3952.437353	22154.138256
21.547000	-0.001328	-0.000772	-0.003039	0.000141	6155.134049	42597.299554	3939.046624	22171.862756
22.047000	-0.001231	-0.000404	0.000980	0.000377	6154.119150	42609.387256	3947.565461	22161.459339
22.539500	0.000302	-0.000402	0.000055	0.000447	6164.808768	42603.120061	3945.317790	22158.362180
23.055000	-0.000669	-0.000147	-0.001014	0.000354	6158.391647	42634.932283	3943.118886	22162.497240
23.539500	0.001179	0.000205	0.001558	0.000717	6169.259481	42633.860321	3948.104682	22146.454371
24.040000	-0.000480	0.000050	0.000799	0.000412	6159.349381	42647.582160	3947.077846	22159.918882
24.556000	0.002684	0.000219	-0.002074	0.000314	6183.280908	42671.946294	3940.825013	22164.255545
25.045000	0.000633	-0.000058	-0.001263	-0.000024	6170.690053	42677.484725	3943.409575	22179.177431
25.541000	0.000172	-0.000381	-0.000987	0.000290	6165.008081	42619.373315	3943.323471	22165.293056
26.038500	-0.000222	-0.000358	0.004161	-0.002170	6180.173215	42846.427375	3960.604254	22274.242533
26.541500	0.000449	0.000000	-0.000474	0.001454	6158.526582	42548.095501	3941.860335	22113.982787
27.037000	-0.001633	-0.000303	-0.001588	0.000385	6151.127320	42617.844300	3941.758309	22161.110436
27.540000	0.004793	0.000472	0.005174	-0.002118	6216.899407	42917.890547	3962.808649	22271.955925
28.037500	0.000269	-0.000381	-0.004148	-0.001082	6175.783670	42744.692221	3939.304263	22225.992785
28.537500	0.001126	-0.000379	0.002314	-0.000437	6177.342309	42685.877955	3952.434806	22197.427170
29.051500	0.000958	0.000699	-0.001095	-0.000236	6174.635615	42766.124815	3944.267061	22188.561263
29.538000	0.000339	-0.000720	0.002978	-0.001020	6175.844442	42708.075551	3955.274062	22223.260262
30.038500	-0.001316	-0.000761	-0.000323	0.001914	6142.304502	42437.050063	3941.163109	22093.696381
30.538000	-0.000483	0.000297	-0.000299	-0.000169	6163.577262	42723.203962	3945.910890	22185.598082
31.038500	0.000063	-0.000110	-0.002148	0.002181	6150.405018	42471.947011	3936.476488	22081.986234
31.538500	0.001592	0.000557	0.006146	0.001282	6168.150459	42614.509870	3957.249445	22121.548755
32.038500	-0.001375	-0.000288	-0.005749	0.002281	6139.208915	42446.663901	3928.237307	22077.571538
32.539000	0.002309	0.000235	0.002638	0.000087	6182.191699	42694.114428	3951.981980	22174.279731
33.046500	0.001492	-0.000761	0.002896	-0.000634	6181.483725	42669.000289	3954.207927	22206.150163
33.539500	0.000336	-0.000094	-0.003268	0.000058	6167.913200	42666.774021	3938.720699	22175.560057
34.047000	0.001320	0.000347	0.000261	-0.000206	6177.069623	42731.104232	3947.258470	22187.201863
34.538000	-0.000608	-0.000032	0.004089	0.001799	6148.297698	42513.702627	3951.387985	22098.775376
35.037500	-0.000655	0.000642	0.002728	0.002103	6145.741947	42547.472389	3947.616017	22085.416867
35.538500	0.001206	-0.000418	0.006816	0.001544	6163.398206	42501.820151	3958.179437	22109.990666
36.039000	-0.000624	0.000098	-0.004329	0.001855	6147.770164	42520.468588	3932.337437	22096.294773
36.539500	0.000843	0.001002	-0.003038	0.002447	6154.149932	42548.867242	3933.893131	22070.261315
37.038000	0.001254	-0.000041	0.005371	0.001456	6164.390921	42544.120198	3955.083299	22113.869140
37.538000	-0.003186	0.000118	0.002893	0.001425	6132.287136	42561.450377	3949.525300	22115.259860
38.037000	-0.001304	0.000061	-0.002517	0.001651	6144.307867	42535.636367	3936.836152	22105.291048
38.540000	-0.000568	0.000332	-0.001701	0.001600	6150.035196	42564.970128	3938.776678	22107.536870
39.037000	-0.001049	0.000249	-0.001818	0.001548	6146.918214	42562.163010	3938.631738	22109.847300
39.537500	-0.000555	0.000099	0.000598	0.001204	6153.018725	42579.808700	3944.837319	22124.991273
40.037500	-0.000157	-0.000205	0.003928	0.001188	6156.035457	42553.636533	3952.409329	22125.680508
40.536000	0.002583	0.000707	-0.003089	0.001717	6172.226854	42588.436306	3935.409234	22102.384356
41.035500	-0.000246	-0.000586	0.002169	0.000912	6157.407876	42544.045161	3949.046172	22137.871528
41.537500	-0.001177	0.000468	-0.002317	0.001085	6149.353903	42624.366234	3938.551573	22130.233721
42.039000	-0.000120	-0.000154	0.002525	0.000658	6160.182803	42606.458519	3950.427336	22149.042749
42.536000	0.000897	0.000023	0.001987	0.000933	6165.611062	42597.541511	3948.584929	22136.909637
43.039500	0.002171	-0.000265	-0.000924	0.000442	6178.566354	42616.140180	3943.122346	22158.590881
43.537000	0.001218	0.000632	0.000561	0.001193	6166.062507	42629.411760	3944.778637	22125.485015
44.037000	0.001207	-0.000205	-0.002314	0.000294	6172.568414	42635.006844	3940.331701	22165.107912
44.537500	0.001565	0.000183	0.002975	-0.000567	6181.530070	42749.167112	3954.234367	22203.190229
45.040500	-0.000194	0.000843	0.001301	-0.000174	6165.726382	42773.553017	3949.539191	22185.799204
45.538500	-0.000103	0.000771	-0.004079	-0.000603	6169.541159	42806.282897	3938.384927	22204.779988
46.044500	0.000451	0.000171	0.004497	0.000479	6165.671637	42652.571930	3955.318387	22156.975102
46.545000	-0.000062	0.000461	-0.001425	-0.000450	6168.719397	42763.935114	3944.003278	22198.010701
47.048000	-0.001859	0.000351	0.000173	-0.000574	6156.477416	42765.220816	3947.892660	22203.501922
47.543000	0.001783	0.000425	0.006159	-0.000921	6185.733247	42803.646086	3962.319916	22218.838172
48.053500	-0.000984	-0.000461	-0.000063	0.001275	6149.380188	42522.425249	3943.186725	22121.871820
48.551000	-0.000155	0.000122	0.001038	-0.000447	6168.012016	42732.556379	3949.562034	22197.873926
49.045000	-0.000162	-0.000051	0.000447	-0.000570	6168.861842	42728.027800	3948.502062	22203.300380
49.544500	0.000392	-0.000535	0.003489	-0.001447	6179.372354	42763.915155	3957.412856	22242.149302
50.045000	-0.000534	0.000012	0.002678	-0.000462	6165.349889	42723.901635	3953.319559	22198.536154
50.543500	0.002023	-0.000741	0.006028	-0.003530	6206.808571	42936.171580	3968.027210	22334.758591
51.046500	-0.000423	-0.000248	0.009732	0.001874	6149.098510	42487.366031	3964.109425	22095.494089
51.547000	0.005897	-0.007953	-0.001469	0.035713	5954.836385	38886.729123	3865.733386	20663.014916
52.047500	0.026186	-0.017339	-0.012356	0.328355	4571.385646	20911.699942	3413.033759	11996.671191
52.537000	0.020133	-0.028410	-0.013401	-0.086725	7053.161223	48380.335264	4126.579938	26420.169854
53.040000	0.024571	-0.080573	-0.007226	-0.270446	9259.047464	64429.646747	4763.366028	38760.466739
53.545500	0.035002	-0.069356	0.004205	-0.254449	9179.157901	63757.411278	4744.567024	37466.709045
54.041500	0.033973	-0.042361	0.012532	-0.208749	8547.318416	61197.069160	4597.871640	34022.709770
54.545000	0.044100	-0.025613	0.024055	-0.173069	8229.479724	58715.279212	4509.551197	31574.708660
55.047000	0.045765	-0.012800	0.029030	-0.120890	7653.658060	53888.840950	4350.525882	28338.177104
55.542000	0.048953	-0.006773	0.035507	-0.096803	7434.312548	51816.824576	4295.486765	26970.310488
56.039000	0.059925	0.000356	0.045484	-0.090977	7487.355090	51963.510487	4308.262463	26650.758144
56.552000	0.080852	0.013288	0.064544	-0.029541	7086.399524	46791.333291	4183.432165	23529.027407
57.050000	0.095198	0.023262	0.086251	0.035116	6637.789209	41612.644250	4068.745063	20687.327493
57.551000	0.106684	0.036494	0.105428	0.098145	6229.031010	37431.717718	3962.787459	18295.995275
58.040500	0.119985	0.043682	0.115959	0.137232	6042.040227	34994.724789	3899.322528	16978.241844
58.541000	0.137221	0.055769	0.135705	0.187547	5817.852044	32300.391499	3835.852261	15447.508514
59.038000	0.154535	0.070287	0.153153	0.208667	5793.138480	31858.654128	3828.525547	14855.977597
59.538000	0.177681	0.081973	0.174100	0.238393	5750.921873	30685.286757	3811.254748	14070.685179
60.041500	0.187628	0.087583	0.188548	0.269476	5619.541686	29109.183961	3779.470745	13305.020758
60.539000	0.202772	0.098311	0.202940	0.304060	5504.229029	27714.684642	3742.495292	12515.141224
61.039000	0.210371	0.105422	0.217760	0.341031	5339.497989	26073.794692	3703.857764	11737.472767
61.539000	0.223421	0.114348	0.227710	0.373957	5234.179526	24834.336447	3665.810479	11098.478083
62.037000	0.235408	0.120936	0.240054	0.387642	5225.399150	24480.690285	3663.651545	10846.813083
62.540000	0.235138	0.125994	0.240478	0.388561	5219.274725	24686.201704	3662.855064	10830.187157
63.037500	0.240706	0.128483	0.247298	0.383514	5274.553494	25065.457566	3682.173905	10921.893487
63.538000	0.241642	0.130137	0.251954	0.382100	5286.975767	25221.740836	3692.261277	10947.768814
64.045000	0.245049	0.132598	0.255776	0.382141	5304.883959	25345.838364	3698.615999	10947.014843
64.536500	0.250514	0.136301	0.260716	0.384705	5320.429884	25404.497391	3702.638065	10900.160926
65.043000	0.260250	0.138500	0.262295	0.388233	5354.052583	25336.071302	3699.336516	10836.123269
65.539000	0.258765	0.140090	0.261511	0.389757	5337.696755	25339.452350	3695.447426	10808.619500
66.050500	0.264392	0.141074	0.265539	0.393579	5347.495389	25194.095318	3695.793939	10740.080459
66.539500	0.263607	0.142494	0.269492	0.396571	5327.042464	25113.955009	3697.412360	10686.844575
67.039500	0.267324	0.143870	0.275022	0.400430	5326.272483	24988.009841	3700.233818	10618.718029
67.540000	0.267032	0.145099	0.271021	0.403198	5309.835131	24910.237505	3688.868822	10570.210099
68.040000	0.271838	0.146832	0.277175	0.407725	5311.330774	24769.867240	3691.584260	10491.562943
68.544000	0.269157	0.146979	0.276974	0.410699	5281.237618	24628.748856	3686.295157	10440.337108
69.040500	0.271596	0.147844	0.282581	0.414385	5274.654979	24488.856134	3689.492184	10377.336481
69.538000	0.272533	0.149251	0.273775	0.417551	5262.937221	24402.091332	3669.805725	10323.649901
70.042000	0.273914	0.150568	0.280796	0.418111	5267.240104	24439.342155	3680.362087	10314.187287
70.543000	0.273479	0.150829	0.285118	0.417829	5266.440330	24466.179567	3687.981952	10318.957385
71.050500	0.275452	0.153401	0.285150	0.420580	5262.358747	24457.330126	3683.472718	10272.645008
71.544000	0.276495	0.153666	0.285417	0.421955	5260.615518	24402.603719	3681.642413	10249.611460
72.037000	0.280059	0.155509	0.285569	0.424233	5267.364466	24381.222724	3678.145522	10211.609910
72.537000	0.278756	0.155209	0.289463	0.425538	5253.698681	24302.364162	3682.406515	10189.923190
73.040500	0.281895	0.155577	0.292693	0.428147	5256.473311	24192.847134	3683.432972	10146.781163
73.540500	0.278075	0.157544	0.286376	0.429147	5231.406674	24240.062098	3671.438211	10130.314336
74.044500	0.277202	0.157739	0.286851	0.429979	5222.600853	24208.929293	3670.857504	10116.629907
74.543000	0.278163	0.156485	0.292712	0.428443	5235.500856	24222.711668	3682.974139	10141.895950
75.044000	0.281116	0.157990	0.295666	0.430318	5241.094683	24204.666952	3684.759293	10111.063364
75.546500	0.284424	0.159372	0.291957	0.431484	5252.248888	24215.210808	3676.731376	10091.964243
76.047500	0.283470	0.160370	0.300018	0.432047	5244.342449	24236.414793	3689.115478	10082.754366
76.545000	0.285988	0.160367	0.287161	0.432011	5257.670774	24238.063432	3668.066343	10083.345511
77.042500	0.288446	0.159829	0.295581	0.432084	5270.181884	24208.246909	3681.700647	10082.156034
77.545500	0.285566	0.161215	0.297450	0.435295	5238.359333	24119.382807	3679.491363	10029.880774
78.043000	0.288168	0.163295	0.298114	0.436684	5244.662221	24152.955802	3678.300222	10007.382510
78.547000	0.286790	0.160454	0.297274	0.433740	5252.826078	24158.007242	3681.762703	10055.152743
79.049000	0.286574	0.160656	0.295772	0.433307	5253.958075	24188.914513	3680.000168	10062.192784
79.542000	0.288116	0.162057	0.300819	0.434735	5254.552459	24187.566921	3685.977787	10038.958687
80.052000	0.286238	0.161823	0.297600	0.435749	5239.491873	24126.829045	3678.990615	10022.512284
80.550500	0.287624	0.161809	0.297910	0.433780	5256.973769	24222.089563	3682.744163	10054.489407
81.045000	0.288031	0.161859	0.297358	0.433284	5261.698008	24248.739986	3682.652345	10062.564760
81.544000	0.284049	0.163110	0.296731	0.436621	5223.658638	24147.010379	3676.136554	10008.397100
82.406500	0.285149	0.162937	0.302846	0.434409	5240.794774	24246.472355	3689.893248	10044.259434
83.361000	0.285255	0.162584	0.300252	0.434639	5240.153008	24217.976984	3685.198967	10040.530971
83.457500	0.285537	0.164059	0.305491	0.435158	5238.919723	24264.686847	3693.062492	10032.103401
83.920000	0.287031	0.163493	0.294873	0.438365	5230.046212	24080.919249	3670.266521	9980.249845
84.387000	0.287327	0.163938	0.296566	0.435843	5244.664790	24225.307042	3677.140324	10021.000522
84.624500	0.286752	0.162348	0.298667	0.433610	5253.301041	24256.713719	3684.276860	10057.255291
85.036000	0.285343	0.162895	0.292186	0.433620	5245.908104	24283.008127	3673.614204	10057.098751
85.554500	0.286094	0.162544	0.299367	0.437475	5229.803913	24078.060274	3679.058833	9994.607569
86.037000	0.285506	0.162473	0.299803	0.433685	5246.413207	24259.139279	3686.034592	10056.032423
86.545500	0.288683	0.163297	0.295153	0.434725	5257.571809	24248.611353	3676.657890	10039.129786
87.112000	0.286757	0.162603	0.295980	0.434407	5249.171532	24230.254166	3678.534863	10044.297698
87.537500	0.284878	0.162231	0.299000	0.437751	5222.108498	24049.538189	3678.002165	9990.153020
88.035500	0.287228	0.161748	0.296787	0.435014	5248.462076	24158.955753	3678.862733	10034.435254
88.638500	0.287198	0.162259	0.300237	0.436648	5239.804727	24104.322896	3681.851887	10007.960480
89.038000	0.284255	0.160626	0.304890	0.435415	5230.949844	24084.945071	3691.627001	10027.936606
89.545000	0.285603	0.160862	0.300691	0.439936	5214.599154	23878.116840	3677.193135	9954.997549
90.043000	0.286253	0.159996	0.302484	0.437272	5231.675703	23964.641698	3684.533896	9997.881876
90.538000	0.286856	0.160900	0.296628	0.438656	5227.643232	23941.532652	3672.647994	9975.579196
91.068000	0.290108	0.160334	0.300331	0.438211	5246.810204	23935.689147	3679.432699	9982.738025
91.546000	0.282210	0.159452	0.295877	0.443028	5181.554287	23663.006871	3664.353281	9905.552696
92.041500	0.286115	0.160377	0.295407	0.440667	5213.477236	23819.796047	3667.403665	9943.285837
92.537500	0.287809	0.160862	0.305580	0.442150	5214.560566	23772.061940	3681.588843	9919.559472
93.036000	0.285643	0.159988	0.295819	0.441477	5206.908382	23762.458996	3666.760231	9930.313265
93.552000	0.287242	0.159729	0.308133	0.442738	5208.636344	23689.968577	3684.837202	9910.178436
94.045000	0.285302	0.158596	0.296685	0.442724	5198.799121	23636.760858	3666.145424	9910.399499
94.539000	0.288547	0.159440	0.301564	0.444133	5208.176697	23610.014468	3671.766994	9887.977519
95.614000	0.287147	0.158313	0.302899	0.445175	5195.711044	23507.388939	3672.243402	9871.432843
96.433500	0.286468	0.158082	0.300035	0.446160	5187.258295	23450.091182	3666.005975	9855.825930
96.598500	0.287438	0.159102	0.299762	0.446328	5191.332714	23490.221872	3665.295374	9853.176038
96.727000	0.289473	0.158710	0.302644	0.447010	5198.216596	23439.706629	3668.850344	9842.404556
97.035000	0.288493	0.158710	0.303716	0.448283	5186.764952	23379.926548	3668.525848	9822.337197
97.544500	0.292204	0.159223	0.306357	0.448533	5204.375705	23392.245954	3672.405315	9818.396485
98.035000	0.288644	0.159028	0.295960	0.449477	5181.486597	23338.905355	3654.185813	9803.565532
98.535500	0.288726	0.157713	0.305114	0.448915	5184.738217	23303.633001	3669.764705	9812.381261
99.080000	0.288357	0.159022	0.300005	0.450231	5176.222127	23303.310422	3659.423086	9791.729166
