sample name	sample
index	517
start time	 03-11-2021  03:39:50 PM


Wavelength (nm)	Absorbance
494.344910	0.644497
494.563924	0.644497
494.782919	0.644497
495.001897	0.215090
495.220856	0.132767
495.439797	-0.020337
495.658719	-0.090484
495.877624	-0.156122
496.096510	-0.178451
496.315378	-0.173946
496.534227	-0.019639
496.753059	-0.015863
496.971872	-0.053604
497.190667	0.119529
497.409444	0.149033
497.628203	0.153368
497.846943	0.156042
498.065665	0.157791
498.284369	0.159974
498.503055	0.158813
498.721723	0.158737
498.940372	0.159397
499.159003	0.160605
499.377616	0.161300
499.596210	0.160822
499.814787	0.161366
500.033345	0.161442
500.251885	0.162084
500.470406	0.162357
500.688910	0.162741
500.907395	0.162722
501.125862	0.161686
501.344311	0.161321
501.562742	0.162149
501.781154	0.162250
501.999548	0.162284
502.217924	0.160761
502.436282	0.161631
502.654621	0.161053
502.872942	0.162345
503.091245	0.163818
503.309530	0.164017
503.527797	0.164160
503.746045	0.163403
503.964275	0.163269
504.182487	0.164064
504.400681	0.164486
504.618856	0.166158
504.837013	0.165127
505.055152	0.164170
505.273273	0.163849
505.491376	0.163333
505.709460	0.164539
505.927526	0.164473
506.145574	0.163365
506.363604	0.163029
506.581615	0.163027
506.799608	0.164113
507.017583	0.164766
507.235540	0.165200
507.453478	0.165739
507.671399	0.165631
507.889301	0.165930
508.107185	0.167199
508.325050	0.166571
508.542898	0.164478
508.760727	0.165083
508.978538	0.166484
509.196330	0.166214
509.414105	0.166893
509.631861	0.166895
509.849599	0.167982
510.067319	0.167290
510.285021	0.167568
510.502704	0.168589
510.720369	0.167821
510.938016	0.167706
511.155645	0.168641
511.373255	0.167595
511.590848	0.166896
511.808422	0.166104
512.025977	0.166830
512.243515	0.167527
512.461034	0.168551
512.678536	0.168380
512.896018	0.167577
513.113483	0.166937
513.330930	0.167519
513.548358	0.168451
513.765768	0.168873
513.983160	0.168981
514.200533	0.169519
514.417889	0.169754
514.635226	0.170649
514.852545	0.170990
515.069845	0.171936
515.287128	0.173044
515.504392	0.173888
515.721638	0.173863
515.938866	0.173873
516.156075	0.173406
516.373267	0.173229
516.590440	0.173792
516.807594	0.173592
517.024731	0.173598
517.241850	0.172541
517.458950	0.172327
517.676032	0.173184
517.893095	0.173136
518.110141	0.173620
518.327168	0.174232
518.544177	0.173649
518.761168	0.173430
518.978141	0.172417
519.195095	0.173365
519.412031	0.172953
519.628949	0.172586
519.845849	0.173951
520.062731	0.174266
520.279594	0.173660
520.496439	0.174461
520.713266	0.175706
520.930074	0.177455
521.146865	0.177167
521.363637	0.178236
521.580391	0.178947
521.797127	0.178148
522.013844	0.177995
522.230543	0.178139
522.447224	0.177526
522.663887	0.177425
522.880532	0.177430
523.097158	0.178331
523.313766	0.177947
523.530356	0.178208
523.746928	0.178892
523.963481	0.179092
524.180017	0.179746
524.396534	0.180588
524.613032	0.180803
524.829513	0.181213
525.045975	0.181514
525.262420	0.181772
525.478845	0.182202
525.695253	0.182647
525.911643	0.183176
526.128014	0.183114
526.344367	0.183010
526.560702	0.183442
526.777018	0.183243
526.993316	0.183113
527.209597	0.183580
527.425858	0.183967
527.642102	0.184121
527.858328	0.184792
528.074535	0.186133
528.290724	0.187012
528.506894	0.187455
528.723047	0.187994
528.939181	0.188194
529.155297	0.188482
529.371395	0.188206
529.587475	0.188402
529.803536	0.188657
530.019579	0.188540
530.235604	0.188569
530.451611	0.188518
530.667600	0.188999
530.883570	0.189780
531.099522	0.190160
531.315456	0.190613
531.531372	0.191183
531.747269	0.191226
531.963148	0.191775
532.179009	0.192042
532.394852	0.193079
532.610676	0.192517
532.826482	0.193143
533.042271	0.193851
533.258040	0.194466
533.473792	0.194201
533.689525	0.194859
533.905240	0.194661
534.120937	0.194823
534.336616	0.194601
534.552277	0.195252
534.767919	0.195095
534.983543	0.194727
535.199149	0.193995
535.414736	0.194925
535.630306	0.194844
535.845857	0.195510
536.061390	0.195778
536.276904	0.196040
536.492401	0.196548
536.707879	0.196068
536.923339	0.196941
537.138781	0.197812
537.354204	0.197678
537.569610	0.197796
537.784997	0.198153
538.000366	0.198739
538.215716	0.199348
538.431049	0.199710
538.646363	0.200821
538.861659	0.200620
539.076937	0.200913
539.292196	0.201552
539.507438	0.201891
539.722661	0.202405
539.937866	0.202366
540.153052	0.202461
540.368221	0.202611
540.583371	0.202354
540.798503	0.202669
541.013617	0.203188
541.228712	0.203544
541.443789	0.203546
541.658848	0.203839
541.873889	0.204419
542.088912	0.205196
542.303916	0.205017
542.518902	0.206335
542.733870	0.206779
542.948820	0.207054
543.163752	0.206784
543.378665	0.207483
543.593560	0.207543
543.808437	0.207809
544.023295	0.207520
544.238136	0.208490
544.452958	0.208135
544.667762	0.208413
544.882548	0.207993
545.097315	0.209050
545.312064	0.209054
545.526795	0.208948
545.741508	0.208375
545.956203	0.208243
546.170879	0.208106
546.385537	0.208313
546.600177	0.208524
546.814799	0.208807
547.029402	0.208389
547.243988	0.208657
547.458555	0.208635
547.673103	0.209318
547.887634	0.209699
548.102146	0.210329
548.316640	0.210919
548.531116	0.211117
548.745574	0.211517
548.960013	0.211914
549.174435	0.212063
549.388838	0.212397
549.603222	0.212902
549.817589	0.213066
550.031937	0.213176
550.246267	0.213430
550.460579	0.213382
550.674873	0.213624
550.889148	0.213817
551.103405	0.214261
551.317644	0.214635
551.531865	0.214389
551.746068	0.214932
551.960252	0.214673
552.174418	0.214645
552.388566	0.215035
552.602696	0.215686
552.816807	0.215641
553.030900	0.215902
553.244975	0.216337
553.459032	0.216679
553.673070	0.217230
553.887091	0.217631
554.101093	0.217807
554.315077	0.217996
554.529042	0.217870
554.742990	0.218574
554.956919	0.218794
555.170830	0.218964
555.384722	0.219238
555.598597	0.219008
555.812453	0.219500
556.026291	0.219761
556.240111	0.219929
556.453913	0.220221
556.667696	0.220255
556.881461	0.220499
557.095208	0.220602
557.308937	0.221064
557.522647	0.221035
557.736339	0.220888
557.950013	0.220702
558.163669	0.220695
558.377307	0.220866
558.590926	0.221202
558.804527	0.221623
559.018110	0.221808
559.231675	0.222181
559.445221	0.222903
559.658749	0.223405
559.872259	0.223975
560.085751	0.224733
560.299225	0.224820
560.512680	0.224830
560.726117	0.224485
560.939536	0.224823
561.152937	0.224444
561.366319	0.223748
561.579683	0.223469
561.793029	0.223543
562.006357	0.223401
562.219667	0.223804
562.432958	0.223564
562.646231	0.224115
562.859486	0.224435
563.072723	0.224570
563.285941	0.225582
563.499141	0.226032
563.712323	0.226097
563.925487	0.226221
564.138632	0.226275
564.351760	0.226943
564.564869	0.226903
564.777960	0.226980
564.991032	0.227590
565.204087	0.227391
565.417123	0.227643
565.630141	0.228031
565.843140	0.228416
566.056122	0.228918
566.269085	0.228987
566.482030	0.229032
566.694957	0.228753
566.907866	0.228588
567.120756	0.229131
567.333628	0.229400
567.546482	0.229492
567.759318	0.229677
567.972135	0.229562
568.184935	0.229685
568.397716	0.230346
568.610478	0.230798
568.823223	0.230828
569.035949	0.231171
569.248657	0.231242
569.461347	0.231716
569.674019	0.231517
569.886672	0.232006
570.099308	0.231940
570.311925	0.231699
570.524523	0.231965
570.737104	0.232767
570.949666	0.232327
571.162210	0.232272
571.374736	0.231709
571.587244	0.232120
571.799733	0.231973
572.012205	0.232677
572.224658	0.233022
572.437092	0.233310
572.649509	0.233020
572.861907	0.233678
573.074287	0.234117
573.286649	0.234858
573.498993	0.235186
573.711318	0.235285
573.923625	0.235147
574.135914	0.235311
574.348185	0.235247
574.560438	0.235717
574.772672	0.235548
574.984888	0.236026
575.197086	0.236424
575.409266	0.236378
575.621427	0.236725
575.833570	0.237100
576.045695	0.237045
576.257802	0.237142
576.469890	0.237158
576.681961	0.237493
576.894013	0.237242
577.106046	0.236903
577.318062	0.237084
577.530059	0.237436
577.742039	0.237585
577.954000	0.237984
578.165942	0.238350
578.377867	0.238859
578.589773	0.239015
578.801661	0.239364
579.013531	0.239798
579.225382	0.239588
579.437216	0.239811
579.649031	0.240096
579.860828	0.239969
580.072606	0.240186
580.284367	0.239887
580.496109	0.240015
580.707833	0.239945
580.919539	0.239757
581.131227	0.240626
581.342896	0.240686
581.554547	0.240770
581.766180	0.241407
581.977795	0.242049
582.189391	0.242648
582.400969	0.242768
582.612529	0.242903
582.824071	0.243521
583.035595	0.243136
583.247100	0.243388
583.458587	0.243349
583.670056	0.243664
583.881506	0.243235
584.092939	0.243153
584.304353	0.243629
584.515749	0.244161
584.727127	0.244390
584.938486	0.244758
585.149828	0.244658
585.361151	0.245003
585.572456	0.245034
585.783742	0.245081
585.995011	0.245149
586.206261	0.245015
586.417493	0.244833
586.628706	0.244476
586.839902	0.245148
587.051079	0.245419
587.262238	0.245473
587.473379	0.245475
587.684502	0.245660
587.895606	0.245986
588.106692	0.246409
588.317760	0.246788
588.528810	0.247200
588.739841	0.246912
588.950855	0.247371
589.161850	0.247495
589.372827	0.247824
589.583785	0.248047
589.794726	0.248322
590.005648	0.248524
590.216552	0.248357
590.427437	0.248376
590.638305	0.248487
590.849154	0.248316
591.059985	0.248948
591.270798	0.248973
591.481592	0.249289
591.692369	0.249421
591.903127	0.249296
592.113867	0.249960
592.324588	0.250296
592.535292	0.250424
592.745977	0.250425
592.956644	0.250310
593.167293	0.250586
593.377923	0.250591
593.588536	0.250648
593.799130	0.250626
594.009706	0.250809
594.220263	0.251342
594.430803	0.252136
594.641324	0.252508
594.851827	0.252788
595.062312	0.252969
595.272778	0.253220
595.483227	0.253464
595.693657	0.254043
595.904069	0.254281
596.114462	0.254198
596.324838	0.254247
596.535195	0.254464
596.745534	0.254555
596.955855	0.254624
597.166157	0.254653
597.376441	0.255109
597.586707	0.255103
597.796955	0.254919
598.007185	0.255277
598.217396	0.255401
598.427589	0.255365
598.637764	0.255675
598.847921	0.255592
599.058060	0.255811
599.268180	0.255723
599.478282	0.255973
599.688366	0.256414
599.898431	0.256624
600.108479	0.256558
600.318508	0.257044
600.528519	0.257154
600.738511	0.257649
600.948486	0.258053
601.158442	0.258218
601.368380	0.258322
601.578300	0.258488
601.788202	0.258531
601.998085	0.258800
602.207950	0.258781
602.417797	0.258851
602.627626	0.259057
602.837436	0.259431
603.047228	0.259684
603.257002	0.260217
603.466758	0.260364
603.676496	0.260513
603.886215	0.260575
604.095916	0.260695
604.305599	0.261121
604.515264	0.261250
604.724910	0.261432
604.934538	0.261560
605.144148	0.261774
605.353740	0.262176
605.563314	0.262464
605.772869	0.262966
605.982406	0.263409
606.191925	0.263643
606.401425	0.263883
606.610908	0.263838
606.820372	0.263768
607.029818	0.263667
607.239246	0.263538
607.448655	0.263670
607.658047	0.263625
607.867420	0.263759
608.076775	0.263567
608.286111	0.263699
608.495430	0.264030
608.704730	0.264463
608.914012	0.264532
609.123275	0.264716
609.332521	0.264389
609.541748	0.264567
609.750957	0.264320
609.960148	0.264510
610.169321	0.264809
610.378475	0.264803
610.587611	0.264898
610.796729	0.265201
611.005829	0.265624
611.214910	0.266353
611.423974	0.266364
611.633019	0.266945
611.842045	0.267518
612.051054	0.267518
612.260044	0.267520
612.469017	0.267694
612.677970	0.267735
612.886906	0.267633
613.095824	0.267658
613.304723	0.267892
613.513604	0.267726
613.722467	0.267538
613.931311	0.267614
614.140138	0.267965
614.348946	0.268110
614.557736	0.268120
614.766507	0.268129
614.975261	0.268367
615.183996	0.268546
615.392713	0.268658
615.601412	0.268678
615.810092	0.268962
616.018754	0.268912
616.227399	0.268923
616.436024	0.269225
616.644632	0.269546
616.853222	0.269454
617.061793	0.269259
617.270346	0.269638
617.478880	0.269971
617.687397	0.270031
617.895895	0.270379
618.104375	0.270627
618.312837	0.270728
618.521281	0.271203
618.729706	0.271502
618.938113	0.272080
619.146502	0.272478
619.354873	0.272716
619.563226	0.272752
619.771560	0.272938
619.979876	0.273183
620.188174	0.273536
620.396453	0.273458
620.604715	0.273782
620.812958	0.273805
621.021183	0.273789
621.229390	0.273608
621.437578	0.273863
621.645748	0.273842
621.853900	0.274052
622.062034	0.274105
622.270150	0.274006
622.478247	0.273833
622.686326	0.274130
622.894387	0.274345
623.102430	0.274711
623.310454	0.274952
623.518461	0.274924
623.726449	0.274752
623.934418	0.274953
624.142370	0.275403
624.350303	0.275542
624.558218	0.275479
624.766115	0.275760
624.973994	0.276073
625.181855	0.276142
625.389697	0.276806
625.597521	0.276854
625.805327	0.276673
626.013114	0.276520
626.220883	0.276836
626.428634	0.276906
626.636367	0.276627
626.844082	0.276504
627.051778	0.276812
627.259457	0.276799
627.467117	0.277186
627.674758	0.277795
627.882382	0.278297
628.089987	0.278383
628.297574	0.278889
628.505143	0.279168
628.712694	0.279583
628.920226	0.279880
629.127740	0.280096
629.335236	0.280308
629.542714	0.280211
629.750174	0.280060
629.957615	0.280354
630.165038	0.280238
630.372443	0.280270
630.579829	0.280250
630.787198	0.280093
630.994548	0.280208
631.201880	0.280460
631.409194	0.280735
631.616489	0.281267
631.823766	0.281575
632.031025	0.281741
632.238266	0.281991
632.445489	0.282388
632.652693	0.282761
632.859879	0.283047
633.067047	0.283017
633.274197	0.283222
633.481329	0.283201
633.688442	0.283074
633.895537	0.283129
634.102614	0.283487
634.309672	0.283383
634.516713	0.283207
634.723735	0.283049
634.930739	0.283279
635.137724	0.283351
635.344692	0.283556
635.551641	0.283467
635.758572	0.283926
635.965485	0.284059
636.172379	0.284422
636.379256	0.284730
636.586114	0.284986
636.792954	0.284995
636.999775	0.285257
637.206579	0.285714
637.413364	0.286067
637.620131	0.286139
637.826880	0.286150
638.033610	0.286003
638.240323	0.286131
638.447017	0.286419
638.653692	0.286913
638.860350	0.286865
639.066990	0.286730
639.273611	0.286887
639.480214	0.287261
639.686798	0.287263
639.893365	0.287409
640.099913	0.287357
640.306443	0.287468
640.512955	0.287748
640.719449	0.287904
640.925924	0.287951
641.132381	0.288194
641.338820	0.288122
641.545241	0.288776
641.751644	0.289333
641.958028	0.289967
642.164394	0.290050
642.370742	0.289820
642.577071	0.289937
642.783383	0.290229
642.989676	0.290475
643.195951	0.290458
643.402207	0.290371
643.608446	0.290247
643.814666	0.290335
644.020868	0.290793
644.227052	0.291209
644.433218	0.291430
644.639365	0.291565
644.845494	0.291358
645.051605	0.291977
645.257698	0.292056
645.463772	0.292390
645.669828	0.292622
645.875866	0.292601
646.081886	0.292820
646.287888	0.293065
646.493871	0.293045
646.699836	0.293316
646.905783	0.293222
647.111712	0.293640
647.317622	0.293737
647.523514	0.293897
647.729388	0.294115
647.935244	0.294209
648.141082	0.294658
648.346901	0.294877
648.552702	0.295355
648.758485	0.295826
648.964250	0.296165
649.169996	0.296473
649.375724	0.296580
649.581434	0.296840
649.787126	0.297036
649.992800	0.296879
650.198455	0.297135
650.404092	0.297112
650.609711	0.296889
650.815311	0.296549
651.020894	0.296732
651.226458	0.296937
651.432004	0.297125
651.637532	0.297384
651.843041	0.297675
652.048532	0.297944
652.254006	0.298437
652.459460	0.298678
652.664897	0.298881
652.870315	0.298705
653.075716	0.298626
653.281097	0.298523
653.486461	0.298636
653.691807	0.298844
653.897134	0.299121
654.102443	0.299271
654.307734	0.299615
654.513006	0.300065
654.718261	0.300654
654.923497	0.301070
655.128715	0.301737
655.333915	0.302116
655.539096	0.302344
655.744259	0.302510
655.949404	0.302794
656.154531	0.302994
656.359640	0.303104
656.564730	0.303233
656.769802	0.303542
656.974856	0.303463
657.179892	0.303449
657.384909	0.303452
657.589908	0.303686
657.794889	0.303628
657.999852	0.303856
658.204797	0.304205
658.409723	0.304343
658.614631	0.304409
658.819521	0.304914
659.024393	0.305162
659.229246	0.305747
659.434081	0.305912
659.638898	0.306200
659.843697	0.306689
660.048478	0.306869
660.253240	0.307034
660.457984	0.307249
660.662710	0.307077
660.867417	0.307249
661.072107	0.307229
661.276778	0.307514
661.481431	0.307833
661.686066	0.307771
661.890682	0.308062
662.095281	0.308261
662.299861	0.308425
662.504422	0.308564
662.708966	0.308901
662.913491	0.309109
663.117999	0.309162
663.322488	0.309227
663.526958	0.309556
663.731411	0.309908
663.935845	0.310246
664.140261	0.310577
664.344659	0.311005
664.549038	0.311232
664.753400	0.311633
664.957743	0.311982
665.162068	0.312231
665.366375	0.312305
665.570663	0.311993
665.774933	0.312220
665.979185	0.312389
666.183419	0.312689
666.387635	0.312990
666.591832	0.313058
666.796011	0.313296
667.000172	0.313574
667.204315	0.313625
667.408439	0.313937
667.612545	0.314211
667.816634	0.314495
668.020703	0.314538
668.224755	0.314607
668.428788	0.314850
668.632803	0.315010
668.836800	0.315063
669.040779	0.315511
669.244739	0.315914
669.448681	0.315958
669.652605	0.316148
669.856511	0.316543
670.060399	0.316632
670.264268	0.316970
670.468119	0.317104
670.671952	0.317551
670.875767	0.317700
671.079563	0.318164
671.283341	0.318202
671.487101	0.318273
671.690843	0.318368
671.894567	0.318809
672.098272	0.318951
672.301959	0.319112
672.505628	0.319340
672.709278	0.319568
672.912911	0.319397
673.116525	0.319900
673.320121	0.320168
673.523699	0.320295
673.727258	0.320283
673.930799	0.320247
674.134322	0.320645
674.337827	0.320732
674.541314	0.321075
674.744782	0.321620
674.948232	0.321492
675.151664	0.321938
675.355078	0.322375
675.558474	0.322818
675.761851	0.323085
675.965210	0.323025
676.168551	0.323270
676.371873	0.323428
676.575178	0.323343
676.778464	0.323877
676.981732	0.324080
677.184981	0.324352
677.388213	0.324359
677.591426	0.324897
677.794621	0.325331
677.997798	0.325371
678.200956	0.325674
678.404097	0.326076
678.607219	0.326448
678.810323	0.326320
679.013408	0.326661
679.216476	0.326838
679.419525	0.326966
679.622556	0.327190
679.825569	0.327935
680.028563	0.327804
680.231540	0.327868
680.434498	0.327826
680.637438	0.328395
680.840359	0.328456
681.043263	0.328822
681.246148	0.329082
681.449015	0.329339
681.651864	0.329409
681.854694	0.329986
682.057506	0.330512
682.260301	0.330853
682.463076	0.330946
682.665834	0.331113
682.868573	0.331465
683.071295	0.331538
683.273998	0.331613
683.476682	0.331738
683.679349	0.331826
683.881997	0.331643
684.084627	0.331906
684.287239	0.332077
684.489833	0.331940
684.692408	0.331931
684.894965	0.331963
685.097504	0.332343
685.300025	0.332628
685.502527	0.332895
685.705012	0.333315
685.907478	0.333501
686.109925	0.333828
686.312355	0.334387
686.514766	0.334804
686.717159	0.335103
686.919534	0.335467
687.121891	0.335437
687.324230	0.335628
687.526550	0.335969
687.728852	0.335955
687.931136	0.335843
688.133401	0.336064
688.335649	0.335947
688.537878	0.336255
688.740089	0.336278
688.942281	0.336674
689.144456	0.336938
689.346612	0.336911
689.548750	0.337249
689.750870	0.337659
689.952971	0.337364
690.155055	0.337660
690.357120	0.337825
690.559167	0.337874
690.761195	0.337707
690.963206	0.337999
691.165198	0.338056
691.367172	0.338265
691.569128	0.338357
691.771065	0.338923
691.972984	0.339113
692.174885	0.339380
692.376768	0.339787
692.578633	0.340029
692.780479	0.339930
692.982308	0.340205
693.184118	0.340676
693.385909	0.340773
693.587683	0.340849
693.789438	0.341202
693.991175	0.341393
694.192894	0.341134
694.394595	0.341437
694.596277	0.341597
694.797941	0.341866
694.999587	0.341873
695.201215	0.342079
695.402824	0.342243
695.604416	0.342285
695.805989	0.342263
696.007543	0.342672
696.209080	0.342914
696.410598	0.343055
696.612099	0.343405
696.813580	0.343387
697.015044	0.343470
697.216490	0.343691
697.417917	0.343948
697.619326	0.344126
697.820717	0.344394
698.022089	0.344347
698.223444	0.344562
698.424780	0.344803
698.626098	0.345025
698.827397	0.345290
699.028679	0.345482
699.229942	0.345693
699.431187	0.345789
699.632414	0.345810
699.833622	0.346175
700.034813	0.346416
700.235985	0.346254
700.437139	0.346300
700.638274	0.346661
700.839392	0.346848
701.040491	0.347086
701.241572	0.347475
701.442635	0.347909
701.643679	0.348117
701.844706	0.348400
702.045714	0.348327
702.246704	0.348513
702.447675	0.348446
702.648629	0.348518
702.849564	0.348483
703.050481	0.348598
703.251380	0.348717
703.452260	0.348683
703.653122	0.348668
703.853966	0.349009
704.054792	0.349237
704.255600	0.349331
704.456389	0.349626
704.657160	0.349663
704.857913	0.349680
705.058648	0.349568
705.259365	0.349598
705.460063	0.349313
705.660743	0.349353
705.861405	0.349260
706.062048	0.349343
706.262674	0.349030
706.463281	0.348918
706.663870	0.348895
706.864441	0.348902
707.064993	0.348968
707.265527	0.349252
707.466043	0.349290
707.666541	0.349595
707.867021	0.349716
708.067482	0.349812
708.267925	0.349887
708.468350	0.350153
708.668757	0.350343
708.869145	0.350724
709.069516	0.350685
709.269868	0.350683
709.470201	0.350527
709.670517	0.350605
709.870814	0.350954
710.071093	0.351153
710.271354	0.351033
710.471597	0.350778
710.671821	0.350627
710.872028	0.350582
711.072216	0.350277
711.272385	0.350260
711.472537	0.350071
711.672670	0.349587
711.872785	0.349302
712.072882	0.349436
712.272961	0.349313
712.473021	0.348954
712.673063	0.348925
712.873087	0.349324
713.073093	0.349379
713.273081	0.349597
713.473050	0.349916
713.673001	0.350148
713.872934	0.350111
714.072849	0.350481
714.272745	0.350816
714.472623	0.351044
714.672483	0.350996
714.872325	0.350696
715.072148	0.350588
715.271954	0.350456
715.471741	0.350487
715.671509	0.350317
715.871260	0.349866
716.070992	0.349657
716.270707	0.349726
716.470403	0.349580
716.670080	0.349724
716.869740	0.349756
717.069381	0.350029
717.269004	0.349918
717.468609	0.349714
717.668195	0.350393
717.867764	0.350473
718.067314	0.350325
718.266846	0.350796
718.466360	0.350949
718.665855	0.350598
718.865332	0.350133
719.064791	0.350009
719.264232	0.350121
719.463655	0.349417
719.663059	0.349462
719.862445	0.349460
720.061813	0.349115
720.261163	0.348864
720.460494	0.348893
720.659807	0.348915
720.859102	0.349118
721.058379	0.348987
721.257638	0.348930
721.456878	0.348748
721.656100	0.348711
721.855304	0.348680
722.054490	0.348674
722.253657	0.348709
722.452806	0.348686
722.651937	0.348500
722.851050	0.348500
723.050145	0.348906
723.249221	0.349098
723.448279	0.348929
723.647319	0.348565
723.846340	0.348613
724.045344	0.348563
724.244329	0.348645
724.443296	0.348284
724.642245	0.348312
724.841175	0.347948
725.040088	0.347752
725.238982	0.347754
725.437857	0.347664
725.636715	0.347540
725.835554	0.347616
726.034376	0.347524
726.233179	0.347691
726.431963	0.347244
726.630730	0.347236
726.829478	0.346934
727.028208	0.346957
727.226920	0.347087
727.425614	0.346947
727.624289	0.346435
727.822946	0.346061
728.021585	0.345997
728.220206	0.346182
728.418808	0.346036
728.617392	0.346165
728.815958	0.345596
729.014506	0.345538
729.213036	0.345461
729.411547	0.345797
729.610040	0.346005
729.808515	0.345861
730.006972	0.345928
730.205410	0.345929
730.403831	0.345535
730.602233	0.345829
730.800616	0.345696
730.998982	0.345685
731.197329	0.345380
731.395658	0.344970
731.593969	0.344932
731.792262	0.344748
731.990536	0.344203
732.188793	0.343974
732.387031	0.343375
732.585250	0.343109
732.783452	0.342774
732.981635	0.342727
733.179800	0.342747
733.377947	0.342054
733.576076	0.341770
733.774186	0.341807
733.972278	0.341720
734.170352	0.341757
734.368408	0.341610
734.566446	0.341349
734.764465	0.340939
734.962466	0.340791
735.160449	0.341121
735.358413	0.340937
735.556360	0.340892
735.754288	0.340845
735.952198	0.340790
736.150090	0.340507
736.347963	0.340549
736.545818	0.340401
736.743655	0.340202
736.941474	0.339860
737.139275	0.339802
737.337057	0.339443
737.534821	0.339261
737.732567	0.339072
737.930295	0.339202
738.128005	0.338885
738.325696	0.338902
738.523369	0.338708
738.721024	0.338573
738.918660	0.338264
739.116279	0.338169
739.313879	0.338103
739.511461	0.337762
739.709024	0.337346
739.906570	0.337203
740.104097	0.336965
740.301606	0.336917
740.499097	0.336673
740.696569	0.336695
740.894024	0.336576
741.091460	0.336357
741.288878	0.336202
741.486277	0.336186
741.683659	0.336047
741.881022	0.335961
742.078367	0.335792
742.275694	0.335558
742.473002	0.335090
742.670293	0.334748
742.867565	0.334699
743.064819	0.334570
743.262054	0.334132
743.459272	0.333984
743.656471	0.333924
743.853652	0.333534
744.050815	0.333448
744.247959	0.333643
744.445085	0.333654
744.642194	0.333442
744.839283	0.333550
745.036355	0.333307
745.233408	0.333222
745.430444	0.332726
745.627461	0.332371
745.824459	0.332536
746.021440	0.332149
746.218402	0.331961
746.415346	0.331642
746.612272	0.331249
746.809180	0.331214
747.006069	0.330856
747.202940	0.330635
747.399793	0.330645
747.596628	0.330087
747.793444	0.330033
747.990243	0.329836
748.187023	0.329650
748.383784	0.329580
748.580528	0.329310
748.777253	0.329159
748.973960	0.329088
749.170649	0.329141
749.367320	0.329033
749.563973	0.328731
749.760607	0.328458
749.957223	0.328262
750.153821	0.328035
750.350400	0.328206
750.546962	0.327755
750.743505	0.327633
750.940030	0.327371
751.136536	0.326961
751.333025	0.326816
751.529495	0.326939
751.725947	0.326711
751.922381	0.326524
752.118796	0.326287
752.315194	0.326474
752.511573	0.326325
752.707934	0.325984
752.904276	0.326069
753.100601	0.325839
753.296907	0.325462
753.493195	0.325385
753.689465	0.325090
753.885716	0.324792
754.081949	0.324634
754.278164	0.324499
754.474361	0.324426
754.670540	0.324187
754.866700	0.323719
755.062843	0.323501
755.258967	0.323207
755.455072	0.322879
755.651160	0.322676
755.847229	0.322458
756.043280	0.322195
756.239313	0.322084
756.435328	0.321993
756.631324	0.322025
756.827302	0.321956
757.023262	0.321798
757.219204	0.321769
757.415127	0.321565
757.611033	0.321353
757.806920	0.321201
758.002788	0.320970
758.198639	0.320855
758.394471	0.321176
758.590286	0.320822
758.786081	0.320665
758.981859	0.320913
759.177619	0.320730
759.373360	0.320810
759.569083	0.320628
759.764788	0.320375
759.960474	0.320356
760.156143	0.319650
760.351793	0.319659
760.547425	0.319528
760.743038	0.318989
760.938634	0.318757
761.134211	0.318384
761.329770	0.318323
761.525311	0.317973
761.720833	0.317591
761.916338	0.317464
762.111824	0.317429
762.307292	0.317086
762.502741	0.317251
762.698173	0.317307
762.893586	0.317363
763.088981	0.317260
763.284358	0.317367
763.479716	0.317265
763.675057	0.317316
763.870379	0.316996
764.065683	0.317122
764.260968	0.316502
764.456236	0.316441
764.651485	0.315929
764.846716	0.315737
765.041929	0.315539
765.237123	0.315165
765.432299	0.314933
765.627457	0.314615
765.822597	0.314506
766.017719	0.314545
766.212822	0.314142
766.407907	0.313903
766.602974	0.313719
766.798023	0.313458
766.993054	0.313529
767.188066	0.313497
767.383060	0.313554
767.578036	0.313124
767.772993	0.313168
767.967933	0.313301
768.162854	0.313453
768.357757	0.313223
768.552642	0.313426
768.747508	0.313014
768.942356	0.312943
769.137186	0.312776
769.331998	0.313024
769.526792	0.312956
769.721567	0.312766
769.916324	0.312831
770.111063	0.312864
770.305784	0.312865
770.500486	0.313047
770.695171	0.313156
770.889837	0.313231
771.084484	0.312894
771.279114	0.312674
771.473725	0.312616
771.668318	0.312444
771.862893	0.312300
772.057450	0.312016
772.251988	0.312086
772.446509	0.311916
772.641011	0.311659
772.835494	0.311838
773.029960	0.312111
773.224407	0.312316
773.418836	0.312401
773.613247	0.312426
773.807640	0.312588
774.002014	0.312515
774.196370	0.312298
774.390708	0.312635
774.585028	0.312365
774.779330	0.311970
774.973613	0.311516
775.167878	0.311222
775.362125	0.311187
775.556354	0.310902
775.750564	0.311034
775.944756	0.311105
776.138930	0.310865
776.333086	0.310648
776.527223	0.310734
776.721343	0.311005
776.915444	0.311089
777.109526	0.311168
777.303591	0.311369
777.497637	0.311338
777.691666	0.311169
777.885676	0.311203
778.079667	0.311623
778.273641	0.311639
778.467596	0.311384
778.661533	0.311287
778.855452	0.311098
779.049352	0.311112
779.243235	0.311123
779.437099	0.311062
779.630945	0.311206
779.824773	0.310978
780.018582	0.310826
780.212373	0.310869
780.406146	0.311311
780.599901	0.311514
780.793638	0.311167
780.987356	0.310903
781.181056	0.310880
781.374738	0.310739
781.568402	0.311053
781.762047	0.311035
781.955674	0.311127
782.149283	0.310822
782.342874	0.310712
782.536447	0.310887
782.730001	0.311043
782.923537	0.311313
783.117055	0.311317
783.310555	0.311121
783.504036	0.311318
783.697499	0.311208
783.890944	0.311173
784.084371	0.311393
784.277780	0.311475
784.471170	0.311346
784.664542	0.311404
784.857896	0.311405
785.051231	0.311505
785.244549	0.311549
785.437848	0.311807
785.631129	0.311828
785.824392	0.311632
786.017636	0.311702
786.210863	0.311840
786.404071	0.311551
786.597260	0.311298
786.790432	0.311143
786.983585	0.311107
787.176721	0.311147
787.369838	0.311431
787.562936	0.311540
787.756017	0.311427
787.949079	0.311459
788.142123	0.311653
788.335149	0.312097
788.528156	0.312258
788.721146	0.312491
788.914117	0.312432
789.107070	0.312270
789.300005	0.312551
789.492921	0.312969
789.685819	0.312920
789.878699	0.313100
790.071561	0.312985
790.264405	0.313257
790.457230	0.313258
790.650037	0.313373
790.842826	0.313485
791.035597	0.313542
791.228349	0.313372
791.421084	0.313785
791.613800	0.313928
791.806497	0.313989
791.999177	0.314030
792.191838	0.314112
792.384481	0.314131
792.577106	0.314365
792.769713	0.314495
792.962301	0.314802
793.154871	0.315032
793.347423	0.315417
793.539957	0.315676
793.732473	0.315836
793.924970	0.316120
794.117449	0.316376
794.309910	0.316380
794.502353	0.316454
794.694777	0.316570
794.887183	0.316523
795.079571	0.316415
795.271941	0.316715
795.464293	0.317047
795.656626	0.316968
795.848941	0.317277
796.041238	0.317598
796.233516	0.317645
796.425777	0.317757
796.618019	0.318066
796.810243	0.318013
797.002449	0.318294
797.194636	0.318389
797.386805	0.318679
797.578956	0.318824
797.771089	0.318687
797.963204	0.318941
798.155300	0.318916
798.347378	0.318667
798.539438	0.318705
798.731480	0.318841
798.923503	0.318979
799.115509	0.318983
799.307496	0.319149
799.499465	0.319446
799.691415	0.319621
799.883348	0.319782
800.075262	0.320139
800.267158	0.320456
800.459035	0.320602
800.650895	0.320452
800.842736	0.320673
801.034559	0.320672
801.226364	0.321031
801.418150	0.321161
801.609919	0.321698
801.801669	0.321964
801.993401	0.322316
802.185114	0.322467
802.376810	0.322894
802.568487	0.323045
802.760146	0.323329
802.951787	0.323425
803.143409	0.323709
803.335014	0.323782
803.526600	0.324247
803.718168	0.324416
803.909717	0.324791
804.101249	0.324740
804.292762	0.325164
804.484257	0.325459
804.675734	0.325767
804.867192	0.325898
805.058632	0.326030
805.250054	0.326017
805.441458	0.326463
805.632844	0.326750
805.824211	0.327387
806.015561	0.327371
806.206891	0.327481
806.398204	0.327463
806.589499	0.327665
806.780775	0.327889
806.972033	0.328069
807.163273	0.327906
807.354495	0.327958
807.545698	0.328019
807.736883	0.328541
807.928050	0.328961
808.119199	0.329420
808.310329	0.329660
808.501441	0.330011
808.692535	0.330246
808.883611	0.331025
809.074669	0.331213
809.265708	0.331307
809.456729	0.331145
809.647732	0.331328
809.838717	0.331732
810.029683	0.332245
810.220632	0.332439
810.411562	0.332787
810.602474	0.332535
810.793367	0.332952
810.984242	0.333304
811.175100	0.334080
811.365938	0.334478
811.556759	0.334753
811.747562	0.334811
811.938346	0.335234
812.129112	0.335772
812.319860	0.336532
812.510589	0.336651
812.701300	0.337120
812.891994	0.337299
813.082668	0.337539
813.273325	0.337964
813.463964	0.338204
813.654584	0.338422
813.845186	0.338532
814.035769	0.338795
814.226335	0.339072
814.416882	0.339547
814.607411	0.339680
814.797922	0.339530
814.988415	0.339617
815.178889	0.340126
815.369345	0.340572
815.559783	0.340878
815.750203	0.341134
815.940605	0.341492
816.130988	0.341878
816.321353	0.342411
816.511700	0.343160
816.702028	0.343317
816.892339	0.343585
817.082631	0.343749
817.272905	0.343935
817.463161	0.344034
817.653398	0.344157
817.843617	0.344470
818.033819	0.344637
818.224001	0.344864
818.414166	0.345157
818.604312	0.345516
818.794440	0.345732
818.984550	0.346292
819.174642	0.346660
819.364716	0.347276
819.554771	0.347202
819.744808	0.347552
819.934827	0.347633
820.124827	0.348132
820.314810	0.348439
820.504774	0.348781
820.694720	0.348595
820.884647	0.349060
821.074557	0.349402
821.264448	0.349902
821.454321	0.350460
821.644176	0.350901
821.834012	0.351359
822.023831	0.351770
822.213631	0.352301
822.403413	0.353021
822.593176	0.353294
822.782922	0.353539
822.972649	0.353684
823.162358	0.353967
823.352049	0.354467
823.541721	0.354720
823.731376	0.355059
823.921012	0.355268
824.110629	0.355694
824.300229	0.356024
824.489811	0.356537
824.679374	0.357222
824.868919	0.357626
825.058445	0.358028
825.247954	0.358377
825.437444	0.358688
825.626916	0.359475
825.816370	0.359548
826.005806	0.360142
826.195223	0.360174
826.384622	0.360788
826.574003	0.361217
826.763366	0.361870
826.952711	0.362313
827.142037	0.362796
827.331345	0.363022
827.520635	0.363547
827.709906	0.364029
827.899160	0.364859
828.088395	0.365235
828.277612	0.365820
828.466810	0.366318
828.655991	0.366862
828.845153	0.367319
829.034297	0.367543
829.223423	0.368144
829.412531	0.368344
829.601620	0.368576
829.790691	0.368592
829.979744	0.368692
830.168779	0.368812
830.357795	0.369018
830.546793	0.369466
830.735773	0.369864
830.924735	0.370347
831.113679	0.370648
831.302604	0.370789
831.491511	0.371247
831.680400	0.371917
831.869271	0.372408
832.058123	0.372696
832.246957	0.373109
832.435773	0.373706
832.624571	0.373800
832.813351	0.374229
833.002112	0.375002
833.190855	0.375675
833.379580	0.375881
833.568287	0.376371
833.756975	0.376973
833.945645	0.377458
834.134297	0.377838
834.322931	0.378439
834.511547	0.379156
834.700144	0.379547
834.888723	0.380072
835.077284	0.380424
835.265826	0.380709
835.454351	0.381101
835.642857	0.381297
835.831345	0.381469
836.019815	0.381938
836.208266	0.382157
836.396699	0.382475
836.585114	0.382617
836.773511	0.383194
836.961890	0.383642
837.150250	0.384389
837.338592	0.385084
837.526916	0.385885
837.715222	0.386627
837.903510	0.387249
838.091779	0.387774
838.280030	0.388213
838.468263	0.388568
838.656477	0.388818
838.844674	0.389164
839.032852	0.389365
839.221012	0.389882
839.409153	0.389828
839.597277	0.390014
839.785382	0.390324
839.973469	0.390825
840.161538	0.391768
840.349589	0.392579
840.537621	0.393117
840.725635	0.393603
840.913631	0.394351
841.101609	0.395000
841.289568	0.395787
841.477509	0.396525
841.665432	0.397026
841.853337	0.397206
842.041224	0.397963
842.229092	0.398282
842.416942	0.399145
842.604774	0.399495
842.792588	0.400257
842.980383	0.400671
843.168160	0.401144
843.355919	0.401686
843.543660	0.401935
843.731382	0.402663
843.919087	0.402828
844.106773	0.403087
844.294441	0.403184
844.482090	0.403730
844.669722	0.404131
844.857335	0.404557
845.044930	0.404609
845.232507	0.405128
845.420065	0.405145
845.607605	0.406192
845.795127	0.406706
845.982631	0.407334
846.170117	0.407157
846.357584	0.407683
846.545033	0.407707
846.732464	0.408814
846.919877	0.409007
847.107272	0.409775
847.294648	0.409819
847.482006	0.410114
847.669346	0.410561
847.856667	0.411203
848.043971	0.411739
848.231256	0.412591
848.418523	0.413182
848.605771	0.413738
848.793002	0.413749
848.980214	0.414342
849.167408	0.414885
849.354584	0.415369
849.541742	0.415957
849.728881	0.416287
849.916002	0.416858
850.103105	0.417234
850.290190	0.417874
850.477256	0.418250
850.664304	0.418749
850.851334	0.419123
851.038346	0.419474
851.225340	0.420120
851.412315	0.420583
851.599272	0.421392
851.786211	0.421631
851.973132	0.422083
852.160034	0.422879
852.346918	0.423160
852.533784	0.423707
852.720632	0.424375
852.907462	0.424772
853.094273	0.425235
853.281066	0.425126
853.467841	0.425190
853.654598	0.425539
853.841336	0.426134
854.028056	0.426390
854.214758	0.427028
854.401442	0.426979
854.588107	0.427463
854.774755	0.427837
854.961384	0.428573
855.147995	0.429251
855.334587	0.429844
855.521162	0.429686
855.707718	0.430614
855.894256	0.430581
856.080775	0.430776
856.267277	0.431038
856.453760	0.431868
856.640225	0.432044
856.826672	0.432448
857.013101	0.432800
857.199511	0.433365
857.385903	0.433912
857.572277	0.434394
857.758633	0.435211
857.944970	0.435856
858.131290	0.435899
858.317591	0.436390
858.503873	0.437095
858.690138	0.437593
858.876384	0.438007
859.062612	0.438312
859.248822	0.438887
859.435014	0.439119
859.621188	0.439490
859.807343	0.440327
859.993480	0.440588
860.179599	0.440863
860.365699	0.441280
860.551781	0.441654
860.737846	0.442150
860.923891	0.442679
861.109919	0.443488
861.295929	0.444022
861.481920	0.443776
861.667893	0.444503
861.853848	0.444503
862.039784	0.445125
862.225702	0.445624
862.411603	0.445922
862.597484	0.446131
862.783348	0.446351
862.969193	0.446563
863.155021	0.447182
863.340830	0.447266
863.526620	0.448108
863.712393	0.448115
863.898147	0.448127
864.083883	0.448687
864.269601	0.449074
864.455301	0.449652
864.640982	0.450458
864.826645	0.450809
865.012290	0.451516
865.197917	0.451601
865.383526	0.452222
865.569116	0.453302
865.754688	0.453067
865.940242	0.453717
866.125777	0.454440
866.311295	0.454236
866.496794	0.454468
866.682275	0.454349
866.867737	0.454575
867.053182	0.454964
867.238608	0.455294
867.424016	0.456077
867.609406	0.456523
867.794778	0.456672
867.980131	0.457019
868.165466	0.457707
868.350783	0.458129
868.536082	0.458951
868.721362	0.459039
868.906625	0.458820
869.091869	0.458992
869.277094	0.459024
869.462302	0.459109
869.647491	0.459609
869.832662	0.459394
870.017815	0.460213
870.202950	0.460179
870.388066	0.460806
870.573165	0.461587
870.758245	0.461701
870.943306	0.461958
871.128350	0.462470
871.313375	0.462929
871.498382	0.463703
871.683371	0.464191
871.868342	0.465168
872.053294	0.465128
872.238229	0.465196
872.423144	0.465977
872.608042	0.466202
872.792922	0.466270
872.977783	0.466164
873.162626	0.466537
873.347451	0.466365
873.532258	0.466232
873.717046	0.466773
873.901816	0.467174
874.086568	0.466997
874.271302	0.467735
874.456017	0.467906
874.640715	0.468683
874.825394	0.468981
875.010055	0.468874
875.194697	0.469021
875.379322	0.469138
875.563928	0.469127
875.748516	0.469695
875.933085	0.469506
876.117637	0.470289
876.302170	0.469825
876.486685	0.469866
876.671182	0.469970
876.855661	0.469999
877.040121	0.470152
877.224563	0.470733
877.408987	0.470679
877.593393	0.470989
877.777780	0.470418
877.962150	0.470863
878.146501	0.471084
878.330833	0.471303
878.515148	0.471696
878.699444	0.471688
878.883722	0.471983
879.067982	0.472196
879.252224	0.472460
879.436447	0.473411
879.620653	0.473902
879.804840	0.474404
879.989008	0.475219
880.173159	0.475597
880.357291	0.475888
880.541405	0.475895
880.725501	0.476217
880.909579	0.476341
881.093638	0.476264
881.277680	0.476611
881.461703	0.476148
881.645707	0.476146
881.829694	0.476443
882.013662	0.476922
882.197612	0.477068
882.381544	0.476922
882.565458	0.477169
882.749353	0.477152
882.933230	0.476382
883.117089	0.476586
883.300930	0.476425
883.484753	0.476039
883.668557	0.475893
883.852343	0.475647
884.036111	0.476291
884.219861	0.476511
884.403592	0.476513
884.587305	0.477243
884.771000	0.477434
884.954677	0.477853
885.138335	0.477515
885.321976	0.477552
885.505598	0.477796
885.689201	0.477792
885.872787	0.477599
886.056354	0.477683
886.239904	0.478001
886.423434	0.478179
886.606947	0.478226
886.790442	0.478592
886.973918	0.478960
887.157376	0.479121
887.340816	0.478813
887.524237	0.478553
887.707641	0.479177
887.891026	0.478813
888.074393	0.478946
888.257741	0.478796
888.441072	0.478666
888.624384	0.478423
888.807678	0.478034
888.990954	0.478454
889.174211	0.478136
889.357451	0.477958
889.540672	0.477768
889.723875	0.477134
889.907059	0.477578
890.090226	0.478097
890.273374	0.478355
890.456504	0.478591
890.639616	0.477366
890.822709	0.477783
891.005785	0.477136
891.188842	0.477624
891.371881	0.477891
891.554901	0.477616
891.737904	0.477494
891.920888	0.477351
892.103854	0.477423
892.286802	0.477916
892.469731	0.477482
892.652643	0.477792
892.835536	0.477228
893.018410	0.477354
893.201267	0.476947
893.384106	0.476555
893.566926	0.476030
893.749728	0.476109
893.932511	0.476426
894.115277	0.476924
894.298024	0.476950
894.480753	0.476662
894.663464	0.476277
894.846157	0.476693
895.028831	0.476963
895.211487	0.476855
895.394125	0.476503
895.576745	0.476568
895.759346	0.476082
895.941930	0.475419
896.124495	0.475608
896.307041	0.475512
896.489570	0.474944
896.672080	0.474751
896.854573	0.475035
897.037046	0.474915
897.219502	0.473885
897.401940	0.473842
897.584359	0.474147
897.766760	0.473669
897.949143	0.473519
898.131507	0.473285
898.313854	0.473092
898.496182	0.472391
898.678492	0.471495
898.860783	0.471472
899.043057	0.470891
899.225312	0.470631
899.407549	0.471177
899.589768	0.471126
899.771968	0.470823
899.954151	0.470403
900.136315	0.470254
900.318461	0.470685
900.500588	0.470110
900.682698	0.469795
900.864789	0.468843
901.046862	0.467195
901.228917	0.466940
901.410953	0.466586
901.592971	0.465830
901.774972	0.465659
901.956953	0.465172
902.138917	0.465209
902.320862	0.465388
902.502790	0.465281
902.684699	0.465708
902.866589	0.464679
903.048462	0.464363
903.230316	0.464158
903.412152	0.463886
903.593970	0.463166
903.775770	0.462860
903.957551	0.462514
904.139314	0.462114
904.321059	0.461756
904.502786	0.462157
904.684494	0.461426
904.866185	0.461264
905.047857	0.460695
905.229510	0.460313
905.411146	0.459760
905.592763	0.459359
905.774363	0.458874
905.955943	0.458233
906.137506	0.457019
906.319051	0.456690
906.500577	0.456132
906.682085	0.455443
906.863575	0.454661
907.045046	0.453827
907.226500	0.452499
907.407935	0.452354
907.589352	0.452158
907.770750	0.452412
907.952131	0.451839
908.133493	0.451935
908.314837	0.451652
908.496163	0.451856
908.677470	0.451728
908.858760	0.451814
909.040031	0.451183
909.221284	0.450121
909.402518	0.449234
909.583735	0.449070
909.764933	0.447633
909.946113	0.446425
910.127275	0.445499
910.308418	0.444989
910.489544	0.444634
910.670651	0.443931
910.851740	0.443259
911.032810	0.442851
911.213863	0.442506
911.394897	0.441981
911.575913	0.442258
911.756911	0.441985
911.937890	0.441667
912.118851	0.440762
912.299794	0.440251
912.480719	0.440042
912.661626	0.439598
912.842514	0.438863
913.023384	0.438654
913.204236	0.437854
913.385070	0.436566
913.565886	0.435454
913.746683	0.434819
913.927462	0.434389
914.108223	0.434252
914.288965	0.433989
914.469690	0.433189
914.650396	0.432510
914.831084	0.431743
915.011754	0.431724
915.192405	0.431845
915.373038	0.431702
915.553653	0.430826
915.734250	0.430531
915.914829	0.429617
916.095389	0.428883
916.275931	0.427893
916.456455	0.427289
916.636961	0.426467
916.817448	0.424831
916.997917	0.423449
917.178368	0.422483
917.358801	0.421212
917.539216	0.420665
917.719612	0.419800
917.899990	0.419395
918.080350	0.418901
918.260692	0.418112
918.441015	0.418215
918.621320	0.417629
918.801607	0.417701
918.981876	0.416868
919.162127	0.415869
919.342359	0.415450
919.522573	0.414524
919.702769	0.413902
919.882947	0.412772
920.063106	0.411622
920.243247	0.410931
920.423370	0.409135
920.603475	0.408437
920.783562	0.407219
920.963630	0.406861
921.143680	0.406286
921.323712	0.405013
921.503725	0.406231
921.683721	0.405202
921.863698	0.404732
922.043657	0.404833
922.223598	0.403956
922.403520	0.403162
922.583424	0.402552
922.763311	0.401566
922.943178	0.400897
923.123028	0.398648
923.302859	0.398369
923.482673	0.396941
923.662467	0.395626
923.842244	0.394900
924.022003	0.394442
924.201743	0.393177
924.381465	0.392609
924.561169	0.392551
924.740854	0.391489
924.920522	0.390503
925.100171	0.390522
925.279802	0.389702
925.459414	0.388532
925.639009	0.387329
925.818585	0.386253
925.998143	0.384690
926.177683	0.383020
926.357205	0.382452
926.536708	0.380995
926.716193	0.379610
926.895660	0.378964
927.075109	0.377949
927.254539	0.377755
927.433951	0.376571
927.613345	0.376767
927.792721	0.376229
927.972079	0.375112
928.151418	0.375110
928.330739	0.374902
928.510042	0.373812
928.689327	0.373249
928.868593	0.371352
929.047841	0.370492
929.227071	0.369257
929.406283	0.367933
929.585476	0.367221
929.764652	0.365520
929.943809	0.363784
930.122948	0.363185
930.302068	0.362149
930.481171	0.361885
930.660255	0.360738
930.839321	0.359610
931.018369	0.359381
931.197398	0.358135
931.376409	0.357415
931.555402	0.356829
931.734377	0.355393
931.913334	0.353748
932.092272	0.352926
932.271192	0.351790
932.450094	0.350890
932.628978	0.349058
932.807844	0.348383
932.986691	0.347628
933.165520	0.347147
933.344331	0.346041
933.523123	0.344911
933.701898	0.343299
933.880654	0.342745
934.059392	0.340851
934.238111	0.339951
934.416813	0.338979
934.595496	0.337703
934.774161	0.335769
934.952808	0.334773
935.131437	0.335342
935.310047	0.334162
935.488639	0.331757
935.667213	0.331188
935.845769	0.329926
936.024306	0.329451
936.202825	0.328145
936.381326	0.326922
936.559809	0.326380
936.738274	0.324157
936.916720	0.322113
937.095148	0.322340
937.273558	0.320936
937.451950	0.319424
937.630323	0.316838
937.808678	0.315882
937.987015	0.314354
938.165334	0.313169
938.343635	0.311458
938.521917	0.312009
938.700181	0.310600
938.878427	0.310683
939.056655	0.310304
939.234864	0.309713
939.413055	0.308573
939.591228	0.308402
939.769383	0.307025
939.947519	0.307616
940.125638	0.306230
940.303738	0.306591
940.481820	0.303964
940.659883	0.302188
940.837929	0.301538
941.015956	0.301119
941.193965	0.298899
941.371955	0.298476
941.549928	0.296583
941.727882	0.295058
941.905818	0.294152
942.083736	0.294146
942.261636	0.293014
942.439517	0.291262
942.617380	0.289285
942.795225	0.288545
942.973052	0.285959
943.150860	0.284816
943.328651	0.283896
943.506423	0.280706
943.684176	0.279433
943.861912	0.279142
944.039629	0.278405
944.217328	0.277912
944.395009	0.277864
944.572672	0.276394
944.750317	0.275342
944.927943	0.272764
945.105551	0.272408
945.283141	0.270751
945.460712	0.269400
945.638265	0.267273
945.815801	0.265155
945.993317	0.263221
946.170816	0.263538
946.348297	0.262478
946.525759	0.261791
946.703203	0.260339
946.880629	0.260208
947.058036	0.258091
947.235425	0.256823
947.412797	0.256425
947.590149	0.254319
947.767484	0.252283
947.944800	0.250487
948.122099	0.249912
948.299379	0.248880
948.476640	0.246836
948.653884	0.243543
948.831109	0.243643
949.008316	0.241703
949.185505	0.241852
949.362676	0.241087
949.539828	0.239760
949.716962	0.238863
949.894078	0.237577
950.071176	0.235500
950.248256	0.236589
950.425317	0.234270
950.602360	0.232773
950.779385	0.231303
950.956391	0.229598
951.133380	0.228273
951.310350	0.226845
951.487302	0.224795
951.664235	0.224115
951.841151	0.224469
952.018048	0.225277
952.194927	0.224951
952.371788	0.223329
952.548631	0.222483
952.725455	0.219700
952.902261	0.220086
953.079049	0.219195
953.255819	0.219899
953.432570	0.217978
953.609303	0.216159
953.786018	0.216398
953.962715	0.214773
954.139394	0.210756
954.316054	0.211524
954.492696	0.209963
954.669320	0.208162
954.845926	0.203460
955.022513	0.202284
955.199083	0.202126
955.375634	0.200639
955.552166	0.199697
955.728681	0.201823
955.905177	0.202830
956.081655	0.198835
956.258115	0.200893
956.434557	0.202235
956.610980	0.201337
956.787385	0.197148
956.963772	0.196936
957.140141	0.196145
957.316492	0.193887
957.492824	0.190227
957.669138	0.190454
957.845434	0.188419
958.021712	0.188731
958.197971	0.188443
958.374212	0.189794
958.550435	0.186873
958.726640	0.187112
958.902826	0.186942
959.078995	0.187096
959.255145	0.185651
959.431277	0.184683
959.607390	0.180609
959.783486	0.179555
959.959563	0.177226
960.135622	0.178965
960.311662	0.178574
960.487685	0.178588
960.663689	0.179041
960.839675	0.182173
961.015643	0.181744
961.191593	0.182707
961.367524	0.181386
961.543437	0.182736
961.719332	0.180790
961.895209	0.179972
962.071067	0.179224
962.246907	0.178742
962.422730	0.177682
962.598533	0.177929
962.774319	0.178208
962.950086	0.178199
963.125835	0.178258
963.301566	0.174290
963.477279	0.174000
963.652973	0.174466
963.828650	0.171794
964.004308	0.169391
964.179947	0.167645
964.355569	0.167874
964.531172	0.166939
964.706757	0.165193
964.882324	0.169690
965.057873	0.167616
965.233403	0.168049
965.408916	0.169750
965.584410	0.172095
965.759885	0.172418
965.935343	0.167997
966.110782	0.168193
966.286203	0.166822
966.461606	0.166100
966.636991	0.165655
966.812357	0.164383
966.987705	0.161570
967.163035	0.158881
967.338347	0.160139
967.513641	0.164129
967.688916	0.164512
967.864173	0.166631
968.039412	0.164134
968.214632	0.165901
968.389835	0.167140
968.565019	0.168815
968.740185	0.169240
968.915333	0.167165
969.090462	0.168055
969.265573	0.166858
969.440667	0.166752
969.615741	0.168661
969.790798	0.166762
969.965836	0.164316
970.140856	0.162616
970.315858	0.159246
970.490842	0.161681
970.665808	0.159077
970.840755	0.159864
971.015684	0.159653
971.190595	0.159619
971.365487	0.163150
971.540362	0.163359
971.715218	0.163941
971.890056	0.167609
972.064875	0.164972
972.239677	0.165753
972.414460	0.165005
972.589225	0.162714
972.763972	0.160447
972.938700	0.156039
973.113411	0.157201
973.288103	0.158482
973.462777	0.158683
973.637432	0.159926
973.812070	0.158698
973.986689	0.158582
974.161290	0.157834
974.335873	0.159971
974.510437	0.161707
974.684984	0.160702
974.859512	0.161948
975.034022	0.158322
975.208513	0.157334
975.382987	0.156889
975.557442	0.156439
975.731879	0.156948
975.906298	0.156547
976.080698	0.155894
976.255080	0.156360
976.429445	0.154482
976.603790	0.158365
976.778118	0.159819
976.952427	0.162958
977.126719	0.164283
977.300992	0.164770
977.475246	0.163211
977.649483	0.164906
977.823701	0.165519
977.997901	0.165509
978.172083	0.165907
978.346247	0.163460
978.520392	0.161250
978.694519	0.161727
978.868628	0.162578
979.042719	0.164257
979.216791	0.162019
979.390845	0.161309
979.564882	0.159449
979.738899	0.157152
979.912899	0.158206
980.086880	0.157549
980.260843	0.157155
980.434788	0.155221
980.608715	0.154725
980.782623	0.155882
980.956514	0.154348
981.130386	0.157532
981.304240	0.157091
981.478075	0.156243
981.651892	0.157211
981.825692	0.157034
981.999472	0.159810
982.173235	0.160159
982.346980	0.159350
982.520706	0.161465
982.694414	0.157606
982.868104	0.158521
983.041775	0.160709
983.215428	0.159988
983.389064	0.159086
983.562680	0.158785
983.736279	0.158432
983.909860	0.159050
984.083422	0.157251
984.256966	0.160615
984.430491	0.160545
984.603999	0.159052
984.777488	0.159982
984.950959	0.160881
985.124412	0.159634
985.297847	0.159842
985.471263	0.158755
985.644661	0.160629
985.818041	0.160889
985.991403	0.161332
986.164747	0.162348
986.338072	0.161357
986.511379	0.162707
986.684668	0.164547
986.857938	0.162812
987.031191	0.163872
987.204425	0.162610
987.377641	0.161332
987.550839	0.162021
987.724018	0.161704
987.897179	0.162269
988.070322	0.160222
988.243447	0.159729
988.416554	0.161055
988.589642	0.161266
988.762712	0.160410
988.935764	0.161407
989.108798	0.159538
989.281813	0.157688
989.454811	0.158155
989.627790	0.157655
989.800751	0.159119
989.973693	0.157727
990.146617	0.157651
990.319524	0.157853
990.492412	0.157759
990.665281	0.157242
990.838133	0.159699
991.010966	0.159559
991.183781	0.162787
991.356578	0.160205
991.529356	0.162997
991.702117	0.161195
991.874859	0.161872
992.047583	0.159567
992.220288	0.161065
992.392976	0.161461
992.565645	0.163136
992.738296	0.162897
992.910929	0.163014
993.083543	0.161310
993.256139	0.162000
993.428718	0.160876
993.601277	0.162627
993.773819	0.163532
993.946342	0.162518
994.118848	0.161302
994.291335	0.159197
994.463803	0.159800
994.636254	0.158694
994.808686	0.158503
994.981100	0.160766
995.153496	0.161317
995.325874	0.161433
995.498233	0.159040
995.670574	0.158320
995.842897	0.158686
996.015202	0.159752
996.187488	0.161161
996.359757	0.159923
996.532007	0.159359
996.704239	0.158672
996.876452	0.159340
997.048648	0.160695
997.220825	0.159394
997.392984	0.159927
997.565124	0.158299
997.737247	0.157874
997.909351	0.162550
998.081437	0.162414
998.253505	0.164095
998.425554	0.161902
998.597586	0.162860
998.769599	0.164457
998.941594	0.162985
999.113571	0.163325
999.285529	0.162772
999.457469	0.159605
999.629391	0.157164
999.801295	0.156302
999.973181	0.157668
1000.145048	0.155588
1000.316897	0.154656
1000.488728	0.156812
1000.660541	0.154925
1000.832335	0.155779
1001.004111	0.158419
1001.175869	0.160419
1001.347609	0.159685
1001.519331	0.159401
1001.691034	0.161752
1001.862719	0.159099
1002.034386	0.156858
1002.206035	0.157999
1002.377665	0.158769
1002.549277	0.156692
1002.720871	0.157413
1002.892447	0.156669
1003.064004	0.154936
1003.235544	0.154602
1003.407065	0.156156
1003.578568	0.157869
1003.750052	0.158075
1003.921519	0.154982
1004.092967	0.155071
1004.264397	0.153891
1004.435809	0.153284
1004.607202	0.153766
1004.778577	0.153919
1004.949934	0.155533
1005.121273	0.154596
1005.292594	0.154665
1005.463896	0.153708
1005.635180	0.155081
1005.806446	0.156158
1005.977694	0.157766
1006.148923	0.159071
1006.320135	0.158119
1006.491328	0.157548
1006.662503	0.156115
1006.833659	0.156667
1007.004798	0.159112
1007.175918	0.158742
1007.347020	0.158260
1007.518103	0.158212
1007.689169	0.158089
1007.860216	0.159440
1008.031245	0.160632
1008.202256	0.163788
1008.373248	0.162976
1008.544223	0.165557
1008.715179	0.163324
1008.886117	0.162390
1009.057036	0.161937
1009.227938	0.163670
1009.398821	0.164133
1009.569686	0.163439
1009.740533	0.162763
1009.911361	0.164663
1010.082172	0.162834
1010.252964	0.163295
1010.423738	0.163639
1010.594493	0.162098
1010.765231	0.161920
1010.935950	0.160838
1011.106651	0.160483
1011.277334	0.158370
1011.447998	0.158100
1011.618645	0.157386
1011.789273	0.156926
1011.959882	0.156226
1012.130474	0.156932
1012.301048	0.154744
1012.471603	0.154680
1012.642140	0.154757
1012.812658	0.155465
1012.983159	0.153558
1013.153641	0.153802
1013.324105	0.154884
1013.494551	0.156557
1013.664979	0.157900
1013.835388	0.158287
1014.005779	0.158311
1014.176152	0.156982
1014.346507	0.156670
1014.516843	0.156984
1014.687162	0.158847
1014.857462	0.158266
1015.027744	0.156125
1015.198007	0.156787
1015.368252	0.157393
1015.538480	0.155729
1015.708689	0.156944
1015.878879	0.158143
1016.049052	0.156946
1016.219206	0.154126
1016.389342	0.154686
1016.559460	0.156087
1016.729559	0.154250
1016.899641	0.154751
1017.069704	0.156277
1017.239749	0.156670
1017.409775	0.155123
1017.579784	0.156713
1017.749774	0.158150
1017.919746	0.158411
1018.089700	0.158330
1018.259635	0.158433
1018.429553	0.157218
1018.599452	0.157838
1018.769333	0.156369
1018.939195	0.158297
1019.109040	0.158907
1019.278866	0.157282
1019.448674	0.157601
1019.618464	0.157925
1019.788235	0.157567
1019.957989	0.158485
1020.127724	0.157603
1020.297441	0.158802
1020.467139	0.157010
1020.636820	0.156833
1020.806482	0.158034
1020.976126	0.156920
1021.145752	0.156469
1021.315359	0.157729
1021.484948	0.155863
1021.654519	0.155826
1021.824072	0.156943
1021.993607	0.156974
1022.163123	0.155482
1022.332621	0.152572
1022.502101	0.152851
1022.671563	0.152748
1022.841007	0.151244
1023.010432	0.150594
1023.179839	0.149297
1023.349228	0.148359
1023.518598	0.147980
1023.687951	0.148828
1023.857285	0.151625
1024.026601	0.149386
1024.195899	0.147438
1024.365178	0.147730
1024.534439	0.149573
1024.703682	0.149516
1024.872907	0.150416
1025.042114	0.151329
1025.211302	0.154508
1025.380472	0.153638
1025.549624	0.156256
1025.718758	0.159280
1025.887873	0.158658
1026.056970	0.156475
1026.226049	0.156584
1026.395110	0.155645
1026.564153	0.155081
1026.733177	0.153962
1026.902183	0.154924
1027.071171	0.155371
1027.240141	0.155867
1027.409092	0.157082
1027.578026	0.159031
1027.746940	0.159234
1027.915837	0.159258
1028.084716	0.159866
1028.253576	0.157322
1028.422418	0.157984
1028.591242	0.157233
1028.760048	0.154237
1028.928835	0.152183
1029.097604	0.149821
1029.266355	0.151441
1029.435088	0.151924
1029.603803	0.150082
1029.772499	0.151984
1029.941177	0.148860
1030.109837	0.148708
1030.278478	0.149836
1030.447102	0.150779
1030.615707	0.152361
1030.784294	0.149998
1030.952863	0.148345
1031.121413	0.149567
1031.289945	0.148120
1031.458460	0.148820
1031.626955	0.148231
1031.795433	0.148704
1031.963892	0.149047
1032.132334	0.148947
1032.300756	0.150019
1032.469161	0.151157
1032.637548	0.151165
1032.805916	0.152476
1032.974266	0.152500
1033.142598	0.153514
1033.310911	0.152200
1033.479207	0.153802
1033.647484	0.155989
1033.815743	0.155000
1033.983983	0.154219
1034.152206	0.154401
1034.320410	0.151376
1034.488596	0.152629
1034.656764	0.151422
1034.824914	0.153393
1034.993045	0.151877
1035.161158	0.150276
1035.329253	0.151079
1035.497330	0.152427
1035.665388	0.151315
1035.833428	0.152714
1036.001450	0.152610
1036.169454	0.153908
1036.337440	0.153556
1036.505407	0.153362
1036.673356	0.153489
1036.841287	0.154426
1037.009200	0.152749
1037.177094	0.153904
1037.344970	0.153698
1037.512828	0.154224
1037.680668	0.155053
1037.848489	0.153863
1038.016293	0.154203
1038.184078	0.154570
1038.351845	0.153704
1038.519593	0.154651
1038.687324	0.155114
1038.855036	0.156375
1039.022730	0.157430
1039.190406	0.154586
1039.358063	0.155462
1039.525702	0.156993
1039.693323	0.155230
1039.860926	0.156074
1040.028511	0.156005
1040.196077	0.155800
1040.363625	0.154660
1040.531155	0.152200
1040.698667	0.152640
1040.866161	0.153095
1041.033636	0.152575
1041.201093	0.152630
1041.368532	0.153025
1041.535952	0.152024
1041.703355	0.151487
1041.870739	0.152177
1042.038105	0.153605
1042.205452	0.152473
1042.372782	0.151806
1042.540093	0.150942
1042.707386	0.152136
1042.874661	0.151382
1043.041918	0.151355
1043.209156	0.151137
1043.376376	0.148951
1043.543578	0.149214
1043.710762	0.150993
1043.877927	0.152251
1044.045074	0.152231
1044.212203	0.151603
1044.379314	0.153879
1044.546407	0.154901
1044.713481	0.156390
1044.880537	0.158036
1045.047575	0.156238
1045.214595	0.158044
1045.381596	0.155768
1045.548579	0.155373
1045.715544	0.156054
1045.882491	0.154435
1046.049420	0.152540
1046.216330	0.151835
1046.383222	0.152150
1046.550096	0.153145
1046.716951	0.151568
1046.883789	0.151345
1047.050608	0.151811
1047.217409	0.151825
1047.384192	0.150224
1047.550956	0.151466
1047.717703	0.150709
1047.884431	0.150558
1048.051140	0.151289
1048.217832	0.152727
1048.384505	0.155470
1048.551161	0.154939
1048.717798	0.154752
1048.884416	0.155404
1049.051017	0.155712
1049.217599	0.156104
1049.384163	0.156706
1049.550709	0.156606
1049.717237	0.154507
1049.883746	0.152722
1050.050237	0.152411
1050.216710	0.152425
1050.383165	0.152347
1050.549601	0.152144
1050.716019	0.153371
1050.882420	0.151894
1051.048801	0.150117
1051.215165	0.151321
1051.381510	0.150270
1051.547837	0.152206
1051.714146	0.152283
1051.880437	0.152848
1052.046709	0.153586
1052.212964	0.153706
1052.379200	0.153650
1052.545417	0.154100
1052.711617	0.154920
1052.877798	0.156420
1053.043961	0.156396
1053.210106	0.157328
1053.376233	0.156864
1053.542341	0.155331
1053.708432	0.154031
1053.874504	0.154673
1054.040557	0.154737
1054.206593	0.153188
1054.372610	0.153746
1054.538609	0.151444
1054.704590	0.150750
1054.870553	0.150969
1055.036497	0.152623
1055.202424	0.153120
1055.368331	0.153614
1055.534221	0.155621
1055.700093	0.156610
1055.865946	0.154910
1056.031781	0.156779
1056.197598	0.158044
1056.363397	0.154938
1056.529177	0.152044
1056.694939	0.152409
1056.860683	0.152255
1057.026409	0.152235
1057.192116	0.152808
1057.357806	0.153915
1057.523477	0.152278
1057.689130	0.151651
1057.854764	0.153762
1058.020381	0.156674
1058.185979	0.155584
1058.351559	0.154745
1058.517120	0.152101
1058.682664	0.150934
1058.848189	0.153356
1059.013696	0.155785
1059.179185	0.154699
1059.344656	0.155885
1059.510108	0.155558
1059.675542	0.156081
1059.840958	0.156879
1060.006356	0.158169
1060.171735	0.159981
1060.337096	0.157601
1060.502439	0.156565
1060.667764	0.154862
1060.833071	0.155124
1060.998359	0.155835
1061.163629	0.156163
1061.328881	0.155269
1061.494115	0.155716
1061.659330	0.152954
1061.824527	0.151717
1061.989706	0.152280
1062.154867	0.155539
1062.320010	0.155504
1062.485134	0.158067
1062.650240	0.157718
1062.815328	0.158781
1062.980398	0.156869
1063.145449	0.156566
1063.310482	0.156850
1063.475497	0.156089
1063.640494	0.154900
1063.805473	0.157424
1063.970433	0.155297
1064.135375	0.155822
1064.300299	0.154963
1064.465204	0.156533
1064.630092	0.159973
1064.794961	0.159145
1064.959812	0.158072
1065.124645	0.160730
1065.289459	0.157687
1065.454256	0.155137
1065.619034	0.153793
1065.783793	0.155111
1065.948535	0.155570
1066.113258	0.155025
1066.277964	0.160375
1066.442651	0.162559
1066.607319	0.160486
1066.771970	0.160518
1066.936602	0.162755
1067.101216	0.163730
1067.265812	0.166230
1067.430389	0.166772
1067.594949	0.165987
1067.759490	0.162204
1067.924013	0.161681
1068.088518	0.159040
1068.253004	0.159637
1068.417472	0.160467
1068.581922	0.159308
1068.746354	0.158060
1068.910768	0.159189
1069.075163	0.159028
1069.239540	0.159535
1069.403899	0.160275
1069.568240	0.164628
1069.732562	0.165152
1069.896866	0.162577
1070.061152	0.167015
1070.225420	0.165928
1070.389670	0.164404
1070.553901	0.162976
1070.718114	0.164181
1070.882309	0.163228
1071.046486	0.160885
1071.210644	0.161586
1071.374784	0.165683
1071.538906	0.161925
1071.703010	0.161509
1071.867096	0.164416
1072.031163	0.165213
1072.195212	0.163629
1072.359243	0.164579
1072.523256	0.165432
1072.687250	0.165108
1072.851226	0.163635
1073.015184	0.166413
1073.179124	0.166221
1073.343045	0.162493
1073.506949	0.163599
1073.670834	0.165184
1073.834701	0.164410
1073.998549	0.165355
1074.162380	0.164695
1074.326192	0.166161
1074.489986	0.166741
1074.653761	0.168080
1074.817519	0.170403
1074.981258	0.171021
1075.144979	0.169994
1075.308682	0.169119
1075.472367	0.167689
1075.636033	0.168847
1075.799681	0.169266
1075.963311	0.166545
1076.126923	0.167433
1076.290516	0.167333
1076.454092	0.166699
1076.617649	0.167745
1076.781187	0.168742
1076.944708	0.170689
1077.108210	0.170793
1077.271695	0.166904
1077.435160	0.167192
1077.598608	0.164802
1077.762038	0.165537
1077.925449	0.165569
1078.088842	0.168226
1078.252217	0.170851
1078.415573	0.171652
1078.578912	0.169042
1078.742232	0.170325
1078.905534	0.173162
1079.068817	0.173058
1079.232083	0.168552
1079.395330	0.169180
1079.558559	0.170449
1079.721770	0.167253
1079.884962	0.164159
1080.048136	0.164837
1080.211293	0.163393
1080.374430	0.163337
1080.537550	0.165552
1080.700651	0.167676
1080.863735	0.166916
1081.026800	0.162327
1081.189846	0.162460
1081.352875	0.164958
1081.515885	0.165621
1081.678877	0.169024
1081.841851	0.166883
1082.004807	0.164604
1082.167744	0.168935
1082.330663	0.171051
1082.493564	0.172421
1082.656447	0.172878
1082.819312	0.171414
1082.982158	0.170726
1083.144986	0.169437
1083.307796	0.172274
1083.470587	0.174640
1083.633361	0.170322
1083.796116	0.168239
1083.958853	0.166748
1084.121571	0.167182
1084.284272	0.166130
1084.446954	0.167262
1084.609618	0.166921
1084.772264	0.162287
1084.934892	0.163544
1085.097501	0.166370
1085.260092	0.165950
1085.422665	0.167249
1085.585220	0.167812
1085.747756	0.167365
1085.910274	0.169768
1086.072774	0.171203
1086.235256	0.174269
1086.397720	0.174080
1086.560165	0.175452
1086.722592	0.176974
1086.885001	0.175304
1087.047392	0.173213
1087.209764	0.175996
1087.372119	0.175229
1087.534455	0.175285
1087.696772	0.174186
1087.859072	0.172298
1088.021353	0.168204
1088.183616	0.166745
1088.345861	0.167716
1088.508088	0.169307
1088.670296	0.170919
1088.832486	0.169723
1088.994658	0.169883
1089.156812	0.170702
1089.318948	0.171483
1089.481065	0.173558
1089.643164	0.176237
1089.805245	0.179576
1089.967308	0.180857
1090.129352	0.178672
1090.291378	0.185253
1090.453386	0.184676
1090.615376	0.185911
1090.777347	0.188790
1090.939301	0.189554
1091.101236	0.186436
1091.263153	0.185313
1091.425051	0.185969
1091.586932	0.188343
1091.748794	0.183380
1091.910638	0.186131
1092.072463	0.183759
1092.234271	0.180444
1092.396060	0.181388
1092.557831	0.184388
1092.719584	0.181955
1092.881319	0.180789
1093.043035	0.177604
1093.204733	0.176597
1093.366413	0.174076
1093.528075	0.176525
1093.689718	0.177222
1093.851343	0.175120
1094.012950	0.176461
1094.174539	0.178909
1094.336110	0.181389
1094.497662	0.177938
1094.659196	0.176748
1094.820712	0.176286
1094.982210	0.172333
1095.143689	0.173805
1095.305151	0.174568
1095.466594	0.176239
1095.628018	0.173992
1095.789425	0.171109
1095.950813	0.175161
1096.112183	0.172983
1096.273535	0.169569
1096.434869	0.175495
1096.596184	0.175909
1096.757482	0.175806
1096.918761	0.171552
1097.080021	0.174132
1097.241264	0.175406
1097.402488	0.178834
1097.563694	0.184492
1097.724882	0.190215
1097.886052	0.184403
1098.047203	0.185401
1098.208336	0.185948
1098.369451	0.186988
1098.530548	0.183750
1098.691627	0.181261
1098.852687	0.176982
1099.013729	0.177077
1099.174753	0.175045
1099.335758	0.178986
1099.496746	0.175992
1099.657715	0.176403
1099.818666	0.178677
1099.979599	0.179690
1100.140513	0.182843
1100.301409	0.188200
1100.462287	0.187637
1100.623147	0.185106
1100.783989	0.182691
1100.944812	0.181146
1101.105617	0.184285
1101.266404	0.183593
1101.427173	0.185506
1101.587923	0.184630
1101.748656	0.185078
1101.909370	0.181764
1102.070066	0.186195
1102.230743	0.193803
1102.391403	0.194649
1102.552044	0.190678
1102.712667	0.188141
1102.873271	0.190576
1103.033858	0.195784
1103.194426	0.190182
1103.354976	0.194093
1103.515508	0.191645
1103.676021	0.184918
1103.836517	0.185698
1103.996994	0.186802
1104.157453	0.185409
1104.317893	0.188322
1104.478316	0.181486
1104.638720	0.185017
1104.799106	0.184467
1104.959474	0.184245
1105.119823	0.188387
1105.280155	0.189313
1105.440468	0.188880
1105.600763	0.191908
1105.761039	0.184339
1105.921298	0.190023
1106.081538	0.188571
1106.241760	0.185838
1106.401964	0.185588
1106.562149	0.183926
1106.722316	0.184062
1106.882465	0.183923
1107.042596	0.180444
1107.202709	0.180398
1107.362803	0.180725
1107.522879	0.177447
1107.682937	0.180084
1107.842977	0.182124
1108.002999	0.181451
1108.163002	0.180906
1108.322987	0.176687
1108.482954	0.183510
1108.642902	0.188591
1108.802833	0.186205
1108.962745	0.190664
1109.122639	0.186515
1109.282515	0.186403
1109.442372	0.183149
1109.602211	0.185263
1109.762032	0.193210
1109.921835	0.195031
1110.081620	0.189546
1110.241386	0.193419
1110.401134	0.192340
1110.560864	0.197758
1110.720576	0.199586
1110.880269	0.203581
1111.039945	0.207837
1111.199602	0.203887
1111.359240	0.201962
1111.518861	0.208067
1111.678463	0.199881
1111.838047	0.200679
1111.997613	0.198125
1112.157161	0.194896
1112.316690	0.192239
1112.476202	0.188199
1112.635695	0.189431
1112.795169	0.186948
1112.954626	0.184179
1113.114064	0.188899
1113.273484	0.181867
1113.432886	0.184133
1113.592270	0.188693
1113.751635	0.193810
1113.910983	0.190441
1114.070312	0.187969
1114.229622	0.186468
1114.388915	0.193697
1114.548189	0.197510
1114.707445	0.206597
1114.866683	0.204599
1115.025903	0.204018
1115.185104	0.202286
1115.344287	0.201895
1115.503452	0.207103
1115.662599	0.211167
1115.821727	0.209244
1115.980838	0.204736
1116.139930	0.205506
1116.299004	0.208038
1116.458059	0.204096
1116.617097	0.204099
1116.776116	0.214731
1116.935117	0.210873
1117.094099	0.210497
1117.253064	0.209242
1117.412010	0.212610
1117.570938	0.213982
1117.729848	0.214111
1117.888740	0.217688
1118.047613	0.214989
1118.206468	0.208368
1118.365305	0.206113
1118.524124	0.206861
1118.682924	0.203109
1118.841707	0.204003
1119.000471	0.206624
1119.159216	0.209872
1119.317944	0.213941
1119.476653	0.218664
1119.635344	0.219154
1119.794017	0.219281
1119.952672	0.215817
1120.111308	0.216116
1120.269927	0.205236
1120.428527	0.201975
1120.587108	0.197505
1120.745672	0.196266
1120.904217	0.190805
1121.062744	0.189858
1121.221253	0.194063
1121.379744	0.192879
1121.538216	0.190955
1121.696671	0.198463
1121.855107	0.200506
1122.013524	0.202170
1122.171924	0.198082
1122.330305	0.201968
1122.488668	0.205966
1122.647013	0.211347
1122.805340	0.220739
1122.963648	0.223944
1123.121938	0.220938
1123.280210	0.212067
1123.438464	0.209073
1123.596700	0.209908
1123.754917	0.209140
1123.913116	0.203517
1124.071297	0.199547
1124.229459	0.196429
1124.387604	0.192282
1124.545730	0.195911
1124.703838	0.194053
1124.861928	0.198445
1125.019999	0.196625
1125.178052	0.194704
1125.336088	0.199012
1125.494104	0.196582
1125.652103	0.196627
1125.810083	0.199743
1125.968045	0.196398
1126.125989	0.203378
1126.283915	0.200614
1126.441823	0.202526
1126.599712	0.210815
1126.757583	0.209740
1126.915436	0.214290
1127.073270	0.212716
1127.231087	0.214380
1127.388885	0.215279
1127.546665	0.218271
1127.704426	0.227679
1127.862170	0.226061
1128.019895	0.222279
1128.177602	0.218004
1128.335291	0.212960
1128.492961	0.211135
1128.650614	0.204131
1128.808248	0.206942
1128.965864	0.196592
1129.123461	0.190788
1129.281041	0.193337
1129.438602	0.192043
1129.596145	0.199216
1129.753670	0.196371
1129.911176	0.200541
1130.068665	0.205713
1130.226135	0.202565
1130.383587	0.217488
1130.541020	0.213558
1130.698436	0.210310
1130.855833	0.211357
1131.013212	0.206808
1131.170573	0.206139
1131.327915	0.202538
1131.485239	0.204431
1131.642545	0.212228
1131.799833	0.210706
1131.957103	0.213785
1132.114354	0.218931
1132.271588	0.220761
1132.428803	0.218941
1132.585999	0.224059
1132.743178	0.217058
1132.900338	0.215392
1133.057480	0.211487
1133.214604	0.210340
1133.371710	0.208161
1133.528797	0.201483
1133.685866	0.199608
1133.842917	0.201542
1133.999950	0.201957
1134.156964	0.211364
1134.313960	0.214236
1134.470938	0.207987
1134.627898	0.197614
1134.784840	0.193777
1134.941763	0.197796
1135.098668	0.195750
1135.255555	0.194876
1135.412424	0.193359
1135.569274	0.187859
1135.726107	0.184341
1135.882921	0.188171
1136.039716	0.192017
1136.196494	0.197096
1136.353253	0.195735
1136.509995	0.194514
1136.666717	0.203011
1136.823422	0.197550
1136.980109	0.198601
1137.136777	0.200075
1137.293427	0.195925
1137.450059	0.199408
1137.606672	0.188652
1137.763267	0.197113
1137.919844	0.202191
1138.076403	0.194054
1138.232944	0.206861
1138.389466	0.211007
1138.545971	0.216016
1138.702457	0.223941
1138.858924	0.223763
1139.015374	0.231228
1139.171805	0.222940
1139.328218	0.215749
1139.484613	0.214625
1139.640990	0.210254
1139.797348	0.210925
1139.953688	0.208750
1140.110010	0.211135
1140.266314	0.210361
1140.422600	0.215992
1140.578867	0.216816
1140.735116	0.226220
1140.891347	0.235343
1141.047559	0.235024
1141.203754	0.234134
1141.359930	0.239988
1141.516088	0.232844
1141.672228	0.228384
1141.828349	0.229310
1141.984452	0.232736
1142.140537	0.228950
1142.296604	0.220136
1142.452653	0.209379
1142.608683	0.206631
1142.764695	0.200542
1142.920689	0.201617
1143.076665	0.214158
1143.232622	0.213843
1143.388562	0.212164
1143.544483	0.208944
1143.700385	0.211779
1143.856270	0.220226
1144.012136	0.215293
1144.167985	0.214830
1144.323814	0.218120
1144.479626	0.209330
1144.635420	0.208852
1144.791195	0.206171
1144.946952	0.206828
1145.102691	0.207529
1145.258411	0.203368
1145.414113	0.216086
1145.569798	0.225774
1145.725463	0.225536
1145.881111	0.225742
1146.036741	0.218720
1146.192352	0.226807
1146.347945	0.227169
1146.503519	0.233376
1146.659076	0.242654
1146.814614	0.234721
1146.970134	0.220786
1147.125636	0.225947
1147.281120	0.219630
1147.436585	0.220032
1147.592032	0.209612
1147.747461	0.215354
1147.902872	0.207826
1148.058265	0.206392
1148.213639	0.209589
1148.368995	0.206084
1148.524333	0.194693
1148.679653	0.205795
1148.834954	0.211705
1148.990237	0.216595
1149.145502	0.207564
1149.300749	0.203928
1149.455977	0.206031
1149.611188	0.199159
1149.766380	0.199078
1149.921553	0.194235
1150.076709	0.184838
1150.231846	0.182100
1150.386966	0.178438
1150.542066	0.172859
1150.697149	0.174191
1150.852214	0.166605
1151.007260	0.170446
1151.162288	0.173433
1151.317298	0.182658
1151.472289	0.184149
1151.627263	0.190312
1151.782218	0.210558
1151.937155	0.224659
1152.092073	0.230412
1152.246974	0.235137
1152.401856	0.233683
1152.556720	0.249740
1152.711566	0.251730
1152.866393	0.268068
1153.021203	0.267456
1153.175994	0.254782
1153.330767	0.257507
1153.485521	0.251498
1153.640258	0.247432
1153.794976	0.257926
1153.949676	0.237665
1154.104358	0.239763
1154.259021	0.226653
1154.413667	0.221089
1154.568294	0.223311
1154.722903	0.221220
1154.877493	0.227743
1155.032066	0.235396
1155.186620	0.228612
1155.341156	0.242170
1155.495674	0.234173
1155.650173	0.236707
1155.804654	0.238227
1155.959118	0.229778
1156.113562	0.221979
1156.267989	0.220403
1156.422397	0.219473
1156.576788	0.212913
1156.731160	0.204610
1156.885513	0.207752
1157.039849	0.211496
1157.194166	0.208735
1157.348465	0.205684
1157.502746	0.213189
1157.657009	0.200571
1157.811253	0.204146
1157.965479	0.201512
1158.119687	0.203703
1158.273877	0.200841
1158.428048	0.188988
1158.582201	0.191403
1158.736337	0.200612
1158.890453	0.196211
1159.044552	0.192227
1159.198632	0.183199
1159.352694	0.184099
1159.506738	0.181253
1159.660764	0.186068
1159.814771	0.193231
1159.968761	0.197386
1160.122732	0.185706
1160.276685	0.189986
1160.430619	0.210973
1160.584535	0.212513
1160.738434	0.209655
1160.892313	0.211813
1161.046175	0.209089
1161.200019	0.207749
1161.353844	0.207961
1161.507651	0.218878
1161.661440	0.209027
1161.815210	0.200841
1161.968962	0.210147
1162.122697	0.224416
1162.276412	0.224445
1162.430110	0.235478
1162.583789	0.223603
1162.737451	0.219073
1162.891094	0.207726
1163.044718	0.205639
1163.198325	0.218133
1163.351913	0.217365
1163.505483	0.207168
1163.659035	0.211061
1163.812569	0.203011
1163.966084	0.198731
1164.119581	0.201958
1164.273060	0.199578
1164.426521	0.198118
1164.579964	0.175329
1164.733388	0.167831
1164.886794	0.169145
1165.040182	0.171597
1165.193551	0.168118
1165.346903	0.181034
1165.500236	0.183408
1165.653551	0.197154
1165.806848	0.199360
1165.960126	0.220891
1166.113386	0.230515
1166.266628	0.243414
1166.419852	0.232118
1166.573058	0.227465
1166.726245	0.221503
1166.879414	0.212389
1167.032565	0.211106
1167.185698	0.232943
1167.338812	0.222509
1167.491909	0.208414
1167.644987	0.200752
1167.798046	0.211653
1167.951088	0.218191
1168.104111	0.228177
1168.257117	0.236361
1168.410103	0.225462
1168.563072	0.213020
1168.716023	0.208694
1168.868955	0.208931
1169.021869	0.220750
1169.174765	0.211659
1169.327642	0.225175
1169.480501	0.199389
1169.633343	0.202518
1169.786165	0.216565
1169.938970	0.206867
1170.091757	0.207580
1170.244525	0.218821
1170.397275	0.203043
1170.550007	0.210383
1170.702720	0.186157
1170.855415	0.217048
1171.008092	0.206740
1171.160751	0.195154
1171.313392	0.199620
1171.466014	0.263647
1171.618619	0.182647
1171.771205	0.182647
1171.923772	0.182647
