sample name	sample
index	466
start time	 03-11-2021  12:07:50 PM


Wavelength (nm)	Absorbance
494.344910	-0.115105
494.563924	-0.115105
494.782919	-0.115105
495.001897	-0.136887
495.220856	-0.080696
495.439797	-0.039599
495.658719	-0.050001
495.877624	-0.063235
496.096510	-0.101612
496.315378	-0.138750
496.534227	-0.136986
496.753059	-0.140673
496.971872	-0.107284
497.190667	0.061573
497.409444	0.076417
497.628203	0.082429
497.846943	0.086002
498.065665	0.087804
498.284369	0.089674
498.503055	0.090001
498.721723	0.090296
498.940372	0.090167
499.159003	0.090331
499.377616	0.090264
499.596210	0.090204
499.814787	0.090484
500.033345	0.090219
500.251885	0.090192
500.470406	0.090333
500.688910	0.089654
500.907395	0.090251
501.125862	0.090670
501.344311	0.090981
501.562742	0.091493
501.781154	0.090862
501.999548	0.091748
502.217924	0.092186
502.436282	0.092439
502.654621	0.094337
502.872942	0.093333
503.091245	0.093079
503.309530	0.093792
503.527797	0.093953
503.746045	0.093566
503.964275	0.093063
504.182487	0.092709
504.400681	0.093250
504.618856	0.092200
504.837013	0.092916
505.055152	0.092687
505.273273	0.093087
505.491376	0.092637
505.709460	0.093299
505.927526	0.093217
506.145574	0.093333
506.363604	0.092799
506.581615	0.092910
506.799608	0.092683
507.017583	0.093612
507.235540	0.093046
507.453478	0.093790
507.671399	0.093992
507.889301	0.094901
508.107185	0.094648
508.325050	0.094762
508.542898	0.094585
508.760727	0.095061
508.978538	0.094496
509.196330	0.094423
509.414105	0.094290
509.631861	0.094117
509.849599	0.093832
510.067319	0.094103
510.285021	0.094137
510.502704	0.095009
510.720369	0.095822
510.938016	0.096751
511.155645	0.097139
511.373255	0.097055
511.590848	0.097540
511.808422	0.097226
512.025977	0.097070
512.243515	0.096926
512.461034	0.096451
512.678536	0.095368
512.896018	0.094508
513.113483	0.095130
513.330930	0.095256
513.548358	0.095491
513.765768	0.095814
513.983160	0.097027
514.200533	0.097387
514.417889	0.097476
514.635226	0.098184
514.852545	0.098308
515.069845	0.096846
515.287128	0.096716
515.504392	0.097244
515.721638	0.097136
515.938866	0.095961
516.156075	0.095955
516.373267	0.096024
516.590440	0.095683
516.807594	0.096070
517.024731	0.096668
517.241850	0.096509
517.458950	0.095478
517.676032	0.095800
517.893095	0.096196
518.110141	0.096338
518.327168	0.096882
518.544177	0.096691
518.761168	0.096577
518.978141	0.096840
519.195095	0.096980
519.412031	0.097588
519.628949	0.097704
519.845849	0.097150
520.062731	0.096907
520.279594	0.096297
520.496439	0.096511
520.713266	0.096887
520.930074	0.097037
521.146865	0.097460
521.363637	0.097490
521.580391	0.097274
521.797127	0.098054
522.013844	0.098689
522.230543	0.099208
522.447224	0.099025
522.663887	0.098561
522.880532	0.098441
523.097158	0.098056
523.313766	0.098155
523.530356	0.098253
523.746928	0.098303
523.963481	0.098391
524.180017	0.098306
524.396534	0.098791
524.613032	0.098473
524.829513	0.098554
525.045975	0.099144
525.262420	0.098819
525.478845	0.099153
525.695253	0.099149
525.911643	0.098659
526.128014	0.098653
526.344367	0.099180
526.560702	0.100362
526.777018	0.100564
526.993316	0.100671
527.209597	0.101255
527.425858	0.101849
527.642102	0.101971
527.858328	0.102456
528.074535	0.102433
528.290724	0.102075
528.506894	0.101804
528.723047	0.102289
528.939181	0.102300
529.155297	0.102480
529.371395	0.102431
529.587475	0.102661
529.803536	0.102800
530.019579	0.103585
530.235604	0.104143
530.451611	0.104591
530.667600	0.104617
530.883570	0.104667
531.099522	0.104761
531.315456	0.105209
531.531372	0.105136
531.747269	0.105166
531.963148	0.104816
532.179009	0.104688
532.394852	0.104496
532.610676	0.104598
532.826482	0.104992
533.042271	0.104975
533.258040	0.104328
533.473792	0.104938
533.689525	0.105484
533.905240	0.106284
534.120937	0.106453
534.336616	0.107128
534.552277	0.107365
534.767919	0.107713
534.983543	0.107882
535.199149	0.108115
535.414736	0.107917
535.630306	0.107800
535.845857	0.107607
536.061390	0.107622
536.276904	0.107637
536.492401	0.107453
536.707879	0.107465
536.923339	0.107399
537.138781	0.107583
537.354204	0.107933
537.569610	0.107776
537.784997	0.107942
538.000366	0.108753
538.215716	0.108789
538.431049	0.108464
538.646363	0.108622
538.861659	0.108706
539.076937	0.108980
539.292196	0.108850
539.507438	0.109329
539.722661	0.109205
539.937866	0.108819
540.153052	0.108415
540.368221	0.109381
540.583371	0.109270
540.798503	0.109303
541.013617	0.109208
541.228712	0.109076
541.443789	0.109382
541.658848	0.109654
541.873889	0.109700
542.088912	0.110239
542.303916	0.110086
542.518902	0.110195
542.733870	0.110514
542.948820	0.110287
543.163752	0.110689
543.378665	0.111085
543.593560	0.111208
543.808437	0.112051
544.023295	0.111932
544.238136	0.112275
544.452958	0.112309
544.667762	0.112497
544.882548	0.113158
545.097315	0.113084
545.312064	0.112743
545.526795	0.112561
545.741508	0.111837
545.956203	0.112130
546.170879	0.112071
546.385537	0.112413
546.600177	0.112129
546.814799	0.112401
547.029402	0.112349
547.243988	0.112224
547.458555	0.112518
547.673103	0.112787
547.887634	0.112892
548.102146	0.112817
548.316640	0.112835
548.531116	0.113403
548.745574	0.113135
548.960013	0.113616
549.174435	0.113930
549.388838	0.114283
549.603222	0.114207
549.817589	0.114030
550.031937	0.113986
550.246267	0.113763
550.460579	0.113892
550.674873	0.113921
550.889148	0.114191
551.103405	0.114192
551.317644	0.114051
551.531865	0.114495
551.746068	0.114840
551.960252	0.115243
552.174418	0.115465
552.388566	0.115553
552.602696	0.115745
552.816807	0.115813
553.030900	0.116143
553.244975	0.116222
553.459032	0.115959
553.673070	0.116541
553.887091	0.116686
554.101093	0.116843
554.315077	0.117175
554.529042	0.117604
554.742990	0.117386
554.956919	0.117477
555.170830	0.117732
555.384722	0.117845
555.598597	0.117494
555.812453	0.117739
556.026291	0.117773
556.240111	0.117595
556.453913	0.117609
556.667696	0.117979
556.881461	0.118124
557.095208	0.118143
557.308937	0.118517
557.522647	0.118229
557.736339	0.117844
557.950013	0.118108
558.163669	0.118060
558.377307	0.118216
558.590926	0.118349
558.804527	0.117996
559.018110	0.117741
559.231675	0.117723
559.445221	0.118286
559.658749	0.118684
559.872259	0.118961
560.085751	0.118966
560.299225	0.118674
560.512680	0.118618
560.726117	0.119032
560.939536	0.119076
561.152937	0.119060
561.366319	0.118657
561.579683	0.118684
561.793029	0.118386
562.006357	0.118774
562.219667	0.118879
562.432958	0.119130
562.646231	0.119050
562.859486	0.119626
563.072723	0.120061
563.285941	0.120280
563.499141	0.120129
563.712323	0.120301
563.925487	0.120380
564.138632	0.120615
564.351760	0.120600
564.564869	0.120457
564.777960	0.120191
564.991032	0.120183
565.204087	0.120427
565.417123	0.120650
565.630141	0.120842
565.843140	0.120828
566.056122	0.120774
566.269085	0.120805
566.482030	0.121138
566.694957	0.121390
566.907866	0.121230
567.120756	0.121204
567.333628	0.121134
567.546482	0.120969
567.759318	0.120833
567.972135	0.120989
568.184935	0.121000
568.397716	0.121111
568.610478	0.121083
568.823223	0.121251
569.035949	0.121338
569.248657	0.121542
569.461347	0.122018
569.674019	0.122581
569.886672	0.122483
570.099308	0.122708
570.311925	0.123070
570.524523	0.123027
570.737104	0.123085
570.949666	0.123412
571.162210	0.123783
571.374736	0.123474
571.587244	0.123242
571.799733	0.123432
572.012205	0.123384
572.224658	0.123052
572.437092	0.123415
572.649509	0.123741
572.861907	0.123660
573.074287	0.123412
573.286649	0.123618
573.498993	0.123691
573.711318	0.123442
573.923625	0.123365
574.135914	0.123226
574.348185	0.122773
574.560438	0.122670
574.772672	0.122739
574.984888	0.122990
575.197086	0.122931
575.409266	0.122812
575.621427	0.123210
575.833570	0.123685
576.045695	0.123762
576.257802	0.123768
576.469890	0.123681
576.681961	0.123792
576.894013	0.123695
577.106046	0.124004
577.318062	0.124272
577.530059	0.124506
577.742039	0.124412
577.954000	0.124697
578.165942	0.125596
578.377867	0.125674
578.589773	0.125670
578.801661	0.125871
579.013531	0.125918
579.225382	0.125751
579.437216	0.125887
579.649031	0.125806
579.860828	0.126068
580.072606	0.125775
580.284367	0.125992
580.496109	0.126044
580.707833	0.126002
580.919539	0.125979
581.131227	0.126352
581.342896	0.126141
581.554547	0.126148
581.766180	0.126064
581.977795	0.126336
582.189391	0.126453
582.400969	0.126773
582.612529	0.126739
582.824071	0.126735
583.035595	0.126806
583.247100	0.127124
583.458587	0.127290
583.670056	0.127485
583.881506	0.127283
584.092939	0.127030
584.304353	0.127177
584.515749	0.127456
584.727127	0.127276
584.938486	0.127365
585.149828	0.127305
585.361151	0.127273
585.572456	0.127516
585.783742	0.127892
585.995011	0.128285
586.206261	0.128132
586.417493	0.128303
586.628706	0.128502
586.839902	0.128357
587.051079	0.128421
587.262238	0.128909
587.473379	0.128597
587.684502	0.128372
587.895606	0.128187
588.106692	0.128256
588.317760	0.128239
588.528810	0.128389
588.739841	0.128640
588.950855	0.128581
589.161850	0.127949
589.372827	0.128394
589.583785	0.128648
589.794726	0.128894
590.005648	0.128722
590.216552	0.128858
590.427437	0.129009
590.638305	0.128971
590.849154	0.129092
591.059985	0.129425
591.270798	0.129370
591.481592	0.129252
591.692369	0.129460
591.903127	0.129810
592.113867	0.129905
592.324588	0.129893
592.535292	0.130135
592.745977	0.130276
592.956644	0.130394
593.167293	0.130476
593.377923	0.130767
593.588536	0.130762
593.799130	0.130790
594.009706	0.130750
594.220263	0.131156
594.430803	0.131051
594.641324	0.130915
594.851827	0.131048
595.062312	0.131128
595.272778	0.131034
595.483227	0.131186
595.693657	0.131402
595.904069	0.131350
596.114462	0.131346
596.324838	0.131190
596.535195	0.131681
596.745534	0.131834
596.955855	0.131929
597.166157	0.132125
597.376441	0.132139
597.586707	0.131909
597.796955	0.132006
598.007185	0.132029
598.217396	0.132567
598.427589	0.132483
598.637764	0.132517
598.847921	0.132728
599.058060	0.132793
599.268180	0.132959
599.478282	0.133068
599.688366	0.133575
599.898431	0.133524
600.108479	0.133418
600.318508	0.133633
600.528519	0.133687
600.738511	0.133647
600.948486	0.133693
601.158442	0.133646
601.368380	0.134074
601.578300	0.133858
601.788202	0.134058
601.998085	0.134255
602.207950	0.134214
602.417797	0.134383
602.627626	0.134312
602.837436	0.134458
603.047228	0.134445
603.257002	0.134407
603.466758	0.134554
603.676496	0.134425
603.886215	0.134594
604.095916	0.134654
604.305599	0.134708
604.515264	0.134935
604.724910	0.134671
604.934538	0.134965
605.144148	0.135065
605.353740	0.135039
605.563314	0.135266
605.772869	0.134895
605.982406	0.134909
606.191925	0.134815
606.401425	0.134733
606.610908	0.134908
606.820372	0.134633
607.029818	0.134450
607.239246	0.134662
607.448655	0.134763
607.658047	0.135077
607.867420	0.135081
608.076775	0.135158
608.286111	0.135425
608.495430	0.135696
608.704730	0.135975
608.914012	0.136325
609.123275	0.136312
609.332521	0.136363
609.541748	0.136408
609.750957	0.136727
609.960148	0.137102
610.169321	0.136989
610.378475	0.136894
610.587611	0.136968
610.796729	0.137023
611.005829	0.136919
611.214910	0.136920
611.423974	0.136869
611.633019	0.136703
611.842045	0.136677
612.051054	0.136932
612.260044	0.136854
612.469017	0.136908
612.677970	0.136881
612.886906	0.137072
613.095824	0.137127
613.304723	0.137060
613.513604	0.137021
613.722467	0.136958
613.931311	0.136947
614.140138	0.137123
614.348946	0.137094
614.557736	0.137089
614.766507	0.136939
614.975261	0.137102
615.183996	0.137521
615.392713	0.137559
615.601412	0.137522
615.810092	0.137460
616.018754	0.137577
616.227399	0.137793
616.436024	0.137928
616.644632	0.138235
616.853222	0.138121
617.061793	0.138205
617.270346	0.138564
617.478880	0.138588
617.687397	0.138921
617.895895	0.138945
618.104375	0.139012
618.312837	0.139019
618.521281	0.138873
618.729706	0.138832
618.938113	0.138916
619.146502	0.139058
619.354873	0.139440
619.563226	0.139124
619.771560	0.139285
619.979876	0.139391
620.188174	0.139535
620.396453	0.139817
620.604715	0.139808
620.812958	0.139694
621.021183	0.139877
621.229390	0.139916
621.437578	0.139983
621.645748	0.140150
621.853900	0.140186
622.062034	0.140320
622.270150	0.140382
622.478247	0.140793
622.686326	0.140809
622.894387	0.140651
623.102430	0.140524
623.310454	0.140817
623.518461	0.140915
623.726449	0.140872
623.934418	0.140614
624.142370	0.140778
624.350303	0.140812
624.558218	0.141124
624.766115	0.141203
624.973994	0.141249
625.181855	0.141104
625.389697	0.141275
625.597521	0.141404
625.805327	0.141608
626.013114	0.141632
626.220883	0.141746
626.428634	0.141736
626.636367	0.141885
626.844082	0.141886
627.051778	0.142094
627.259457	0.141922
627.467117	0.142021
627.674758	0.142326
627.882382	0.142252
628.089987	0.142401
628.297574	0.142347
628.505143	0.142366
628.712694	0.142678
628.920226	0.142768
629.127740	0.143116
629.335236	0.143076
629.542714	0.142842
629.750174	0.142980
629.957615	0.142939
630.165038	0.143129
630.372443	0.143137
630.579829	0.143132
630.787198	0.143259
630.994548	0.143290
631.201880	0.143608
631.409194	0.144071
631.616489	0.143984
631.823766	0.144074
632.031025	0.144148
632.238266	0.144295
632.445489	0.144387
632.652693	0.144322
632.859879	0.144147
633.067047	0.143810
633.274197	0.143660
633.481329	0.144003
633.688442	0.144096
633.895537	0.143798
634.102614	0.143852
634.309672	0.143921
634.516713	0.144114
634.723735	0.144148
634.930739	0.144532
635.137724	0.144376
635.344692	0.144444
635.551641	0.144333
635.758572	0.145011
635.965485	0.144996
636.172379	0.145112
636.379256	0.145160
636.586114	0.145352
636.792954	0.145254
636.999775	0.145531
637.206579	0.145576
637.413364	0.145627
637.620131	0.145519
637.826880	0.145676
638.033610	0.145650
638.240323	0.145676
638.447017	0.145902
638.653692	0.146017
638.860350	0.146209
639.066990	0.145983
639.273611	0.146106
639.480214	0.146095
639.686798	0.146136
639.893365	0.146344
640.099913	0.146516
640.306443	0.146186
640.512955	0.146209
640.719449	0.146138
640.925924	0.146424
641.132381	0.146704
641.338820	0.146702
641.545241	0.146593
641.751644	0.146506
641.958028	0.146622
642.164394	0.146841
642.370742	0.147167
642.577071	0.147336
642.783383	0.147428
642.989676	0.147618
643.195951	0.147762
643.402207	0.147989
643.608446	0.148206
643.814666	0.148358
644.020868	0.148223
644.227052	0.148280
644.433218	0.148276
644.639365	0.148338
644.845494	0.148113
645.051605	0.148169
645.257698	0.148365
645.463772	0.148318
645.669828	0.148014
645.875866	0.148070
646.081886	0.147905
646.287888	0.147934
646.493871	0.147870
646.699836	0.147801
646.905783	0.147822
647.111712	0.147642
647.317622	0.148002
647.523514	0.148102
647.729388	0.148361
647.935244	0.148609
648.141082	0.148768
648.346901	0.149135
648.552702	0.149537
648.758485	0.149878
648.964250	0.150280
649.169996	0.150340
649.375724	0.150804
649.581434	0.151050
649.787126	0.151161
649.992800	0.151217
650.198455	0.151107
650.404092	0.151091
650.609711	0.150856
650.815311	0.150809
651.020894	0.150613
651.226458	0.150379
651.432004	0.150251
651.637532	0.150233
651.843041	0.150321
652.048532	0.150365
652.254006	0.150411
652.459460	0.150620
652.664897	0.150594
652.870315	0.150677
653.075716	0.150926
653.281097	0.151015
653.486461	0.151060
653.691807	0.151292
653.897134	0.151373
654.102443	0.151465
654.307734	0.151570
654.513006	0.151585
654.718261	0.151555
654.923497	0.151685
655.128715	0.151841
655.333915	0.151871
655.539096	0.151697
655.744259	0.151694
655.949404	0.151828
656.154531	0.151886
656.359640	0.152159
656.564730	0.152369
656.769802	0.152371
656.974856	0.152429
657.179892	0.152512
657.384909	0.152747
657.589908	0.153046
657.794889	0.153218
657.999852	0.153287
658.204797	0.153288
658.409723	0.153603
658.614631	0.153729
658.819521	0.154010
659.024393	0.154376
659.229246	0.154384
659.434081	0.154489
659.638898	0.154557
659.843697	0.154494
660.048478	0.154658
660.253240	0.154569
660.457984	0.154421
660.662710	0.154300
660.867417	0.154210
661.072107	0.154376
661.276778	0.154335
661.481431	0.154340
661.686066	0.154606
661.890682	0.154618
662.095281	0.154693
662.299861	0.154826
662.504422	0.154848
662.708966	0.154934
662.913491	0.154894
663.117999	0.155009
663.322488	0.155123
663.526958	0.155415
663.731411	0.155561
663.935845	0.155538
664.140261	0.155749
664.344659	0.156178
664.549038	0.156269
664.753400	0.156499
664.957743	0.156581
665.162068	0.156703
665.366375	0.156683
665.570663	0.156595
665.774933	0.156823
665.979185	0.156754
666.183419	0.156644
666.387635	0.156736
666.591832	0.156448
666.796011	0.156646
667.000172	0.156853
667.204315	0.156825
667.408439	0.157041
667.612545	0.157089
667.816634	0.157394
668.020703	0.157495
668.224755	0.157634
668.428788	0.157916
668.632803	0.157802
668.836800	0.157753
669.040779	0.157751
669.244739	0.157697
669.448681	0.157966
669.652605	0.157979
669.856511	0.158274
670.060399	0.158245
670.264268	0.158392
670.468119	0.158738
670.671952	0.158696
670.875767	0.158641
671.079563	0.158488
671.283341	0.158402
671.487101	0.158559
671.690843	0.158331
671.894567	0.158374
672.098272	0.158507
672.301959	0.158472
672.505628	0.158711
672.709278	0.159011
672.912911	0.159406
673.116525	0.159435
673.320121	0.159261
673.523699	0.159526
673.727258	0.159573
673.930799	0.159756
674.134322	0.159916
674.337827	0.159997
674.541314	0.160164
674.744782	0.160561
674.948232	0.160684
675.151664	0.160846
675.355078	0.160803
675.558474	0.160860
675.761851	0.160891
675.965210	0.160815
676.168551	0.160788
676.371873	0.160706
676.575178	0.160534
676.778464	0.160743
676.981732	0.160901
677.184981	0.161061
677.388213	0.161386
677.591426	0.161326
677.794621	0.161294
677.997798	0.161508
678.200956	0.161601
678.404097	0.161740
678.607219	0.161822
678.810323	0.161942
679.013408	0.161850
679.216476	0.161868
679.419525	0.162117
679.622556	0.162395
679.825569	0.162253
680.028563	0.162214
680.231540	0.162285
680.434498	0.162223
680.637438	0.162261
680.840359	0.162418
681.043263	0.162449
681.246148	0.162564
681.449015	0.162617
681.651864	0.162752
681.854694	0.163061
682.057506	0.163110
682.260301	0.163193
682.463076	0.163143
682.665834	0.163409
682.868573	0.163630
683.071295	0.163605
683.273998	0.163718
683.476682	0.163894
683.679349	0.164059
683.881997	0.164242
684.084627	0.164211
684.287239	0.164360
684.489833	0.164114
684.692408	0.164084
684.894965	0.164182
685.097504	0.164294
685.300025	0.164496
685.502527	0.164638
685.705012	0.164807
685.907478	0.165129
686.109925	0.165418
686.312355	0.165798
686.514766	0.165952
686.717159	0.166156
686.919534	0.166303
687.121891	0.166155
687.324230	0.166214
687.526550	0.166210
687.728852	0.166256
687.931136	0.166133
688.133401	0.166092
688.335649	0.166001
688.537878	0.165943
688.740089	0.165841
688.942281	0.165993
689.144456	0.165976
689.346612	0.165852
689.548750	0.165777
689.750870	0.165822
689.952971	0.165811
690.155055	0.165981
690.357120	0.165942
690.559167	0.166088
690.761195	0.166196
690.963206	0.166296
691.165198	0.166419
691.367172	0.166648
691.569128	0.166690
691.771065	0.166840
691.972984	0.166693
692.174885	0.166872
692.376768	0.166864
692.578633	0.166864
692.780479	0.166832
692.982308	0.166878
693.184118	0.166811
693.385909	0.166998
693.587683	0.167029
693.789438	0.167218
693.991175	0.167389
694.192894	0.167411
694.394595	0.167577
694.596277	0.167655
694.797941	0.167983
694.999587	0.167974
695.201215	0.167959
695.402824	0.168106
695.604416	0.168263
695.805989	0.168159
696.007543	0.168409
696.209080	0.168482
696.410598	0.168705
696.612099	0.168631
696.813580	0.169033
697.015044	0.169261
697.216490	0.169367
697.417917	0.169536
697.619326	0.169540
697.820717	0.169359
698.022089	0.169500
698.223444	0.169642
698.424780	0.169644
698.626098	0.169523
698.827397	0.169552
699.028679	0.169800
699.229942	0.169661
699.431187	0.169808
699.632414	0.170132
699.833622	0.170198
700.034813	0.170113
700.235985	0.170020
700.437139	0.170020
700.638274	0.170117
700.839392	0.170061
701.040491	0.170414
701.241572	0.170763
701.442635	0.170854
701.643679	0.170847
701.844706	0.170834
702.045714	0.171086
702.246704	0.171264
702.447675	0.171432
702.648629	0.171421
702.849564	0.171359
703.050481	0.171287
703.251380	0.171247
703.452260	0.171239
703.653122	0.171448
703.853966	0.171477
704.054792	0.171331
704.255600	0.171143
704.456389	0.171162
704.657160	0.171043
704.857913	0.171026
705.058648	0.171237
705.259365	0.171167
705.460063	0.171002
705.660743	0.171064
705.861405	0.171170
706.062048	0.171304
706.262674	0.171237
706.463281	0.171380
706.663870	0.171194
706.864441	0.170943
707.064993	0.171128
707.265527	0.171154
707.466043	0.170937
707.666541	0.170915
707.867021	0.170891
708.067482	0.171031
708.267925	0.171091
708.468350	0.171267
708.668757	0.171384
708.869145	0.171537
709.069516	0.171575
709.269868	0.171846
709.470201	0.171969
709.670517	0.171970
709.870814	0.172048
710.071093	0.172137
710.271354	0.172382
710.471597	0.172472
710.671821	0.172420
710.872028	0.172532
711.072216	0.172614
711.272385	0.172713
711.472537	0.172890
711.672670	0.172808
711.872785	0.172696
712.072882	0.172558
712.272961	0.172399
712.473021	0.172312
712.673063	0.172168
712.873087	0.172052
713.073093	0.172148
713.273081	0.172049
713.473050	0.172283
713.673001	0.172382
713.872934	0.172544
714.072849	0.172686
714.272745	0.172791
714.472623	0.172709
714.672483	0.172746
714.872325	0.172636
715.072148	0.172623
715.271954	0.172595
715.471741	0.172672
715.671509	0.172493
715.871260	0.172490
716.070992	0.172430
716.270707	0.172726
716.470403	0.172882
716.670080	0.172848
716.869740	0.172622
717.069381	0.172393
717.269004	0.172258
717.468609	0.172086
717.668195	0.171916
717.867764	0.171801
718.067314	0.171716
718.266846	0.171418
718.466360	0.171455
718.665855	0.171691
718.865332	0.171682
719.064791	0.171473
719.264232	0.171609
719.463655	0.171555
719.663059	0.171530
719.862445	0.171492
720.061813	0.171614
720.261163	0.171618
720.460494	0.171613
720.659807	0.171497
720.859102	0.171625
721.058379	0.171581
721.257638	0.171719
721.456878	0.171900
721.656100	0.171702
721.855304	0.171770
722.054490	0.171753
722.253657	0.171502
722.452806	0.171717
722.651937	0.171709
722.851050	0.171619
723.050145	0.171438
723.249221	0.171182
723.448279	0.171258
723.647319	0.171183
723.846340	0.171091
724.045344	0.171293
724.244329	0.171164
724.443296	0.170973
724.642245	0.170857
724.841175	0.170941
725.040088	0.170960
725.238982	0.170956
725.437857	0.170784
725.636715	0.170554
725.835554	0.170558
726.034376	0.170493
726.233179	0.170575
726.431963	0.170484
726.630730	0.170630
726.829478	0.170647
727.028208	0.170818
727.226920	0.170751
727.425614	0.170813
727.624289	0.170866
727.822946	0.171003
728.021585	0.170996
728.220206	0.171152
728.418808	0.171009
728.617392	0.171146
728.815958	0.171066
729.014506	0.171301
729.213036	0.171368
729.411547	0.171203
729.610040	0.171063
729.808515	0.171013
730.006972	0.170958
730.205410	0.170914
730.403831	0.170661
730.602233	0.170629
730.800616	0.170629
730.998982	0.170485
731.197329	0.170295
731.395658	0.170231
731.593969	0.170446
731.792262	0.170522
731.990536	0.170666
732.188793	0.170552
732.387031	0.170337
732.585250	0.169974
732.783452	0.170084
732.981635	0.170355
733.179800	0.170331
733.377947	0.170115
733.576076	0.170161
733.774186	0.170016
733.972278	0.170177
734.170352	0.170233
734.368408	0.170298
734.566446	0.170131
734.764465	0.169723
734.962466	0.169723
735.160449	0.169714
735.358413	0.169586
735.556360	0.169349
735.754288	0.169100
735.952198	0.168978
736.150090	0.168776
736.347963	0.168704
736.545818	0.168606
736.743655	0.168533
736.941474	0.168351
737.139275	0.168223
737.337057	0.167985
737.534821	0.168038
737.732567	0.167923
737.930295	0.167900
738.128005	0.167759
738.325696	0.167858
738.523369	0.167548
738.721024	0.167455
738.918660	0.167438
739.116279	0.167440
739.313879	0.167186
739.511461	0.167281
739.709024	0.167348
739.906570	0.167541
740.104097	0.167462
740.301606	0.167426
740.499097	0.167436
740.696569	0.167168
740.894024	0.167230
741.091460	0.167454
741.288878	0.167227
741.486277	0.167198
741.683659	0.167017
741.881022	0.166966
742.078367	0.166920
742.275694	0.166713
742.473002	0.166748
742.670293	0.166695
742.867565	0.166562
743.064819	0.166600
743.262054	0.166465
743.459272	0.166383
743.656471	0.166238
743.853652	0.166312
744.050815	0.166525
744.247959	0.166509
744.445085	0.166515
744.642194	0.166309
744.839283	0.166232
745.036355	0.166290
745.233408	0.166281
745.430444	0.166346
745.627461	0.166141
745.824459	0.165824
746.021440	0.165662
746.218402	0.165734
746.415346	0.165782
746.612272	0.165709
746.809180	0.165506
747.006069	0.165372
747.202940	0.165372
747.399793	0.165476
747.596628	0.165438
747.793444	0.165453
747.990243	0.165203
748.187023	0.165234
748.383784	0.165178
748.580528	0.164975
748.777253	0.164828
748.973960	0.164744
749.170649	0.164557
749.367320	0.164565
749.563973	0.164499
749.760607	0.164428
749.957223	0.164227
750.153821	0.164076
750.350400	0.164310
750.546962	0.164315
750.743505	0.164304
750.940030	0.164284
751.136536	0.164232
751.333025	0.164060
751.529495	0.163904
751.725947	0.163903
751.922381	0.163874
752.118796	0.163795
752.315194	0.164023
752.511573	0.163886
752.707934	0.164179
752.904276	0.164378
753.100601	0.164449
753.296907	0.164508
753.493195	0.164392
753.689465	0.164248
753.885716	0.164268
754.081949	0.163961
754.278164	0.163986
754.474361	0.163637
754.670540	0.163378
754.866700	0.163332
755.062843	0.163253
755.258967	0.163212
755.455072	0.163345
755.651160	0.163106
755.847229	0.163028
756.043280	0.162861
756.239313	0.162759
756.435328	0.162400
756.631324	0.162189
756.827302	0.162156
757.023262	0.161988
757.219204	0.161849
757.415127	0.161687
757.611033	0.161532
757.806920	0.161491
758.002788	0.161688
758.198639	0.161789
758.394471	0.161865
758.590286	0.161985
758.786081	0.162055
758.981859	0.161919
759.177619	0.162035
759.373360	0.161925
759.569083	0.161633
759.764788	0.161271
759.960474	0.161354
760.156143	0.161138
760.351793	0.160827
760.547425	0.160593
760.743038	0.160481
760.938634	0.160442
761.134211	0.160481
761.329770	0.160684
761.525311	0.160870
761.720833	0.160695
761.916338	0.160852
762.111824	0.160824
762.307292	0.160771
762.502741	0.161097
762.698173	0.160897
762.893586	0.160867
763.088981	0.160785
763.284358	0.160374
763.479716	0.160353
763.675057	0.160210
763.870379	0.160225
764.065683	0.160249
764.260968	0.159717
764.456236	0.159616
764.651485	0.159459
764.846716	0.159420
765.041929	0.159723
765.237123	0.159615
765.432299	0.159742
765.627457	0.159640
765.822597	0.159675
766.017719	0.159829
766.212822	0.159821
766.407907	0.159933
766.602974	0.159876
766.798023	0.159627
766.993054	0.159504
767.188066	0.159287
767.383060	0.159084
767.578036	0.158926
767.772993	0.158985
767.967933	0.159212
768.162854	0.159276
768.357757	0.159328
768.552642	0.159435
768.747508	0.159504
768.942356	0.159644
769.137186	0.159857
769.331998	0.159812
769.526792	0.159897
769.721567	0.159645
769.916324	0.159425
770.111063	0.159290
770.305784	0.159193
770.500486	0.159107
770.695171	0.158833
770.889837	0.158631
771.084484	0.158621
771.279114	0.158342
771.473725	0.158501
771.668318	0.158436
771.862893	0.158389
772.057450	0.158255
772.251988	0.158359
772.446509	0.158145
772.641011	0.158057
772.835494	0.158166
773.029960	0.158182
773.224407	0.158042
773.418836	0.158157
773.613247	0.158147
773.807640	0.158177
774.002014	0.158054
774.196370	0.158128
774.390708	0.158126
774.585028	0.157803
774.779330	0.157606
774.973613	0.157425
775.167878	0.157334
775.362125	0.157413
775.556354	0.157258
775.750564	0.157207
775.944756	0.157219
776.138930	0.157371
776.333086	0.157411
776.527223	0.157468
776.721343	0.157414
776.915444	0.157461
777.109526	0.157209
777.303591	0.157340
777.497637	0.157227
777.691666	0.157095
777.885676	0.157067
778.079667	0.157143
778.273641	0.157156
778.467596	0.157171
778.661533	0.156852
778.855452	0.157021
779.049352	0.156948
779.243235	0.156931
779.437099	0.157040
779.630945	0.157078
779.824773	0.157102
780.018582	0.156957
780.212373	0.157079
780.406146	0.157367
780.599901	0.157364
780.793638	0.157284
780.987356	0.157422
781.181056	0.157534
781.374738	0.157265
781.568402	0.157359
781.762047	0.157457
781.955674	0.157319
782.149283	0.157109
782.342874	0.156995
782.536447	0.157177
782.730001	0.156990
782.923537	0.157021
783.117055	0.157286
783.310555	0.157122
783.504036	0.157171
783.697499	0.157241
783.890944	0.157392
784.084371	0.157393
784.277780	0.157330
784.471170	0.157474
784.664542	0.157472
784.857896	0.157422
785.051231	0.157411
785.244549	0.157383
785.437848	0.157438
785.631129	0.157293
785.824392	0.157359
786.017636	0.157321
786.210863	0.157325
786.404071	0.157488
786.597260	0.157440
786.790432	0.157462
786.983585	0.157391
787.176721	0.157319
787.369838	0.157342
787.562936	0.157330
787.756017	0.157306
787.949079	0.157414
788.142123	0.157022
788.335149	0.157104
788.528156	0.157149
788.721146	0.157044
788.914117	0.157006
789.107070	0.156936
789.300005	0.156904
789.492921	0.156822
789.685819	0.156734
789.878699	0.156835
790.071561	0.156706
790.264405	0.156796
790.457230	0.157133
790.650037	0.157146
790.842826	0.157596
791.035597	0.157597
791.228349	0.157862
791.421084	0.157886
791.613800	0.158243
791.806497	0.158353
791.999177	0.158503
792.191838	0.158275
792.384481	0.158425
792.577106	0.158247
792.769713	0.158174
792.962301	0.157909
793.154871	0.157974
793.347423	0.157792
793.539957	0.157925
793.732473	0.157722
793.924970	0.157822
794.117449	0.157688
794.309910	0.157628
794.502353	0.157750
794.694777	0.157957
794.887183	0.157853
795.079571	0.157731
795.271941	0.157472
795.464293	0.157488
795.656626	0.157578
795.848941	0.157804
796.041238	0.157878
796.233516	0.157806
796.425777	0.157666
796.618019	0.157815
796.810243	0.158081
797.002449	0.158230
797.194636	0.158520
797.386805	0.158261
797.578956	0.158259
797.771089	0.158455
797.963204	0.158726
798.155300	0.158861
798.347378	0.158825
798.539438	0.158577
798.731480	0.158654
798.923503	0.158224
799.115509	0.158487
799.307496	0.158518
799.499465	0.158400
799.691415	0.158369
799.883348	0.158443
800.075262	0.158572
800.267158	0.158635
800.459035	0.158680
800.650895	0.159110
800.842736	0.159157
801.034559	0.159295
801.226364	0.159442
801.418150	0.159372
801.609919	0.159418
801.801669	0.159471
801.993401	0.159599
802.185114	0.159486
802.376810	0.159334
802.568487	0.159751
802.760146	0.159669
802.951787	0.159761
803.143409	0.159982
803.335014	0.159943
803.526600	0.160007
803.718168	0.159909
803.909717	0.160066
804.101249	0.160353
804.292762	0.160108
804.484257	0.160272
804.675734	0.160312
804.867192	0.160205
805.058632	0.160456
805.250054	0.160393
805.441458	0.160820
805.632844	0.161089
805.824211	0.161057
806.015561	0.161107
806.206891	0.161012
806.398204	0.161157
806.589499	0.161327
806.780775	0.161533
806.972033	0.161759
807.163273	0.161661
807.354495	0.161870
807.545698	0.162100
807.736883	0.162426
807.928050	0.162824
808.119199	0.162791
808.310329	0.162997
808.501441	0.163141
808.692535	0.163146
808.883611	0.163354
809.074669	0.163390
809.265708	0.163596
809.456729	0.163705
809.647732	0.163509
809.838717	0.163817
810.029683	0.163963
810.220632	0.164169
810.411562	0.164543
810.602474	0.164768
810.793367	0.164974
810.984242	0.164870
811.175100	0.165097
811.365938	0.165355
811.556759	0.165506
811.747562	0.165655
811.938346	0.165672
812.129112	0.165774
812.319860	0.166033
812.510589	0.165959
812.701300	0.166410
812.891994	0.166167
813.082668	0.166286
813.273325	0.166196
813.463964	0.166150
813.654584	0.166090
813.845186	0.166164
814.035769	0.165966
814.226335	0.165952
814.416882	0.165820
814.607411	0.165827
814.797922	0.165824
814.988415	0.165992
815.178889	0.166041
815.369345	0.166062
815.559783	0.166210
815.750203	0.166428
815.940605	0.166735
816.130988	0.166863
816.321353	0.166968
816.511700	0.167184
816.702028	0.167246
816.892339	0.167423
817.082631	0.167616
817.272905	0.167784
817.463161	0.167829
817.653398	0.167590
817.843617	0.167574
818.033819	0.168022
818.224001	0.168330
818.414166	0.168405
818.604312	0.168316
818.794440	0.168487
818.984550	0.168460
819.174642	0.168632
819.364716	0.168801
819.554771	0.168933
819.744808	0.168959
819.934827	0.168804
820.124827	0.168897
820.314810	0.169205
820.504774	0.169293
820.694720	0.169460
820.884647	0.169344
821.074557	0.169586
821.264448	0.169953
821.454321	0.169862
821.644176	0.170168
821.834012	0.170305
822.023831	0.170633
822.213631	0.170580
822.403413	0.170678
822.593176	0.170931
822.782922	0.171000
822.972649	0.171101
823.162358	0.171486
823.352049	0.171361
823.541721	0.171454
823.731376	0.171405
823.921012	0.171752
824.110629	0.171756
824.300229	0.172083
824.489811	0.172272
824.679374	0.172379
824.868919	0.172479
825.058445	0.172886
825.247954	0.172964
825.437444	0.173230
825.626916	0.173335
825.816370	0.173464
826.005806	0.173376
826.195223	0.173740
826.384622	0.173766
826.574003	0.174019
826.763366	0.173995
826.952711	0.174090
827.142037	0.174243
827.331345	0.174432
827.520635	0.174457
827.709906	0.174782
827.899160	0.174913
828.088395	0.174840
828.277612	0.174736
828.466810	0.175025
828.655991	0.175599
828.845153	0.175629
829.034297	0.175783
829.223423	0.176253
829.412531	0.176427
829.601620	0.176437
829.790691	0.176722
829.979744	0.176890
830.168779	0.176922
830.357795	0.176939
830.546793	0.177019
830.735773	0.177093
830.924735	0.177191
831.113679	0.177285
831.302604	0.177432
831.491511	0.177657
831.680400	0.178007
831.869271	0.178371
832.058123	0.178417
832.246957	0.178492
832.435773	0.178546
832.624571	0.178590
832.813351	0.178933
833.002112	0.179523
833.190855	0.179758
833.379580	0.179945
833.568287	0.179984
833.756975	0.180046
833.945645	0.180453
834.134297	0.180969
834.322931	0.181400
834.511547	0.181508
834.700144	0.181413
834.888723	0.181610
835.077284	0.181700
835.265826	0.181873
835.454351	0.182088
835.642857	0.182280
835.831345	0.182465
836.019815	0.182672
836.208266	0.182895
836.396699	0.182811
836.585114	0.183133
836.773511	0.183365
836.961890	0.183458
837.150250	0.183636
837.338592	0.183801
837.526916	0.183743
837.715222	0.183751
837.903510	0.183876
838.091779	0.184326
838.280030	0.184393
838.468263	0.184874
838.656477	0.185199
838.844674	0.185883
839.032852	0.186179
839.221012	0.186790
839.409153	0.186950
839.597277	0.187417
839.785382	0.187627
839.973469	0.187685
840.161538	0.187386
840.349589	0.187878
840.537621	0.187997
840.725635	0.188072
840.913631	0.187966
841.101609	0.188351
841.289568	0.188024
841.477509	0.188048
841.665432	0.188436
841.853337	0.188700
842.041224	0.188612
842.229092	0.188840
842.416942	0.189150
842.604774	0.189316
842.792588	0.189362
842.980383	0.189424
843.168160	0.189917
843.355919	0.189956
843.543660	0.190254
843.731382	0.190568
843.919087	0.190345
844.106773	0.190251
844.294441	0.190518
844.482090	0.190874
844.669722	0.191340
844.857335	0.191592
845.044930	0.191931
845.232507	0.192359
845.420065	0.192261
845.607605	0.192542
845.795127	0.192736
845.982631	0.192866
846.170117	0.193057
846.357584	0.193556
846.545033	0.193824
846.732464	0.194105
846.919877	0.194151
847.107272	0.194595
847.294648	0.195249
847.482006	0.195758
847.669346	0.196128
847.856667	0.196339
848.043971	0.196462
848.231256	0.196110
848.418523	0.196401
848.605771	0.196627
848.793002	0.196854
848.980214	0.196950
849.167408	0.197273
849.354584	0.197383
849.541742	0.197700
849.728881	0.197988
849.916002	0.198466
850.103105	0.198433
850.290190	0.198443
850.477256	0.198432
850.664304	0.198445
850.851334	0.198578
851.038346	0.198705
851.225340	0.198646
851.412315	0.198715
851.599272	0.198972
851.786211	0.199109
851.973132	0.199310
852.160034	0.199695
852.346918	0.199901
852.533784	0.199966
852.720632	0.200310
852.907462	0.200619
853.094273	0.200516
853.281066	0.200782
853.467841	0.200907
853.654598	0.201278
853.841336	0.201402
854.028056	0.201423
854.214758	0.201421
854.401442	0.201494
854.588107	0.201663
854.774755	0.202239
854.961384	0.202325
855.147995	0.202729
855.334587	0.202826
855.521162	0.203126
855.707718	0.203447
855.894256	0.203895
856.080775	0.204227
856.267277	0.204556
856.453760	0.204618
856.640225	0.204663
856.826672	0.204437
857.013101	0.204787
857.199511	0.205040
857.385903	0.205430
857.572277	0.205653
857.758633	0.205453
857.944970	0.205381
858.131290	0.205602
858.317591	0.206042
858.503873	0.206439
858.690138	0.206444
858.876384	0.206506
859.062612	0.206503
859.248822	0.206539
859.435014	0.207075
859.621188	0.207535
859.807343	0.207842
859.993480	0.208105
860.179599	0.208182
860.365699	0.208479
860.551781	0.208707
860.737846	0.208757
860.923891	0.208960
861.109919	0.209179
861.295929	0.209101
861.481920	0.208856
861.667893	0.209048
861.853848	0.209337
862.039784	0.209541
862.225702	0.209593
862.411603	0.209722
862.597484	0.210062
862.783348	0.210167
862.969193	0.210441
863.155021	0.210749
863.340830	0.210471
863.526620	0.210725
863.712393	0.210752
863.898147	0.211266
864.083883	0.211820
864.269601	0.211971
864.455301	0.212197
864.640982	0.212408
864.826645	0.212509
865.012290	0.213070
865.197917	0.213200
865.383526	0.213392
865.569116	0.213130
865.754688	0.212918
865.940242	0.213089
866.125777	0.213200
866.311295	0.213245
866.496794	0.213654
866.682275	0.213679
866.867737	0.213818
867.053182	0.213910
867.238608	0.214166
867.424016	0.214523
867.609406	0.214557
867.794778	0.214635
867.980131	0.214778
868.165466	0.214694
868.350783	0.214508
868.536082	0.214899
868.721362	0.215196
868.906625	0.215725
869.091869	0.215780
869.277094	0.215990
869.462302	0.216142
869.647491	0.216157
869.832662	0.216256
870.017815	0.216447
870.202950	0.216420
870.388066	0.216334
870.573165	0.215937
870.758245	0.216139
870.943306	0.216413
871.128350	0.216483
871.313375	0.216554
871.498382	0.216821
871.683371	0.216870
871.868342	0.216870
872.053294	0.217029
872.238229	0.217062
872.423144	0.217121
872.608042	0.216889
872.792922	0.216999
872.977783	0.217217
873.162626	0.217371
873.347451	0.217897
873.532258	0.218324
873.717046	0.218430
873.901816	0.219005
874.086568	0.219297
874.271302	0.219260
874.456017	0.219364
874.640715	0.219489
874.825394	0.219555
875.010055	0.219532
875.194697	0.219130
875.379322	0.219181
875.563928	0.219026
875.748516	0.218753
875.933085	0.219108
876.117637	0.218992
876.302170	0.218992
876.486685	0.219057
876.671182	0.219158
876.855661	0.219388
877.040121	0.219803
877.224563	0.220124
877.408987	0.220393
877.593393	0.220390
877.777780	0.220735
877.962150	0.220796
878.146501	0.220804
878.330833	0.220899
878.515148	0.221133
878.699444	0.221013
878.883722	0.220654
879.067982	0.220336
879.252224	0.220497
879.436447	0.220627
879.620653	0.220676
879.804840	0.220985
879.989008	0.220859
880.173159	0.220811
880.357291	0.220925
880.541405	0.221262
880.725501	0.222258
880.909579	0.221825
881.093638	0.221542
881.277680	0.221944
881.461703	0.222095
881.645707	0.222533
881.829694	0.222702
882.013662	0.222875
882.197612	0.222954
882.381544	0.222376
882.565458	0.223155
882.749353	0.223627
882.933230	0.223444
883.117089	0.222945
883.300930	0.222543
883.484753	0.222388
883.668557	0.222063
883.852343	0.221851
884.036111	0.222205
884.219861	0.221827
884.403592	0.221854
884.587305	0.221800
884.771000	0.222258
884.954677	0.222467
885.138335	0.222621
885.321976	0.222864
885.505598	0.222743
885.689201	0.222558
885.872787	0.222949
886.056354	0.223083
886.239904	0.223423
886.423434	0.223176
886.606947	0.223300
886.790442	0.223575
886.973918	0.223542
887.157376	0.223969
887.340816	0.223475
887.524237	0.223004
887.707641	0.223366
887.891026	0.223322
888.074393	0.223655
888.257741	0.223752
888.441072	0.223832
888.624384	0.224018
888.807678	0.224062
888.990954	0.224406
889.174211	0.224505
889.357451	0.223947
889.540672	0.223715
889.723875	0.223891
889.907059	0.223497
890.090226	0.223183
890.273374	0.222974
890.456504	0.222725
890.639616	0.222919
890.822709	0.223172
891.005785	0.222970
891.188842	0.223174
891.371881	0.222895
891.554901	0.223111
891.737904	0.223259
891.920888	0.223795
892.103854	0.224064
892.286802	0.223817
892.469731	0.223906
892.652643	0.224032
892.835536	0.223702
893.018410	0.223488
893.201267	0.223552
893.384106	0.223512
893.566926	0.222796
893.749728	0.222426
893.932511	0.222187
894.115277	0.221795
894.298024	0.221609
894.480753	0.221187
894.663464	0.221414
894.846157	0.221536
895.028831	0.221277
895.211487	0.221280
895.394125	0.221589
895.576745	0.221957
895.759346	0.221904
895.941930	0.221790
896.124495	0.221943
896.307041	0.221712
896.489570	0.221226
896.672080	0.221220
896.854573	0.221779
897.037046	0.221331
897.219502	0.221260
897.401940	0.221436
897.584359	0.221516
897.766760	0.221725
897.949143	0.221790
898.131507	0.221646
898.313854	0.221551
898.496182	0.220925
898.678492	0.220477
898.860783	0.219939
899.043057	0.219707
899.225312	0.219586
899.407549	0.219638
899.589768	0.219220
899.771968	0.219043
899.954151	0.218804
900.136315	0.218567
900.318461	0.218917
900.500588	0.219091
900.682698	0.218670
900.864789	0.218526
901.046862	0.218081
901.228917	0.218062
901.410953	0.218203
901.592971	0.217818
901.774972	0.217656
901.956953	0.217130
902.138917	0.217250
902.320862	0.217353
902.502790	0.217285
902.684699	0.217278
902.866589	0.217038
903.048462	0.216628
903.230316	0.216794
903.412152	0.216871
903.593970	0.216797
903.775770	0.216038
903.957551	0.216060
904.139314	0.215778
904.321059	0.215592
904.502786	0.215312
904.684494	0.215347
904.866185	0.215025
905.047857	0.215307
905.229510	0.214970
905.411146	0.214826
905.592763	0.214053
905.774363	0.213675
905.955943	0.212930
906.137506	0.212703
906.319051	0.212114
906.500577	0.211778
906.682085	0.210797
906.863575	0.210658
907.045046	0.210194
907.226500	0.210273
907.407935	0.209962
907.589352	0.209917
907.770750	0.209465
907.952131	0.209211
908.133493	0.209177
908.314837	0.209219
908.496163	0.209299
908.677470	0.209360
908.858760	0.208753
909.040031	0.208686
909.221284	0.209021
909.402518	0.209278
909.583735	0.209511
909.764933	0.209631
909.946113	0.209129
910.127275	0.208562
910.308418	0.208084
910.489544	0.208104
910.670651	0.207697
910.851740	0.207237
911.032810	0.206855
911.213863	0.206972
911.394897	0.206557
911.575913	0.206700
911.756911	0.206405
911.937890	0.206524
912.118851	0.206259
912.299794	0.206318
912.480719	0.206017
912.661626	0.205043
912.842514	0.204052
913.023384	0.203670
913.204236	0.203103
913.385070	0.202619
913.565886	0.202089
913.746683	0.202208
913.927462	0.201622
914.108223	0.201487
914.288965	0.201939
914.469690	0.201669
914.650396	0.201330
914.831084	0.201340
915.011754	0.201852
915.192405	0.201955
915.373038	0.201531
915.553653	0.201478
915.734250	0.200833
915.914829	0.200519
916.095389	0.200219
916.275931	0.199963
916.456455	0.199471
916.636961	0.198922
916.817448	0.198384
916.997917	0.197672
917.178368	0.197052
917.358801	0.196604
917.539216	0.195929
917.719612	0.195884
917.899990	0.195541
918.080350	0.194972
918.260692	0.194499
918.441015	0.193944
918.621320	0.193916
918.801607	0.193471
918.981876	0.193144
919.162127	0.192685
919.342359	0.192247
919.522573	0.192044
919.702769	0.191702
919.882947	0.191035
920.063106	0.191029
920.243247	0.190802
920.423370	0.190384
920.603475	0.190496
920.783562	0.190833
920.963630	0.190441
921.143680	0.190030
921.323712	0.189650
921.503725	0.189252
921.683721	0.188479
921.863698	0.188063
922.043657	0.187795
922.223598	0.187181
922.403520	0.186219
922.583424	0.185228
922.763311	0.184237
922.943178	0.183962
923.123028	0.183793
923.302859	0.183811
923.482673	0.182882
923.662467	0.182621
923.842244	0.182007
924.022003	0.181649
924.201743	0.181637
924.381465	0.181639
924.561169	0.181445
924.740854	0.180618
924.920522	0.179627
925.100171	0.179592
925.279802	0.179099
925.459414	0.179293
925.639009	0.178845
925.818585	0.178101
925.998143	0.177296
926.177683	0.175958
926.357205	0.176128
926.536708	0.176151
926.716193	0.175320
926.895660	0.174989
927.075109	0.174377
927.254539	0.174054
927.433951	0.174358
927.613345	0.174230
927.792721	0.174357
927.972079	0.174313
928.151418	0.173606
928.330739	0.173569
928.510042	0.172968
928.689327	0.172375
928.868593	0.171536
929.047841	0.170285
929.227071	0.169326
929.406283	0.168871
929.585476	0.167490
929.764652	0.167062
929.943809	0.166370
930.122948	0.166203
930.302068	0.165433
930.481171	0.165529
930.660255	0.165229
930.839321	0.164934
931.018369	0.164547
931.197398	0.164773
931.376409	0.164293
931.555402	0.163660
931.734377	0.162738
931.913334	0.162255
932.092272	0.160925
932.271192	0.160151
932.450094	0.159663
932.628978	0.159277
932.807844	0.157978
932.986691	0.157381
933.165520	0.156388
933.344331	0.156067
933.523123	0.155524
933.701898	0.155100
933.880654	0.155201
934.059392	0.155146
934.238111	0.154500
934.416813	0.154037
934.595496	0.153542
934.774161	0.153391
934.952808	0.152567
935.131437	0.152087
935.310047	0.151795
935.488639	0.151058
935.667213	0.150201
935.845769	0.149374
936.024306	0.148402
936.202825	0.148102
936.381326	0.147825
936.559809	0.146828
936.738274	0.146006
936.916720	0.145418
937.095148	0.144798
937.273558	0.143734
937.451950	0.142690
937.630323	0.142873
937.808678	0.142088
937.987015	0.141373
938.165334	0.141284
938.343635	0.140921
938.521917	0.140820
938.700181	0.139979
938.878427	0.139743
939.056655	0.139365
939.234864	0.139633
939.413055	0.139516
939.591228	0.139714
939.769383	0.139328
939.947519	0.139450
940.125638	0.138819
940.303738	0.138923
940.481820	0.138255
940.659883	0.138131
940.837929	0.136683
941.015956	0.135504
941.193965	0.134688
941.371955	0.134263
941.549928	0.133200
941.727882	0.131989
941.905818	0.131321
942.083736	0.130376
942.261636	0.129157
942.439517	0.128677
942.617380	0.127982
942.795225	0.126457
942.973052	0.126113
943.150860	0.124919
943.328651	0.124786
943.506423	0.123888
943.684176	0.123031
943.861912	0.123466
944.039629	0.123721
944.217328	0.123452
944.395009	0.123031
944.572672	0.122049
944.750317	0.122442
944.927943	0.122625
945.105551	0.121928
945.283141	0.122672
945.460712	0.122142
945.638265	0.120755
945.815801	0.120475
945.993317	0.120448
946.170816	0.118904
946.348297	0.117488
946.525759	0.116658
946.703203	0.116656
946.880629	0.115074
947.058036	0.114844
947.235425	0.114304
947.412797	0.114211
947.590149	0.113659
947.767484	0.114132
947.944800	0.112720
948.122099	0.111487
948.299379	0.110809
948.476640	0.111591
948.653884	0.110343
948.831109	0.109891
949.008316	0.108175
949.185505	0.107926
949.362676	0.109023
949.539828	0.109567
949.716962	0.108531
949.894078	0.107327
950.071176	0.105996
950.248256	0.103956
950.425317	0.103175
950.602360	0.102893
950.779385	0.101946
950.956391	0.099844
951.133380	0.099576
951.310350	0.099755
951.487302	0.100493
951.664235	0.100563
951.841151	0.100947
952.018048	0.100402
952.194927	0.099517
952.371788	0.098678
952.548631	0.098388
952.725455	0.098354
952.902261	0.097304
953.079049	0.096202
953.255819	0.094384
953.432570	0.094542
953.609303	0.095227
953.786018	0.095273
953.962715	0.096309
954.139394	0.095866
954.316054	0.094866
954.492696	0.096455
954.669320	0.097668
954.845926	0.099499
955.022513	0.098695
955.199083	0.095627
955.375634	0.094679
955.552166	0.093887
955.728681	0.093940
955.905177	0.093973
956.081655	0.092106
956.258115	0.090225
956.434557	0.089613
956.610980	0.089186
956.787385	0.091248
956.963772	0.093305
957.140141	0.092401
957.316492	0.091815
957.492824	0.090207
957.669138	0.091159
957.845434	0.092089
958.021712	0.090845
958.197971	0.092482
958.374212	0.090752
958.550435	0.091178
958.726640	0.092157
958.902826	0.091020
959.078995	0.093598
959.255145	0.093700
959.431277	0.092345
959.607390	0.092596
959.783486	0.090145
959.959563	0.090416
960.135622	0.088052
960.311662	0.086539
960.487685	0.086237
960.663689	0.084692
960.839675	0.084404
961.015643	0.084158
961.191593	0.085060
961.367524	0.085491
961.543437	0.085136
961.719332	0.084405
961.895209	0.086363
962.071067	0.088170
962.246907	0.089608
962.422730	0.089259
962.598533	0.090801
962.774319	0.088935
962.950086	0.090427
963.125835	0.092091
963.301566	0.094389
963.477279	0.092760
963.652973	0.091838
963.828650	0.091564
964.004308	0.092182
964.179947	0.091846
964.355569	0.092181
964.531172	0.089815
964.706757	0.089469
964.882324	0.086646
965.057873	0.086411
965.233403	0.087631
965.408916	0.086392
965.584410	0.085190
965.759885	0.083461
965.935343	0.084761
966.110782	0.088216
966.286203	0.088481
966.461606	0.090897
966.636991	0.091207
966.812357	0.090889
966.987705	0.089944
967.163035	0.089898
967.338347	0.090368
967.513641	0.089717
967.688916	0.087620
967.864173	0.086814
968.039412	0.088311
968.214632	0.089085
968.389835	0.087948
968.565019	0.088647
968.740185	0.088612
968.915333	0.089001
969.090462	0.088093
969.265573	0.087460
969.440667	0.087251
969.615741	0.084209
969.790798	0.084293
969.965836	0.085382
970.140856	0.085517
970.315858	0.087103
970.490842	0.087759
970.665808	0.088883
970.840755	0.088696
971.015684	0.090143
971.190595	0.090878
971.365487	0.089602
971.540362	0.089369
971.715218	0.091608
971.890056	0.089405
972.064875	0.088652
972.239677	0.087776
972.414460	0.090043
972.589225	0.091059
972.763972	0.089377
972.938700	0.088395
973.113411	0.087875
973.288103	0.084690
973.462777	0.085618
973.637432	0.086140
973.812070	0.087920
973.986689	0.085278
974.161290	0.083839
974.335873	0.084902
974.510437	0.085580
974.684984	0.085309
974.859512	0.087023
975.034022	0.086452
975.208513	0.086976
975.382987	0.087671
975.557442	0.087561
975.731879	0.087820
975.906298	0.088320
976.080698	0.087200
976.255080	0.088604
976.429445	0.087721
976.603790	0.089987
976.778118	0.088841
976.952427	0.086537
977.126719	0.088298
977.300992	0.086543
977.475246	0.085423
977.649483	0.086299
977.823701	0.085312
977.997901	0.085267
978.172083	0.083038
978.346247	0.083545
978.520392	0.082317
978.694519	0.083802
978.868628	0.083832
979.042719	0.085378
979.216791	0.088523
979.390845	0.088449
979.564882	0.088613
979.738899	0.089564
979.912899	0.090227
980.086880	0.092172
980.260843	0.089301
980.434788	0.090133
980.608715	0.087671
980.782623	0.083666
980.956514	0.082681
981.130386	0.081199
981.304240	0.081269
981.478075	0.080806
981.651892	0.079590
981.825692	0.080616
981.999472	0.080447
982.173235	0.081387
982.346980	0.083775
982.520706	0.084227
982.694414	0.085183
982.868104	0.086578
983.041775	0.084599
983.215428	0.084463
983.389064	0.085637
983.562680	0.086807
983.736279	0.088184
983.909860	0.087851
984.083422	0.088053
984.256966	0.088465
984.430491	0.086631
984.603999	0.088005
984.777488	0.088916
984.950959	0.089233
985.124412	0.090384
985.297847	0.090037
985.471263	0.088973
985.644661	0.089284
985.818041	0.090994
985.991403	0.089662
986.164747	0.090135
986.338072	0.089977
986.511379	0.089559
986.684668	0.087967
986.857938	0.087420
987.031191	0.087899
987.204425	0.088971
987.377641	0.087242
987.550839	0.089512
987.724018	0.088189
987.897179	0.087416
988.070322	0.085932
988.243447	0.085814
988.416554	0.085298
988.589642	0.086774
988.762712	0.084367
988.935764	0.084783
989.108798	0.084340
989.281813	0.087433
989.454811	0.087716
989.627790	0.088389
989.800751	0.087278
989.973693	0.088673
990.146617	0.088304
990.319524	0.091445
990.492412	0.091275
990.665281	0.090820
990.838133	0.089897
991.010966	0.088276
991.183781	0.087607
991.356578	0.088471
991.529356	0.087549
991.702117	0.086776
991.874859	0.085907
992.047583	0.086470
992.220288	0.086077
992.392976	0.084193
992.565645	0.084987
992.738296	0.087189
992.910929	0.085736
993.083543	0.086117
993.256139	0.087406
993.428718	0.086512
993.601277	0.085485
993.773819	0.085898
993.946342	0.086378
994.118848	0.087355
994.291335	0.085252
994.463803	0.088582
994.636254	0.088812
994.808686	0.089096
994.981100	0.087814
995.153496	0.089417
995.325874	0.090610
995.498233	0.089370
995.670574	0.090163
995.842897	0.088912
996.015202	0.087552
996.187488	0.087471
996.359757	0.085807
996.532007	0.087220
996.704239	0.085601
996.876452	0.084801
997.048648	0.085867
997.220825	0.084681
997.392984	0.086371
997.565124	0.086595
997.737247	0.087608
997.909351	0.088471
998.081437	0.088416
998.253505	0.088571
998.425554	0.089606
998.597586	0.090990
998.769599	0.092440
998.941594	0.092202
999.113571	0.090512
999.285529	0.089636
999.457469	0.089822
999.629391	0.090711
999.801295	0.091472
999.973181	0.088557
1000.145048	0.088179
1000.316897	0.086452
1000.488728	0.087260
1000.660541	0.088372
1000.832335	0.087447
1001.004111	0.087086
1001.175869	0.085416
1001.347609	0.085223
1001.519331	0.086145
1001.691034	0.085166
1001.862719	0.085070
1002.034386	0.083185
1002.206035	0.082883
1002.377665	0.083728
1002.549277	0.082196
1002.720871	0.083594
1002.892447	0.084215
1003.064004	0.085160
1003.235544	0.085999
1003.407065	0.087240
1003.578568	0.087464
1003.750052	0.086273
1003.921519	0.085985
1004.092967	0.087384
1004.264397	0.088129
1004.435809	0.087183
1004.607202	0.086601
1004.778577	0.086317
1004.949934	0.085753
1005.121273	0.086620
1005.292594	0.088353
1005.463896	0.088966
1005.635180	0.089004
1005.806446	0.087103
1005.977694	0.085928
1006.148923	0.087211
1006.320135	0.086269
1006.491328	0.087345
1006.662503	0.087664
1006.833659	0.088507
1007.004798	0.089403
1007.175918	0.087482
1007.347020	0.088324
1007.518103	0.088547
1007.689169	0.088276
1007.860216	0.089176
1008.031245	0.088519
1008.202256	0.088450
1008.373248	0.085985
1008.544223	0.085039
1008.715179	0.086670
1008.886117	0.086710
1009.057036	0.087586
1009.227938	0.086778
1009.398821	0.085633
1009.569686	0.086101
1009.740533	0.086998
1009.911361	0.088628
1010.082172	0.088559
1010.252964	0.087924
1010.423738	0.087340
1010.594493	0.085741
1010.765231	0.084725
1010.935950	0.085542
1011.106651	0.084961
1011.277334	0.084390
1011.447998	0.084746
1011.618645	0.086133
1011.789273	0.087297
1011.959882	0.088034
1012.130474	0.090318
1012.301048	0.090275
1012.471603	0.089136
1012.642140	0.088360
1012.812658	0.086872
1012.983159	0.086437
1013.153641	0.083180
1013.324105	0.081474
1013.494551	0.080465
1013.664979	0.078734
1013.835388	0.079596
1014.005779	0.081472
1014.176152	0.080983
1014.346507	0.083047
1014.516843	0.083479
1014.687162	0.084238
1014.857462	0.085670
1015.027744	0.086725
1015.198007	0.088837
1015.368252	0.089344
1015.538480	0.087800
1015.708689	0.089091
1015.878879	0.086600
1016.049052	0.085389
1016.219206	0.085835
1016.389342	0.083959
1016.559460	0.083351
1016.729559	0.081239
1016.899641	0.081479
1017.069704	0.082598
1017.239749	0.081796
1017.409775	0.082874
1017.579784	0.082387
1017.749774	0.083402
1017.919746	0.085900
1018.089700	0.086397
1018.259635	0.087927
1018.429553	0.086496
1018.599452	0.085464
1018.769333	0.085228
1018.939195	0.085786
1019.109040	0.086557
1019.278866	0.086677
1019.448674	0.084896
1019.618464	0.084716
1019.788235	0.083634
1019.957989	0.084129
1020.127724	0.083209
1020.297441	0.083752
1020.467139	0.083614
1020.636820	0.083526
1020.806482	0.082123
1020.976126	0.080971
1021.145752	0.080670
1021.315359	0.081008
1021.484948	0.080163
1021.654519	0.080508
1021.824072	0.081402
1021.993607	0.082769
1022.163123	0.082751
1022.332621	0.083042
1022.502101	0.085838
1022.671563	0.087052
1022.841007	0.086836
1023.010432	0.087273
1023.179839	0.088943
1023.349228	0.088975
1023.518598	0.086488
1023.687951	0.084257
1023.857285	0.082559
1024.026601	0.081893
1024.195899	0.080671
1024.365178	0.081918
1024.534439	0.082775
1024.703682	0.082993
1024.872907	0.081061
1025.042114	0.082209
1025.211302	0.085703
1025.380472	0.086653
1025.549624	0.086005
1025.718758	0.086390
1025.887873	0.085989
1026.056970	0.086097
1026.226049	0.086194
1026.395110	0.087221
1026.564153	0.085709
1026.733177	0.084785
1026.902183	0.086797
1027.071171	0.086001
1027.240141	0.085721
1027.409092	0.085182
1027.578026	0.085009
1027.746940	0.084490
1027.915837	0.085405
1028.084716	0.087745
1028.253576	0.086774
1028.422418	0.086502
1028.591242	0.086289
1028.760048	0.086434
1028.928835	0.086786
1029.097604	0.086086
1029.266355	0.085072
1029.435088	0.084974
1029.603803	0.082515
1029.772499	0.083144
1029.941177	0.081568
1030.109837	0.081144
1030.278478	0.079815
1030.447102	0.078708
1030.615707	0.079380
1030.784294	0.079168
1030.952863	0.077334
1031.121413	0.078178
1031.289945	0.077271
1031.458460	0.077704
1031.626955	0.078578
1031.795433	0.079796
1031.963892	0.079381
1032.132334	0.079092
1032.300756	0.079532
1032.469161	0.080837
1032.637548	0.081855
1032.805916	0.081846
1032.974266	0.082462
1033.142598	0.083944
1033.310911	0.083445
1033.479207	0.085653
1033.647484	0.085368
1033.815743	0.084733
1033.983983	0.084962
1034.152206	0.084473
1034.320410	0.083776
1034.488596	0.083232
1034.656764	0.079170
1034.824914	0.078357
1034.993045	0.077242
1035.161158	0.077430
1035.329253	0.077811
1035.497330	0.078113
1035.665388	0.076443
1035.833428	0.076394
1036.001450	0.075716
1036.169454	0.078481
1036.337440	0.079227
1036.505407	0.080002
1036.673356	0.078292
1036.841287	0.078376
1037.009200	0.077247
1037.177094	0.078497
1037.344970	0.079084
1037.512828	0.079870
1037.680668	0.080190
1037.848489	0.079295
1038.016293	0.078309
1038.184078	0.081061
1038.351845	0.083187
1038.519593	0.082688
1038.687324	0.081885
1038.855036	0.082371
1039.022730	0.083361
1039.190406	0.083294
1039.358063	0.084292
1039.525702	0.085067
1039.693323	0.083701
1039.860926	0.081493
1040.028511	0.083032
1040.196077	0.084614
1040.363625	0.085206
1040.531155	0.083940
1040.698667	0.084170
1040.866161	0.082627
1041.033636	0.081273
1041.201093	0.081399
1041.368532	0.081499
1041.535952	0.078357
1041.703355	0.076467
1041.870739	0.075447
1042.038105	0.075926
1042.205452	0.076249
1042.372782	0.078301
1042.540093	0.078144
1042.707386	0.077846
1042.874661	0.077974
1043.041918	0.079822
1043.209156	0.082352
1043.376376	0.082043
1043.543578	0.081424
1043.710762	0.079902
1043.877927	0.079395
1044.045074	0.079322
1044.212203	0.078772
1044.379314	0.081666
1044.546407	0.082601
1044.713481	0.081437
1044.880537	0.082343
1045.047575	0.081749
1045.214595	0.082923
1045.381596	0.082873
1045.548579	0.082422
1045.715544	0.082858
1045.882491	0.078864
1046.049420	0.077457
1046.216330	0.077666
1046.383222	0.078569
1046.550096	0.079417
1046.716951	0.076700
1046.883789	0.076731
1047.050608	0.076890
1047.217409	0.076925
1047.384192	0.078105
1047.550956	0.081303
1047.717703	0.080915
1047.884431	0.079660
1048.051140	0.080653
1048.217832	0.083296
1048.384505	0.081380
1048.551161	0.081197
1048.717798	0.081725
1048.884416	0.083320
1049.051017	0.081204
1049.217599	0.080835
1049.384163	0.080912
1049.550709	0.080665
1049.717237	0.081110
1049.883746	0.082637
1050.050237	0.082973
1050.216710	0.082084
1050.383165	0.079623
1050.549601	0.078462
1050.716019	0.079041
1050.882420	0.079219
1051.048801	0.077963
1051.215165	0.078509
1051.381510	0.079137
1051.547837	0.079021
1051.714146	0.079384
1051.880437	0.081340
1052.046709	0.082320
1052.212964	0.081403
1052.379200	0.082448
1052.545417	0.081749
1052.711617	0.082350
1052.877798	0.082649
1053.043961	0.085145
1053.210106	0.085732
1053.376233	0.086786
1053.542341	0.085621
1053.708432	0.086379
1053.874504	0.085681
1054.040557	0.085132
1054.206593	0.082910
1054.372610	0.082009
1054.538609	0.080268
1054.704590	0.080993
1054.870553	0.077548
1055.036497	0.079425
1055.202424	0.079628
1055.368331	0.078589
1055.534221	0.081564
1055.700093	0.082945
1055.865946	0.083922
1056.031781	0.084606
1056.197598	0.082927
1056.363397	0.084862
1056.529177	0.085305
1056.694939	0.084833
1056.860683	0.086869
1057.026409	0.087102
1057.192116	0.086173
1057.357806	0.084861
1057.523477	0.084265
1057.689130	0.086524
1057.854764	0.085397
1058.020381	0.083943
1058.185979	0.084018
1058.351559	0.084285
1058.517120	0.082302
1058.682664	0.080337
1058.848189	0.079405
1059.013696	0.080274
1059.179185	0.077708
1059.344656	0.079126
1059.510108	0.080027
1059.675542	0.079974
1059.840958	0.078413
1060.006356	0.078252
1060.171735	0.079750
1060.337096	0.081260
1060.502439	0.080750
1060.667764	0.082201
1060.833071	0.081408
1060.998359	0.080836
1061.163629	0.081096
1061.328881	0.081177
1061.494115	0.081236
1061.659330	0.082527
1061.824527	0.081880
1061.989706	0.083036
1062.154867	0.082789
1062.320010	0.082575
1062.485134	0.081883
1062.650240	0.082890
1062.815328	0.082500
1062.980398	0.081286
1063.145449	0.082656
1063.310482	0.082949
1063.475497	0.081439
1063.640494	0.081706
1063.805473	0.084246
1063.970433	0.083823
1064.135375	0.082515
1064.300299	0.082300
1064.465204	0.085266
1064.630092	0.083638
1064.794961	0.083562
1064.959812	0.084501
1065.124645	0.083817
1065.289459	0.081249
1065.454256	0.082188
1065.619034	0.083729
1065.783793	0.084301
1065.948535	0.084609
1066.113258	0.084789
1066.277964	0.084517
1066.442651	0.084422
1066.607319	0.084087
1066.771970	0.085336
1066.936602	0.084806
1067.101216	0.084011
1067.265812	0.083139
1067.430389	0.082587
1067.594949	0.079402
1067.759490	0.080959
1067.924013	0.081435
1068.088518	0.079768
1068.253004	0.079150
1068.417472	0.080700
1068.581922	0.081033
1068.746354	0.082406
1068.910768	0.081610
1069.075163	0.083893
1069.239540	0.083534
1069.403899	0.082181
1069.568240	0.084450
1069.732562	0.083102
1069.896866	0.081858
1070.061152	0.081156
1070.225420	0.081026
1070.389670	0.081841
1070.553901	0.081648
1070.718114	0.083314
1070.882309	0.085497
1071.046486	0.084408
1071.210644	0.084798
1071.374784	0.085599
1071.538906	0.087781
1071.703010	0.087108
1071.867096	0.087600
1072.031163	0.086230
1072.195212	0.085915
1072.359243	0.084308
1072.523256	0.087257
1072.687250	0.088524
1072.851226	0.087216
1073.015184	0.084524
1073.179124	0.084999
1073.343045	0.083986
1073.506949	0.086118
1073.670834	0.082590
1073.834701	0.081944
1073.998549	0.079675
1074.162380	0.079675
1074.326192	0.082722
1074.489986	0.084644
1074.653761	0.083640
1074.817519	0.081866
1074.981258	0.080671
1075.144979	0.081705
1075.308682	0.082805
1075.472367	0.083113
1075.636033	0.082932
1075.799681	0.081305
1075.963311	0.079818
1076.126923	0.079276
1076.290516	0.081569
1076.454092	0.081622
1076.617649	0.083382
1076.781187	0.084375
1076.944708	0.085337
1077.108210	0.086863
1077.271695	0.087042
1077.435160	0.086504
1077.598608	0.088221
1077.762038	0.088319
1077.925449	0.090607
1078.088842	0.092249
1078.252217	0.089716
1078.415573	0.087739
1078.578912	0.087085
1078.742232	0.087859
1078.905534	0.087309
1079.068817	0.087625
1079.232083	0.086875
1079.395330	0.086833
1079.558559	0.084545
1079.721770	0.084747
1079.884962	0.088406
1080.048136	0.087241
1080.211293	0.086678
1080.374430	0.089678
1080.537550	0.090804
1080.700651	0.090705
1080.863735	0.090308
1081.026800	0.090651
1081.189846	0.091056
1081.352875	0.090388
1081.515885	0.088450
1081.678877	0.088668
1081.841851	0.087487
1082.004807	0.087435
1082.167744	0.087673
1082.330663	0.085202
1082.493564	0.084556
1082.656447	0.085265
1082.819312	0.086140
1082.982158	0.087579
1083.144986	0.086285
1083.307796	0.086042
1083.470587	0.084260
1083.633361	0.084510
1083.796116	0.085377
1083.958853	0.085983
1084.121571	0.085692
1084.284272	0.083832
1084.446954	0.085074
1084.609618	0.084513
1084.772264	0.084739
1084.934892	0.086060
1085.097501	0.084556
1085.260092	0.087545
1085.422665	0.086915
1085.585220	0.086511
1085.747756	0.085401
1085.910274	0.086396
1086.072774	0.088299
1086.235256	0.087669
1086.397720	0.087719
1086.560165	0.087870
1086.722592	0.084698
1086.885001	0.086451
1087.047392	0.086080
1087.209764	0.083592
1087.372119	0.081882
1087.534455	0.081345
1087.696772	0.081946
1087.859072	0.080849
1088.021353	0.083620
1088.183616	0.085061
1088.345861	0.083016
1088.508088	0.084395
1088.670296	0.089338
1088.832486	0.091378
1088.994658	0.091054
1089.156812	0.091290
1089.318948	0.090449
1089.481065	0.086493
1089.643164	0.089302
1089.805245	0.091058
1089.967308	0.093000
1090.129352	0.092316
1090.291378	0.091411
1090.453386	0.090572
1090.615376	0.088590
1090.777347	0.087793
1090.939301	0.090524
1091.101236	0.087981
1091.263153	0.087241
1091.425051	0.083417
1091.586932	0.082620
1091.748794	0.081719
1091.910638	0.080306
1092.072463	0.080716
1092.234271	0.081386
1092.396060	0.080222
1092.557831	0.080115
1092.719584	0.079377
1092.881319	0.082781
1093.043035	0.083568
1093.204733	0.086602
1093.366413	0.091201
1093.528075	0.093588
1093.689718	0.093797
1093.851343	0.093078
1094.012950	0.092637
1094.174539	0.095225
1094.336110	0.093496
1094.497662	0.093792
1094.659196	0.088196
1094.820712	0.084048
1094.982210	0.084563
1095.143689	0.085970
1095.305151	0.086381
1095.466594	0.086673
1095.628018	0.086235
1095.789425	0.085849
1095.950813	0.085669
1096.112183	0.087246
1096.273535	0.089841
1096.434869	0.090824
1096.596184	0.091629
1096.757482	0.096025
1096.918761	0.093433
1097.080021	0.091994
1097.241264	0.092169
1097.402488	0.089844
1097.563694	0.091684
1097.724882	0.090910
1097.886052	0.092630
1098.047203	0.090966
1098.208336	0.090635
1098.369451	0.090942
1098.530548	0.092521
1098.691627	0.091312
1098.852687	0.094518
1099.013729	0.095568
1099.174753	0.098988
1099.335758	0.091111
1099.496746	0.093444
1099.657715	0.091397
1099.818666	0.094195
1099.979599	0.092258
1100.140513	0.093549
1100.301409	0.092753
1100.462287	0.090950
1100.623147	0.088257
1100.783989	0.093140
1100.944812	0.092435
1101.105617	0.093790
1101.266404	0.091283
1101.427173	0.089110
1101.587923	0.089314
1101.748656	0.089155
1101.909370	0.091304
1102.070066	0.091276
1102.230743	0.090371
1102.391403	0.089328
1102.552044	0.090552
1102.712667	0.095460
1102.873271	0.097473
1103.033858	0.100140
1103.194426	0.100320
1103.354976	0.098351
1103.515508	0.095810
1103.676021	0.096337
1103.836517	0.098708
1103.996994	0.094609
1104.157453	0.093913
1104.317893	0.094306
1104.478316	0.091740
1104.638720	0.087559
1104.799106	0.086392
1104.959474	0.089755
1105.119823	0.088502
1105.280155	0.082204
1105.440468	0.086742
1105.600763	0.079930
1105.761039	0.078545
1105.921298	0.080426
1106.081538	0.082113
1106.241760	0.084629
1106.401964	0.084813
1106.562149	0.088288
1106.722316	0.093336
1106.882465	0.088074
1107.042596	0.093347
1107.202709	0.092766
1107.362803	0.088821
1107.522879	0.093299
1107.682937	0.091395
1107.842977	0.088345
1108.002999	0.086207
1108.163002	0.084191
1108.322987	0.081789
1108.482954	0.081448
1108.642902	0.083280
1108.802833	0.086699
1108.962745	0.082189
1109.122639	0.083968
1109.282515	0.086446
1109.442372	0.088071
1109.602211	0.092340
1109.762032	0.097069
1109.921835	0.095163
1110.081620	0.092960
1110.241386	0.093295
1110.401134	0.092412
1110.560864	0.090568
1110.720576	0.090120
1110.880269	0.092947
1111.039945	0.091238
1111.199602	0.090115
1111.359240	0.093694
1111.518861	0.096372
1111.678463	0.095359
1111.838047	0.100434
1111.997613	0.100746
1112.157161	0.101502
1112.316690	0.097414
1112.476202	0.095296
1112.635695	0.100414
1112.795169	0.100990
1112.954626	0.098366
1113.114064	0.101778
1113.273484	0.098466
1113.432886	0.099004
1113.592270	0.100115
1113.751635	0.102478
1113.910983	0.103912
1114.070312	0.100868
1114.229622	0.098887
1114.388915	0.105416
1114.548189	0.101727
1114.707445	0.102422
1114.866683	0.105304
1115.025903	0.103568
1115.185104	0.101052
1115.344287	0.098786
1115.503452	0.093285
1115.662599	0.094186
1115.821727	0.090448
1115.980838	0.091910
1116.139930	0.088818
1116.299004	0.084953
1116.458059	0.084279
1116.617097	0.087975
1116.776116	0.092407
1116.935117	0.098008
1117.094099	0.099495
1117.253064	0.101938
1117.412010	0.098521
1117.570938	0.101309
1117.729848	0.106547
1117.888740	0.109349
1118.047613	0.105322
1118.206468	0.102553
1118.365305	0.098411
1118.524124	0.094967
1118.682924	0.096101
1118.841707	0.096265
1119.000471	0.098948
1119.159216	0.095708
1119.317944	0.093034
1119.476653	0.090960
1119.635344	0.093121
1119.794017	0.097685
1119.952672	0.101230
1120.111308	0.098020
1120.269927	0.100176
1120.428527	0.098885
1120.587108	0.096228
1120.745672	0.098490
1120.904217	0.098575
1121.062744	0.097930
1121.221253	0.099692
1121.379744	0.095825
1121.538216	0.100017
1121.696671	0.097814
1121.855107	0.098436
1122.013524	0.099459
1122.171924	0.098421
1122.330305	0.097077
1122.488668	0.099339
1122.647013	0.094068
1122.805340	0.097674
1122.963648	0.092173
1123.121938	0.095116
1123.280210	0.090753
1123.438464	0.090636
1123.596700	0.090644
1123.754917	0.093221
1123.913116	0.091083
1124.071297	0.095077
1124.229459	0.096851
1124.387604	0.099289
1124.545730	0.096317
1124.703838	0.102992
1124.861928	0.105476
1125.019999	0.108036
1125.178052	0.106878
1125.336088	0.105511
1125.494104	0.100837
1125.652103	0.097721
1125.810083	0.092407
1125.968045	0.095150
1126.125989	0.094744
1126.283915	0.090606
1126.441823	0.087890
1126.599712	0.088944
1126.757583	0.090300
1126.915436	0.094972
1127.073270	0.094029
1127.231087	0.098052
1127.388885	0.103864
1127.546665	0.101563
1127.704426	0.104874
1127.862170	0.102525
1128.019895	0.104099
1128.177602	0.102801
1128.335291	0.101009
1128.492961	0.101869
1128.650614	0.109705
1128.808248	0.104459
1128.965864	0.101393
1129.123461	0.102700
1129.281041	0.109729
1129.438602	0.107960
1129.596145	0.109928
1129.753670	0.111944
1129.911176	0.110932
1130.068665	0.104010
1130.226135	0.100051
1130.383587	0.104375
1130.541020	0.105951
1130.698436	0.097575
1130.855833	0.098632
1131.013212	0.099814
1131.170573	0.097222
1131.327915	0.096114
1131.485239	0.096303
1131.642545	0.103641
1131.799833	0.104315
1131.957103	0.099273
1132.114354	0.098311
1132.271588	0.096408
1132.428803	0.092870
1132.585999	0.088953
1132.743178	0.091922
1132.900338	0.093241
1133.057480	0.086570
1133.214604	0.089163
1133.371710	0.092316
1133.528797	0.097284
1133.685866	0.096414
1133.842917	0.099859
1133.999950	0.102369
1134.156964	0.097716
1134.313960	0.097223
1134.470938	0.101304
1134.627898	0.096938
1134.784840	0.093865
1134.941763	0.088940
1135.098668	0.090694
1135.255555	0.093301
1135.412424	0.094754
1135.569274	0.099309
1135.726107	0.095755
1135.882921	0.099389
1136.039716	0.103015
1136.196494	0.106874
1136.353253	0.116198
1136.509995	0.115361
1136.666717	0.110435
1136.823422	0.115110
1136.980109	0.110495
1137.136777	0.111713
1137.293427	0.104031
1137.450059	0.101823
1137.606672	0.100459
1137.763267	0.093569
1137.919844	0.096147
1138.076403	0.100408
1138.232944	0.097915
1138.389466	0.104105
1138.545971	0.107307
1138.702457	0.107758
1138.858924	0.105802
1139.015374	0.102609
1139.171805	0.102567
1139.328218	0.105558
1139.484613	0.101907
1139.640990	0.107061
1139.797348	0.109872
1139.953688	0.105135
1140.110010	0.110210
1140.266314	0.103294
1140.422600	0.111161
1140.578867	0.116526
1140.735116	0.106798
1140.891347	0.107500
1141.047559	0.095941
1141.203754	0.091240
1141.359930	0.089333
1141.516088	0.085391
1141.672228	0.093638
1141.828349	0.086815
1141.984452	0.081527
1142.140537	0.089786
1142.296604	0.085184
1142.452653	0.097841
1142.608683	0.096186
1142.764695	0.099593
1142.920689	0.099220
1143.076665	0.096650
1143.232622	0.096752
1143.388562	0.094896
1143.544483	0.087356
1143.700385	0.090036
1143.856270	0.085241
1144.012136	0.081020
1144.167985	0.083768
1144.323814	0.085384
1144.479626	0.088871
1144.635420	0.089958
1144.791195	0.103193
1144.946952	0.103050
1145.102691	0.111435
1145.258411	0.109208
1145.414113	0.113011
1145.569798	0.113149
1145.725463	0.112018
1145.881111	0.113418
1146.036741	0.116880
1146.192352	0.114859
1146.347945	0.123401
1146.503519	0.116337
1146.659076	0.114381
1146.814614	0.124426
1146.970134	0.124124
1147.125636	0.117980
1147.281120	0.118950
1147.436585	0.120786
1147.592032	0.112386
1147.747461	0.106639
1147.902872	0.109486
1148.058265	0.111116
1148.213639	0.104481
1148.368995	0.103036
1148.524333	0.109912
1148.679653	0.106070
1148.834954	0.104971
1148.990237	0.103248
1149.145502	0.104878
1149.300749	0.106656
1149.455977	0.107115
1149.611188	0.108995
1149.766380	0.108465
1149.921553	0.110620
1150.076709	0.111767
1150.231846	0.108719
1150.386966	0.109721
1150.542066	0.108637
1150.697149	0.102580
1150.852214	0.103983
1151.007260	0.096502
1151.162288	0.104273
1151.317298	0.102909
1151.472289	0.102905
1151.627263	0.102025
1151.782218	0.107899
1151.937155	0.105643
1152.092073	0.105563
1152.246974	0.106613
1152.401856	0.114073
1152.556720	0.111919
1152.711566	0.116740
1152.866393	0.106919
1153.021203	0.107880
1153.175994	0.102488
1153.330767	0.108372
1153.485521	0.112627
1153.640258	0.105109
1153.794976	0.104431
1153.949676	0.097905
1154.104358	0.091394
1154.259021	0.102921
1154.413667	0.108433
1154.568294	0.118343
1154.722903	0.117469
1154.877493	0.107131
1155.032066	0.112408
1155.186620	0.100060
1155.341156	0.099492
1155.495674	0.096337
1155.650173	0.096186
1155.804654	0.090044
1155.959118	0.090667
1156.113562	0.086051
1156.267989	0.093589
1156.422397	0.095618
1156.576788	0.101012
1156.731160	0.104759
1156.885513	0.112305
1157.039849	0.107348
1157.194166	0.107608
1157.348465	0.095111
1157.502746	0.098652
1157.657009	0.103200
1157.811253	0.104741
1157.965479	0.101062
1158.119687	0.102374
1158.273877	0.092426
1158.428048	0.095219
1158.582201	0.099690
1158.736337	0.109011
1158.890453	0.117218
1159.044552	0.108295
1159.198632	0.102172
1159.352694	0.122081
1159.506738	0.116781
1159.660764	0.125557
1159.814771	0.126402
1159.968761	0.135616
1160.122732	0.131838
1160.276685	0.125030
1160.430619	0.130257
1160.584535	0.129480
1160.738434	0.115511
1160.892313	0.116028
1161.046175	0.119507
1161.200019	0.109538
1161.353844	0.092114
1161.507651	0.090224
1161.661440	0.089745
1161.815210	0.081659
1161.968962	0.083055
1162.122697	0.085273
1162.276412	0.091615
1162.430110	0.080576
1162.583789	0.082892
1162.737451	0.089198
1162.891094	0.099705
1163.044718	0.089307
1163.198325	0.098548
1163.351913	0.102727
1163.505483	0.102358
1163.659035	0.105130
1163.812569	0.110596
1163.966084	0.116021
1164.119581	0.114609
1164.273060	0.113770
1164.426521	0.130484
1164.579964	0.116693
1164.733388	0.121353
1164.886794	0.123719
1165.040182	0.122066
1165.193551	0.128326
1165.346903	0.142354
1165.500236	0.144560
1165.653551	0.147590
1165.806848	0.149577
1165.960126	0.164245
1166.113386	0.162786
1166.266628	0.154144
1166.419852	0.144182
1166.573058	0.140084
1166.726245	0.127807
1166.879414	0.116393
1167.032565	0.105156
1167.185698	0.104961
1167.338812	0.098361
1167.491909	0.097649
1167.644987	0.101071
1167.798046	0.100293
1167.951088	0.098050
1168.104111	0.093231
1168.257117	0.098963
1168.410103	0.101492
1168.563072	0.079874
1168.716023	0.078033
1168.868955	0.058481
1169.021869	0.059502
1169.174765	0.066485
1169.327642	0.074132
1169.480501	0.066377
1169.633343	0.061356
1169.786165	0.058989
1169.938970	0.062289
1170.091757	0.069341
1170.244525	0.080566
1170.397275	0.073623
1170.550007	0.068916
1170.702720	0.074832
1170.855415	0.091957
1171.008092	0.103088
1171.160751	0.104341
1171.313392	0.119484
1171.466014	0.168341
1171.618619	0.128664
1171.771205	0.128664
1171.923772	0.128664
