sample name	sample
index	422
start time	 03-08-2021  11:36:51 AM
880	0.484733
Peak Time (s)	92.037
Peak Height 	0.4847
calc peak height	90,93
Baseline Time (s)	9.54
Baseline Value 	-0.001287
subtract baseline	10,4
Abs	0.334935
Peak Time (s)	92.037
Peak Height 	0.3349
calc peak height	90,93
Baseline Time (s)	9.54
Baseline Value 	0.00122
subtract baseline	10,3
PK_550	0.159793
Peak Time (s)	90.536
Peak Height 	0.1598
calc peak height	90,93
Baseline Time (s)	10.537
Baseline Value 	3.1162E-4
subtract baseline	10,2
PK_880	0.320234
Peak Time (s)	90.536
Peak Height 	0.3202
calc peak height	90,93
Baseline Time (s)	10.037
Baseline Value 	7.8541E-4
subtract baseline	10,1


Time (s)	A880-A510	A880-A775	A880-A975	A880	I510	I775	I975	I880	
0.039500	-0.004276	-0.000763	-0.004838	0.005152	6893.599443	46547.370271	3969.133316	24552.825545
0.536500	-0.001427	0.000405	0.001417	0.004863	6922.893912	46694.131915	3986.435443	24567.292884
1.039500	-0.001188	0.000156	-0.004177	0.003688	6936.160428	46787.581103	3974.722506	24626.118919
1.538000	-0.000700	0.000366	-0.003715	0.000536	6970.519954	47128.845017	3984.291985	24784.823199
2.034500	-0.000719	0.000564	-0.001199	0.001646	6959.831029	47035.974318	3988.035016	24728.781906
2.535000	-0.000843	-0.000312	-0.001214	-0.000340	6977.474985	47148.971310	3993.306922	24829.101913
3.037500	0.000898	0.000153	0.001475	-0.001754	7007.536470	47340.975820	4004.353893	24900.795150
3.535500	-0.002569	-0.000798	-0.004652	0.000154	6956.447439	47049.173022	3982.815784	24804.096519
4.036500	0.000520	0.000461	0.001931	0.000827	6979.331359	47108.808447	3998.620004	24770.094790
4.536000	0.000335	-0.000167	0.001679	-0.000303	6988.322067	47159.961525	4000.984866	24827.218144
5.042000	-0.002080	-0.000235	-0.002303	-0.000410	6966.410555	47164.036237	3990.580054	24832.657803
5.536000	-0.003151	0.000132	-0.001737	-0.000252	6954.788600	47185.258643	3991.670461	24824.645859
6.037000	0.000250	0.000077	0.001622	0.000195	6982.770533	47134.148596	3999.489729	24802.031669
6.534500	0.001158	-0.000640	0.000608	0.000120	6992.135954	47068.750854	3996.962868	24805.840955
7.035000	-0.000239	0.000288	-0.006478	-0.000004	6980.023127	47175.991700	3978.398369	24812.117911
7.535500	0.000102	0.000274	0.001526	0.000307	6980.300506	47142.775434	3998.930299	24796.379456
8.034000	0.000168	-0.000338	0.006044	-0.000149	6985.272330	47126.902950	4012.399678	24819.447893
8.535500	0.001683	-0.000003	0.003358	0.000053	6997.774595	47140.373897	4004.559082	24809.205263
9.035500	-0.000172	-0.000562	0.004137	-0.000437	6984.770192	47133.380591	4007.997446	24834.008037
9.539500	-0.000424	0.000137	0.000000	0.000000	6978.226635	47160.103488	3995.650990	24811.894229
10.036500	0.000000	-0.000047	0.001656	0.000084	6981.450735	47132.788204	3999.878847	24807.633759
10.537000	-0.001417	0.000000	-0.002556	-0.000338	6972.009323	47180.637632	3989.711000	24829.016126
11.034500	0.001836	0.000406	-0.006778	0.000270	6997.167810	47160.033266	3976.878961	24798.249958
11.535000	0.000739	0.000096	-0.000117	-0.000221	6991.384946	47178.470636	3995.929199	24823.077876
12.035000	-0.002459	0.000155	0.001042	0.004009	6921.218966	46755.049510	3987.710898	24610.015949
12.535500	-0.000450	-0.000249	0.002316	-0.000382	6981.606519	47159.646453	4002.917129	24831.222234
13.035500	-0.000827	0.000405	0.001272	-0.002142	6994.773131	47406.475002	4004.854952	24920.517967
13.535500	-0.001873	0.000796	-0.002396	0.001336	6951.863817	47091.148384	3985.672478	24744.429069
14.036500	-0.001623	0.000280	-0.002906	0.004396	6925.431679	46728.624564	3976.208399	24590.656806
14.542500	-0.001355	0.000248	-0.000479	0.002976	6941.290655	46868.907524	3986.411551	24661.868452
15.036500	-0.001563	0.000297	-0.001194	-0.000549	6972.629547	47232.439914	3993.921884	24839.691978
15.576000	-0.000081	0.000342	0.002258	-0.000939	6990.407943	47276.884051	4004.264709	24859.421441
16.037500	-0.002558	-0.000244	-0.001279	0.004725	6913.596576	46642.511751	3979.639705	24574.171901
16.538000	0.000780	0.000009	0.001765	-0.000945	6998.672100	47243.400521	4002.950558	24859.723662
17.035500	0.000287	0.000089	0.000265	-0.001207	6996.484392	47278.444853	3999.611827	24873.046281
17.538500	-0.000500	0.000538	-0.002031	0.000039	6977.126853	47197.019189	3990.106417	24809.905901
18.035500	-0.001269	-0.000024	0.001463	0.002077	6950.568278	46932.498715	3994.002651	24707.061077
18.536000	0.000093	0.000027	0.004233	0.001102	6972.676534	47036.733131	4004.090247	24756.235321
19.039000	-0.001661	-0.000044	0.000043	0.001027	6956.772497	47037.038077	3993.011499	24759.988752
19.536500	-0.000327	0.000697	0.000826	0.001451	6965.382859	47069.341263	3993.974851	24738.627387
20.037000	-0.000396	0.000371	-0.005569	0.002625	6953.632739	46916.916767	3973.854347	24679.490951
20.534500	-0.000515	0.000439	0.002604	0.001066	6967.248670	47082.193675	3999.787184	24758.019556
21.034500	0.000327	0.000422	-0.002335	0.001205	6973.912092	47066.388300	3986.182625	24751.014679
21.535000	-0.000085	0.000082	0.002708	0.000660	6975.177047	47087.269688	4001.162254	24778.528225
22.034500	-0.000915	0.000604	0.003001	0.002570	6949.262511	46946.199314	3996.808926	24682.284324
22.535000	-0.001749	-0.000983	-0.001771	0.000246	6963.325046	47021.004405	3990.246469	24799.437151
23.036000	-0.000314	-0.000051	-0.001287	0.000830	6971.393199	47056.460086	3989.979380	24769.939005
23.536500	0.000664	-0.000185	0.001692	0.000431	6984.463168	47083.400733	3999.041569	24790.103010
24.036000	-0.002784	-0.000415	0.002305	0.002626	6931.147693	46837.279434	3994.789062	24679.474980
24.537000	0.000463	0.000854	-0.001619	0.001295	6974.349554	47101.222114	3987.851241	24746.477345
25.037000	-0.001699	0.000514	0.003525	0.001299	6953.854582	47066.246429	4001.644308	24746.291568
25.537500	-0.000644	0.000404	0.001144	0.001267	6964.129119	47058.330283	3995.322431	24747.911806
26.034500	-0.000387	-0.000009	0.001244	0.002806	6952.012289	46860.218594	3991.464291	24670.436768
26.535000	-0.000550	0.001409	0.002111	0.001919	6958.851012	47094.190923	3996.168195	24715.046550
27.035000	0.001497	0.001174	-0.000465	0.001712	6980.211867	47091.421305	3989.821220	24725.491897
27.535500	-0.000582	-0.000376	-0.001884	-0.000692	6983.299945	47178.356598	3992.455667	24846.921104
28.035500	-0.000617	0.000431	0.003135	-0.002304	6998.314037	47425.750764	4010.345111	24928.725015
28.539000	0.000016	0.000309	0.003586	-0.000630	6988.389707	47241.947734	4007.025229	24843.760323
29.036500	0.000249	0.000530	0.001311	-0.000565	6989.998743	47257.908475	4000.700563	24840.498589
29.537000	-0.002606	-0.000144	-0.000148	0.004024	6919.708006	46723.330709	3984.500633	24609.269677
30.037000	-0.002051	-0.000185	-0.000858	0.005226	6913.654334	46598.065197	3979.428957	24549.142564
30.537500	0.000178	-0.000224	-0.000871	-0.000990	6993.368300	47224.277673	3995.970667	24862.025881
31.066000	-0.000082	0.000834	0.000254	-0.000599	6987.169269	47292.397461	3997.941919	24842.192219
31.535500	-0.003399	-0.000034	-0.004023	0.004153	6911.085193	46721.400012	3973.902356	24602.817924
32.035500	-0.004055	-0.000132	-0.002543	0.004913	6897.874757	46634.921077	3975.800501	24564.767555
32.560000	0.000523	0.000536	0.000360	-0.000551	6992.477812	47257.120273	3998.101508	24839.798256
33.035500	0.000112	0.000567	-0.003385	-0.000562	6988.658934	47261.389591	3988.094903	24840.342712
33.536000	-0.002277	0.000040	0.000586	0.003004	6932.358398	46845.112577	3989.176960	24660.484773
34.036500	-0.002584	0.000240	-0.002545	0.005331	6907.696268	46630.185057	3974.691625	24543.865311
34.536500	0.000671	0.000789	0.001004	-0.001533	7003.260070	47383.432113	4002.482567	24889.581151
35.037000	-0.000909	-0.000085	-0.002159	0.001487	6959.542088	46986.220396	3985.902832	24736.826128
35.535000	-0.002882	0.000649	0.000817	0.003388	6923.082554	46867.888974	3988.767341	24641.199752
36.035500	-0.002753	-0.000088	0.001652	0.001620	6940.892423	46972.447214	3995.737455	24730.110358
36.535500	-0.000892	0.000331	-0.000325	0.001800	6956.740629	46996.719538	3989.960445	24721.048178
37.035500	-0.002123	0.000086	-0.003767	0.001759	6945.511768	46975.917948	3980.905537	24723.074410
37.536000	-0.001539	-0.000025	0.000749	0.003260	6936.889449	46812.547310	3988.927670	24647.617876
38.039000	0.000576	0.001095	0.004435	0.002882	6960.383069	46964.310644	3999.827980	24666.585844
38.536500	0.000312	0.000154	0.002890	0.002079	6965.496400	46950.442320	3997.832388	24707.001817
39.036500	0.000394	-0.000118	-0.005546	0.001874	6968.204921	46943.624650	3975.895401	24717.312283
39.537000	-0.001813	0.000202	0.007150	0.002096	6945.264972	46953.512490	4009.301372	24706.149907
40.037000	-0.000168	0.000578	0.001621	0.002454	6957.406902	46955.351797	3993.418863	24688.138377
40.534500	-0.000819	0.000166	0.002570	0.002369	6952.056263	46922.114803	3996.190435	24692.371955
41.035000	-0.002407	-0.000129	-0.001377	0.002176	6938.918259	46911.847969	3986.149265	24702.121866
41.535500	-0.002152	0.000383	-0.001817	0.003950	6924.656658	46784.073436	3980.268937	24613.005479
42.036000	-0.002448	0.001136	0.000401	0.004391	6917.750097	46815.618872	3984.984788	24590.885057
42.538500	-0.000790	0.000211	0.003052	0.002161	6954.288636	46947.835117	3998.044255	24702.833066
43.036500	-0.001480	0.000669	-0.002606	0.002789	6941.873280	46930.584883	3981.255200	24671.277824
43.536500	-0.001825	-0.000273	0.004065	0.001812	6947.817512	46934.059389	4001.715229	24720.406617
44.036500	0.000338	0.000212	0.004222	0.003830	6949.194772	46778.954760	3996.705316	24619.031051
44.537000	-0.000346	0.000394	-0.003560	0.001556	6964.208222	47027.846318	3981.992328	24733.310968
45.037500	0.000903	0.000362	0.000360	-0.000779	6998.270755	47262.541882	3998.712183	24851.314835
45.535000	-0.003625	0.000311	-0.004465	0.005753	6894.064328	46594.880457	3968.532934	24522.791725
46.036500	-0.003202	-0.000411	-0.004389	0.003592	6918.171897	46739.954479	3974.415740	24630.932751
46.535500	-0.000334	0.000337	-0.000043	-0.000914	6987.764048	47273.832814	3997.991512	24858.176675
47.035500	0.000256	0.000325	0.002476	-0.000809	6992.389815	47261.951857	4004.506786	24852.875508
47.536500	-0.003759	-0.000600	-0.002198	0.004039	6908.791950	46675.791061	3979.022110	24608.533004
48.036500	-0.002490	0.000747	0.001542	0.004537	6915.993478	46761.472511	3987.635536	24583.577782
48.536500	-0.000713	0.000507	0.001559	0.002114	6955.467521	46982.710532	3994.162309	24705.246131
49.040000	-0.001404	0.000926	-0.002207	0.003175	6938.954821	46917.536291	3981.289989	24651.884753
49.537000	-0.001140	-0.000217	-0.000167	0.004104	6932.703763	46707.966732	3984.239018	24605.301591
50.035000	-0.001077	0.001144	-0.000960	0.004554	6929.070315	46799.955588	3980.939121	24582.750749
50.535000	0.003052	0.000222	-0.000005	-0.000510	7016.246143	47220.751128	3997.007951	24837.688879
51.035500	0.002522	0.000294	0.003034	-0.002363	7028.952119	47417.827587	4010.232637	24931.747997
51.536000	-0.003520	0.000792	-0.002676	0.006396	6889.067058	46578.604754	3971.543192	24490.740845
52.039000	-0.005171	-0.001146	0.003111	0.010387	6836.982298	45986.167570	3976.276169	24292.726116
52.536000	-0.019225	-0.013069	0.001284	0.248705	5081.611710	27107.446625	3489.179798	15234.369846
53.036500	-0.032506	-0.023712	-0.000916	-0.003739	6717.663061	45156.570900	4003.255224	25001.848461
53.537000	-0.020443	-0.030808	0.004899	-0.130687	8175.199450	58591.891753	4422.959549	32524.787121
54.037000	-0.010018	-0.021961	0.012249	-0.082857	7736.070914	53809.089743	4281.147109	29429.517983
54.537500	0.003016	-0.015884	0.027209	-0.055915	7582.212994	51420.253312	4241.643161	27830.380792
55.034500	0.013153	-0.006320	0.031703	-0.037328	7491.101486	50422.210412	4196.553843	26783.576206
55.535500	0.038865	0.005598	0.049522	-0.038919	7791.982259	51924.223809	4259.040102	26871.440578
56.035000	0.066509	0.021770	0.068087	-0.010052	7778.099571	50511.379150	4225.528490	25326.278861
56.535500	0.096914	0.035974	0.101160	0.031398	7654.440641	47614.957366	4198.858009	23279.736221
57.036000	0.123441	0.052592	0.124924	0.090322	7309.373395	43462.862938	4092.362613	20686.930549
57.536500	0.144654	0.065853	0.145086	0.155757	6878.047689	38869.046190	3967.348230	18191.297095
58.036500	0.170270	0.082061	0.172354	0.201062	6699.690884	36536.905772	3921.057632	16670.971812
58.536500	0.189885	0.095563	0.200248	0.244107	6497.717235	34323.606730	3883.633640	15366.222083
59.037000	0.210621	0.106946	0.219109	0.283489	6344.589523	32360.510877	3834.982518	14280.689982
59.535000	0.223149	0.117092	0.232276	0.318954	6165.018408	30690.976580	3784.660972	13383.857090
60.035000	0.238099	0.126874	0.247038	0.338829	6127.689136	30052.146619	3773.481024	12912.393093
60.538000	0.254023	0.134187	0.259993	0.363762	6060.480450	28971.855777	3747.803416	12350.648741
61.035500	0.252768	0.134856	0.268870	0.383227	5911.096268	27866.776744	3725.684910	11933.970288
61.538500	0.263282	0.143314	0.272189	0.373452	6057.299929	28938.059263	3753.115585	12140.877841
62.036000	0.275892	0.148702	0.286035	0.369410	6182.507962	29510.038897	3791.954015	12227.810613
62.536500	0.275211	0.152076	0.288153	0.401753	5938.792571	27791.748703	3727.247438	11554.368887
63.037000	0.280181	0.154153	0.286145	0.405137	5950.073706	27716.852004	3716.170653	11486.762768
63.537000	0.284929	0.159802	0.293442	0.396379	6047.873488	28554.575777	3749.563162	11662.821795
64.043000	0.288457	0.161483	0.295861	0.395376	6081.369701	28713.723771	3756.841334	11683.211768
64.535000	0.289246	0.162668	0.295406	0.404446	6020.406737	28248.903647	3736.723756	11500.514608
65.066500	0.292087	0.162614	0.299692	0.408988	6008.031006	27981.887355	3736.187685	11410.451674
65.535500	0.288600	0.160986	0.299803	0.412517	5957.486259	27685.563742	3729.079775	11341.121000
66.035500	0.290046	0.162715	0.304016	0.417360	5933.314063	27508.406683	3727.778173	11246.909106
66.536000	0.295146	0.164159	0.305206	0.422049	5936.228223	27325.045142	3720.570630	11156.671523
67.036500	0.291736	0.163504	0.306461	0.423235	5903.779667	27221.631650	3720.709476	11133.991452
67.539500	0.293156	0.164559	0.301734	0.430322	5864.239713	26885.893550	3696.794248	10999.810043
68.036000	0.290752	0.164770	0.306588	0.433304	5827.141673	26733.198770	3700.538776	10943.998207
68.537500	0.293414	0.164633	0.302178	0.427150	5888.106070	27066.013680	3704.044327	11059.593516
69.034500	0.296410	0.165244	0.305503	0.427253	5908.389920	27094.321641	3710.559067	11057.659904
69.534500	0.298681	0.167030	0.313362	0.433108	5883.291464	26868.506462	3714.633652	10947.663110
70.035500	0.293957	0.166126	0.298889	0.434226	5842.819123	26757.150493	3683.422007	10926.837869
70.535500	0.300904	0.165126	0.312301	0.427421	5938.967773	27078.347752	3724.111107	11054.470154
71.038500	0.301347	0.165784	0.314252	0.427280	5943.118972	27122.937093	3728.432503	11057.147480
71.536500	0.302117	0.166329	0.311193	0.432141	5914.156578	26883.200434	3712.185682	10965.724330
72.036000	0.301093	0.165753	0.308151	0.433200	5899.519966	26793.060937	3703.891348	10945.954740
72.536500	0.303733	0.166301	0.316023	0.427390	5959.345449	27145.625562	3731.875377	11055.053356
73.037000	0.305773	0.167545	0.318725	0.429261	5960.555116	27110.613695	3733.603589	11019.758072
73.536500	0.306038	0.165757	0.310304	0.432810	5937.158386	26814.708462	3709.025905	10953.226522
74.035000	0.303377	0.166236	0.314624	0.436180	5894.633125	26655.921335	3710.950353	10890.540810
74.540000	0.309221	0.167158	0.318328	0.431895	5966.386252	26942.703089	3727.316259	10970.323177
75.035500	0.308708	0.165752	0.319687	0.431779	5963.539140	26871.331525	3730.369947	10972.496504
75.538000	0.309441	0.166375	0.317771	0.437717	5926.494214	26579.531511	3714.224860	10862.113505
76.036000	0.304645	0.166723	0.315790	0.441526	5866.214865	26391.389802	3702.507636	10792.092359
76.536000	0.309538	0.164656	0.319010	0.435665	5941.738797	26597.706507	3720.955237	10900.088491
77.036500	0.309456	0.165049	0.324010	0.436871	5932.592897	26553.320854	3728.776158	10877.749265
77.537000	0.310337	0.167033	0.321857	0.443605	5891.376762	26295.818480	3710.560496	10754.135329
78.037500	0.309886	0.165324	0.313840	0.446900	5865.293052	26027.616626	3687.909379	10694.353812
78.537500	0.309377	0.164345	0.320307	0.441294	5900.844212	26275.549676	3712.106791	10796.348949
79.034500	0.312841	0.163999	0.315828	0.442589	5916.102233	26187.300024	3700.449231	10772.669869
79.538500	0.311658	0.164108	0.324965	0.447519	5873.306954	25930.021827	3708.928011	10683.180513
80.035500	0.314181	0.165603	0.326108	0.446767	5896.151792	26049.557287	3712.773670	10696.754816
80.536000	0.310673	0.164106	0.318425	0.447223	5868.512358	25945.590244	3696.374714	10688.516606
81.036000	0.311457	0.163820	0.328142	0.448756	5863.319826	25849.225977	3712.866315	10660.879308
81.536500	0.311931	0.162686	0.318136	0.453052	5836.954834	25563.869691	3684.250041	10583.943799
82.036500	0.313123	0.163386	0.322365	0.452538	5848.695616	25627.358709	3693.633732	10593.101877
82.536500	0.314608	0.164041	0.323790	0.455202	5840.575041	25522.332320	3691.171181	10545.707231
83.034000	0.312150	0.161395	0.321723	0.455053	5824.735037	25392.532334	3687.374357	10548.352792
83.534500	0.313547	0.162003	0.324661	0.460090	5799.946026	25164.113066	3683.238009	10459.512124
84.035000	0.316468	0.162997	0.326700	0.460009	5820.379089	25219.372056	3687.417254	10460.935298
84.535500	0.312973	0.161205	0.329574	0.460307	5794.588173	25112.127677	3692.521687	10455.717993
85.038500	0.314415	0.160842	0.331044	0.461974	5793.063379	25008.478305	3692.129420	10426.550464
85.536000	0.315507	0.163070	0.330023	0.464535	5783.138259	24991.464737	3685.044267	10381.966040
86.036000	0.310281	0.160197	0.325405	0.471177	5704.175005	24512.345951	3663.147181	10267.565020
86.537000	0.314436	0.160465	0.324652	0.466063	5765.660908	24782.094416	3671.559327	10355.492953
87.036000	0.314730	0.159715	0.325369	0.467112	5760.601977	24691.548074	3670.917459	10337.374007
87.537000	0.315251	0.159357	0.323469	0.469898	5745.482743	24534.247646	3661.887357	10289.459056
88.034500	0.313498	0.160179	0.330667	0.477362	5684.769242	24205.591220	3661.378707	10162.596354
88.537500	0.313746	0.158766	0.325988	0.471070	5727.714624	24446.489032	3664.472142	10269.387336
89.035500	0.318042	0.161076	0.329463	0.474372	5734.303291	24397.325410	3664.804902	10213.154491
89.535000	0.314792	0.160470	0.326961	0.476281	5700.291352	24273.075445	3656.364061	10180.834660
90.035500	0.314183	0.157830	0.325357	0.480958	5665.850499	23915.647304	3644.490864	10102.236415
90.536000	0.320234	0.159793	0.330798	0.477284	5729.531175	24190.464933	3661.777585	10163.901403
91.036500	0.315695	0.157717	0.333464	0.476618	5704.000148	24121.364223	3668.187597	10175.131793
91.536500	0.314606	0.157604	0.328903	0.479447	5678.403507	23978.013639	3654.036673	10127.540150
92.037000	0.315976	0.158003	0.334935	0.484733	5653.056328	23741.933733	3655.454950	10039.432969
92.537000	0.319849	0.156760	0.333808	0.479811	5710.309262	23919.369883	3662.702240	10121.432099
93.035000	0.319028	0.157312	0.330345	0.481285	5695.257471	23874.764100	3653.284225	10096.774256
93.535000	0.317607	0.157094	0.329427	0.482907	5675.420669	23786.027586	3648.480929	10069.741125
94.035500	0.316231	0.157237	0.328413	0.488710	5629.163439	23515.319165	3635.726111	9973.831873
94.538500	0.319157	0.157056	0.333560	0.484162	5677.340434	23723.887570	3653.926832	10048.896064
95.036000	0.318612	0.156352	0.328498	0.485101	5667.707466	23645.201770	3642.613599	10033.332769
95.547000	0.319787	0.157833	0.332439	0.487967	5656.775401	23579.101447	3644.628728	9986.051764
96.044000	0.317016	0.157083	0.327239	0.492582	5609.512808	23324.964410	3626.412687	9910.551825
96.537000	0.320303	0.156456	0.329875	0.487896	5660.564733	23516.916625	3639.963366	9987.216366
97.034500	0.319277	0.158155	0.333488	0.490124	5639.613672	23491.776943	3642.550183	9950.652852
97.534500	0.322926	0.157942	0.334949	0.491909	5651.593690	23397.184930	3641.944912	9921.509749
98.034000	0.321173	0.156594	0.336290	0.490476	5649.535186	23401.205626	3647.150924	9944.897706
98.535000	0.321533	0.156848	0.336238	0.492030	5641.860324	23339.878019	3644.132783	9919.538323
