sample name	sample
index	1170
start time	 04-26-2021  10:55:05 AM
880	0.423647
Peak Time (s)	92.536
Peak Height 	0.4236
calc peak height	90,93
Baseline Time (s)	11.037
Baseline Value 	-0.006412
subtract baseline	10,4
Abs	0.299781
Peak Time (s)	92.036
Peak Height 	0.2998
calc peak height	90,93
Baseline Time (s)	11.536
Baseline Value 	0.003399
subtract baseline	10,3
PK_550	0.180893
Peak Time (s)	92.536
Peak Height 	0.1809
calc peak height	90,93
Baseline Time (s)	9.035
Baseline Value 	0.001552
subtract baseline	10,2
PK_880	0.288072
Peak Time (s)	92.036
Peak Height 	0.2881
calc peak height	90,93
Baseline Time (s)	9.035
Baseline Value 	0.002038
subtract baseline	10,1


Time (s)	A880-A510	A880-A775	A880-A975	A880	I510	I775	I975	I880	
0.038500	0.000706	-0.000619	0.000252	0.001965	6149.630244	43918.760011	3828.019531	22710.689760
0.535500	-0.003359	-0.001901	-0.001721	0.003077	6110.470192	43693.058982	3820.849187	22659.839756
1.036000	-0.000555	-0.000969	-0.008666	0.006201	6108.067854	43487.463041	3797.801808	22517.726987
1.536000	0.000741	-0.000339	-0.006127	0.001286	6155.068040	44009.460218	3814.812731	22741.777732
2.036000	0.001549	-0.000835	-0.000470	-0.000415	6174.246177	44123.885368	3831.893593	22819.933788
2.537000	0.000407	-0.000800	-0.004658	-0.000636	6167.189959	44148.131215	3822.648009	22830.096620
3.037000	-0.003623	-0.001661	-0.006947	0.004751	6095.939562	43558.442280	3804.999213	22583.572579
3.542000	0.001760	-0.000224	-0.001046	0.000610	6168.014339	44084.487508	3828.152817	22772.808606
4.037500	0.000687	-0.000787	0.002595	0.000142	6163.389559	44075.539958	3837.782940	22794.314780
4.535500	-0.002726	0.000034	-0.001753	0.000657	6133.507377	44104.575531	3826.394413	22770.636845
5.035000	0.001159	-0.001162	0.002907	-0.000058	6168.529768	44058.897053	3838.988369	22803.517920
5.535000	0.001153	-0.000337	-0.006038	0.000364	6165.255074	44097.158937	3817.144095	22784.113057
6.036000	0.000234	-0.000041	0.000704	0.000607	6156.380377	44102.164949	3832.248369	22772.950315
6.536000	0.000610	0.000088	0.004564	0.000468	6160.303656	44127.634369	3841.657674	22779.316968
7.038500	0.001636	-0.000609	-0.000368	0.000147	6170.608134	44091.935560	3830.816270	22794.073713
7.540000	-0.000399	-0.000933	-0.003086	-0.000629	6160.978427	44134.850003	3826.284572	22829.768591
8.034500	0.000213	-0.001278	-0.006558	-0.000956	6168.155005	44133.206639	3818.992063	22844.845392
8.534000	-0.001215	-0.000978	0.000242	-0.000673	6155.091953	44134.725381	3834.165759	22831.795512
9.035000	0.000000	0.000000	0.001524	0.000125	6158.273216	44151.902372	3835.302505	22795.102953
9.535500	-0.001226	-0.000585	-0.002377	-0.000328	6152.382147	44139.328594	3827.238077	22815.935862
10.035500	0.000282	-0.000687	-0.002285	-0.000776	6167.307551	44172.253025	3828.494597	22836.546417
10.546500	0.002562	0.001140	0.002675	0.000833	6172.448253	44192.953815	3836.345194	22762.588561
11.036500	0.000717	0.000102	-0.001224	0.000000	6164.703528	44173.462555	3829.159376	22800.834155
11.536000	-0.000402	0.000061	0.000000	0.000128	6155.180296	44157.368714	3831.721386	22794.928243
12.036500	0.001034	-0.000736	0.001491	-0.000710	6172.561942	44161.312907	3837.189548	22833.524939
12.536500	0.000420	-0.001590	-0.000300	-0.001198	6171.592795	44126.505773	3834.127063	22855.985603
13.037500	0.001920	0.000075	-0.000708	-0.001286	6183.774844	44293.304060	3833.375665	22860.027324
13.538000	0.001294	-0.000538	0.000414	0.001567	6157.148185	43964.101041	3829.327743	22728.934267
14.034500	-0.001818	-0.001182	-0.003699	0.000889	6138.630292	43967.290597	3821.338144	22760.004970
14.536000	-0.000978	-0.001501	-0.003566	0.000317	6149.357806	43991.197495	3822.970319	22786.248119
15.035500	0.000884	-0.000664	-0.002279	-0.001767	6179.513563	44268.741237	3830.822208	22882.221747
15.536000	0.001591	-0.001164	0.000444	0.000598	6166.811490	43996.554759	3831.662257	22773.348854
16.036000	0.001440	0.000019	-0.001084	-0.001209	6179.504027	44280.715248	3832.316140	22856.505757
16.536000	0.003142	0.001244	0.006210	-0.000613	6188.000206	44340.704602	3848.121100	22829.028933
17.036500	0.003536	0.000378	0.001684	-0.002571	6206.149511	44445.157463	3842.032814	22919.397188
17.539500	0.002941	-0.000226	0.001597	0.001040	6173.759850	44043.547523	3833.327121	22753.083145
18.037500	-0.000202	-0.000126	-0.000577	0.000781	6151.725459	44077.573872	3828.847720	22764.939454
18.534500	0.000010	-0.001072	-0.001405	0.000505	6155.452388	44014.057516	3827.560095	22777.627188
19.035000	-0.000124	0.000295	-0.003104	0.001163	6149.418430	44081.277976	3822.080075	22747.413006
19.535000	0.002539	-0.000038	0.002832	0.001332	6168.444884	44033.670175	3835.538730	22739.676780
20.037500	-0.000290	-0.000050	-0.004657	0.000534	6152.946095	44108.269234	3819.941505	22776.296575
20.536500	0.001334	-0.000646	-0.002553	0.000378	6166.533666	44066.503712	3825.183959	22783.483289
21.044500	-0.001480	-0.001452	0.000087	-0.000243	6149.800654	44048.953952	3832.793684	22811.998548
21.536500	0.000509	-0.001489	-0.004237	-0.000152	6164.275996	44036.865096	3822.503224	22807.836864
22.037500	0.001906	-0.000284	-0.005599	0.000381	6170.875187	44100.542512	3818.116312	22783.302834
22.537000	-0.000421	-0.000553	-0.002096	0.000181	6154.636457	44094.011496	3826.705088	22792.511115
23.034500	-0.000339	-0.000839	-0.001559	0.000288	6154.448013	44056.724162	3827.706602	22787.605113
23.534500	0.001073	0.000403	0.006397	0.001438	6156.440606	44065.413622	3843.697523	22734.813464
24.035000	-0.000147	-0.000745	-0.001629	-0.000079	6158.702130	44100.450611	3828.399628	22804.445243
24.535500	0.002154	-0.000219	-0.004133	0.000760	6169.878865	44070.788685	3820.631071	22765.921555
25.036000	-0.000662	-0.000993	-0.001388	-0.000068	6154.696735	44075.925911	3828.937128	22803.958780
25.541000	-0.002166	0.000049	0.002250	0.001287	6132.980386	44046.146687	3834.279576	22741.745455
26.037000	-0.003155	-0.000268	0.000993	0.000117	6134.350878	44127.145218	3834.074922	22795.437749
26.536500	-0.000701	-0.000349	0.002088	0.000077	6153.291559	44123.265515	3836.740096	22797.292463
27.037500	0.001588	-0.000280	-0.001311	-0.001954	6186.363798	44323.289754	3833.530881	22890.900336
27.534500	-0.000763	0.000429	0.004968	0.001638	6140.949031	44048.957101	3839.847956	22725.649825
28.035000	0.000809	-0.000427	-0.000260	-0.002003	6180.752529	44313.881197	3836.111466	22893.137642
28.535000	0.000878	0.000004	0.001304	-0.001927	6180.702083	44347.834670	3839.615638	22889.651330
29.036000	0.001037	-0.000466	-0.004060	-0.001344	6177.442855	44247.394117	3825.683812	22862.735605
29.535500	0.002186	0.000120	0.003696	-0.001784	6189.663294	44345.300380	3844.934057	22883.049743
30.038500	0.000895	-0.000435	0.002431	-0.002040	6181.691685	44316.616721	3842.542513	22894.832387
30.536000	-0.001868	0.000020	-0.004044	0.002224	6128.151402	43954.751719	3817.451912	22698.847229
31.036000	0.002288	-0.000353	-0.001912	-0.000540	6180.874469	44181.553861	3828.814962	22825.695946
31.537500	0.002755	0.000308	0.000655	-0.001513	6191.953327	44337.318353	3837.112223	22870.535452
32.034000	0.003072	0.000303	0.001441	-0.000913	6189.771252	44279.593042	3837.550468	22842.874119
32.537000	0.002790	0.000001	-0.001295	-0.001546	6192.474635	44311.159901	3832.610891	22872.043694
33.035000	0.001073	0.000201	0.003672	-0.001677	6180.270797	44342.712276	3844.621954	22878.083251
33.535000	0.001601	-0.000017	-0.002341	0.000841	6165.023645	44082.185307	3824.597847	22762.185965
34.035000	0.001163	0.000270	0.001190	0.001461	6156.951786	44050.723167	3831.389385	22733.789518
34.535500	-0.001726	-0.000409	-0.004339	0.000765	6140.275643	44052.334524	3820.142114	22765.704974
35.036000	0.001283	-0.000160	0.002571	0.001111	6160.537308	44043.047568	3835.446016	22749.806098
35.536000	-0.002168	-0.000840	-0.000059	0.001243	6133.292944	43966.073871	3828.978304	22743.747920
36.034000	-0.000603	0.000136	0.002355	0.000855	6148.120569	44095.426051	3835.540985	22761.577552
36.534500	0.001847	-0.000448	0.000100	0.000627	6168.544393	44061.592403	3830.787419	22772.004310
37.035000	0.001381	-0.000718	0.001025	0.000757	6163.984635	44023.730352	3832.648228	22766.036944
37.537000	0.001005	-0.000597	0.001349	0.000356	6164.184047	44073.245429	3834.349000	22784.477066
38.037000	-0.000396	-0.000216	-0.000425	0.000906	6149.299949	44057.164643	3828.909707	22759.213636
38.535000	0.000877	0.000124	0.003642	0.000692	6160.637904	44109.856221	3838.953201	22769.062783
39.035500	0.000535	0.001032	0.002154	0.001397	6152.649200	44129.060625	3833.795577	22736.693353
39.535500	-0.000396	-0.000299	-0.000955	0.001313	6146.209648	44010.669601	3826.724402	22740.536212
40.038500	0.001659	-0.000328	0.000541	0.000625	6167.125678	44073.243287	3831.826425	22772.128696
40.537000	0.002335	0.000343	0.000314	0.001205	6167.856578	44081.871681	3829.937593	22745.511396
41.037000	-0.001507	0.000558	-0.001364	0.000931	6140.670763	44128.272387	3826.663844	22758.066327
41.537000	-0.000344	-0.001004	-0.000282	0.000501	6152.781911	44020.878024	3830.191237	22777.821871
42.034500	0.001118	-0.000233	-0.001012	0.000364	6164.985255	44107.069976	3828.804513	22784.104663
42.534500	0.000942	-0.000063	0.002815	0.000590	6161.908343	44101.726463	3837.245440	22773.726756
43.035000	0.000901	-0.000385	-0.001840	0.000201	6164.567803	44108.007446	3827.253708	22791.583731
43.538000	0.000864	-0.000651	-0.003581	-0.000844	6172.287033	44182.137496	3825.635355	22839.684308
44.038500	0.001888	-0.000296	0.007653	-0.001669	6186.478722	44294.537888	3854.083846	22877.712329
44.535500	0.002017	0.000301	0.004150	-0.000801	6180.791562	44268.647193	3843.679569	22837.674320
45.036000	0.004485	0.000138	-0.000624	-0.001372	6204.218234	44307.631433	3833.776642	22864.027449
45.536500	-0.002454	-0.000515	0.000262	0.001566	6128.687681	43966.342616	3828.973570	22728.947381
46.034500	0.000382	-0.000802	-0.000108	-0.001378	6172.676767	44218.582283	3834.999422	22864.284967
46.540000	-0.000075	-0.000518	-0.001508	-0.000941	6165.835624	44203.971533	3830.696358	22844.149176
47.034000	-0.001710	-0.000440	0.003755	0.001241	6136.782070	44004.179747	3837.925160	22743.848332
47.538000	0.000155	0.000083	0.002856	0.002799	6139.105898	43906.272678	3832.154227	22672.535135
48.035500	0.001760	0.000278	0.004887	-0.000874	6179.390536	44273.534862	3845.601830	22841.078482
48.543500	0.002917	0.000301	0.007340	0.000065	6181.060443	44186.242530	3849.199629	22797.859122
49.035500	0.003822	0.000535	0.001321	-0.002994	6211.642941	44500.717299	3842.176170	22938.974898
49.535500	-0.000281	0.000627	0.002591	0.003136	6133.256926	43925.879899	3830.748189	22657.171993
50.036500	0.002296	-0.000621	0.004024	-0.001633	6189.340212	44260.020904	3845.352540	22876.040536
50.536000	0.027641	-0.023814	0.028557	0.583432	3766.947913	13066.963068	3098.599193	8043.526821
51.037000	0.010618	-0.021932	0.001641	-0.010632	6325.408174	43103.070063	3861.168484	23295.729515
51.535000	0.000850	-0.025058	-0.003333	-0.088464	6915.866400	50655.629320	4052.210479	27312.107520
52.035500	0.005634	-0.020161	0.004235	-0.112799	7198.151956	53983.081727	4146.500590	28722.931890
52.536000	0.016037	-0.013205	0.017772	-0.095337	7127.985679	52761.471193	4134.526193	27702.641846
53.036000	0.031651	-0.007991	0.035714	-0.034790	6707.038613	46792.488841	4011.246321	24466.251122
53.536000	0.031311	-0.002875	0.034716	0.004075	6373.706863	43508.107177	3906.352460	22614.352823
54.036500	0.039194	0.004332	0.044381	0.006904	6414.998396	43919.828641	3923.661421	22485.900119
54.537000	0.051482	0.014947	0.056439	0.014482	6453.925882	44207.971610	3935.156261	22145.949195
55.036500	0.067392	0.021155	0.069536	0.028813	6467.065665	43441.847717	3931.976499	21519.035702
55.539500	0.088598	0.037775	0.092776	0.034762	6596.565020	44451.271143	3977.337192	21264.826813
56.034500	0.110044	0.050276	0.113577	0.057941	6581.627659	43441.241835	3970.991422	20306.852553
56.534500	0.130157	0.062964	0.131839	0.104591	6360.155557	40389.056804	3897.859324	18527.156510
57.040000	0.147088	0.070773	0.157157	0.137895	6230.118292	38249.609726	3878.134461	17368.622998
57.535000	0.167276	0.080699	0.165428	0.171292	6128.719105	36388.035287	3818.384158	16292.709662
58.036000	0.180033	0.091016	0.182410	0.210384	5935.538777	34238.907207	3768.592296	15134.084522
58.535500	0.188929	0.096261	0.195498	0.245171	5756.699252	32175.684481	3722.130387	14187.178665
59.036000	0.203990	0.104555	0.207527	0.275050	5659.040927	30754.535490	3685.609636	13432.267801
59.536500	0.212617	0.111796	0.219212	0.304491	5527.364438	29364.683184	3650.742268	12737.521168
60.034000	0.221077	0.116678	0.233132	0.326288	5446.259130	28352.408748	3635.725887	12252.689130
60.534000	0.225134	0.122217	0.237103	0.331871	5437.136551	28349.807351	3632.685419	12132.365447
61.038000	0.235489	0.125674	0.241522	0.353889	5368.457074	27283.604763	3600.221851	11672.639147
61.537500	0.235840	0.137430	0.242883	0.381072	5217.291766	26431.440420	3554.908788	11136.302425
62.037500	0.233473	0.138690	0.240787	0.384170	5187.628513	26331.889985	3546.114893	11077.276834
62.535000	0.234723	0.140482	0.244929	0.385192	5188.856955	26373.512483	3551.382513	11057.886200
63.038000	0.240394	0.144405	0.252634	0.381827	5238.130670	26771.396127	3570.390904	11121.880994
63.538500	0.238873	0.145510	0.247176	0.387071	5201.144640	26544.612497	3552.007166	11022.387692
64.036000	0.243466	0.148094	0.249743	0.383987	5243.158326	26855.641069	3561.657567	11080.746877
64.536000	0.246756	0.151464	0.251171	0.390758	5224.016800	26668.534719	3552.530086	10953.155201
65.036500	0.246421	0.152269	0.250406	0.384264	5257.989311	27071.993269	3562.321364	11075.490949
65.534000	0.249632	0.155391	0.258738	0.388907	5250.051744	26987.375248	3568.694332	10987.843821
66.034500	0.251561	0.156853	0.259142	0.385083	5282.115606	27282.745406	3576.065595	11059.965224
66.534500	0.250752	0.157362	0.257940	0.390540	5247.207201	27006.135655	3564.488716	10957.226884
67.035000	0.256173	0.159576	0.264334	0.387652	5293.600848	27291.388687	3580.674065	11011.428989
67.535000	0.253399	0.158588	0.261005	0.387359	5279.658326	27252.368540	3575.342892	11016.962049
68.035500	0.257991	0.161667	0.266695	0.391340	5283.083666	27201.742718	3578.338122	10942.269926
68.536500	0.253437	0.161501	0.266006	0.398609	5217.617269	26788.671099	3564.482329	10807.674274
69.036500	0.261674	0.163583	0.270408	0.397735	5267.910380	26952.031281	3573.640313	10823.737872
69.537000	0.258294	0.163151	0.264871	0.403995	5214.728950	26583.719401	3553.317254	10709.388230
70.034000	0.258050	0.161735	0.267310	0.400364	5233.285085	26705.029842	3563.706212	10775.519950
70.534500	0.256935	0.164021	0.265225	0.409940	5175.213157	26308.142793	3543.876242	10602.290246
71.035000	0.259345	0.165188	0.269883	0.409493	5190.595194	26395.460614	3552.492973	10610.302130
71.534500	0.258867	0.165736	0.262135	0.417509	5145.172028	25994.279839	3526.210318	10468.061582
72.038000	0.262849	0.164715	0.266559	0.415420	5177.544001	26051.251263	3536.954430	10504.879307
72.539000	0.258594	0.166411	0.279886	0.424434	5107.365174	25663.800896	3544.155363	10347.267705
73.036000	0.263159	0.166361	0.277243	0.421819	5145.072222	25798.828929	3544.108628	10392.651010
73.539500	0.264611	0.166842	0.278668	0.429946	5109.992666	25398.611717	3532.946032	10252.494085
74.036500	0.264606	0.164777	0.275441	0.425847	5131.448435	25504.425923	3534.389251	10322.865187
74.536500	0.263956	0.166520	0.271975	0.435369	5078.519581	25102.474415	3513.200512	10160.421645
75.035000	0.271772	0.167819	0.282728	0.432177	5135.850530	25333.655135	3535.976051	10214.485677
75.537000	0.267689	0.167290	0.280788	0.436557	5091.650272	25081.131543	3525.563425	10140.415952
76.036500	0.268914	0.168349	0.285623	0.433729	5112.708599	25280.854920	3538.208918	10188.148074
76.535000	0.264855	0.167548	0.281592	0.439629	5061.304935	24937.580292	3521.863377	10088.894335
77.036000	0.276111	0.169995	0.288179	0.436533	5135.761694	25221.177123	3537.795839	10140.821709
77.535500	0.274479	0.171042	0.282293	0.440974	5103.954953	25047.127533	3520.817003	10066.460112
78.036500	0.272752	0.170723	0.294340	0.436007	5120.869591	25285.758410	3549.006444	10149.665415
78.536000	0.277430	0.172960	0.286901	0.437333	5138.497390	25332.840511	3534.346579	10127.359062
79.037500	0.278681	0.172492	0.290589	0.436247	5150.872676	25364.868652	3542.294623	10145.629316
79.537000	0.278630	0.172738	0.289531	0.435280	5155.739853	25427.797766	3542.142936	10161.925586
80.034500	0.276490	0.171551	0.282486	0.433406	5154.330131	25463.537153	3533.540406	10193.630359
80.537000	0.271865	0.170426	0.283457	0.436953	5111.288996	25221.766141	3529.291652	10133.757999
81.038000	0.279869	0.173312	0.291077	0.431387	5183.199539	25661.031058	3551.303243	10227.915567
81.535000	0.280769	0.174091	0.292126	0.436730	5159.410061	25422.779835	3544.062787	10137.508359
82.035000	0.281736	0.173692	0.293191	0.429736	5202.220607	25767.955111	3557.714081	10256.098467
82.535500	0.278841	0.174758	0.287321	0.434724	5159.824746	25562.061585	3539.380384	10171.319919
83.036000	0.281475	0.175917	0.294985	0.428568	5207.143912	25947.543535	3562.793572	10276.078352
83.536000	0.277791	0.174802	0.291901	0.430633	5176.091886	25779.172068	3553.983754	10240.781532
84.034000	0.284973	0.176586	0.287680	0.426172	5239.415191	26111.033870	3554.392099	10317.258310
84.534500	0.281677	0.178873	0.293394	0.432447	5187.235024	25898.543299	3553.437166	10209.894803
85.034500	0.286527	0.177372	0.295753	0.423690	5261.769996	26286.613171	3572.576880	10360.156231
85.534500	0.281251	0.177856	0.290794	0.427992	5209.066988	26081.641093	3556.597390	10285.968559
86.038500	0.284569	0.177002	0.303456	0.421091	5265.344055	26407.197887	3590.756945	10405.345488
86.536000	0.282081	0.177537	0.287211	0.426730	5220.475746	26132.083789	3552.646313	10307.654438
87.039000	0.283880	0.178972	0.300698	0.420866	5262.753175	26526.443177	3586.246507	10409.261142
87.535500	0.285544	0.178179	0.293003	0.425296	5247.407404	26243.588826	3565.018556	10332.371809
88.036000	0.283689	0.177967	0.291707	0.418971	5272.257384	26574.944283	3573.750911	10442.389813
88.540500	0.281965	0.178243	0.291208	0.425052	5229.033142	26260.133348	3562.344809	10336.579548
89.039000	0.282946	0.177950	0.294521	0.418276	5271.988356	26612.016375	3579.903440	10454.575716
89.534000	0.283627	0.178204	0.287533	0.422804	5250.591581	26379.486763	3559.893603	10375.531044
90.034500	0.284303	0.178815	0.296874	0.418260	5279.678336	26660.259190	3584.086747	10454.867978
90.534500	0.280187	0.178306	0.288951	0.423212	5229.371935	26362.925413	3561.627443	10368.446995
91.035000	0.285933	0.179203	0.297091	0.417684	5292.076152	26713.142096	3585.492251	10464.987702
91.538000	0.287613	0.179888	0.290728	0.417840	5300.669023	26742.190357	3574.015229	10462.233489
92.036000	0.288072	0.180379	0.299781	0.417489	5305.258130	26788.520109	3590.626362	10468.404290
92.536000	0.283543	0.180893	0.291829	0.423647	5245.462193	26479.661133	3565.838998	10360.903375
93.047000	0.286599	0.179867	0.302136	0.417151	5298.837155	26778.928829	3595.449195	10474.350508
93.665500	0.286186	0.180199	0.296860	0.416637	5299.406588	26825.579018	3586.940807	10483.398910
94.084000	0.288700	0.179496	0.303493	0.416411	5314.940210	26799.287374	3599.226860	10487.390550
94.534000	0.286197	0.179004	0.295879	0.420935	5275.303267	26524.427483	3577.617606	10408.058008
95.035000	0.287102	0.179480	0.299945	0.416424	5305.794804	26797.660012	3592.823545	10487.150568
95.535000	0.288803	0.181591	0.300764	0.417801	5307.632354	26838.206721	3591.826299	10462.930545
96.035000	0.288441	0.181450	0.300301	0.417439	5307.628994	26850.379111	3591.643953	10469.287216
