sample name	sample
index	1404
start time	 05-10-2021  11:21:00 AM


Wavelength (nm)	Absorbance
494.344910	-0.044167
494.563924	-0.044167
494.782919	-0.044167
495.001897	-0.048661
495.220856	-0.035799
495.439797	-0.028068
495.658719	-0.029350
495.877624	-0.022424
496.096510	-0.013556
496.315378	-0.021536
496.534227	-0.015041
496.753059	-0.015617
496.971872	-0.003674
497.190667	0.096437
497.409444	0.133586
497.628203	0.148493
497.846943	0.156014
498.065665	0.161361
498.284369	0.164527
498.503055	0.167338
498.721723	0.169009
498.940372	0.171445
499.159003	0.170735
499.377616	0.172542
499.596210	0.171954
499.814787	0.173579
500.033345	0.173664
500.251885	0.174644
500.470406	0.174582
500.688910	0.176518
500.907395	0.176435
501.125862	0.177959
501.344311	0.176899
501.562742	0.178378
501.781154	0.177577
501.999548	0.178605
502.217924	0.178749
502.436282	0.178696
502.654621	0.178584
502.872942	0.178246
503.091245	0.177908
503.309530	0.179216
503.527797	0.179129
503.746045	0.178991
503.964275	0.178383
504.182487	0.178050
504.400681	0.179733
504.618856	0.179375
504.837013	0.179710
505.055152	0.180633
505.273273	0.181032
505.491376	0.182334
505.709460	0.182342
505.927526	0.182837
506.145574	0.184322
506.363604	0.182676
506.581615	0.183009
506.799608	0.183598
507.017583	0.183517
507.235540	0.182990
507.453478	0.182234
507.671399	0.182548
507.889301	0.182778
508.107185	0.182629
508.325050	0.183576
508.542898	0.183297
508.760727	0.182983
508.978538	0.184049
509.196330	0.183440
509.414105	0.183040
509.631861	0.184056
509.849599	0.183858
510.067319	0.183286
510.285021	0.183401
510.502704	0.183925
510.720369	0.184930
510.938016	0.184161
511.155645	0.184921
511.373255	0.185491
511.590848	0.185194
511.808422	0.184880
512.025977	0.185474
512.243515	0.186322
512.461034	0.186149
512.678536	0.185938
512.896018	0.186732
513.113483	0.187362
513.330930	0.187399
513.548358	0.187295
513.765768	0.187937
513.983160	0.188265
514.200533	0.188238
514.417889	0.187954
514.635226	0.188101
514.852545	0.187900
515.069845	0.187616
515.287128	0.187806
515.504392	0.189167
515.721638	0.189464
515.938866	0.189760
516.156075	0.190003
516.373267	0.191305
516.590440	0.190701
516.807594	0.190917
517.024731	0.191995
517.241850	0.193338
517.458950	0.192973
517.676032	0.192879
517.893095	0.192220
518.110141	0.191832
518.327168	0.191716
518.544177	0.192954
518.761168	0.192574
518.978141	0.192481
519.195095	0.192436
519.412031	0.192911
519.628949	0.193914
519.845849	0.194609
520.062731	0.195358
520.279594	0.195608
520.496439	0.195876
520.713266	0.196961
520.930074	0.196877
521.146865	0.196808
521.363637	0.196768
521.580391	0.196277
521.797127	0.197324
522.013844	0.198233
522.230543	0.198963
522.447224	0.199444
522.663887	0.199024
522.880532	0.200144
523.097158	0.200656
523.313766	0.200840
523.530356	0.201720
523.746928	0.202070
523.963481	0.202204
524.180017	0.202119
524.396534	0.202169
524.613032	0.203050
524.829513	0.202806
525.045975	0.202541
525.262420	0.202973
525.478845	0.203559
525.695253	0.202942
525.911643	0.203130
526.128014	0.203806
526.344367	0.203264
526.560702	0.204166
526.777018	0.204015
526.993316	0.205126
527.209597	0.205163
527.425858	0.205405
527.642102	0.206195
527.858328	0.206238
528.074535	0.206086
528.290724	0.207366
528.506894	0.206783
528.723047	0.207331
528.939181	0.207521
529.155297	0.207933
529.371395	0.207595
529.587475	0.208741
529.803536	0.209128
530.019579	0.210222
530.235604	0.210388
530.451611	0.211281
530.667600	0.211758
530.883570	0.211534
531.099522	0.211611
531.315456	0.212353
531.531372	0.211833
531.747269	0.211866
531.963148	0.211509
532.179009	0.211887
532.394852	0.211523
532.610676	0.212078
532.826482	0.212572
533.042271	0.213017
533.258040	0.213264
533.473792	0.213061
533.689525	0.213244
533.905240	0.213952
534.120937	0.213985
534.336616	0.215177
534.552277	0.215609
534.767919	0.216919
534.983543	0.217717
535.199149	0.218402
535.414736	0.219280
535.630306	0.220094
535.845857	0.219947
536.061390	0.219736
536.276904	0.219668
536.492401	0.219463
536.707879	0.219989
536.923339	0.220251
537.138781	0.219758
537.354204	0.220836
537.569610	0.221011
537.784997	0.221879
538.000366	0.223429
538.215716	0.223647
538.431049	0.223894
538.646363	0.222984
538.861659	0.223353
539.076937	0.223694
539.292196	0.222829
539.507438	0.223137
539.722661	0.223945
539.937866	0.223578
540.153052	0.224303
540.368221	0.224943
540.583371	0.225659
540.798503	0.225894
541.013617	0.226929
541.228712	0.227969
541.443789	0.228565
541.658848	0.228119
541.873889	0.228711
542.088912	0.228915
542.303916	0.229022
542.518902	0.229619
542.733870	0.229674
542.948820	0.229617
543.163752	0.229234
543.378665	0.229242
543.593560	0.229465
543.808437	0.229291
544.023295	0.229737
544.238136	0.230369
544.452958	0.230274
544.667762	0.230940
544.882548	0.232040
545.097315	0.233083
545.312064	0.233809
545.526795	0.234679
545.741508	0.235033
545.956203	0.234488
546.170879	0.234490
546.385537	0.234776
546.600177	0.234839
546.814799	0.234563
547.029402	0.234239
547.243988	0.233969
547.458555	0.233738
547.673103	0.234664
547.887634	0.235543
548.102146	0.235693
548.316640	0.236399
548.531116	0.236633
548.745574	0.236755
548.960013	0.237207
549.174435	0.237704
549.388838	0.238447
549.603222	0.238005
549.817589	0.238002
550.031937	0.238755
550.246267	0.238516
550.460579	0.238914
550.674873	0.239265
550.889148	0.239156
551.103405	0.239572
551.317644	0.239379
551.531865	0.239793
551.746068	0.240315
551.960252	0.240244
552.174418	0.239839
552.388566	0.239888
552.602696	0.239831
552.816807	0.240524
553.030900	0.240334
553.244975	0.240741
553.459032	0.240922
553.673070	0.240715
553.887091	0.240227
554.101093	0.240843
554.315077	0.241381
554.529042	0.241609
554.742990	0.241459
554.956919	0.241797
555.170830	0.241332
555.384722	0.241879
555.598597	0.242769
555.812453	0.243932
556.026291	0.244576
556.240111	0.244255
556.453913	0.244350
556.667696	0.244637
556.881461	0.245159
557.095208	0.245553
557.308937	0.245510
557.522647	0.244933
557.736339	0.244737
557.950013	0.244774
558.163669	0.244745
558.377307	0.245046
558.590926	0.245701
558.804527	0.245762
559.018110	0.246677
559.231675	0.246928
559.445221	0.247613
559.658749	0.247887
559.872259	0.248246
560.085751	0.248634
560.299225	0.249028
560.512680	0.249174
560.726117	0.249035
560.939536	0.248618
561.152937	0.248677
561.366319	0.248094
561.579683	0.248663
561.793029	0.248681
562.006357	0.248888
562.219667	0.248652
562.432958	0.248378
562.646231	0.248782
562.859486	0.248960
563.072723	0.249201
563.285941	0.249951
563.499141	0.249632
563.712323	0.249798
563.925487	0.250218
564.138632	0.250526
564.351760	0.251006
564.564869	0.250779
564.777960	0.250543
564.991032	0.250810
565.204087	0.250877
565.417123	0.250987
565.630141	0.251489
565.843140	0.251711
566.056122	0.252021
566.269085	0.252181
566.482030	0.252753
566.694957	0.253324
566.907866	0.253781
567.120756	0.253781
567.333628	0.253948
567.546482	0.253779
567.759318	0.253769
567.972135	0.253944
568.184935	0.253812
568.397716	0.253908
568.610478	0.254177
568.823223	0.253815
569.035949	0.253638
569.248657	0.254018
569.461347	0.254317
569.674019	0.254536
569.886672	0.254833
570.099308	0.254907
570.311925	0.254831
570.524523	0.255250
570.737104	0.255189
570.949666	0.255767
571.162210	0.255670
571.374736	0.255344
571.587244	0.255440
571.799733	0.255311
572.012205	0.255633
572.224658	0.255562
572.437092	0.255163
572.649509	0.255788
572.861907	0.255743
573.074287	0.255725
573.286649	0.255547
573.498993	0.255311
573.711318	0.255253
573.923625	0.255203
574.135914	0.255218
574.348185	0.255631
574.560438	0.255834
574.772672	0.256319
574.984888	0.256858
575.197086	0.257420
575.409266	0.257581
575.621427	0.257867
575.833570	0.257885
576.045695	0.258281
576.257802	0.258195
576.469890	0.258123
576.681961	0.258035
576.894013	0.258016
577.106046	0.258499
577.318062	0.259014
577.530059	0.259508
577.742039	0.260139
577.954000	0.260297
578.165942	0.260381
578.377867	0.260474
578.589773	0.260322
578.801661	0.260478
579.013531	0.260526
579.225382	0.260673
579.437216	0.260485
579.649031	0.260395
579.860828	0.260646
580.072606	0.260781
580.284367	0.260844
580.496109	0.260987
580.707833	0.260997
580.919539	0.260689
581.131227	0.260667
581.342896	0.261053
581.554547	0.260803
581.766180	0.260787
581.977795	0.260778
582.189391	0.261022
582.400969	0.261490
582.612529	0.261740
582.824071	0.261845
583.035595	0.261980
583.247100	0.261778
583.458587	0.262563
583.670056	0.262817
583.881506	0.263054
584.092939	0.263218
584.304353	0.262883
584.515749	0.263581
584.727127	0.264004
584.938486	0.264190
585.149828	0.264375
585.361151	0.264379
585.572456	0.264418
585.783742	0.264832
585.995011	0.264880
586.206261	0.265667
586.417493	0.265243
586.628706	0.265344
586.839902	0.265787
587.051079	0.265920
587.262238	0.266115
587.473379	0.266520
587.684502	0.266849
587.895606	0.267255
588.106692	0.267392
588.317760	0.267732
588.528810	0.267745
588.739841	0.267593
588.950855	0.267995
589.161850	0.268182
589.372827	0.268527
589.583785	0.268480
589.794726	0.268545
590.005648	0.268591
590.216552	0.268390
590.427437	0.269226
590.638305	0.269640
590.849154	0.269614
591.059985	0.270035
591.270798	0.269757
591.481592	0.269913
591.692369	0.269960
591.903127	0.270294
592.113867	0.270788
592.324588	0.270625
592.535292	0.270468
592.745977	0.270322
592.956644	0.270327
593.167293	0.270786
593.377923	0.271020
593.588536	0.271019
593.799130	0.271180
594.009706	0.271169
594.220263	0.271383
594.430803	0.271521
594.641324	0.272163
594.851827	0.272267
595.062312	0.272348
595.272778	0.272526
595.483227	0.272965
595.693657	0.273010
595.904069	0.272968
596.114462	0.272740
596.324838	0.272976
596.535195	0.273115
596.745534	0.273053
596.955855	0.273345
597.166157	0.273417
597.376441	0.273413
597.586707	0.273446
597.796955	0.274302
598.007185	0.274842
598.217396	0.275290
598.427589	0.275109
598.637764	0.275394
598.847921	0.275302
599.058060	0.275382
599.268180	0.275872
599.478282	0.275898
599.688366	0.275700
599.898431	0.276094
600.108479	0.276383
600.318508	0.276904
600.528519	0.276916
600.738511	0.277085
600.948486	0.277571
601.158442	0.277444
601.368380	0.277631
601.578300	0.277952
601.788202	0.277951
601.998085	0.277854
602.207950	0.277969
602.417797	0.278008
602.627626	0.278280
602.837436	0.278218
603.047228	0.278505
603.257002	0.278836
603.466758	0.278763
603.676496	0.278718
603.886215	0.278726
604.095916	0.278987
604.305599	0.279429
604.515264	0.279478
604.724910	0.279539
604.934538	0.279741
605.144148	0.280270
605.353740	0.280624
605.563314	0.280749
605.772869	0.281179
605.982406	0.281356
606.191925	0.281364
606.401425	0.281612
606.610908	0.281961
606.820372	0.281835
607.029818	0.281746
607.239246	0.281915
607.448655	0.282460
607.658047	0.282665
607.867420	0.282744
608.076775	0.282829
608.286111	0.283234
608.495430	0.283607
608.704730	0.284314
608.914012	0.284244
609.123275	0.284415
609.332521	0.284217
609.541748	0.284401
609.750957	0.284636
609.960148	0.285126
610.169321	0.285598
610.378475	0.285434
610.587611	0.285332
610.796729	0.285631
611.005829	0.285814
611.214910	0.286107
611.423974	0.286108
611.633019	0.286155
611.842045	0.286396
612.051054	0.286128
612.260044	0.286527
612.469017	0.286442
612.677970	0.286749
612.886906	0.286338
613.095824	0.286313
613.304723	0.286454
613.513604	0.286622
613.722467	0.286290
613.931311	0.286573
614.140138	0.286692
614.348946	0.286928
614.557736	0.287025
614.766507	0.287688
614.975261	0.288295
615.183996	0.288207
615.392713	0.288515
615.601412	0.288876
615.810092	0.289013
616.018754	0.288995
616.227399	0.288967
616.436024	0.289164
616.644632	0.289277
616.853222	0.289259
617.061793	0.289851
617.270346	0.289721
617.478880	0.289768
617.687397	0.289489
617.895895	0.289490
618.104375	0.289727
618.312837	0.289589
618.521281	0.290056
618.729706	0.290230
618.938113	0.290242
619.146502	0.290324
619.354873	0.290693
619.563226	0.290970
619.771560	0.291010
619.979876	0.291044
620.188174	0.291463
620.396453	0.291155
620.604715	0.291089
620.812958	0.291010
621.021183	0.291414
621.229390	0.291531
621.437578	0.291794
621.645748	0.292546
621.853900	0.293118
622.062034	0.293009
622.270150	0.293251
622.478247	0.293772
622.686326	0.294372
622.894387	0.294729
623.102430	0.295006
623.310454	0.295200
623.518461	0.295242
623.726449	0.295365
623.934418	0.295871
624.142370	0.296039
624.350303	0.296245
624.558218	0.296446
624.766115	0.296535
624.973994	0.296635
625.181855	0.296650
625.389697	0.296611
625.597521	0.296869
625.805327	0.296871
626.013114	0.296778
626.220883	0.296722
626.428634	0.296727
626.636367	0.296703
626.844082	0.296583
627.051778	0.297165
627.259457	0.297144
627.467117	0.297177
627.674758	0.297421
627.882382	0.297732
628.089987	0.297498
628.297574	0.297575
628.505143	0.297653
628.712694	0.297725
628.920226	0.297476
629.127740	0.297519
629.335236	0.297431
629.542714	0.297206
629.750174	0.297349
629.957615	0.297433
630.165038	0.297500
630.372443	0.297776
630.579829	0.298231
630.787198	0.298118
630.994548	0.298560
631.201880	0.299155
631.409194	0.299433
631.616489	0.299868
631.823766	0.300084
632.031025	0.300031
632.238266	0.300201
632.445489	0.300311
632.652693	0.300752
632.859879	0.300827
633.067047	0.300783
633.274197	0.301206
633.481329	0.301157
633.688442	0.301677
633.895537	0.301888
634.102614	0.301888
634.309672	0.302037
634.516713	0.302397
634.723735	0.302620
634.930739	0.302519
635.137724	0.302431
635.344692	0.302707
635.551641	0.302724
635.758572	0.303180
635.965485	0.303363
636.172379	0.303818
636.379256	0.303724
636.586114	0.303952
636.792954	0.304181
636.999775	0.304712
637.206579	0.304651
637.413364	0.304949
637.620131	0.304929
637.826880	0.305078
638.033610	0.304899
638.240323	0.305372
638.447017	0.305506
638.653692	0.305666
638.860350	0.305467
639.066990	0.305520
639.273611	0.305677
639.480214	0.305584
639.686798	0.305754
639.893365	0.305863
640.099913	0.305772
640.306443	0.305784
640.512955	0.306138
640.719449	0.306664
640.925924	0.307295
641.132381	0.307345
641.338820	0.307739
641.545241	0.307990
641.751644	0.308255
641.958028	0.308675
642.164394	0.309007
642.370742	0.308834
642.577071	0.308540
642.783383	0.308657
642.989676	0.309033
643.195951	0.309226
643.402207	0.309414
643.608446	0.309493
643.814666	0.309301
644.020868	0.309433
644.227052	0.309563
644.433218	0.309940
644.639365	0.310054
644.845494	0.309836
645.051605	0.310085
645.257698	0.310182
645.463772	0.310435
645.669828	0.310682
645.875866	0.311006
646.081886	0.311791
646.287888	0.312100
646.493871	0.312098
646.699836	0.312433
646.905783	0.312690
647.111712	0.312954
647.317622	0.313165
647.523514	0.313539
647.729388	0.313439
647.935244	0.313408
648.141082	0.313530
648.346901	0.313728
648.552702	0.314155
648.758485	0.314212
648.964250	0.314382
649.169996	0.314628
649.375724	0.314471
649.581434	0.314776
649.787126	0.315013
649.992800	0.314982
650.198455	0.315303
650.404092	0.315335
650.609711	0.315425
650.815311	0.315469
651.020894	0.315704
651.226458	0.315994
651.432004	0.316488
651.637532	0.316497
651.843041	0.316560
652.048532	0.316547
652.254006	0.316712
652.459460	0.316978
652.664897	0.317349
652.870315	0.317555
653.075716	0.317841
653.281097	0.317671
653.486461	0.317723
653.691807	0.317842
653.897134	0.318138
654.102443	0.318140
654.307734	0.318398
654.513006	0.318855
654.718261	0.318768
654.923497	0.319324
655.128715	0.319573
655.333915	0.319833
655.539096	0.320231
655.744259	0.320284
655.949404	0.320551
656.154531	0.320586
656.359640	0.320599
656.564730	0.320733
656.769802	0.320543
656.974856	0.320821
657.179892	0.321134
657.384909	0.321539
657.589908	0.321888
657.794889	0.322037
657.999852	0.322272
658.204797	0.322218
658.409723	0.322501
658.614631	0.322716
658.819521	0.322766
659.024393	0.322552
659.229246	0.322715
659.434081	0.322777
659.638898	0.323207
659.843697	0.323377
660.048478	0.323645
660.253240	0.324072
660.457984	0.324417
660.662710	0.324538
660.867417	0.325256
661.072107	0.325284
661.276778	0.325405
661.481431	0.325601
661.686066	0.325791
661.890682	0.325988
662.095281	0.326031
662.299861	0.326078
662.504422	0.326510
662.708966	0.326659
662.913491	0.326830
663.117999	0.327272
663.322488	0.327307
663.526958	0.327321
663.731411	0.327360
663.935845	0.327452
664.140261	0.327453
664.344659	0.327576
664.549038	0.327525
664.753400	0.327748
664.957743	0.327770
665.162068	0.328144
665.366375	0.328627
665.570663	0.329051
665.774933	0.329443
665.979185	0.329983
666.183419	0.330327
666.387635	0.330718
666.591832	0.330956
666.796011	0.331456
667.000172	0.331280
667.204315	0.331241
667.408439	0.331545
667.612545	0.331591
667.816634	0.331473
668.020703	0.331531
668.224755	0.331499
668.428788	0.331934
668.632803	0.332124
668.836800	0.332554
669.040779	0.333038
669.244739	0.332992
669.448681	0.333359
669.652605	0.333744
669.856511	0.333586
670.060399	0.333765
670.264268	0.333840
670.468119	0.333899
670.671952	0.333825
670.875767	0.333914
671.079563	0.334114
671.283341	0.334126
671.487101	0.334406
671.690843	0.335132
671.894567	0.335365
672.098272	0.335457
672.301959	0.335451
672.505628	0.335923
672.709278	0.336100
672.912911	0.336249
673.116525	0.336489
673.320121	0.336552
673.523699	0.336495
673.727258	0.336911
673.930799	0.337061
674.134322	0.337260
674.337827	0.337497
674.541314	0.337501
674.744782	0.337734
674.948232	0.337787
675.151664	0.338130
675.355078	0.338443
675.558474	0.338643
675.761851	0.338731
675.965210	0.339215
676.168551	0.339326
676.371873	0.339835
676.575178	0.340150
676.778464	0.340547
676.981732	0.340837
677.184981	0.341053
677.388213	0.341093
677.591426	0.341698
677.794621	0.341876
677.997798	0.342148
678.200956	0.342479
678.404097	0.342816
678.607219	0.342931
678.810323	0.343323
679.013408	0.343298
679.216476	0.343528
679.419525	0.343482
679.622556	0.343453
679.825569	0.343561
680.028563	0.343746
680.231540	0.343750
680.434498	0.343762
680.637438	0.343674
680.840359	0.344056
681.043263	0.344141
681.246148	0.344501
681.449015	0.344702
681.651864	0.345058
681.854694	0.345169
682.057506	0.345276
682.260301	0.345683
682.463076	0.345916
682.665834	0.346051
682.868573	0.346590
683.071295	0.346628
683.273998	0.347042
683.476682	0.347327
683.679349	0.347694
683.881997	0.347923
684.084627	0.348269
684.287239	0.348325
684.489833	0.348537
684.692408	0.348557
684.894965	0.348816
685.097504	0.348914
685.300025	0.348813
685.502527	0.348622
685.705012	0.348998
685.907478	0.349231
686.109925	0.349627
686.312355	0.349911
686.514766	0.349991
686.717159	0.350034
686.919534	0.350289
687.121891	0.350492
687.324230	0.350950
687.526550	0.350998
687.728852	0.351042
687.931136	0.351104
688.133401	0.351412
688.335649	0.351824
688.537878	0.352145
688.740089	0.352209
688.942281	0.352703
689.144456	0.352917
689.346612	0.352805
689.548750	0.352946
689.750870	0.352950
689.952971	0.353054
690.155055	0.353084
690.357120	0.353513
690.559167	0.353883
690.761195	0.354068
690.963206	0.354127
691.165198	0.354683
691.367172	0.355012
691.569128	0.355346
691.771065	0.355459
691.972984	0.355690
692.174885	0.355608
692.376768	0.355576
692.578633	0.355430
692.780479	0.355745
692.982308	0.355823
693.184118	0.355925
693.385909	0.356119
693.587683	0.356167
693.789438	0.356504
693.991175	0.356626
694.192894	0.356747
694.394595	0.357059
694.596277	0.356997
694.797941	0.357460
694.999587	0.357764
695.201215	0.357639
695.402824	0.357943
695.604416	0.357882
695.805989	0.357909
696.007543	0.357965
696.209080	0.358146
696.410598	0.358303
696.612099	0.358323
696.813580	0.358289
697.015044	0.358578
697.216490	0.358532
697.417917	0.358597
697.619326	0.359037
697.820717	0.359236
698.022089	0.359188
698.223444	0.359382
698.424780	0.359303
698.626098	0.359627
698.827397	0.359618
699.028679	0.359708
699.229942	0.359672
699.431187	0.359301
699.632414	0.359375
699.833622	0.359555
700.034813	0.359704
700.235985	0.360086
700.437139	0.360245
700.638274	0.360740
700.839392	0.361157
701.040491	0.361670
701.241572	0.362346
701.442635	0.362606
701.643679	0.363018
701.844706	0.363423
702.045714	0.363605
702.246704	0.363580
702.447675	0.363637
702.648629	0.363390
702.849564	0.363172
703.050481	0.363108
703.251380	0.363181
703.452260	0.362982
703.653122	0.362691
703.853966	0.362679
704.054792	0.362775
704.255600	0.362781
704.456389	0.362997
704.657160	0.363199
704.857913	0.363173
705.058648	0.363470
705.259365	0.363771
705.460063	0.363829
705.660743	0.363975
705.861405	0.363687
706.062048	0.363549
706.262674	0.363260
706.463281	0.363547
706.663870	0.363743
706.864441	0.363811
707.064993	0.363480
707.265527	0.363529
707.466043	0.363253
707.666541	0.363406
707.867021	0.363667
708.067482	0.364000
708.267925	0.363907
708.468350	0.363844
708.668757	0.363501
708.869145	0.363573
709.069516	0.363749
709.269868	0.363789
709.470201	0.363873
709.670517	0.363869
709.870814	0.363818
710.071093	0.363776
710.271354	0.363913
710.471597	0.364291
710.671821	0.364446
710.872028	0.364243
711.072216	0.364364
711.272385	0.364522
711.472537	0.364469
711.672670	0.364584
711.872785	0.364552
712.072882	0.364424
712.272961	0.364579
712.473021	0.364588
712.673063	0.364655
712.873087	0.364558
713.073093	0.364570
713.273081	0.364568
713.473050	0.364629
713.673001	0.364494
713.872934	0.364531
714.072849	0.364103
714.272745	0.364186
714.472623	0.364147
714.672483	0.364291
714.872325	0.364159
715.072148	0.364095
715.271954	0.363842
715.471741	0.363864
715.671509	0.363867
715.871260	0.363931
716.070992	0.363720
716.270707	0.363665
716.470403	0.363281
716.670080	0.363124
716.869740	0.363348
717.069381	0.363393
717.269004	0.363105
717.468609	0.362870
717.668195	0.362517
717.867764	0.362419
718.067314	0.362071
718.266846	0.362270
718.466360	0.362318
718.665855	0.361879
718.865332	0.361593
719.064791	0.361938
719.264232	0.362065
719.463655	0.362107
719.663059	0.362045
719.862445	0.362222
720.061813	0.361946
720.261163	0.361804
720.460494	0.361515
720.659807	0.361605
720.859102	0.361401
721.058379	0.361151
721.257638	0.361055
721.456878	0.361095
721.656100	0.360931
721.855304	0.360910
722.054490	0.361042
722.253657	0.360916
722.452806	0.361082
722.651937	0.361083
722.851050	0.360908
723.050145	0.361208
723.249221	0.361278
723.448279	0.361474
723.647319	0.361680
723.846340	0.361383
724.045344	0.361752
724.244329	0.361606
724.443296	0.361392
724.642245	0.361396
724.841175	0.360849
725.040088	0.360369
725.238982	0.360090
725.437857	0.359731
725.636715	0.359716
725.835554	0.359469
726.034376	0.359137
726.233179	0.358927
726.431963	0.358736
726.630730	0.358978
726.829478	0.358987
727.028208	0.359025
727.226920	0.358911
727.425614	0.358676
727.624289	0.358298
727.822946	0.358141
728.021585	0.358004
728.220206	0.357676
728.418808	0.357149
728.617392	0.356953
728.815958	0.356407
729.014506	0.356071
729.213036	0.356065
729.411547	0.356028
729.610040	0.356306
729.808515	0.356115
730.006972	0.356299
730.205410	0.356263
730.403831	0.355898
730.602233	0.356198
730.800616	0.356208
730.998982	0.356086
731.197329	0.356024
731.395658	0.355532
731.593969	0.355182
731.792262	0.354866
731.990536	0.354751
732.188793	0.354793
732.387031	0.354092
732.585250	0.353993
732.783452	0.353542
732.981635	0.353198
733.179800	0.352786
733.377947	0.352810
733.576076	0.352642
733.774186	0.352525
733.972278	0.352484
734.170352	0.352504
734.368408	0.352002
734.566446	0.351699
734.764465	0.351458
734.962466	0.351347
735.160449	0.351500
735.358413	0.351365
735.556360	0.351057
735.754288	0.350939
735.952198	0.350664
736.150090	0.350743
736.347963	0.350628
736.545818	0.350717
736.743655	0.350834
736.941474	0.350559
737.139275	0.350386
737.337057	0.350105
737.534821	0.349585
737.732567	0.349613
737.930295	0.349365
738.128005	0.349387
738.325696	0.348907
738.523369	0.348721
738.721024	0.348396
738.918660	0.348342
739.116279	0.348217
739.313879	0.348204
739.511461	0.348075
739.709024	0.347965
739.906570	0.347477
740.104097	0.347370
740.301606	0.346854
740.499097	0.346675
740.696569	0.346396
740.894024	0.346330
741.091460	0.346373
741.288878	0.346105
741.486277	0.345769
741.683659	0.346064
741.881022	0.346166
742.078367	0.346155
742.275694	0.346231
742.473002	0.346051
742.670293	0.346087
742.867565	0.345801
743.064819	0.345501
743.262054	0.345473
743.459272	0.345295
743.656471	0.344839
743.853652	0.344747
744.050815	0.343882
744.247959	0.343617
744.445085	0.343224
744.642194	0.342846
744.839283	0.342644
745.036355	0.342566
745.233408	0.342013
745.430444	0.342149
745.627461	0.341795
745.824459	0.342127
746.021440	0.341818
746.218402	0.341558
746.415346	0.341268
746.612272	0.341371
746.809180	0.341452
747.006069	0.341187
747.202940	0.340801
747.399793	0.340848
747.596628	0.340656
747.793444	0.340617
747.990243	0.340855
748.187023	0.340995
748.383784	0.340641
748.580528	0.340145
748.777253	0.340237
748.973960	0.340331
749.170649	0.340192
749.367320	0.339966
749.563973	0.339999
749.760607	0.339288
749.957223	0.339004
750.153821	0.338989
750.350400	0.338869
750.546962	0.338679
750.743505	0.338637
750.940030	0.338202
751.136536	0.337971
751.333025	0.337730
751.529495	0.337777
751.725947	0.337415
751.922381	0.336940
752.118796	0.336506
752.315194	0.336127
752.511573	0.335215
752.707934	0.334754
752.904276	0.334622
753.100601	0.334087
753.296907	0.333471
753.493195	0.333480
753.689465	0.333500
753.885716	0.333421
754.081949	0.333280
754.278164	0.333407
754.474361	0.333522
754.670540	0.333479
754.866700	0.333962
755.062843	0.334300
755.258967	0.333934
755.455072	0.333602
755.651160	0.333732
755.847229	0.333856
756.043280	0.333880
756.239313	0.333691
756.435328	0.333380
756.631324	0.332726
756.827302	0.332423
757.023262	0.332419
757.219204	0.332483
757.415127	0.331860
757.611033	0.331532
757.806920	0.331238
758.002788	0.331182
758.198639	0.330746
758.394471	0.330419
758.590286	0.330004
758.786081	0.329686
758.981859	0.329181
759.177619	0.329112
759.373360	0.328877
759.569083	0.328602
759.764788	0.328338
759.960474	0.328544
760.156143	0.328767
760.351793	0.328887
760.547425	0.328907
760.743038	0.329007
760.938634	0.329013
761.134211	0.328982
761.329770	0.328866
761.525311	0.329061
761.720833	0.328724
761.916338	0.328252
762.111824	0.328019
762.307292	0.327890
762.502741	0.327613
762.698173	0.327306
762.893586	0.327155
763.088981	0.327072
763.284358	0.326592
763.479716	0.326445
763.675057	0.326540
763.870379	0.326302
764.065683	0.326254
764.260968	0.326222
764.456236	0.326399
764.651485	0.326226
764.846716	0.326235
765.041929	0.326423
765.237123	0.326372
765.432299	0.326046
765.627457	0.326118
765.822597	0.325718
766.017719	0.325396
766.212822	0.324919
766.407907	0.324816
766.602974	0.324635
766.798023	0.324208
766.993054	0.323944
767.188066	0.323823
767.383060	0.323672
767.578036	0.323625
767.772993	0.323578
767.967933	0.323489
768.162854	0.323359
768.357757	0.322872
768.552642	0.322824
768.747508	0.323029
768.942356	0.322930
769.137186	0.322728
769.331998	0.322492
769.526792	0.322452
769.721567	0.322190
769.916324	0.322001
770.111063	0.322392
770.305784	0.322502
770.500486	0.322337
770.695171	0.322411
770.889837	0.322355
771.084484	0.322611
771.279114	0.322721
771.473725	0.323013
771.668318	0.322929
771.862893	0.322672
772.057450	0.322347
772.251988	0.322082
772.446509	0.321855
772.641011	0.321940
772.835494	0.321798
773.029960	0.321913
773.224407	0.321798
773.418836	0.322033
773.613247	0.322188
773.807640	0.322192
774.002014	0.322221
774.196370	0.322374
774.390708	0.322154
774.585028	0.321997
774.779330	0.321446
774.973613	0.321172
775.167878	0.320867
775.362125	0.320408
775.556354	0.320143
775.750564	0.319970
775.944756	0.319628
776.138930	0.319465
776.333086	0.319760
776.527223	0.319739
776.721343	0.319722
776.915444	0.319535
777.109526	0.319659
777.303591	0.319512
777.497637	0.319637
777.691666	0.319879
777.885676	0.320210
778.079667	0.319998
778.273641	0.320360
778.467596	0.320222
778.661533	0.320548
778.855452	0.320842
779.049352	0.321216
779.243235	0.321350
779.437099	0.321248
779.630945	0.321181
779.824773	0.321211
780.018582	0.321169
780.212373	0.321484
780.406146	0.321296
780.599901	0.320895
780.793638	0.321150
780.987356	0.321039
781.181056	0.320959
781.374738	0.320662
781.568402	0.320725
781.762047	0.320520
781.955674	0.320367
782.149283	0.320401
782.342874	0.320549
782.536447	0.320347
782.730001	0.320411
782.923537	0.320705
783.117055	0.320754
783.310555	0.320487
783.504036	0.320756
783.697499	0.320883
783.890944	0.320719
784.084371	0.320968
784.277780	0.320966
784.471170	0.320755
784.664542	0.320649
784.857896	0.320961
785.051231	0.321032
785.244549	0.320696
785.437848	0.320789
785.631129	0.320983
785.824392	0.320933
786.017636	0.321005
786.210863	0.321615
786.404071	0.321542
786.597260	0.321430
786.790432	0.321575
786.983585	0.322221
787.176721	0.322192
787.369838	0.322293
787.562936	0.322319
787.756017	0.322453
787.949079	0.322356
788.142123	0.322309
788.335149	0.322523
788.528156	0.322703
788.721146	0.322313
788.914117	0.322233
789.107070	0.322504
789.300005	0.322643
789.492921	0.322729
789.685819	0.322544
789.878699	0.322779
790.071561	0.322813
790.264405	0.323003
790.457230	0.323193
790.650037	0.323521
790.842826	0.323495
791.035597	0.323526
791.228349	0.323578
791.421084	0.323922
791.613800	0.324066
791.806497	0.324055
791.999177	0.323833
792.191838	0.323936
792.384481	0.323937
792.577106	0.323841
792.769713	0.324029
792.962301	0.323877
793.154871	0.323742
793.347423	0.323913
793.539957	0.324133
793.732473	0.324484
793.924970	0.324617
794.117449	0.324869
794.309910	0.325187
794.502353	0.325453
794.694777	0.325939
794.887183	0.326159
795.079571	0.326576
795.271941	0.326977
795.464293	0.326895
795.656626	0.327047
795.848941	0.327392
796.041238	0.327522
796.233516	0.327470
796.425777	0.327406
796.618019	0.327748
796.810243	0.327686
797.002449	0.327539
797.194636	0.327790
797.386805	0.328194
797.578956	0.328371
797.771089	0.328554
797.963204	0.328583
798.155300	0.329040
798.347378	0.329152
798.539438	0.329336
798.731480	0.329383
798.923503	0.329585
799.115509	0.329524
799.307496	0.329353
799.499465	0.329570
799.691415	0.329811
799.883348	0.329778
800.075262	0.329789
800.267158	0.329970
800.459035	0.330333
800.650895	0.330622
800.842736	0.330742
801.034559	0.331110
801.226364	0.331279
801.418150	0.331699
801.609919	0.331840
801.801669	0.332148
801.993401	0.332338
802.185114	0.332703
802.376810	0.332704
802.568487	0.332851
802.760146	0.332762
802.951787	0.332837
803.143409	0.333108
803.335014	0.333387
803.526600	0.333448
803.718168	0.333583
803.909717	0.333431
804.101249	0.333914
804.292762	0.334090
804.484257	0.334481
804.675734	0.334954
804.867192	0.335215
805.058632	0.335347
805.250054	0.335597
805.441458	0.335737
805.632844	0.336174
805.824211	0.336327
806.015561	0.336495
806.206891	0.336836
806.398204	0.336962
806.589499	0.336794
806.780775	0.337254
806.972033	0.337353
807.163273	0.337907
807.354495	0.338257
807.545698	0.338525
807.736883	0.338915
807.928050	0.339050
808.119199	0.339561
808.310329	0.339881
808.501441	0.340065
808.692535	0.340640
808.883611	0.340993
809.074669	0.341183
809.265708	0.341553
809.456729	0.341752
809.647732	0.342025
809.838717	0.342106
810.029683	0.342246
810.220632	0.342692
810.411562	0.342830
810.602474	0.342950
810.793367	0.343332
810.984242	0.343405
811.175100	0.343501
811.365938	0.343783
811.556759	0.344269
811.747562	0.345014
811.938346	0.344914
812.129112	0.345087
812.319860	0.345528
812.510589	0.345737
812.701300	0.346270
812.891994	0.346938
813.082668	0.347423
813.273325	0.347571
813.463964	0.348166
813.654584	0.348671
813.845186	0.349119
814.035769	0.349529
814.226335	0.350250
814.416882	0.350397
814.607411	0.350515
814.797922	0.350610
814.988415	0.350592
815.178889	0.350396
815.369345	0.350540
815.559783	0.350604
815.750203	0.350579
815.940605	0.350601
816.130988	0.350800
816.321353	0.351382
816.511700	0.351596
816.702028	0.352396
816.892339	0.352778
817.082631	0.353094
817.272905	0.353506
817.463161	0.353552
817.653398	0.353555
817.843617	0.353887
818.033819	0.353948
818.224001	0.354483
818.414166	0.354535
818.604312	0.354566
818.794440	0.355204
818.984550	0.355818
819.174642	0.356370
819.364716	0.356914
819.554771	0.357403
819.744808	0.358145
819.934827	0.358631
820.124827	0.358825
820.314810	0.359325
820.504774	0.359410
820.694720	0.359892
820.884647	0.360343
821.074557	0.360824
821.264448	0.361264
821.454321	0.361556
821.644176	0.361862
821.834012	0.362521
822.023831	0.362944
822.213631	0.363208
822.403413	0.363331
822.593176	0.363726
822.782922	0.364146
822.972649	0.364119
823.162358	0.364036
823.352049	0.364524
823.541721	0.364824
823.731376	0.365286
823.921012	0.365928
824.110629	0.366503
824.300229	0.367046
824.489811	0.367023
824.679374	0.367642
824.868919	0.368142
825.058445	0.368391
825.247954	0.368645
825.437444	0.368739
825.626916	0.368862
825.816370	0.368757
826.005806	0.368891
826.195223	0.369545
826.384622	0.369869
826.574003	0.370439
826.763366	0.370951
826.952711	0.371223
827.142037	0.371798
827.331345	0.372465
827.520635	0.373354
827.709906	0.373860
827.899160	0.374263
828.088395	0.374743
828.277612	0.375216
828.466810	0.375220
828.655991	0.375738
828.845153	0.376254
829.034297	0.376708
829.223423	0.376951
829.412531	0.376979
829.601620	0.377352
829.790691	0.377878
829.979744	0.378199
830.168779	0.379009
830.357795	0.379569
830.546793	0.379801
830.735773	0.380036
830.924735	0.380683
831.113679	0.381465
831.302604	0.381758
831.491511	0.381773
831.680400	0.382446
831.869271	0.382825
832.058123	0.383133
832.246957	0.383839
832.435773	0.384252
832.624571	0.384661
832.813351	0.385550
833.002112	0.385931
833.190855	0.386398
833.379580	0.386513
833.568287	0.386870
833.756975	0.387310
833.945645	0.387372
834.134297	0.387914
834.322931	0.388417
834.511547	0.387963
834.700144	0.388698
834.888723	0.389171
835.077284	0.389630
835.265826	0.389911
835.454351	0.390706
835.642857	0.391386
835.831345	0.391929
836.019815	0.392114
836.208266	0.393011
836.396699	0.393476
836.585114	0.394022
836.773511	0.394310
836.961890	0.395069
837.150250	0.395127
837.338592	0.395640
837.526916	0.396066
837.715222	0.396451
837.903510	0.396837
838.091779	0.397057
838.280030	0.397835
838.468263	0.398751
838.656477	0.399064
838.844674	0.399431
839.032852	0.400121
839.221012	0.400451
839.409153	0.401022
839.597277	0.401377
839.785382	0.402050
839.973469	0.402187
840.161538	0.402539
840.349589	0.402770
840.537621	0.403327
840.725635	0.403472
840.913631	0.404130
841.101609	0.404729
841.289568	0.405585
841.477509	0.406030
841.665432	0.406408
841.853337	0.406982
842.041224	0.407613
842.229092	0.408347
842.416942	0.408800
842.604774	0.409194
842.792588	0.409433
842.980383	0.409314
843.168160	0.410132
843.355919	0.410625
843.543660	0.410916
843.731382	0.411205
843.919087	0.411561
844.106773	0.412622
844.294441	0.413292
844.482090	0.414037
844.669722	0.415018
844.857335	0.415254
845.044930	0.416168
845.232507	0.416789
845.420065	0.417718
845.607605	0.418320
845.795127	0.418344
845.982631	0.418554
846.170117	0.419164
846.357584	0.419550
846.545033	0.419399
846.732464	0.420126
846.919877	0.420508
847.107272	0.420982
847.294648	0.421542
847.482006	0.422386
847.669346	0.422924
847.856667	0.422902
848.043971	0.423362
848.231256	0.424337
848.418523	0.424569
848.605771	0.425061
848.793002	0.425375
848.980214	0.425498
849.167408	0.425699
849.354584	0.426222
849.541742	0.426987
849.728881	0.427824
849.916002	0.428552
850.103105	0.428574
850.290190	0.429039
850.477256	0.429605
850.664304	0.430041
850.851334	0.430450
851.038346	0.430792
851.225340	0.431225
851.412315	0.431133
851.599272	0.431373
851.786211	0.432070
851.973132	0.432609
852.160034	0.432927
852.346918	0.433609
852.533784	0.434410
852.720632	0.434704
852.907462	0.434860
853.094273	0.435140
853.281066	0.435430
853.467841	0.435796
853.654598	0.435984
853.841336	0.436771
854.028056	0.436843
854.214758	0.436865
854.401442	0.437723
854.588107	0.438723
854.774755	0.439698
854.961384	0.440384
855.147995	0.440943
855.334587	0.441708
855.521162	0.441905
855.707718	0.442973
855.894256	0.443433
856.080775	0.443598
856.267277	0.443701
856.453760	0.444274
856.640225	0.444445
856.826672	0.444830
857.013101	0.445007
857.199511	0.445340
857.385903	0.445453
857.572277	0.445775
857.758633	0.446152
857.944970	0.446421
858.131290	0.446452
858.317591	0.446905
858.503873	0.447501
858.690138	0.447781
858.876384	0.448294
859.062612	0.448739
859.248822	0.449397
859.435014	0.450141
859.621188	0.451061
859.807343	0.451774
859.993480	0.452338
860.179599	0.452369
860.365699	0.453032
860.551781	0.453251
860.737846	0.453888
860.923891	0.454195
861.109919	0.454568
861.295929	0.454526
861.481920	0.454491
861.667893	0.454821
861.853848	0.455412
862.039784	0.455661
862.225702	0.455993
862.411603	0.456214
862.597484	0.456935
862.783348	0.456867
862.969193	0.457279
863.155021	0.457873
863.340830	0.457784
863.526620	0.457955
863.712393	0.458170
863.898147	0.458751
864.083883	0.458761
864.269601	0.458932
864.455301	0.459870
864.640982	0.460082
864.826645	0.460234
865.012290	0.460814
865.197917	0.461598
865.383526	0.462078
865.569116	0.462374
865.754688	0.462682
865.940242	0.462808
866.125777	0.462514
866.311295	0.462924
866.496794	0.463219
866.682275	0.463860
866.867737	0.463776
867.053182	0.464001
867.238608	0.464268
867.424016	0.465003
867.609406	0.465219
867.794778	0.466177
867.980131	0.466396
868.165466	0.466501
868.350783	0.466902
868.536082	0.467012
868.721362	0.467759
868.906625	0.467844
869.091869	0.468002
869.277094	0.468251
869.462302	0.468324
869.647491	0.469139
869.832662	0.469621
870.017815	0.470147
870.202950	0.471001
870.388066	0.471046
870.573165	0.471862
870.758245	0.472028
870.943306	0.472307
871.128350	0.472044
871.313375	0.472371
871.498382	0.473021
871.683371	0.472869
871.868342	0.473073
872.053294	0.474028
872.238229	0.474305
872.423144	0.474795
872.608042	0.475095
872.792922	0.476325
872.977783	0.476352
873.162626	0.477012
873.347451	0.477773
873.532258	0.477781
873.717046	0.477426
873.901816	0.477692
874.086568	0.478550
874.271302	0.479025
874.456017	0.479218
874.640715	0.479735
874.825394	0.479302
875.010055	0.479480
875.194697	0.479634
875.379322	0.479789
875.563928	0.479745
875.748516	0.479210
875.933085	0.479742
876.117637	0.479584
876.302170	0.480064
876.486685	0.480600
876.671182	0.480493
876.855661	0.481207
877.040121	0.481810
877.224563	0.482036
877.408987	0.482436
877.593393	0.482358
877.777780	0.482908
877.962150	0.483032
878.146501	0.483199
878.330833	0.483223
878.515148	0.483439
878.699444	0.483502
878.883722	0.484202
879.067982	0.484497
879.252224	0.484938
879.436447	0.485017
879.620653	0.484585
879.804840	0.485006
879.989008	0.485235
880.173159	0.485241
880.357291	0.485335
880.541405	0.485343
880.725501	0.485478
880.909579	0.485281
881.093638	0.485920
881.277680	0.486156
881.461703	0.485769
881.645707	0.486226
881.829694	0.486780
882.013662	0.486700
882.197612	0.486722
882.381544	0.486746
882.565458	0.487230
882.749353	0.486722
882.933230	0.487074
883.117089	0.487599
883.300930	0.487204
883.484753	0.486849
883.668557	0.487162
883.852343	0.487233
884.036111	0.487411
884.219861	0.487315
884.403592	0.487804
884.587305	0.487493
884.771000	0.487719
884.954677	0.487991
885.138335	0.488069
885.321976	0.488330
885.505598	0.488091
885.689201	0.487973
885.872787	0.487911
886.056354	0.487452
886.239904	0.487547
886.423434	0.487625
886.606947	0.488052
886.790442	0.488388
886.973918	0.488418
887.157376	0.488394
887.340816	0.488961
887.524237	0.489302
887.707641	0.489857
887.891026	0.490474
888.074393	0.490531
888.257741	0.490375
888.441072	0.490453
888.624384	0.490224
888.807678	0.490981
888.990954	0.490666
889.174211	0.489958
889.357451	0.489357
889.540672	0.489043
889.723875	0.489156
889.907059	0.489281
890.090226	0.488773
890.273374	0.488559
890.456504	0.488465
890.639616	0.488814
890.822709	0.488976
891.005785	0.489064
891.188842	0.489231
891.371881	0.489098
891.554901	0.489021
891.737904	0.489068
891.920888	0.489552
892.103854	0.488938
892.286802	0.488125
892.469731	0.488567
892.652643	0.488404
892.835536	0.487918
893.018410	0.487423
893.201267	0.487122
893.384106	0.486958
893.566926	0.486854
893.749728	0.486786
893.932511	0.486722
894.115277	0.486140
894.298024	0.485927
894.480753	0.485666
894.663464	0.485099
894.846157	0.484673
895.028831	0.484582
895.211487	0.483955
895.394125	0.484144
895.576745	0.484678
895.759346	0.484936
895.941930	0.484875
896.124495	0.484861
896.307041	0.485474
896.489570	0.485338
896.672080	0.485467
896.854573	0.485678
897.037046	0.485746
897.219502	0.484865
897.401940	0.484613
897.584359	0.484829
897.766760	0.484620
897.949143	0.484620
898.131507	0.484964
898.313854	0.484316
898.496182	0.484136
898.678492	0.483439
898.860783	0.483319
899.043057	0.483082
899.225312	0.482816
899.407549	0.482439
899.589768	0.481104
899.771968	0.480431
899.954151	0.480345
900.136315	0.480050
900.318461	0.480348
900.500588	0.480301
900.682698	0.479707
900.864789	0.479486
901.046862	0.479078
901.228917	0.479362
901.410953	0.478643
901.592971	0.478185
901.774972	0.476912
901.956953	0.475874
902.138917	0.475400
902.320862	0.475134
902.502790	0.474705
902.684699	0.475134
902.866589	0.475056
903.048462	0.475714
903.230316	0.475955
903.412152	0.476072
903.593970	0.475744
903.775770	0.475632
903.957551	0.474885
904.139314	0.474415
904.321059	0.474445
904.502786	0.473796
904.684494	0.473256
904.866185	0.472989
905.047857	0.473446
905.229510	0.472592
905.411146	0.472215
905.592763	0.472077
905.774363	0.470783
905.955943	0.469975
906.137506	0.469971
906.319051	0.469223
906.500577	0.468456
906.682085	0.466729
906.863575	0.467213
907.045046	0.466613
907.226500	0.466376
907.407935	0.467126
907.589352	0.466453
907.770750	0.465347
907.952131	0.465513
908.133493	0.465107
908.314837	0.465349
908.496163	0.464643
908.677470	0.463897
908.858760	0.463734
909.040031	0.462332
909.221284	0.461929
909.402518	0.461624
909.583735	0.460780
909.764933	0.460500
909.946113	0.459415
910.127275	0.458977
910.308418	0.458903
910.489544	0.458320
910.670651	0.458548
910.851740	0.457822
911.032810	0.457951
911.213863	0.457488
911.394897	0.456324
911.575913	0.456599
911.756911	0.456148
911.937890	0.454858
912.118851	0.454509
912.299794	0.453510
912.480719	0.452748
912.661626	0.451297
912.842514	0.451055
913.023384	0.450725
913.204236	0.449811
913.385070	0.448995
913.565886	0.449550
913.746683	0.448638
913.927462	0.448363
914.108223	0.447756
914.288965	0.447277
914.469690	0.446180
914.650396	0.444942
914.831084	0.444212
915.011754	0.444100
915.192405	0.442798
915.373038	0.441929
915.553653	0.441486
915.734250	0.441112
915.914829	0.441178
916.095389	0.440141
916.275931	0.439954
916.456455	0.439228
916.636961	0.438379
916.817448	0.438016
916.997917	0.437208
917.178368	0.436103
917.358801	0.435376
917.539216	0.433860
917.719612	0.432892
917.899990	0.431638
918.080350	0.431285
918.260692	0.429724
918.441015	0.428333
918.621320	0.427297
918.801607	0.426516
918.981876	0.425669
919.162127	0.425198
919.342359	0.424877
919.522573	0.424843
919.702769	0.424027
919.882947	0.423686
920.063106	0.422968
920.243247	0.422258
920.423370	0.421376
920.603475	0.420758
920.783562	0.420095
920.963630	0.419124
921.143680	0.419272
921.323712	0.419062
921.503725	0.418044
921.683721	0.418102
921.863698	0.417935
922.043657	0.417494
922.223598	0.416796
922.403520	0.415899
922.583424	0.415318
922.763311	0.413576
922.943178	0.411953
923.123028	0.411674
923.302859	0.409934
923.482673	0.408655
923.662467	0.407234
923.842244	0.405647
924.022003	0.404238
924.201743	0.403907
924.381465	0.403185
924.561169	0.402874
924.740854	0.401817
924.920522	0.401503
925.100171	0.400441
925.279802	0.400771
925.459414	0.400452
925.639009	0.400024
925.818585	0.398270
925.998143	0.397575
926.177683	0.396864
926.357205	0.395946
926.536708	0.395083
926.716193	0.394727
926.895660	0.392497
927.075109	0.391256
927.254539	0.390603
927.433951	0.390242
927.613345	0.388799
927.792721	0.387164
927.972079	0.385890
928.151418	0.384259
928.330739	0.383453
928.510042	0.382883
928.689327	0.381646
928.868593	0.380121
929.047841	0.378696
929.227071	0.377671
929.406283	0.376389
929.585476	0.375200
929.764652	0.375010
929.943809	0.372949
930.122948	0.371709
930.302068	0.371451
930.481171	0.370132
930.660255	0.368474
930.839321	0.367643
931.018369	0.366715
931.197398	0.366492
931.376409	0.364769
931.555402	0.364433
931.734377	0.363457
931.913334	0.362357
932.092272	0.361365
932.271192	0.360763
932.450094	0.360023
932.628978	0.358640
932.807844	0.357483
932.986691	0.356468
933.165520	0.355101
933.344331	0.354077
933.523123	0.352359
933.701898	0.353061
933.880654	0.352882
934.059392	0.351019
934.238111	0.350004
934.416813	0.348939
934.595496	0.348272
934.774161	0.346894
934.952808	0.345675
935.131437	0.344468
935.310047	0.342217
935.488639	0.340535
935.667213	0.339712
935.845769	0.339440
936.024306	0.337151
936.202825	0.335931
936.381326	0.335789
936.559809	0.334355
936.738274	0.332686
936.916720	0.331073
937.095148	0.329118
937.273558	0.327656
937.451950	0.326047
937.630323	0.325676
937.808678	0.323958
937.987015	0.321717
938.165334	0.320980
938.343635	0.320552
938.521917	0.319919
938.700181	0.319638
938.878427	0.318382
939.056655	0.317177
939.234864	0.315893
939.413055	0.314672
939.591228	0.313597
939.769383	0.312951
939.947519	0.310986
940.125638	0.308469
940.303738	0.307483
940.481820	0.306373
940.659883	0.305058
940.837929	0.303101
941.015956	0.301474
941.193965	0.300128
941.371955	0.298209
941.549928	0.297103
941.727882	0.295275
941.905818	0.293644
942.083736	0.291100
942.261636	0.289402
942.439517	0.288887
942.617380	0.289699
942.795225	0.289119
942.973052	0.286752
943.150860	0.286173
943.328651	0.286950
943.506423	0.285880
943.684176	0.285887
943.861912	0.284355
944.039629	0.282865
944.217328	0.280740
944.395009	0.279011
944.572672	0.279249
944.750317	0.277765
944.927943	0.275081
945.105551	0.272341
945.283141	0.271192
945.460712	0.270135
945.638265	0.269264
945.815801	0.267651
945.993317	0.266713
946.170816	0.262955
946.348297	0.261627
946.525759	0.260378
946.703203	0.258396
946.880629	0.257175
947.058036	0.256544
947.235425	0.254768
947.412797	0.252311
947.590149	0.251142
947.767484	0.252133
947.944800	0.251169
948.122099	0.250764
948.299379	0.251952
948.476640	0.249451
948.653884	0.247130
948.831109	0.245988
949.008316	0.244558
949.185505	0.243012
949.362676	0.239944
949.539828	0.239030
949.716962	0.236957
949.894078	0.235678
950.071176	0.235414
950.248256	0.234647
950.425317	0.233279
950.602360	0.232606
950.779385	0.231102
950.956391	0.229029
951.133380	0.226889
951.310350	0.225978
951.487302	0.224012
951.664235	0.221555
951.841151	0.220763
952.018048	0.218827
952.194927	0.217563
952.371788	0.215192
952.548631	0.215748
952.725455	0.216022
952.902261	0.213494
953.079049	0.211395
953.255819	0.211034
953.432570	0.208384
953.609303	0.206986
953.786018	0.206041
953.962715	0.206173
954.139394	0.204098
954.316054	0.202658
954.492696	0.202547
954.669320	0.201139
954.845926	0.198989
955.022513	0.198730
955.199083	0.197761
955.375634	0.198253
955.552166	0.196827
955.728681	0.195244
955.905177	0.193229
956.081655	0.191818
956.258115	0.192807
956.434557	0.192767
956.610980	0.190772
956.787385	0.189507
956.963772	0.185759
957.140141	0.182339
957.316492	0.183509
957.492824	0.180715
957.669138	0.181354
957.845434	0.176917
958.021712	0.176822
958.197971	0.177252
958.374212	0.176799
958.550435	0.176871
958.726640	0.177300
958.902826	0.176865
959.078995	0.176889
959.255145	0.176664
959.431277	0.179674
959.607390	0.178897
959.783486	0.177277
959.959563	0.176025
960.135622	0.176025
960.311662	0.176681
960.487685	0.177583
960.663689	0.177246
960.839675	0.175225
961.015643	0.173845
961.191593	0.172428
961.367524	0.172859
961.543437	0.173013
961.719332	0.171068
961.895209	0.172737
962.071067	0.169746
962.246907	0.168211
962.422730	0.166819
962.598533	0.164882
962.774319	0.163082
962.950086	0.161309
963.125835	0.160271
963.301566	0.159242
963.477279	0.156011
963.652973	0.156518
963.828650	0.156400
964.004308	0.156879
964.179947	0.156530
964.355569	0.156294
964.531172	0.158206
964.706757	0.158195
964.882324	0.158913
965.057873	0.157572
965.233403	0.155752
965.408916	0.156137
965.584410	0.154722
965.759885	0.155867
965.935343	0.155811
966.110782	0.155563
966.286203	0.158497
966.461606	0.159061
966.636991	0.162460
966.812357	0.162451
966.987705	0.162478
967.163035	0.163990
967.338347	0.161155
967.513641	0.161753
967.688916	0.159806
967.864173	0.156319
968.039412	0.156322
968.214632	0.154859
968.389835	0.155547
968.565019	0.157353
968.740185	0.158609
968.915333	0.159972
969.090462	0.159443
969.265573	0.158946
969.440667	0.159355
969.615741	0.158291
969.790798	0.158680
969.965836	0.158685
970.140856	0.154600
970.315858	0.152762
970.490842	0.153021
970.665808	0.151887
970.840755	0.151811
971.015684	0.151512
971.190595	0.151089
971.365487	0.150697
971.540362	0.148794
971.715218	0.150433
971.890056	0.150233
972.064875	0.149987
972.239677	0.152093
972.414460	0.152851
972.589225	0.151761
972.763972	0.151476
972.938700	0.150522
973.113411	0.151276
973.288103	0.150807
973.462777	0.150059
973.637432	0.152034
973.812070	0.152528
973.986689	0.154896
974.161290	0.156564
974.335873	0.157416
974.510437	0.158899
974.684984	0.159921
974.859512	0.162869
975.034022	0.163327
975.208513	0.158699
975.382987	0.156159
975.557442	0.155203
975.731879	0.155204
975.906298	0.153387
976.080698	0.152719
976.255080	0.151742
976.429445	0.149975
976.603790	0.151541
976.778118	0.155415
976.952427	0.156892
977.126719	0.156266
977.300992	0.155491
977.475246	0.157294
977.649483	0.157493
977.823701	0.157634
977.997901	0.156492
978.172083	0.154921
978.346247	0.155000
978.520392	0.154731
978.694519	0.154199
978.868628	0.153947
979.042719	0.153089
979.216791	0.151490
979.390845	0.152977
979.564882	0.154167
979.738899	0.154408
979.912899	0.152058
980.086880	0.152031
980.260843	0.152896
980.434788	0.151350
980.608715	0.151918
980.782623	0.151169
980.956514	0.149679
981.130386	0.147488
981.304240	0.147585
981.478075	0.147532
981.651892	0.147798
981.825692	0.146174
981.999472	0.147893
982.173235	0.150916
982.346980	0.152151
982.520706	0.152786
982.694414	0.154384
982.868104	0.153906
983.041775	0.155302
983.215428	0.154589
983.389064	0.156088
983.562680	0.157345
983.736279	0.154796
983.909860	0.154675
984.083422	0.154863
984.256966	0.155996
984.430491	0.157818
984.603999	0.157720
984.777488	0.156743
984.950959	0.157263
985.124412	0.156768
985.297847	0.156825
985.471263	0.156927
985.644661	0.157537
985.818041	0.156057
985.991403	0.155201
986.164747	0.156825
986.338072	0.159434
986.511379	0.159962
986.684668	0.158618
986.857938	0.158624
987.031191	0.160026
987.204425	0.159389
987.377641	0.160025
987.550839	0.158609
987.724018	0.158957
987.897179	0.158732
988.070322	0.157495
988.243447	0.158723
988.416554	0.159386
988.589642	0.160190
988.762712	0.159702
988.935764	0.157850
989.108798	0.158888
989.281813	0.156844
989.454811	0.157404
989.627790	0.157625
989.800751	0.157620
989.973693	0.158059
990.146617	0.157163
990.319524	0.158715
990.492412	0.160043
990.665281	0.158975
990.838133	0.160616
991.010966	0.161082
991.183781	0.161617
991.356578	0.162298
991.529356	0.161579
991.702117	0.160925
991.874859	0.160129
992.047583	0.159488
992.220288	0.160558
992.392976	0.159056
992.565645	0.158024
992.738296	0.155426
992.910929	0.153258
993.083543	0.153924
993.256139	0.155215
993.428718	0.155395
993.601277	0.157281
993.773819	0.156983
993.946342	0.158232
994.118848	0.158092
994.291335	0.160220
994.463803	0.161358
994.636254	0.160408
994.808686	0.159770
994.981100	0.157404
995.153496	0.156143
995.325874	0.157341
995.498233	0.155327
995.670574	0.155232
995.842897	0.153242
996.015202	0.153188
996.187488	0.152612
996.359757	0.150222
996.532007	0.154779
996.704239	0.156172
996.876452	0.156514
997.048648	0.157690
997.220825	0.158287
997.392984	0.160613
997.565124	0.160682
997.737247	0.161697
997.909351	0.162467
998.081437	0.157656
998.253505	0.157275
998.425554	0.155773
998.597586	0.156688
998.769599	0.157667
998.941594	0.156221
999.113571	0.155908
999.285529	0.154325
999.457469	0.154917
999.629391	0.156251
999.801295	0.155607
999.973181	0.155609
1000.145048	0.155825
1000.316897	0.154732
1000.488728	0.154619
1000.660541	0.156375
1000.832335	0.157102
1001.004111	0.158268
1001.175869	0.159970
1001.347609	0.161627
1001.519331	0.163478
1001.691034	0.163261
1001.862719	0.162887
1002.034386	0.164425
1002.206035	0.162978
1002.377665	0.165091
1002.549277	0.162805
1002.720871	0.160283
1002.892447	0.160197
1003.064004	0.159178
1003.235544	0.159034
1003.407065	0.157877
1003.578568	0.155962
1003.750052	0.156303
1003.921519	0.154003
1004.092967	0.154062
1004.264397	0.154139
1004.435809	0.151917
1004.607202	0.152210
1004.778577	0.149988
1004.949934	0.150891
1005.121273	0.151403
1005.292594	0.151399
1005.463896	0.151841
1005.635180	0.152541
1005.806446	0.154320
1005.977694	0.155244
1006.148923	0.154984
1006.320135	0.155895
1006.491328	0.156029
1006.662503	0.156573
1006.833659	0.154219
1007.004798	0.154960
1007.175918	0.155945
1007.347020	0.156112
1007.518103	0.157058
1007.689169	0.155743
1007.860216	0.156064
1008.031245	0.155984
1008.202256	0.156688
1008.373248	0.161674
1008.544223	0.161686
1008.715179	0.161191
1008.886117	0.161621
1009.057036	0.161018
1009.227938	0.163124
1009.398821	0.163794
1009.569686	0.163484
1009.740533	0.161668
1009.911361	0.159151
1010.082172	0.157574
1010.252964	0.157926
1010.423738	0.157905
1010.594493	0.156487
1010.765231	0.156806
1010.935950	0.155469
1011.106651	0.155879
1011.277334	0.156675
1011.447998	0.155885
1011.618645	0.156851
1011.789273	0.156539
1011.959882	0.156297
1012.130474	0.157915
1012.301048	0.156327
1012.471603	0.155941
1012.642140	0.156881
1012.812658	0.158086
1012.983159	0.158601
1013.153641	0.158828
1013.324105	0.159226
1013.494551	0.158734
1013.664979	0.157415
1013.835388	0.155686
1014.005779	0.157100
1014.176152	0.157699
1014.346507	0.157261
1014.516843	0.156236
1014.687162	0.155639
1014.857462	0.153908
1015.027744	0.152468
1015.198007	0.153423
1015.368252	0.155334
1015.538480	0.154532
1015.708689	0.153045
1015.878879	0.153543
1016.049052	0.153137
1016.219206	0.154427
1016.389342	0.155228
1016.559460	0.157311
1016.729559	0.156085
1016.899641	0.155605
1017.069704	0.153886
1017.239749	0.152642
1017.409775	0.150630
1017.579784	0.152307
1017.749774	0.152560
1017.919746	0.154645
1018.089700	0.151901
1018.259635	0.152410
1018.429553	0.153550
1018.599452	0.155479
1018.769333	0.155182
1018.939195	0.155076
1019.109040	0.155072
1019.278866	0.153129
1019.448674	0.152499
1019.618464	0.154016
1019.788235	0.154157
1019.957989	0.154032
1020.127724	0.153764
1020.297441	0.155544
1020.467139	0.158185
1020.636820	0.158437
1020.806482	0.159566
1020.976126	0.157190
1021.145752	0.158067
1021.315359	0.156304
1021.484948	0.155284
1021.654519	0.155188
1021.824072	0.154060
1021.993607	0.152397
1022.163123	0.151070
1022.332621	0.149498
1022.502101	0.152654
1022.671563	0.150674
1022.841007	0.153154
1023.010432	0.152930
1023.179839	0.155795
1023.349228	0.155582
1023.518598	0.155496
1023.687951	0.155668
1023.857285	0.157001
1024.026601	0.153726
1024.195899	0.154897
1024.365178	0.153555
1024.534439	0.153739
1024.703682	0.149973
1024.872907	0.151598
1025.042114	0.151930
1025.211302	0.154145
1025.380472	0.152443
1025.549624	0.154207
1025.718758	0.154380
1025.887873	0.154727
1026.056970	0.154259
1026.226049	0.155962
1026.395110	0.155047
1026.564153	0.154498
1026.733177	0.153241
1026.902183	0.154288
1027.071171	0.153022
1027.240141	0.152633
1027.409092	0.154020
1027.578026	0.154870
1027.746940	0.152765
1027.915837	0.153195
1028.084716	0.153290
1028.253576	0.152907
1028.422418	0.153842
1028.591242	0.155690
1028.760048	0.155923
1028.928835	0.154778
1029.097604	0.152591
1029.266355	0.153646
1029.435088	0.153287
1029.603803	0.151425
1029.772499	0.149669
1029.941177	0.148794
1030.109837	0.147313
1030.278478	0.147619
1030.447102	0.148105
1030.615707	0.149461
1030.784294	0.152833
1030.952863	0.153587
1031.121413	0.157435
1031.289945	0.158263
1031.458460	0.158271
1031.626955	0.158430
1031.795433	0.158621
1031.963892	0.158317
1032.132334	0.159367
1032.300756	0.155172
1032.469161	0.153341
1032.637548	0.151359
1032.805916	0.152106
1032.974266	0.152018
1033.142598	0.150840
1033.310911	0.151337
1033.479207	0.151192
1033.647484	0.152072
1033.815743	0.155828
1033.983983	0.158370
1034.152206	0.158594
1034.320410	0.160129
1034.488596	0.161405
1034.656764	0.163421
1034.824914	0.161134
1034.993045	0.160942
1035.161158	0.159884
1035.329253	0.157946
1035.497330	0.155947
1035.665388	0.156764
1035.833428	0.154028
1036.001450	0.151516
1036.169454	0.150144
1036.337440	0.151576
1036.505407	0.152982
1036.673356	0.153355
1036.841287	0.151652
1037.009200	0.150908
1037.177094	0.149850
1037.344970	0.151640
1037.512828	0.153614
1037.680668	0.153917
1037.848489	0.153242
1038.016293	0.151049
1038.184078	0.150328
1038.351845	0.150675
1038.519593	0.151781
1038.687324	0.152731
1038.855036	0.153857
1039.022730	0.153282
1039.190406	0.153918
1039.358063	0.154799
1039.525702	0.154938
1039.693323	0.152272
1039.860926	0.152377
1040.028511	0.152647
1040.196077	0.151075
1040.363625	0.148909
1040.531155	0.150563
1040.698667	0.151165
1040.866161	0.151164
1041.033636	0.150789
1041.201093	0.153524
1041.368532	0.154706
1041.535952	0.154628
1041.703355	0.155746
1041.870739	0.155867
1042.038105	0.155247
1042.205452	0.154332
1042.372782	0.153336
1042.540093	0.152798
1042.707386	0.152589
1042.874661	0.152668
1043.041918	0.152482
1043.209156	0.152242
1043.376376	0.152577
1043.543578	0.152130
1043.710762	0.152306
1043.877927	0.152534
1044.045074	0.151927
1044.212203	0.151492
1044.379314	0.151396
1044.546407	0.149330
1044.713481	0.149932
1044.880537	0.149823
1045.047575	0.147828
1045.214595	0.147739
1045.381596	0.148787
1045.548579	0.151509
1045.715544	0.152524
1045.882491	0.149256
1046.049420	0.149817
1046.216330	0.149743
1046.383222	0.149871
1046.550096	0.150562
1046.716951	0.150033
1046.883789	0.148933
1047.050608	0.148224
1047.217409	0.148762
1047.384192	0.151590
1047.550956	0.152245
1047.717703	0.151787
1047.884431	0.151664
1048.051140	0.151234
1048.217832	0.152711
1048.384505	0.153524
1048.551161	0.153525
1048.717798	0.154744
1048.884416	0.154245
1049.051017	0.154783
1049.217599	0.152920
1049.384163	0.151131
1049.550709	0.152340
1049.717237	0.152939
1049.883746	0.152562
1050.050237	0.153650
1050.216710	0.150524
1050.383165	0.151405
1050.549601	0.152294
1050.716019	0.152010
1050.882420	0.154332
1051.048801	0.152183
1051.215165	0.150992
1051.381510	0.152226
1051.547837	0.152025
1051.714146	0.152152
1051.880437	0.151526
1052.046709	0.150934
1052.212964	0.150877
1052.379200	0.149331
1052.545417	0.151071
1052.711617	0.151392
1052.877798	0.151118
1053.043961	0.152526
1053.210106	0.151208
1053.376233	0.150595
1053.542341	0.151533
1053.708432	0.153556
1053.874504	0.153817
1054.040557	0.153115
1054.206593	0.151232
1054.372610	0.149417
1054.538609	0.146462
1054.704590	0.146304
1054.870553	0.147206
1055.036497	0.146056
1055.202424	0.146368
1055.368331	0.147376
1055.534221	0.148274
1055.700093	0.148973
1055.865946	0.149402
1056.031781	0.152087
1056.197598	0.155508
1056.363397	0.156323
1056.529177	0.157843
1056.694939	0.157744
1056.860683	0.156764
1057.026409	0.158577
1057.192116	0.158998
1057.357806	0.160469
1057.523477	0.158007
1057.689130	0.155710
1057.854764	0.155108
1058.020381	0.153498
1058.185979	0.152319
1058.351559	0.154454
1058.517120	0.154021
1058.682664	0.153794
1058.848189	0.152897
1059.013696	0.154492
1059.179185	0.155675
1059.344656	0.155502
1059.510108	0.156197
1059.675542	0.156843
1059.840958	0.155537
1060.006356	0.153475
1060.171735	0.155355
1060.337096	0.156380
1060.502439	0.156241
1060.667764	0.155051
1060.833071	0.156403
1060.998359	0.155116
1061.163629	0.156356
1061.328881	0.158683
1061.494115	0.157173
1061.659330	0.157293
1061.824527	0.154980
1061.989706	0.154285
1062.154867	0.154244
1062.320010	0.150402
1062.485134	0.151478
1062.650240	0.150772
1062.815328	0.148364
1062.980398	0.151053
1063.145449	0.149156
1063.310482	0.151040
1063.475497	0.151171
1063.640494	0.152830
1063.805473	0.155810
1063.970433	0.156095
1064.135375	0.156968
1064.300299	0.156922
1064.465204	0.156491
1064.630092	0.158483
1064.794961	0.157561
1064.959812	0.156264
1065.124645	0.153353
1065.289459	0.152027
1065.454256	0.152661
1065.619034	0.152282
1065.783793	0.151683
1065.948535	0.151033
1066.113258	0.148351
1066.277964	0.149304
1066.442651	0.151118
1066.607319	0.154282
1066.771970	0.155490
1066.936602	0.154265
1067.101216	0.154224
1067.265812	0.153521
1067.430389	0.153011
1067.594949	0.151908
1067.759490	0.148524
1067.924013	0.148002
1068.088518	0.146279
1068.253004	0.144543
1068.417472	0.146383
1068.581922	0.148041
1068.746354	0.148273
1068.910768	0.148167
1069.075163	0.149963
1069.239540	0.152161
1069.403899	0.153388
1069.568240	0.154179
1069.732562	0.155448
1069.896866	0.153822
1070.061152	0.152826
1070.225420	0.155116
1070.389670	0.156473
1070.553901	0.157457
1070.718114	0.157368
1070.882309	0.158328
1071.046486	0.158831
1071.210644	0.160451
1071.374784	0.158457
1071.538906	0.157302
1071.703010	0.155440
1071.867096	0.157438
1072.031163	0.156760
1072.195212	0.156406
1072.359243	0.154846
1072.523256	0.156639
1072.687250	0.154563
1072.851226	0.159312
1073.015184	0.159360
1073.179124	0.158817
1073.343045	0.156181
1073.506949	0.157488
1073.670834	0.160568
1073.834701	0.159994
1073.998549	0.155485
1074.162380	0.156297
1074.326192	0.152185
1074.489986	0.152018
1074.653761	0.153395
1074.817519	0.154836
1074.981258	0.153414
1075.144979	0.151289
1075.308682	0.149525
1075.472367	0.153972
1075.636033	0.153182
1075.799681	0.154313
1075.963311	0.154903
1076.126923	0.153200
1076.290516	0.152009
1076.454092	0.152321
1076.617649	0.150941
1076.781187	0.153169
1076.944708	0.149770
1077.108210	0.151389
1077.271695	0.152656
1077.435160	0.152444
1077.598608	0.154150
1077.762038	0.155096
1077.925449	0.155935
1078.088842	0.158089
1078.252217	0.157797
1078.415573	0.157503
1078.578912	0.158534
1078.742232	0.157005
1078.905534	0.159987
1079.068817	0.160350
1079.232083	0.158397
1079.395330	0.157878
1079.558559	0.156510
1079.721770	0.155754
1079.884962	0.157781
1080.048136	0.158631
1080.211293	0.160350
1080.374430	0.159432
1080.537550	0.157976
1080.700651	0.160787
1080.863735	0.159946
1081.026800	0.160716
1081.189846	0.161136
1081.352875	0.161834
1081.515885	0.162627
1081.678877	0.162716
1081.841851	0.164586
1082.004807	0.167336
1082.167744	0.167875
1082.330663	0.169716
1082.493564	0.171652
1082.656447	0.171966
1082.819312	0.172695
1082.982158	0.169163
1083.144986	0.170466
1083.307796	0.164725
1083.470587	0.164053
1083.633361	0.162528
1083.796116	0.161320
1083.958853	0.162030
1084.121571	0.161670
1084.284272	0.162368
1084.446954	0.162864
1084.609618	0.161896
1084.772264	0.165098
1084.934892	0.165617
1085.097501	0.164724
1085.260092	0.165989
1085.422665	0.162750
1085.585220	0.164834
1085.747756	0.162922
1085.910274	0.162728
1086.072774	0.161708
1086.235256	0.159094
1086.397720	0.159788
1086.560165	0.160893
1086.722592	0.161815
1086.885001	0.162876
1087.047392	0.164343
1087.209764	0.164880
1087.372119	0.166629
1087.534455	0.166122
1087.696772	0.166456
1087.859072	0.165487
1088.021353	0.167498
1088.183616	0.166570
1088.345861	0.165646
1088.508088	0.162826
1088.670296	0.164136
1088.832486	0.162820
1088.994658	0.163410
1089.156812	0.164336
1089.318948	0.164070
1089.481065	0.162099
1089.643164	0.160927
1089.805245	0.161775
1089.967308	0.161693
1090.129352	0.157404
1090.291378	0.158592
1090.453386	0.160663
1090.615376	0.160056
1090.777347	0.161168
1090.939301	0.160379
1091.101236	0.161224
1091.263153	0.162840
1091.425051	0.162345
1091.586932	0.166384
1091.748794	0.161675
1091.910638	0.160532
1092.072463	0.162641
1092.234271	0.161274
1092.396060	0.164237
1092.557831	0.165408
1092.719584	0.164678
1092.881319	0.163912
1093.043035	0.159679
1093.204733	0.161879
1093.366413	0.161758
1093.528075	0.163580
1093.689718	0.163469
1093.851343	0.162344
1094.012950	0.161485
1094.174539	0.161776
1094.336110	0.162107
1094.497662	0.165666
1094.659196	0.166189
1094.820712	0.163179
1094.982210	0.158697
1095.143689	0.155998
1095.305151	0.156189
1095.466594	0.155198
1095.628018	0.157041
1095.789425	0.158197
1095.950813	0.157055
1096.112183	0.159271
1096.273535	0.162228
1096.434869	0.163239
1096.596184	0.165438
1096.757482	0.165321
1096.918761	0.166516
1097.080021	0.166095
1097.241264	0.167549
1097.402488	0.166810
1097.563694	0.165355
1097.724882	0.165023
1097.886052	0.169319
1098.047203	0.170227
1098.208336	0.171043
1098.369451	0.167891
1098.530548	0.163692
1098.691627	0.162603
1098.852687	0.162728
1099.013729	0.161107
1099.174753	0.159203
1099.335758	0.156983
1099.496746	0.159705
1099.657715	0.158050
1099.818666	0.161120
1099.979599	0.164607
1100.140513	0.163568
1100.301409	0.165542
1100.462287	0.169226
1100.623147	0.171997
1100.783989	0.170745
1100.944812	0.166994
1101.105617	0.165878
1101.266404	0.164273
1101.427173	0.161595
1101.587923	0.162094
1101.748656	0.158217
1101.909370	0.155605
1102.070066	0.155851
1102.230743	0.154871
1102.391403	0.156094
1102.552044	0.157475
1102.712667	0.156807
1102.873271	0.156203
1103.033858	0.154684
1103.194426	0.157692
1103.354976	0.158985
1103.515508	0.160314
1103.676021	0.160393
1103.836517	0.164246
1103.996994	0.163304
1104.157453	0.166739
1104.317893	0.168328
1104.478316	0.167273
1104.638720	0.167054
1104.799106	0.164320
1104.959474	0.161565
1105.119823	0.163949
1105.280155	0.160672
1105.440468	0.165737
1105.600763	0.165799
1105.761039	0.168878
1105.921298	0.172372
1106.081538	0.171564
1106.241760	0.174043
1106.401964	0.175365
1106.562149	0.173159
1106.722316	0.170406
1106.882465	0.161944
1107.042596	0.160953
1107.202709	0.159627
1107.362803	0.159621
1107.522879	0.161269
1107.682937	0.157963
1107.842977	0.153520
1108.002999	0.152777
1108.163002	0.154103
1108.322987	0.157582
1108.482954	0.159737
1108.642902	0.158161
1108.802833	0.156022
1108.962745	0.156437
1109.122639	0.158173
1109.282515	0.162193
1109.442372	0.161421
1109.602211	0.164012
1109.762032	0.161338
1109.921835	0.159901
1110.081620	0.157982
1110.241386	0.155833
1110.401134	0.157340
1110.560864	0.158577
1110.720576	0.160735
1110.880269	0.158815
1111.039945	0.159557
1111.199602	0.160393
1111.359240	0.157121
1111.518861	0.160250
1111.678463	0.166489
1111.838047	0.166773
1111.997613	0.166527
1112.157161	0.163322
1112.316690	0.171626
1112.476202	0.169684
1112.635695	0.170809
1112.795169	0.170431
1112.954626	0.167499
1113.114064	0.166843
1113.273484	0.162927
1113.432886	0.163960
1113.592270	0.164329
1113.751635	0.158038
1113.910983	0.156100
1114.070312	0.156341
1114.229622	0.158518
1114.388915	0.160702
1114.548189	0.156445
1114.707445	0.160838
1114.866683	0.162924
1115.025903	0.164230
1115.185104	0.170978
1115.344287	0.171809
1115.503452	0.174645
1115.662599	0.173697
1115.821727	0.176142
1115.980838	0.174901
1116.139930	0.174763
1116.299004	0.177124
1116.458059	0.178382
1116.617097	0.172909
1116.776116	0.170519
1116.935117	0.176829
1117.094099	0.179799
1117.253064	0.180395
1117.412010	0.184917
1117.570938	0.180634
1117.729848	0.174033
1117.888740	0.173016
1118.047613	0.173807
1118.206468	0.176626
1118.365305	0.167262
1118.524124	0.161514
1118.682924	0.158404
1118.841707	0.156526
1119.000471	0.152990
1119.159216	0.153612
1119.317944	0.151760
1119.476653	0.150470
1119.635344	0.149353
1119.794017	0.150825
1119.952672	0.159814
1120.111308	0.157542
1120.269927	0.159430
1120.428527	0.162327
1120.587108	0.160932
1120.745672	0.161528
1120.904217	0.163294
1121.062744	0.167558
1121.221253	0.167980
1121.379744	0.158514
1121.538216	0.158610
1121.696671	0.155695
1121.855107	0.156158
1122.013524	0.157269
1122.171924	0.156741
1122.330305	0.159560
1122.488668	0.154955
1122.647013	0.151944
1122.805340	0.153719
1122.963648	0.149672
1123.121938	0.149673
1123.280210	0.150324
1123.438464	0.148857
1123.596700	0.145464
1123.754917	0.142725
1123.913116	0.144300
1124.071297	0.145519
1124.229459	0.149696
1124.387604	0.150564
1124.545730	0.150021
1124.703838	0.148236
1124.861928	0.149199
1125.019999	0.153249
1125.178052	0.155738
1125.336088	0.154012
1125.494104	0.153859
1125.652103	0.156074
1125.810083	0.161632
1125.968045	0.161328
1126.125989	0.164224
1126.283915	0.162152
1126.441823	0.159599
1126.599712	0.156341
1126.757583	0.153239
1126.915436	0.157996
1127.073270	0.150697
1127.231087	0.151447
1127.388885	0.156709
1127.546665	0.153555
1127.704426	0.156360
1127.862170	0.161071
1128.019895	0.162052
1128.177602	0.162901
1128.335291	0.164151
1128.492961	0.165032
1128.650614	0.164016
1128.808248	0.161146
1128.965864	0.167734
1129.123461	0.169879
1129.281041	0.162213
1129.438602	0.161310
1129.596145	0.163190
1129.753670	0.161245
1129.911176	0.168135
1130.068665	0.167520
1130.226135	0.170506
1130.383587	0.163511
1130.541020	0.162265
1130.698436	0.162493
1130.855833	0.161254
1131.013212	0.165021
1131.170573	0.161571
1131.327915	0.158918
1131.485239	0.160682
1131.642545	0.161312
1131.799833	0.161336
1131.957103	0.160784
1132.114354	0.165817
1132.271588	0.164258
1132.428803	0.165054
1132.585999	0.161628
1132.743178	0.155397
1132.900338	0.149394
1133.057480	0.144519
1133.214604	0.143150
1133.371710	0.148278
1133.528797	0.149735
1133.685866	0.152233
1133.842917	0.148078
1133.999950	0.149407
1134.156964	0.151786
1134.313960	0.155284
1134.470938	0.157890
1134.627898	0.169713
1134.784840	0.164728
1134.941763	0.156809
1135.098668	0.154404
1135.255555	0.152188
1135.412424	0.150729
1135.569274	0.152264
1135.726107	0.152713
1135.882921	0.147872
1136.039716	0.142242
1136.196494	0.142735
1136.353253	0.144813
1136.509995	0.147570
1136.666717	0.149385
1136.823422	0.150804
1136.980109	0.151792
1137.136777	0.152834
1137.293427	0.155965
1137.450059	0.153919
1137.606672	0.154868
1137.763267	0.162135
1137.919844	0.156215
1138.076403	0.155376
1138.232944	0.156617
1138.389466	0.155683
1138.545971	0.150352
1138.702457	0.150871
1138.858924	0.145970
1139.015374	0.140346
1139.171805	0.131689
1139.328218	0.137957
1139.484613	0.134445
1139.640990	0.133486
1139.797348	0.137560
1139.953688	0.136908
1140.110010	0.143520
1140.266314	0.148209
1140.422600	0.152952
1140.578867	0.164777
1140.735116	0.160880
1140.891347	0.168751
1141.047559	0.167552
1141.203754	0.163926
1141.359930	0.174802
1141.516088	0.164130
1141.672228	0.163384
1141.828349	0.165412
1141.984452	0.159737
1142.140537	0.158720
1142.296604	0.153264
1142.452653	0.163460
1142.608683	0.164653
1142.764695	0.157399
1142.920689	0.158042
1143.076665	0.158594
1143.232622	0.154413
1143.388562	0.154673
1143.544483	0.158696
1143.700385	0.159533
1143.856270	0.149278
1144.012136	0.148545
1144.167985	0.150741
1144.323814	0.150037
1144.479626	0.144491
1144.635420	0.149839
1144.791195	0.150948
1144.946952	0.146520
1145.102691	0.147351
1145.258411	0.145072
1145.414113	0.144834
1145.569798	0.142595
1145.725463	0.143649
1145.881111	0.150529
1146.036741	0.141133
1146.192352	0.134500
1146.347945	0.139721
1146.503519	0.136607
1146.659076	0.143062
1146.814614	0.134552
1146.970134	0.137898
1147.125636	0.143866
1147.281120	0.136127
1147.436585	0.134136
1147.592032	0.141888
1147.747461	0.139055
1147.902872	0.146247
1148.058265	0.143061
1148.213639	0.145421
1148.368995	0.142392
1148.524333	0.131184
1148.679653	0.136710
1148.834954	0.135955
1148.990237	0.129360
1149.145502	0.127133
1149.300749	0.119435
1149.455977	0.123604
1149.611188	0.125138
1149.766380	0.122674
1149.921553	0.130050
1150.076709	0.132077
1150.231846	0.137055
1150.386966	0.133865
1150.542066	0.131693
1150.697149	0.138769
1150.852214	0.132143
1151.007260	0.132429
1151.162288	0.135907
1151.317298	0.133400
1151.472289	0.131843
1151.627263	0.134787
1151.782218	0.141852
1151.937155	0.148006
1152.092073	0.148307
1152.246974	0.149692
1152.401856	0.149426
1152.556720	0.141790
1152.711566	0.141671
1152.866393	0.139163
1153.021203	0.138929
1153.175994	0.140743
1153.330767	0.130530
1153.485521	0.125356
1153.640258	0.118950
1153.794976	0.124794
1153.949676	0.126965
1154.104358	0.131513
1154.259021	0.128411
1154.413667	0.120510
1154.568294	0.106244
1154.722903	0.110519
1154.877493	0.103191
1155.032066	0.110170
1155.186620	0.099099
1155.341156	0.101048
1155.495674	0.098331
1155.650173	0.097536
1155.804654	0.105456
1155.959118	0.120597
1156.113562	0.113146
1156.267989	0.128095
1156.422397	0.119569
1156.576788	0.127692
1156.731160	0.128077
1156.885513	0.129511
1157.039849	0.129831
1157.194166	0.128350
1157.348465	0.117876
1157.502746	0.124273
1157.657009	0.115445
1157.811253	0.128764
1157.965479	0.127310
1158.119687	0.122223
1158.273877	0.120532
1158.428048	0.121790
1158.582201	0.119480
1158.736337	0.128418
1158.890453	0.134418
1159.044552	0.135529
1159.198632	0.128941
1159.352694	0.125760
1159.506738	0.125588
1159.660764	0.125380
1159.814771	0.118098
1159.968761	0.116078
1160.122732	0.111826
1160.276685	0.105731
1160.430619	0.109632
1160.584535	0.104907
1160.738434	0.103100
1160.892313	0.110412
1161.046175	0.105782
1161.200019	0.109755
1161.353844	0.113001
1161.507651	0.107344
1161.661440	0.103886
1161.815210	0.099889
1161.968962	0.102075
1162.122697	0.103743
1162.276412	0.097604
1162.430110	0.096860
1162.583789	0.105731
1162.737451	0.102529
1162.891094	0.098041
1163.044718	0.099062
1163.198325	0.096867
1163.351913	0.093099
1163.505483	0.088643
1163.659035	0.087135
1163.812569	0.094601
1163.966084	0.090120
1164.119581	0.097547
1164.273060	0.109999
1164.426521	0.116882
1164.579964	0.106648
1164.733388	0.111786
1164.886794	0.116764
1165.040182	0.119957
1165.193551	0.118272
1165.346903	0.120895
1165.500236	0.105588
1165.653551	0.101337
1165.806848	0.104740
1165.960126	0.113355
1166.113386	0.109036
1166.266628	0.112223
1166.419852	0.122374
1166.573058	0.113323
1166.726245	0.109975
1166.879414	0.116543
1167.032565	0.115211
1167.185698	0.109754
1167.338812	0.119257
1167.491909	0.107524
1167.644987	0.108020
1167.798046	0.094833
1167.951088	0.094238
1168.104111	0.096429
1168.257117	0.107664
1168.410103	0.100719
1168.563072	0.100740
1168.716023	0.100005
1168.868955	0.112540
1169.021869	0.102245
1169.174765	0.096550
1169.327642	0.094581
1169.480501	0.084605
1169.633343	0.072336
1169.786165	0.080066
1169.938970	0.077398
1170.091757	0.073238
1170.244525	0.076495
1170.397275	0.082740
1170.550007	0.082807
1170.702720	0.088209
1170.855415	0.094586
1171.008092	0.099404
1171.160751	0.100872
1171.313392	0.105159
1171.466014	0.099909
1171.618619	0.123681
1171.771205	0.123681
1171.923772	0.123681
