sample name	sample
index	1040
start time	 04-19-2021  02:06:01 PM


Wavelength (nm)	Absorbance
494.344910	-0.172552
494.563924	-0.172552
494.782919	-0.172552
495.001897	0.144295
495.220856	-0.104831
495.439797	-0.077823
495.658719	-0.049912
495.877624	-0.006660
496.096510	0.002610
496.315378	0.047533
496.534227	0.071537
496.753059	0.103823
496.971872	0.069366
497.190667	0.076201
497.409444	0.073436
497.628203	0.073645
497.846943	0.072057
498.065665	0.073318
498.284369	0.074514
498.503055	0.075282
498.721723	0.075601
498.940372	0.075816
499.159003	0.075212
499.377616	0.075290
499.596210	0.075532
499.814787	0.075803
500.033345	0.074100
500.251885	0.073531
500.470406	0.073796
500.688910	0.073624
500.907395	0.073310
501.125862	0.072724
501.344311	0.073734
501.562742	0.072824
501.781154	0.073682
501.999548	0.075692
502.217924	0.075449
502.436282	0.075809
502.654621	0.076214
502.872942	0.076725
503.091245	0.077499
503.309530	0.076874
503.527797	0.077201
503.746045	0.076386
503.964275	0.076340
504.182487	0.076167
504.400681	0.074338
504.618856	0.074828
504.837013	0.073948
505.055152	0.073709
505.273273	0.073924
505.491376	0.073503
505.709460	0.073951
505.927526	0.073793
506.145574	0.073895
506.363604	0.075114
506.581615	0.073772
506.799608	0.074339
507.017583	0.074487
507.235540	0.073602
507.453478	0.074829
507.671399	0.074283
507.889301	0.073748
508.107185	0.073910
508.325050	0.073212
508.542898	0.073465
508.760727	0.073089
508.978538	0.073438
509.196330	0.073209
509.414105	0.073453
509.631861	0.073247
509.849599	0.073538
510.067319	0.073567
510.285021	0.074474
510.502704	0.075136
510.720369	0.076199
510.938016	0.076718
511.155645	0.077057
511.373255	0.076455
511.590848	0.076887
511.808422	0.076604
512.025977	0.076754
512.243515	0.076713
512.461034	0.077185
512.678536	0.076648
512.896018	0.075345
513.113483	0.076071
513.330930	0.075351
513.548358	0.075418
513.765768	0.075276
513.983160	0.074878
514.200533	0.074265
514.417889	0.073759
514.635226	0.073923
514.852545	0.074718
515.069845	0.074304
515.287128	0.074746
515.504392	0.074749
515.721638	0.074735
515.938866	0.075632
516.156075	0.075304
516.373267	0.075073
516.590440	0.074675
516.807594	0.074666
517.024731	0.074631
517.241850	0.074782
517.458950	0.074938
517.676032	0.075502
517.893095	0.074732
518.110141	0.075366
518.327168	0.076064
518.544177	0.076178
518.761168	0.076453
518.978141	0.076939
519.195095	0.077354
519.412031	0.077102
519.628949	0.076724
519.845849	0.077595
520.062731	0.077084
520.279594	0.076642
520.496439	0.076531
520.713266	0.076163
520.930074	0.076491
521.146865	0.077378
521.363637	0.077334
521.580391	0.077721
521.797127	0.077682
522.013844	0.078689
522.230543	0.078571
522.447224	0.079554
522.663887	0.079506
522.880532	0.079200
523.097158	0.078411
523.313766	0.079606
523.530356	0.079911
523.746928	0.079451
523.963481	0.079206
524.180017	0.079887
524.396534	0.079901
524.613032	0.080501
524.829513	0.080914
525.045975	0.081143
525.262420	0.080039
525.478845	0.080243
525.695253	0.080513
525.911643	0.080336
526.128014	0.080486
526.344367	0.080953
526.560702	0.080853
526.777018	0.081010
526.993316	0.081077
527.209597	0.082157
527.425858	0.081821
527.642102	0.082211
527.858328	0.082527
528.074535	0.082954
528.290724	0.082638
528.506894	0.082771
528.723047	0.082935
528.939181	0.082937
529.155297	0.082346
529.371395	0.082906
529.587475	0.082936
529.803536	0.083315
530.019579	0.083358
530.235604	0.083106
530.451611	0.083512
530.667600	0.083814
530.883570	0.084188
531.099522	0.084875
531.315456	0.085249
531.531372	0.086061
531.747269	0.085956
531.963148	0.085305
532.179009	0.085879
532.394852	0.086182
532.610676	0.086126
532.826482	0.086281
533.042271	0.086416
533.258040	0.086419
533.473792	0.086147
533.689525	0.086661
533.905240	0.087182
534.120937	0.087056
534.336616	0.086843
534.552277	0.086808
534.767919	0.087250
534.983543	0.087985
535.199149	0.088394
535.414736	0.088621
535.630306	0.088712
535.845857	0.089197
536.061390	0.089859
536.276904	0.090173
536.492401	0.090209
536.707879	0.089688
536.923339	0.089199
537.138781	0.088732
537.354204	0.088882
537.569610	0.089109
537.784997	0.088726
538.000366	0.088157
538.215716	0.088614
538.431049	0.089085
538.646363	0.089636
538.861659	0.089606
539.076937	0.089840
539.292196	0.089526
539.507438	0.089439
539.722661	0.089945
539.937866	0.090370
540.153052	0.090319
540.368221	0.090263
540.583371	0.090417
540.798503	0.090755
541.013617	0.090777
541.228712	0.091076
541.443789	0.091741
541.658848	0.091865
541.873889	0.092032
542.088912	0.092701
542.303916	0.092595
542.518902	0.092233
542.733870	0.092109
542.948820	0.092482
543.163752	0.092761
543.378665	0.092592
543.593560	0.092810
543.808437	0.092731
544.023295	0.092697
544.238136	0.092999
544.452958	0.093462
544.667762	0.094161
544.882548	0.094756
545.097315	0.094770
545.312064	0.094756
545.526795	0.094722
545.741508	0.095225
545.956203	0.095308
546.170879	0.096087
546.385537	0.096402
546.600177	0.096467
546.814799	0.096107
547.029402	0.096016
547.243988	0.096159
547.458555	0.096271
547.673103	0.096448
547.887634	0.096343
548.102146	0.096002
548.316640	0.095946
548.531116	0.095892
548.745574	0.096413
548.960013	0.096803
549.174435	0.096948
549.388838	0.096855
549.603222	0.096732
549.817589	0.096615
550.031937	0.096951
550.246267	0.096971
550.460579	0.096708
550.674873	0.096743
550.889148	0.096935
551.103405	0.096565
551.317644	0.096877
551.531865	0.097122
551.746068	0.097289
551.960252	0.097235
552.174418	0.097717
552.388566	0.097696
552.602696	0.097535
552.816807	0.097516
553.030900	0.098301
553.244975	0.098210
553.459032	0.098268
553.673070	0.098394
553.887091	0.098655
554.101093	0.098271
554.315077	0.098461
554.529042	0.098676
554.742990	0.098669
554.956919	0.098430
555.170830	0.098635
555.384722	0.098858
555.598597	0.099074
555.812453	0.098758
556.026291	0.098922
556.240111	0.099112
556.453913	0.099156
556.667696	0.099518
556.881461	0.099771
557.095208	0.099475
557.308937	0.099576
557.522647	0.099603
557.736339	0.099707
557.950013	0.099749
558.163669	0.099685
558.377307	0.099780
558.590926	0.099598
558.804527	0.099690
559.018110	0.100105
559.231675	0.099993
559.445221	0.100011
559.658749	0.100219
559.872259	0.100179
560.085751	0.100863
560.299225	0.101039
560.512680	0.101195
560.726117	0.100974
560.939536	0.101175
561.152937	0.101448
561.366319	0.101415
561.579683	0.101716
561.793029	0.101897
562.006357	0.101861
562.219667	0.101925
562.432958	0.101710
562.646231	0.101600
562.859486	0.101566
563.072723	0.101460
563.285941	0.101477
563.499141	0.101223
563.712323	0.101207
563.925487	0.101056
564.138632	0.100584
564.351760	0.100703
564.564869	0.101301
564.777960	0.100977
564.991032	0.100887
565.204087	0.100605
565.417123	0.100280
565.630141	0.100650
565.843140	0.100431
566.056122	0.100581
566.269085	0.100714
566.482030	0.100179
566.694957	0.100471
566.907866	0.100375
567.120756	0.100548
567.333628	0.101088
567.546482	0.100691
567.759318	0.100761
567.972135	0.100722
568.184935	0.100927
568.397716	0.101144
568.610478	0.101054
568.823223	0.101229
569.035949	0.101406
569.248657	0.101350
569.461347	0.101543
569.674019	0.101838
569.886672	0.101938
570.099308	0.101751
570.311925	0.102186
570.524523	0.102435
570.737104	0.102513
570.949666	0.102774
571.162210	0.102836
571.374736	0.102609
571.587244	0.102362
571.799733	0.102513
572.012205	0.102440
572.224658	0.102347
572.437092	0.102519
572.649509	0.102674
572.861907	0.102450
573.074287	0.102356
573.286649	0.103097
573.498993	0.103279
573.711318	0.103116
573.923625	0.103375
574.135914	0.103296
574.348185	0.103105
574.560438	0.103071
574.772672	0.103545
574.984888	0.103814
575.197086	0.103661
575.409266	0.103829
575.621427	0.103868
575.833570	0.103943
576.045695	0.103928
576.257802	0.104024
576.469890	0.103917
576.681961	0.103736
576.894013	0.103889
577.106046	0.103933
577.318062	0.103918
577.530059	0.104639
577.742039	0.104798
577.954000	0.104956
578.165942	0.105079
578.377867	0.105248
578.589773	0.105185
578.801661	0.104764
579.013531	0.104965
579.225382	0.105077
579.437216	0.104567
579.649031	0.104284
579.860828	0.104189
580.072606	0.104209
580.284367	0.104574
580.496109	0.104932
580.707833	0.105407
580.919539	0.104889
581.131227	0.104698
581.342896	0.105140
581.554547	0.105468
581.766180	0.105948
581.977795	0.106038
582.189391	0.106026
582.400969	0.105751
582.612529	0.105510
582.824071	0.106073
583.035595	0.106204
583.247100	0.106094
583.458587	0.105901
583.670056	0.105828
583.881506	0.105887
584.092939	0.106052
584.304353	0.106408
584.515749	0.106771
584.727127	0.106495
584.938486	0.106153
585.149828	0.106036
585.361151	0.106384
585.572456	0.106610
585.783742	0.106603
585.995011	0.106524
586.206261	0.106467
586.417493	0.106501
586.628706	0.106701
586.839902	0.107667
587.051079	0.107888
587.262238	0.107944
587.473379	0.107891
587.684502	0.108233
587.895606	0.107863
588.106692	0.108163
588.317760	0.108118
588.528810	0.108443
588.739841	0.108424
588.950855	0.108662
589.161850	0.108934
589.372827	0.109176
589.583785	0.109314
589.794726	0.110045
590.005648	0.109727
590.216552	0.109963
590.427437	0.110255
590.638305	0.110554
590.849154	0.110660
591.059985	0.110533
591.270798	0.110497
591.481592	0.110420
591.692369	0.110364
591.903127	0.110870
592.113867	0.110876
592.324588	0.110835
592.535292	0.110408
592.745977	0.110387
592.956644	0.110908
593.167293	0.110880
593.377923	0.110983
593.588536	0.111115
593.799130	0.110887
594.009706	0.110886
594.220263	0.110804
594.430803	0.110936
594.641324	0.111198
594.851827	0.111103
595.062312	0.111313
595.272778	0.111660
595.483227	0.111647
595.693657	0.111983
595.904069	0.112149
596.114462	0.112366
596.324838	0.112617
596.535195	0.112482
596.745534	0.112356
596.955855	0.112387
597.166157	0.112730
597.376441	0.112935
597.586707	0.113069
597.796955	0.113338
598.007185	0.113374
598.217396	0.113527
598.427589	0.113330
598.637764	0.113714
598.847921	0.114098
599.058060	0.113564
599.268180	0.113696
599.478282	0.113489
599.688366	0.113519
599.898431	0.113344
600.108479	0.113483
600.318508	0.113921
600.528519	0.114116
600.738511	0.113825
600.948486	0.113887
601.158442	0.113506
601.368380	0.113847
601.578300	0.113963
601.788202	0.114422
601.998085	0.114369
602.207950	0.114394
602.417797	0.114062
602.627626	0.114094
602.837436	0.114516
603.047228	0.114915
603.257002	0.114965
603.466758	0.115261
603.676496	0.115133
603.886215	0.115095
604.095916	0.115016
604.305599	0.115248
604.515264	0.115421
604.724910	0.115697
604.934538	0.115678
605.144148	0.115846
605.353740	0.115658
605.563314	0.116085
605.772869	0.115961
605.982406	0.116113
606.191925	0.116378
606.401425	0.116300
606.610908	0.116084
606.820372	0.116066
607.029818	0.116086
607.239246	0.116255
607.448655	0.116130
607.658047	0.116499
607.867420	0.116740
608.076775	0.116632
608.286111	0.116574
608.495430	0.116577
608.704730	0.116522
608.914012	0.116390
609.123275	0.116298
609.332521	0.116206
609.541748	0.116051
609.750957	0.115817
609.960148	0.115999
610.169321	0.116140
610.378475	0.116093
610.587611	0.116487
610.796729	0.116403
611.005829	0.116291
611.214910	0.116177
611.423974	0.116434
611.633019	0.116755
611.842045	0.116495
612.051054	0.116670
612.260044	0.116975
612.469017	0.116847
612.677970	0.117125
612.886906	0.117326
613.095824	0.117842
613.304723	0.117754
613.513604	0.117773
613.722467	0.118099
613.931311	0.118332
614.140138	0.118205
614.348946	0.118389
614.557736	0.118403
614.766507	0.118610
614.975261	0.118548
615.183996	0.118582
615.392713	0.118692
615.601412	0.118577
615.810092	0.118551
616.018754	0.118855
616.227399	0.118786
616.436024	0.118720
616.644632	0.118809
616.853222	0.118939
617.061793	0.119390
617.270346	0.119492
617.478880	0.119600
617.687397	0.119582
617.895895	0.119437
618.104375	0.119489
618.312837	0.119818
618.521281	0.119880
618.729706	0.119876
618.938113	0.119743
619.146502	0.119810
619.354873	0.119836
619.563226	0.119725
619.771560	0.119881
619.979876	0.119916
620.188174	0.119949
620.396453	0.120110
620.604715	0.120097
620.812958	0.120338
621.021183	0.120200
621.229390	0.120268
621.437578	0.120376
621.645748	0.120367
621.853900	0.120692
622.062034	0.120835
622.270150	0.120963
622.478247	0.120814
622.686326	0.120711
622.894387	0.121030
623.102430	0.121196
623.310454	0.121463
623.518461	0.121522
623.726449	0.121517
623.934418	0.121554
624.142370	0.121203
624.350303	0.121513
624.558218	0.121552
624.766115	0.121585
624.973994	0.121662
625.181855	0.121512
625.389697	0.121550
625.597521	0.121793
625.805327	0.121830
626.013114	0.121937
626.220883	0.121965
626.428634	0.121891
626.636367	0.121639
626.844082	0.121669
627.051778	0.121715
627.259457	0.121857
627.467117	0.121673
627.674758	0.121672
627.882382	0.121948
628.089987	0.122030
628.297574	0.122363
628.505143	0.122619
628.712694	0.122616
628.920226	0.123269
629.127740	0.123623
629.335236	0.123900
629.542714	0.123928
629.750174	0.123969
629.957615	0.124074
630.165038	0.123892
630.372443	0.123924
630.579829	0.123876
630.787198	0.123695
630.994548	0.123573
631.201880	0.123376
631.409194	0.123578
631.616489	0.123639
631.823766	0.123783
632.031025	0.124220
632.238266	0.124344
632.445489	0.124501
632.652693	0.124574
632.859879	0.124747
633.067047	0.125174
633.274197	0.125105
633.481329	0.124981
633.688442	0.124981
633.895537	0.124857
634.102614	0.125113
634.309672	0.125499
634.516713	0.125715
634.723735	0.125651
634.930739	0.125510
635.137724	0.125790
635.344692	0.126096
635.551641	0.126360
635.758572	0.126638
635.965485	0.126783
636.172379	0.126673
636.379256	0.126642
636.586114	0.126941
636.792954	0.127160
636.999775	0.127226
637.206579	0.127381
637.413364	0.127420
637.620131	0.127386
637.826880	0.127338
638.033610	0.127369
638.240323	0.127379
638.447017	0.127165
638.653692	0.126979
638.860350	0.127024
639.066990	0.126887
639.273611	0.126800
639.480214	0.126767
639.686798	0.126697
639.893365	0.126989
640.099913	0.127200
640.306443	0.127281
640.512955	0.127587
640.719449	0.127666
640.925924	0.127955
641.132381	0.128276
641.338820	0.128455
641.545241	0.128737
641.751644	0.128852
641.958028	0.128773
642.164394	0.128947
642.370742	0.128974
642.577071	0.128964
642.783383	0.128835
642.989676	0.128671
643.195951	0.128590
643.402207	0.128530
643.608446	0.128354
643.814666	0.128419
644.020868	0.128353
644.227052	0.128438
644.433218	0.128581
644.639365	0.128483
644.845494	0.128434
645.051605	0.128760
645.257698	0.128850
645.463772	0.129129
645.669828	0.129300
645.875866	0.129414
646.081886	0.129524
646.287888	0.129559
646.493871	0.129991
646.699836	0.130353
646.905783	0.130536
647.111712	0.130560
647.317622	0.130455
647.523514	0.130448
647.729388	0.130658
647.935244	0.130773
648.141082	0.131093
648.346901	0.131355
648.552702	0.131515
648.758485	0.131284
648.964250	0.131610
649.169996	0.131950
649.375724	0.132151
649.581434	0.132339
649.787126	0.132483
649.992800	0.132420
650.198455	0.132319
650.404092	0.132440
650.609711	0.132800
650.815311	0.132800
651.020894	0.132973
651.226458	0.133092
651.432004	0.133171
651.637532	0.133259
651.843041	0.133635
652.048532	0.133922
652.254006	0.133616
652.459460	0.133611
652.664897	0.133669
652.870315	0.133573
653.075716	0.133783
653.281097	0.133870
653.486461	0.133925
653.691807	0.133968
653.897134	0.133992
654.102443	0.134273
654.307734	0.134477
654.513006	0.134731
654.718261	0.135003
654.923497	0.135064
655.128715	0.135312
655.333915	0.135409
655.539096	0.135371
655.744259	0.135599
655.949404	0.135823
656.154531	0.136013
656.359640	0.136117
656.564730	0.135935
656.769802	0.135917
656.974856	0.135983
657.179892	0.136237
657.384909	0.136366
657.589908	0.136187
657.794889	0.136300
657.999852	0.136332
658.204797	0.136384
658.409723	0.136671
658.614631	0.136994
658.819521	0.137008
659.024393	0.137020
659.229246	0.137133
659.434081	0.137210
659.638898	0.137429
659.843697	0.137461
660.048478	0.137715
660.253240	0.137892
660.457984	0.137732
660.662710	0.137735
660.867417	0.137859
661.072107	0.138074
661.276778	0.138152
661.481431	0.138098
661.686066	0.137997
661.890682	0.137930
662.095281	0.137907
662.299861	0.138054
662.504422	0.138001
662.708966	0.137865
662.913491	0.137758
663.117999	0.137887
663.322488	0.137783
663.526958	0.138033
663.731411	0.138096
663.935845	0.138088
664.140261	0.138232
664.344659	0.138349
664.549038	0.138651
664.753400	0.138724
664.957743	0.139033
665.162068	0.139175
665.366375	0.139010
665.570663	0.139152
665.774933	0.139343
665.979185	0.139484
666.183419	0.139604
666.387635	0.139589
666.591832	0.139735
666.796011	0.139767
667.000172	0.140000
667.204315	0.140421
667.408439	0.140345
667.612545	0.140406
667.816634	0.140411
668.020703	0.140736
668.224755	0.140858
668.428788	0.140975
668.632803	0.141099
668.836800	0.141204
669.040779	0.141225
669.244739	0.141654
669.448681	0.141810
669.652605	0.142007
669.856511	0.142184
670.060399	0.142103
670.264268	0.142136
670.468119	0.142188
670.671952	0.142377
670.875767	0.142558
671.079563	0.142476
671.283341	0.142618
671.487101	0.142851
671.690843	0.142724
671.894567	0.143160
672.098272	0.143361
672.301959	0.143368
672.505628	0.143506
672.709278	0.143497
672.912911	0.143529
673.116525	0.143556
673.320121	0.143300
673.523699	0.143601
673.727258	0.143798
673.930799	0.143720
674.134322	0.143931
674.337827	0.144006
674.541314	0.144322
674.744782	0.144568
674.948232	0.144877
675.151664	0.145218
675.355078	0.145423
675.558474	0.145517
675.761851	0.145848
675.965210	0.145932
676.168551	0.145971
676.371873	0.145932
676.575178	0.145960
676.778464	0.145908
676.981732	0.146009
677.184981	0.145923
677.388213	0.145806
677.591426	0.145784
677.794621	0.145996
677.997798	0.146008
678.200956	0.146179
678.404097	0.146389
678.607219	0.146499
678.810323	0.146444
679.013408	0.146677
679.216476	0.146892
679.419525	0.146950
679.622556	0.146696
679.825569	0.146804
680.028563	0.146707
680.231540	0.146615
680.434498	0.146684
680.637438	0.147000
680.840359	0.146872
681.043263	0.146858
681.246148	0.146994
681.449015	0.147402
681.651864	0.147617
681.854694	0.147920
682.057506	0.148180
682.260301	0.148202
682.463076	0.148100
682.665834	0.148335
682.868573	0.148571
683.071295	0.148626
683.273998	0.148584
683.476682	0.148484
683.679349	0.148652
683.881997	0.148736
684.084627	0.148728
684.287239	0.148863
684.489833	0.148915
684.692408	0.148874
684.894965	0.148880
685.097504	0.149113
685.300025	0.149338
685.502527	0.149366
685.705012	0.149424
685.907478	0.149702
686.109925	0.149832
686.312355	0.149908
686.514766	0.150127
686.717159	0.150384
686.919534	0.150454
687.121891	0.150499
687.324230	0.150294
687.526550	0.150270
687.728852	0.150362
687.931136	0.150375
688.133401	0.150662
688.335649	0.150652
688.537878	0.150506
688.740089	0.150417
688.942281	0.150480
689.144456	0.150741
689.346612	0.150751
689.548750	0.150639
689.750870	0.150758
689.952971	0.150628
690.155055	0.150811
690.357120	0.151167
690.559167	0.151390
690.761195	0.151569
690.963206	0.151589
691.165198	0.151882
691.367172	0.152130
691.569128	0.152135
691.771065	0.152391
691.972984	0.152269
692.174885	0.152283
692.376768	0.152299
692.578633	0.152199
692.780479	0.152555
692.982308	0.152595
693.184118	0.152715
693.385909	0.152959
693.587683	0.152865
693.789438	0.153062
693.991175	0.153078
694.192894	0.153140
694.394595	0.153187
694.596277	0.153109
694.797941	0.153175
694.999587	0.153121
695.201215	0.153164
695.402824	0.153298
695.604416	0.153373
695.805989	0.153424
696.007543	0.153744
696.209080	0.153979
696.410598	0.154185
696.612099	0.154368
696.813580	0.154492
697.015044	0.154391
697.216490	0.154412
697.417917	0.154339
697.619326	0.154514
697.820717	0.154309
698.022089	0.154270
698.223444	0.154219
698.424780	0.154167
698.626098	0.154114
698.827397	0.154323
699.028679	0.154286
699.229942	0.154429
699.431187	0.154320
699.632414	0.154454
699.833622	0.154644
700.034813	0.154697
700.235985	0.154762
700.437139	0.154932
700.638274	0.154834
700.839392	0.155089
701.040491	0.155268
701.241572	0.155635
701.442635	0.155717
701.643679	0.155821
701.844706	0.156077
702.045714	0.156102
702.246704	0.156191
702.447675	0.156363
702.648629	0.156402
702.849564	0.156523
703.050481	0.156451
703.251380	0.156586
703.452260	0.156716
703.653122	0.156621
703.853966	0.156740
704.054792	0.156865
704.255600	0.156952
704.456389	0.156999
704.657160	0.157005
704.857913	0.157062
705.058648	0.157136
705.259365	0.156992
705.460063	0.156730
705.660743	0.156707
705.861405	0.156648
706.062048	0.156740
706.262674	0.156440
706.463281	0.156292
706.663870	0.156064
706.864441	0.156011
707.064993	0.155867
707.265527	0.156038
707.466043	0.156079
707.666541	0.156197
707.867021	0.156259
708.067482	0.156362
708.267925	0.156574
708.468350	0.156790
708.668757	0.156781
708.869145	0.157037
709.069516	0.157166
709.269868	0.157299
709.470201	0.157192
709.670517	0.157103
709.870814	0.157492
710.071093	0.157292
710.271354	0.157267
710.471597	0.157122
710.671821	0.157207
710.872028	0.157038
711.072216	0.156961
711.272385	0.157147
711.472537	0.156893
711.672670	0.156625
711.872785	0.156691
712.072882	0.156873
712.272961	0.156993
712.473021	0.157030
712.673063	0.157291
712.873087	0.157257
713.073093	0.157238
713.273081	0.157410
713.473050	0.157366
713.673001	0.157428
713.872934	0.157270
714.072849	0.157310
714.272745	0.157156
714.472623	0.157076
714.672483	0.157165
714.872325	0.156952
715.072148	0.156953
715.271954	0.156946
715.471741	0.156858
715.671509	0.156850
715.871260	0.156915
716.070992	0.157133
716.270707	0.157127
716.470403	0.156972
716.670080	0.157112
716.869740	0.157099
717.069381	0.157158
717.269004	0.157070
717.468609	0.157135
717.668195	0.156967
717.867764	0.156576
718.067314	0.156428
718.266846	0.156509
718.466360	0.156273
718.665855	0.156182
718.865332	0.156211
719.064791	0.156052
719.264232	0.156095
719.463655	0.155938
719.663059	0.155854
719.862445	0.155778
720.061813	0.155719
720.261163	0.155763
720.460494	0.155667
720.659807	0.155615
720.859102	0.155908
721.058379	0.155780
721.257638	0.155914
721.456878	0.155841
721.656100	0.155820
721.855304	0.155617
722.054490	0.155562
722.253657	0.155503
722.452806	0.155184
722.651937	0.155029
722.851050	0.154814
723.050145	0.154476
723.249221	0.154790
723.448279	0.154540
723.647319	0.154523
723.846340	0.154464
724.045344	0.154533
724.244329	0.154526
724.443296	0.154281
724.642245	0.154203
724.841175	0.154204
725.040088	0.153904
725.238982	0.154122
725.437857	0.153984
725.636715	0.153979
725.835554	0.153970
726.034376	0.153870
726.233179	0.153794
726.431963	0.153609
726.630730	0.153741
726.829478	0.153584
727.028208	0.153382
727.226920	0.153201
727.425614	0.152933
727.624289	0.152583
727.822946	0.152572
728.021585	0.152497
728.220206	0.152373
728.418808	0.152106
728.617392	0.151971
728.815958	0.151976
729.014506	0.152007
729.213036	0.152055
729.411547	0.152190
729.610040	0.152048
729.808515	0.152081
730.006972	0.152017
730.205410	0.151805
730.403831	0.151588
730.602233	0.151442
730.800616	0.151300
730.998982	0.150970
731.197329	0.150638
731.395658	0.150688
731.593969	0.150399
731.792262	0.150288
731.990536	0.150293
732.188793	0.150451
732.387031	0.150104
732.585250	0.149958
732.783452	0.150082
732.981635	0.150183
733.179800	0.150006
733.377947	0.150098
733.576076	0.150182
733.774186	0.150192
733.972278	0.149959
734.170352	0.149917
734.368408	0.150027
734.566446	0.149755
734.764465	0.149765
734.962466	0.149823
735.160449	0.149474
735.358413	0.149330
735.556360	0.149123
735.754288	0.149119
735.952198	0.149167
736.150090	0.148924
736.347963	0.149299
736.545818	0.148895
736.743655	0.148816
736.941474	0.148942
737.139275	0.148992
737.337057	0.148873
737.534821	0.148978
737.732567	0.148789
737.930295	0.148819
738.128005	0.148526
738.325696	0.148460
738.523369	0.148511
738.721024	0.148440
738.918660	0.148050
739.116279	0.148185
739.313879	0.147810
739.511461	0.147839
739.709024	0.147718
739.906570	0.147402
740.104097	0.147316
740.301606	0.146735
740.499097	0.146570
740.696569	0.146697
740.894024	0.146530
741.091460	0.146496
741.288878	0.146409
741.486277	0.146421
741.683659	0.146694
741.881022	0.146828
742.078367	0.146800
742.275694	0.146743
742.473002	0.146695
742.670293	0.146544
742.867565	0.146609
743.064819	0.146586
743.262054	0.146530
743.459272	0.146309
743.656471	0.146377
743.853652	0.146696
744.050815	0.146641
744.247959	0.146469
744.445085	0.146481
744.642194	0.146374
744.839283	0.146183
745.036355	0.145975
745.233408	0.145809
745.430444	0.145350
745.627461	0.144926
745.824459	0.144884
746.021440	0.144856
746.218402	0.144709
746.415346	0.144601
746.612272	0.144712
746.809180	0.144361
747.006069	0.144176
747.202940	0.144329
747.399793	0.144503
747.596628	0.144258
747.793444	0.144167
747.990243	0.144054
748.187023	0.144005
748.383784	0.143733
748.580528	0.143735
748.777253	0.143918
748.973960	0.143717
749.170649	0.143351
749.367320	0.143418
749.563973	0.143328
749.760607	0.143326
749.957223	0.143079
750.153821	0.142969
750.350400	0.142933
750.546962	0.142576
750.743505	0.142534
750.940030	0.142543
751.136536	0.142334
751.333025	0.142143
751.529495	0.141865
751.725947	0.141887
751.922381	0.141711
752.118796	0.141903
752.315194	0.141797
752.511573	0.141435
752.707934	0.141085
752.904276	0.140976
753.100601	0.140852
753.296907	0.140689
753.493195	0.140343
753.689465	0.140456
753.885716	0.139890
754.081949	0.139856
754.278164	0.140046
754.474361	0.140183
754.670540	0.140259
754.866700	0.140033
755.062843	0.140113
755.258967	0.140242
755.455072	0.140112
755.651160	0.140330
755.847229	0.140241
756.043280	0.140043
756.239313	0.140092
756.435328	0.139743
756.631324	0.139828
756.827302	0.139629
757.023262	0.139525
757.219204	0.139214
757.415127	0.139173
757.611033	0.138938
757.806920	0.138863
758.002788	0.138523
758.198639	0.138412
758.394471	0.138182
758.590286	0.138009
758.786081	0.137823
758.981859	0.137627
759.177619	0.137462
759.373360	0.137338
759.569083	0.137150
759.764788	0.136966
759.960474	0.136799
760.156143	0.136770
760.351793	0.136678
760.547425	0.136564
760.743038	0.136773
760.938634	0.136583
761.134211	0.136725
761.329770	0.136766
761.525311	0.136876
761.720833	0.136907
761.916338	0.136824
762.111824	0.137045
762.307292	0.137224
762.502741	0.137129
762.698173	0.137111
762.893586	0.136907
763.088981	0.136853
763.284358	0.136525
763.479716	0.136528
763.675057	0.136330
763.870379	0.135964
764.065683	0.135753
764.260968	0.135555
764.456236	0.135439
764.651485	0.135420
764.846716	0.135285
765.041929	0.135554
765.237123	0.135436
765.432299	0.135502
765.627457	0.135433
765.822597	0.135265
766.017719	0.135252
766.212822	0.135087
766.407907	0.135038
766.602974	0.135160
766.798023	0.135221
766.993054	0.135269
767.188066	0.135347
767.383060	0.135630
767.578036	0.135911
767.772993	0.135896
767.967933	0.135946
768.162854	0.135850
768.357757	0.135635
768.552642	0.135438
768.747508	0.135443
768.942356	0.135471
769.137186	0.135299
769.331998	0.134982
769.526792	0.134919
769.721567	0.134869
769.916324	0.134895
770.111063	0.134996
770.305784	0.134875
770.500486	0.134841
770.695171	0.134502
770.889837	0.134661
771.084484	0.134705
771.279114	0.134493
771.473725	0.134578
771.668318	0.134508
771.862893	0.134281
772.057450	0.134192
772.251988	0.134145
772.446509	0.134411
772.641011	0.134154
772.835494	0.134098
773.029960	0.134340
773.224407	0.134308
773.418836	0.134465
773.613247	0.134454
773.807640	0.134622
774.002014	0.134488
774.196370	0.134416
774.390708	0.134513
774.585028	0.134373
774.779330	0.134228
774.973613	0.134369
775.167878	0.134098
775.362125	0.134213
775.556354	0.134293
775.750564	0.134354
775.944756	0.134247
776.138930	0.134062
776.333086	0.134232
776.527223	0.134388
776.721343	0.134390
776.915444	0.134555
777.109526	0.134661
777.303591	0.134641
777.497637	0.134479
777.691666	0.134527
777.885676	0.134512
778.079667	0.134517
778.273641	0.134486
778.467596	0.134382
778.661533	0.134574
778.855452	0.134420
779.049352	0.134438
779.243235	0.134762
779.437099	0.134708
779.630945	0.134896
779.824773	0.134994
780.018582	0.135054
780.212373	0.134920
780.406146	0.134698
780.599901	0.135158
780.793638	0.135359
780.987356	0.135454
781.181056	0.135871
781.374738	0.135775
781.568402	0.135865
781.762047	0.135879
781.955674	0.135884
782.149283	0.135930
782.342874	0.135608
782.536447	0.135341
782.730001	0.135262
782.923537	0.134976
783.117055	0.135073
783.310555	0.134905
783.504036	0.134848
783.697499	0.134939
783.890944	0.134928
784.084371	0.134856
784.277780	0.134782
784.471170	0.134753
784.664542	0.134738
784.857896	0.134819
785.051231	0.135053
785.244549	0.135245
785.437848	0.135300
785.631129	0.135360
785.824392	0.135406
786.017636	0.135523
786.210863	0.135423
786.404071	0.135595
786.597260	0.135550
786.790432	0.135534
786.983585	0.135715
787.176721	0.135610
787.369838	0.135689
787.562936	0.135831
787.756017	0.136001
787.949079	0.136237
788.142123	0.136440
788.335149	0.136744
788.528156	0.136602
788.721146	0.136157
788.914117	0.136449
789.107070	0.136611
789.300005	0.136615
789.492921	0.136608
789.685819	0.136505
789.878699	0.136328
790.071561	0.136090
790.264405	0.136286
790.457230	0.136591
790.650037	0.136588
790.842826	0.136546
791.035597	0.136825
791.228349	0.136843
791.421084	0.136976
791.613800	0.136955
791.806497	0.137203
791.999177	0.137205
792.191838	0.137215
792.384481	0.137274
792.577106	0.137382
792.769713	0.137316
792.962301	0.137206
793.154871	0.137191
793.347423	0.137247
793.539957	0.137106
793.732473	0.137238
793.924970	0.137248
794.117449	0.137339
794.309910	0.137425
794.502353	0.137418
794.694777	0.137928
794.887183	0.138141
795.079571	0.138495
795.271941	0.138736
795.464293	0.138986
795.656626	0.139360
795.848941	0.139769
796.041238	0.140006
796.233516	0.140415
796.425777	0.140362
796.618019	0.140616
796.810243	0.140581
797.002449	0.140837
797.194636	0.140809
797.386805	0.140754
797.578956	0.140752
797.771089	0.140799
797.963204	0.140746
798.155300	0.140969
798.347378	0.140903
798.539438	0.141126
798.731480	0.141206
798.923503	0.141413
799.115509	0.141708
799.307496	0.141830
799.499465	0.142075
799.691415	0.142408
799.883348	0.142573
800.075262	0.143028
800.267158	0.143228
800.459035	0.143366
800.650895	0.143367
800.842736	0.143578
801.034559	0.143514
801.226364	0.143459
801.418150	0.143302
801.609919	0.143394
801.801669	0.143375
801.993401	0.143667
802.185114	0.143794
802.376810	0.144081
802.568487	0.144057
802.760146	0.144386
802.951787	0.144629
803.143409	0.144945
803.335014	0.145237
803.526600	0.145354
803.718168	0.145369
803.909717	0.145450
804.101249	0.145719
804.292762	0.145852
804.484257	0.145953
804.675734	0.146026
804.867192	0.146241
805.058632	0.146259
805.250054	0.146457
805.441458	0.146364
805.632844	0.146518
805.824211	0.146458
806.015561	0.146722
806.206891	0.147057
806.398204	0.147254
806.589499	0.147154
806.780775	0.147135
806.972033	0.147275
807.163273	0.147496
807.354495	0.147650
807.545698	0.147986
807.736883	0.148206
807.928050	0.148403
808.119199	0.148524
808.310329	0.148799
808.501441	0.149187
808.692535	0.149399
808.883611	0.149905
809.074669	0.150314
809.265708	0.150463
809.456729	0.150533
809.647732	0.150746
809.838717	0.150849
810.029683	0.151143
810.220632	0.151100
810.411562	0.151208
810.602474	0.151176
810.793367	0.151340
810.984242	0.151421
811.175100	0.151565
811.365938	0.151771
811.556759	0.152202
811.747562	0.152074
811.938346	0.152134
812.129112	0.152225
812.319860	0.152476
812.510589	0.152518
812.701300	0.152646
812.891994	0.152788
813.082668	0.152731
813.273325	0.152950
813.463964	0.153426
813.654584	0.153804
813.845186	0.154352
814.035769	0.154639
814.226335	0.154812
814.416882	0.155210
814.607411	0.155677
814.797922	0.155863
814.988415	0.156069
815.178889	0.156250
815.369345	0.156536
815.559783	0.156725
815.750203	0.156809
815.940605	0.156973
816.130988	0.157201
816.321353	0.157022
816.511700	0.157305
816.702028	0.157482
816.892339	0.157812
817.082631	0.158080
817.272905	0.158202
817.463161	0.158386
817.653398	0.158740
817.843617	0.158643
818.033819	0.159168
818.224001	0.159138
818.414166	0.159288
818.604312	0.159288
818.794440	0.159384
818.984550	0.159395
819.174642	0.159662
819.364716	0.159866
819.554771	0.160234
819.744808	0.160359
819.934827	0.160662
820.124827	0.160738
820.314810	0.161124
820.504774	0.161260
820.694720	0.161624
820.884647	0.161849
821.074557	0.162127
821.264448	0.162372
821.454321	0.162602
821.644176	0.162909
821.834012	0.163272
822.023831	0.163583
822.213631	0.164060
822.403413	0.164264
822.593176	0.164333
822.782922	0.164345
822.972649	0.164549
823.162358	0.164759
823.352049	0.165040
823.541721	0.165272
823.731376	0.165017
823.921012	0.165011
824.110629	0.165314
824.300229	0.165826
824.489811	0.166136
824.679374	0.166253
824.868919	0.166623
825.058445	0.166824
825.247954	0.166950
825.437444	0.167363
825.626916	0.167788
825.816370	0.168308
826.005806	0.168438
826.195223	0.168595
826.384622	0.169106
826.574003	0.169342
826.763366	0.169674
826.952711	0.169902
827.142037	0.170104
827.331345	0.170222
827.520635	0.170002
827.709906	0.170306
827.899160	0.170622
828.088395	0.170756
828.277612	0.170989
828.466810	0.171203
828.655991	0.171543
828.845153	0.172040
829.034297	0.172350
829.223423	0.172692
829.412531	0.173142
829.601620	0.173453
829.790691	0.173843
829.979744	0.174121
830.168779	0.174313
830.357795	0.174371
830.546793	0.174377
830.735773	0.174543
830.924735	0.174963
831.113679	0.174997
831.302604	0.175140
831.491511	0.175299
831.680400	0.175441
831.869271	0.175862
832.058123	0.176695
832.246957	0.177520
832.435773	0.177738
832.624571	0.177857
832.813351	0.178348
833.002112	0.178866
833.190855	0.179241
833.379580	0.179687
833.568287	0.179655
833.756975	0.179646
833.945645	0.179539
834.134297	0.180070
834.322931	0.180369
834.511547	0.180442
834.700144	0.180749
834.888723	0.181038
835.077284	0.181410
835.265826	0.181823
835.454351	0.182208
835.642857	0.182704
835.831345	0.182979
836.019815	0.183316
836.208266	0.183726
836.396699	0.183810
836.585114	0.184013
836.773511	0.184200
836.961890	0.184815
837.150250	0.185183
837.338592	0.185497
837.526916	0.185772
837.715222	0.186049
837.903510	0.186335
838.091779	0.186636
838.280030	0.187093
838.468263	0.187328
838.656477	0.187472
838.844674	0.187729
839.032852	0.187664
839.221012	0.188092
839.409153	0.188462
839.597277	0.188560
839.785382	0.189020
839.973469	0.189253
840.161538	0.189620
840.349589	0.189852
840.537621	0.190028
840.725635	0.190477
840.913631	0.190774
841.101609	0.191031
841.289568	0.191719
841.477509	0.192013
841.665432	0.192278
841.853337	0.192543
842.041224	0.192924
842.229092	0.193300
842.416942	0.193623
842.604774	0.193902
842.792588	0.194115
842.980383	0.194296
843.168160	0.194571
843.355919	0.195109
843.543660	0.195800
843.731382	0.196177
843.919087	0.196498
844.106773	0.196875
844.294441	0.197276
844.482090	0.197955
844.669722	0.198049
844.857335	0.198414
845.044930	0.198473
845.232507	0.198661
845.420065	0.198990
845.607605	0.199259
845.795127	0.199590
845.982631	0.199799
846.170117	0.199779
846.357584	0.200060
846.545033	0.200254
846.732464	0.200321
846.919877	0.200341
847.107272	0.200355
847.294648	0.200610
847.482006	0.200871
847.669346	0.201220
847.856667	0.201600
848.043971	0.201985
848.231256	0.202430
848.418523	0.202717
848.605771	0.203112
848.793002	0.203373
848.980214	0.203902
849.167408	0.204139
849.354584	0.204184
849.541742	0.204519
849.728881	0.204919
849.916002	0.205355
850.103105	0.205938
850.290190	0.205986
850.477256	0.206695
850.664304	0.206959
850.851334	0.207461
851.038346	0.208194
851.225340	0.208528
851.412315	0.208712
851.599272	0.208876
851.786211	0.209079
851.973132	0.209648
852.160034	0.209837
852.346918	0.210161
852.533784	0.210428
852.720632	0.210499
852.907462	0.210906
853.094273	0.211226
853.281066	0.211634
853.467841	0.212064
853.654598	0.212355
853.841336	0.212690
854.028056	0.212667
854.214758	0.212821
854.401442	0.213428
854.588107	0.213467
854.774755	0.213657
854.961384	0.213697
855.147995	0.213955
855.334587	0.213934
855.521162	0.214325
855.707718	0.214783
855.894256	0.215033
856.080775	0.214813
856.267277	0.215345
856.453760	0.215902
856.640225	0.216292
856.826672	0.216694
857.013101	0.217089
857.199511	0.217219
857.385903	0.217286
857.572277	0.217883
857.758633	0.218004
857.944970	0.218106
858.131290	0.218167
858.317591	0.218533
858.503873	0.218587
858.690138	0.219014
858.876384	0.219217
859.062612	0.219648
859.248822	0.219448
859.435014	0.219840
859.621188	0.220143
859.807343	0.220382
859.993480	0.220511
860.179599	0.221053
860.365699	0.221220
860.551781	0.221453
860.737846	0.222000
860.923891	0.222514
861.109919	0.223116
861.295929	0.223251
861.481920	0.223609
861.667893	0.223921
861.853848	0.224030
862.039784	0.224380
862.225702	0.224785
862.411603	0.225017
862.597484	0.225525
862.783348	0.225576
862.969193	0.225819
863.155021	0.226472
863.340830	0.226915
863.526620	0.227162
863.712393	0.227570
863.898147	0.227956
864.083883	0.227926
864.269601	0.228246
864.455301	0.228634
864.640982	0.228929
864.826645	0.228926
865.012290	0.229196
865.197917	0.229659
865.383526	0.230039
865.569116	0.230275
865.754688	0.230677
865.940242	0.230645
866.125777	0.231279
866.311295	0.231705
866.496794	0.232146
866.682275	0.232237
866.867737	0.232470
867.053182	0.232558
867.238608	0.232617
867.424016	0.232779
867.609406	0.233081
867.794778	0.233075
867.980131	0.233381
868.165466	0.233279
868.350783	0.233660
868.536082	0.233965
868.721362	0.234279
868.906625	0.234570
869.091869	0.234919
869.277094	0.235046
869.462302	0.235202
869.647491	0.235347
869.832662	0.235643
870.017815	0.235656
870.202950	0.235436
870.388066	0.235221
870.573165	0.235726
870.758245	0.235961
870.943306	0.236206
871.128350	0.236117
871.313375	0.236017
871.498382	0.236135
871.683371	0.236133
871.868342	0.236659
872.053294	0.237134
872.238229	0.236904
872.423144	0.236863
872.608042	0.236792
872.792922	0.237030
872.977783	0.237458
873.162626	0.237955
873.347451	0.238328
873.532258	0.238305
873.717046	0.238519
873.901816	0.238665
874.086568	0.238672
874.271302	0.238938
874.456017	0.239622
874.640715	0.239948
874.825394	0.240006
875.010055	0.240339
875.194697	0.240753
875.379322	0.241043
875.563928	0.241288
875.748516	0.241526
875.933085	0.242057
876.117637	0.241901
876.302170	0.241697
876.486685	0.241571
876.671182	0.241575
876.855661	0.241838
877.040121	0.242031
877.224563	0.241961
877.408987	0.242268
877.593393	0.241987
877.777780	0.242063
877.962150	0.242236
878.146501	0.242462
878.330833	0.242830
878.515148	0.242560
878.699444	0.242618
878.883722	0.243070
879.067982	0.243080
879.252224	0.243413
879.436447	0.243733
879.620653	0.244151
879.804840	0.244482
879.989008	0.244143
880.173159	0.244167
880.357291	0.244087
880.541405	0.244112
880.725501	0.244586
880.909579	0.244631
881.093638	0.244298
881.277680	0.244271
881.461703	0.243891
881.645707	0.244341
881.829694	0.244632
882.013662	0.245041
882.197612	0.244960
882.381544	0.244910
882.565458	0.245032
882.749353	0.245605
882.933230	0.245628
883.117089	0.246025
883.300930	0.245876
883.484753	0.245832
883.668557	0.245719
883.852343	0.246144
884.036111	0.246459
884.219861	0.246695
884.403592	0.246792
884.587305	0.246574
884.771000	0.246706
884.954677	0.246975
885.138335	0.247347
885.321976	0.247752
885.505598	0.247875
885.689201	0.247539
885.872787	0.247791
886.056354	0.247879
886.239904	0.247931
886.423434	0.247867
886.606947	0.248215
886.790442	0.248151
886.973918	0.247732
887.157376	0.247559
887.340816	0.247758
887.524237	0.247706
887.707641	0.247851
887.891026	0.248136
888.074393	0.248768
888.257741	0.248511
888.441072	0.248600
888.624384	0.249038
888.807678	0.248826
888.990954	0.248983
889.174211	0.248674
889.357451	0.248407
889.540672	0.248847
889.723875	0.248360
889.907059	0.248356
890.090226	0.248269
890.273374	0.248087
890.456504	0.248332
890.639616	0.248352
890.822709	0.248552
891.005785	0.248253
891.188842	0.248007
891.371881	0.248192
891.554901	0.248154
891.737904	0.248200
891.920888	0.248391
892.103854	0.248536
892.286802	0.248157
892.469731	0.248525
892.652643	0.248996
892.835536	0.248890
893.018410	0.248748
893.201267	0.248859
893.384106	0.248430
893.566926	0.247889
893.749728	0.248223
893.932511	0.248464
894.115277	0.247926
894.298024	0.247711
894.480753	0.247759
894.663464	0.247672
894.846157	0.247514
895.028831	0.247874
895.211487	0.247788
895.394125	0.247241
895.576745	0.247298
895.759346	0.247242
895.941930	0.246793
896.124495	0.246533
896.307041	0.246409
896.489570	0.246169
896.672080	0.245863
896.854573	0.246169
897.037046	0.246052
897.219502	0.245384
897.401940	0.245410
897.584359	0.245467
897.766760	0.245485
897.949143	0.245243
898.131507	0.245187
898.313854	0.244977
898.496182	0.244803
898.678492	0.244464
898.860783	0.244714
899.043057	0.244606
899.225312	0.244353
899.407549	0.243992
899.589768	0.243904
899.771968	0.243951
899.954151	0.243941
900.136315	0.243466
900.318461	0.243382
900.500588	0.242937
900.682698	0.242810
900.864789	0.242773
901.046862	0.242860
901.228917	0.242643
901.410953	0.242633
901.592971	0.242334
901.774972	0.242566
901.956953	0.242715
902.138917	0.242942
902.320862	0.242485
902.502790	0.242306
902.684699	0.242201
902.866589	0.242496
903.048462	0.242063
903.230316	0.241882
903.412152	0.241693
903.593970	0.241240
903.775770	0.240512
903.957551	0.240291
904.139314	0.240332
904.321059	0.239894
904.502786	0.239264
904.684494	0.238835
904.866185	0.238804
905.047857	0.238127
905.229510	0.238242
905.411146	0.238571
905.592763	0.238738
905.774363	0.238186
905.955943	0.238150
906.137506	0.237798
906.319051	0.237575
906.500577	0.237013
906.682085	0.236947
906.863575	0.236369
907.045046	0.235833
907.226500	0.235518
907.407935	0.235332
907.589352	0.234842
907.770750	0.234415
907.952131	0.234327
908.133493	0.233997
908.314837	0.233734
908.496163	0.233351
908.677470	0.233066
908.858760	0.232497
909.040031	0.232529
909.221284	0.232325
909.402518	0.232314
909.583735	0.231766
909.764933	0.231736
909.946113	0.231471
910.127275	0.230975
910.308418	0.230295
910.489544	0.229937
910.670651	0.229404
910.851740	0.229010
911.032810	0.228603
911.213863	0.227957
911.394897	0.227635
911.575913	0.227259
911.756911	0.227195
911.937890	0.227061
912.118851	0.226734
912.299794	0.226112
912.480719	0.225677
912.661626	0.225040
912.842514	0.225379
913.023384	0.224921
913.204236	0.224140
913.385070	0.223485
913.565886	0.222794
913.746683	0.222290
913.927462	0.221769
914.108223	0.221328
914.288965	0.221069
914.469690	0.220068
914.650396	0.219252
914.831084	0.218956
915.011754	0.218726
915.192405	0.218473
915.373038	0.217877
915.553653	0.217872
915.734250	0.217178
915.914829	0.216563
916.095389	0.216058
916.275931	0.216087
916.456455	0.215766
916.636961	0.215226
916.817448	0.215507
916.997917	0.215087
917.178368	0.214628
917.358801	0.214445
917.539216	0.214298
917.719612	0.214279
917.899990	0.213807
918.080350	0.213221
918.260692	0.212957
918.441015	0.212183
918.621320	0.212069
918.801607	0.210870
918.981876	0.210781
919.162127	0.210087
919.342359	0.209226
919.522573	0.208720
919.702769	0.208113
919.882947	0.207384
920.063106	0.207084
920.243247	0.206076
920.423370	0.205621
920.603475	0.204826
920.783562	0.204578
920.963630	0.203952
921.143680	0.203442
921.323712	0.203005
921.503725	0.202963
921.683721	0.201955
921.863698	0.201616
922.043657	0.201305
922.223598	0.200660
922.403520	0.200021
922.583424	0.200048
922.763311	0.199972
922.943178	0.198884
923.123028	0.198195
923.302859	0.197721
923.482673	0.197193
923.662467	0.196313
923.842244	0.195644
924.022003	0.194838
924.201743	0.193794
924.381465	0.193161
924.561169	0.193353
924.740854	0.192152
924.920522	0.191674
925.100171	0.190945
925.279802	0.191452
925.459414	0.191164
925.639009	0.190747
925.818585	0.190602
925.998143	0.189947
926.177683	0.189313
926.357205	0.189228
926.536708	0.188515
926.716193	0.187737
926.895660	0.186354
927.075109	0.185866
927.254539	0.184999
927.433951	0.184596
927.613345	0.183679
927.792721	0.183062
927.972079	0.181566
928.151418	0.180154
928.330739	0.180378
928.510042	0.180375
928.689327	0.178873
928.868593	0.178791
929.047841	0.177462
929.227071	0.176553
929.406283	0.175712
929.585476	0.175911
929.764652	0.176132
929.943809	0.175318
930.122948	0.173823
930.302068	0.173761
930.481171	0.172514
930.660255	0.172051
930.839321	0.170815
931.018369	0.169937
931.197398	0.168709
931.376409	0.167383
931.555402	0.166079
931.734377	0.166155
931.913334	0.165668
932.092272	0.165013
932.271192	0.164666
932.450094	0.164374
932.628978	0.163644
932.807844	0.162479
932.986691	0.162220
933.165520	0.161608
933.344331	0.160266
933.523123	0.159093
933.701898	0.158326
933.880654	0.156215
934.059392	0.155806
934.238111	0.156208
934.416813	0.155907
934.595496	0.155633
934.774161	0.154629
934.952808	0.153838
935.131437	0.152990
935.310047	0.151956
935.488639	0.152079
935.667213	0.151490
935.845769	0.150126
936.024306	0.149625
936.202825	0.148974
936.381326	0.148899
936.559809	0.148202
936.738274	0.148193
936.916720	0.148650
937.095148	0.148463
937.273558	0.147249
937.451950	0.145930
937.630323	0.145437
937.808678	0.143857
937.987015	0.143645
938.165334	0.143562
938.343635	0.143372
938.521917	0.142339
938.700181	0.141576
938.878427	0.141631
939.056655	0.141812
939.234864	0.141033
939.413055	0.140546
939.591228	0.139403
939.769383	0.138599
939.947519	0.136674
940.125638	0.135581
940.303738	0.134784
940.481820	0.133892
940.659883	0.132696
940.837929	0.132154
941.015956	0.132015
941.193965	0.130847
941.371955	0.130319
941.549928	0.129441
941.727882	0.128666
941.905818	0.128250
942.083736	0.126562
942.261636	0.125891
942.439517	0.125560
942.617380	0.124868
942.795225	0.124234
942.973052	0.123440
943.150860	0.123516
943.328651	0.122580
943.506423	0.121724
943.684176	0.121133
943.861912	0.120336
944.039629	0.119616
944.217328	0.118057
944.395009	0.117742
944.572672	0.116278
944.750317	0.115693
944.927943	0.114882
945.105551	0.113930
945.283141	0.114254
945.460712	0.112809
945.638265	0.112475
945.815801	0.111399
945.993317	0.111681
946.170816	0.110853
946.348297	0.109995
946.525759	0.110734
946.703203	0.110620
946.880629	0.108883
947.058036	0.109527
947.235425	0.108553
947.412797	0.109209
947.590149	0.107243
947.767484	0.106955
947.944800	0.105707
948.122099	0.104804
948.299379	0.103679
948.476640	0.103585
948.653884	0.102194
948.831109	0.100908
949.008316	0.100152
949.185505	0.100331
949.362676	0.100052
949.539828	0.099370
949.716962	0.098925
949.894078	0.098060
950.071176	0.098095
950.248256	0.096910
950.425317	0.096016
950.602360	0.095464
950.779385	0.094992
950.956391	0.095077
951.133380	0.094984
951.310350	0.093698
951.487302	0.093774
951.664235	0.091769
951.841151	0.093148
952.018048	0.093272
952.194927	0.092314
952.371788	0.091977
952.548631	0.091973
952.725455	0.091729
952.902261	0.091115
953.079049	0.089700
953.255819	0.089733
953.432570	0.087602
953.609303	0.086723
953.786018	0.087159
953.962715	0.085154
954.139394	0.082719
954.316054	0.082262
954.492696	0.080507
954.669320	0.081221
954.845926	0.081667
955.022513	0.080579
955.199083	0.079982
955.375634	0.078273
955.552166	0.079069
955.728681	0.078736
955.905177	0.077627
956.081655	0.079561
956.258115	0.078769
956.434557	0.078129
956.610980	0.078763
956.787385	0.080390
956.963772	0.080313
957.140141	0.080008
957.316492	0.082228
957.492824	0.081237
957.669138	0.078619
957.845434	0.079330
958.021712	0.078083
958.197971	0.077991
958.374212	0.076040
958.550435	0.075150
958.726640	0.074258
958.902826	0.072819
959.078995	0.075265
959.255145	0.075555
959.431277	0.074233
959.607390	0.075956
959.783486	0.075638
959.959563	0.077299
960.135622	0.078163
960.311662	0.077472
960.487685	0.076426
960.663689	0.074260
960.839675	0.073729
961.015643	0.073249
961.191593	0.071634
961.367524	0.071498
961.543437	0.068116
961.719332	0.068790
961.895209	0.069724
962.071067	0.070165
962.246907	0.071830
962.422730	0.072632
962.598533	0.072192
962.774319	0.072461
962.950086	0.074538
963.125835	0.074787
963.301566	0.074051
963.477279	0.071297
963.652973	0.070798
963.828650	0.069833
964.004308	0.069809
964.179947	0.069993
964.355569	0.069791
964.531172	0.068740
964.706757	0.071142
964.882324	0.070112
965.057873	0.072773
965.233403	0.073116
965.408916	0.071972
965.584410	0.072269
965.759885	0.071495
965.935343	0.073201
966.110782	0.071831
966.286203	0.069187
966.461606	0.070104
966.636991	0.069672
966.812357	0.070131
966.987705	0.071458
967.163035	0.071967
967.338347	0.073962
967.513641	0.072118
967.688916	0.073522
967.864173	0.074596
968.039412	0.073457
968.214632	0.072249
968.389835	0.071228
968.565019	0.069455
968.740185	0.068922
968.915333	0.067147
969.090462	0.068778
969.265573	0.068104
969.440667	0.069934
969.615741	0.071043
969.790798	0.069552
969.965836	0.068834
970.140856	0.071501
970.315858	0.073116
970.490842	0.071987
970.665808	0.070092
970.840755	0.070833
971.015684	0.069293
971.190595	0.068551
971.365487	0.070210
971.540362	0.070991
971.715218	0.069298
971.890056	0.066664
972.064875	0.068795
972.239677	0.068518
972.414460	0.064715
972.589225	0.064912
972.763972	0.065093
972.938700	0.066287
973.113411	0.065844
973.288103	0.064262
973.462777	0.066274
973.637432	0.066310
973.812070	0.067232
973.986689	0.069531
974.161290	0.068551
974.335873	0.066973
974.510437	0.066046
974.684984	0.066184
974.859512	0.068580
975.034022	0.067548
975.208513	0.064342
975.382987	0.064155
975.557442	0.063556
975.731879	0.063770
975.906298	0.063995
976.080698	0.063305
976.255080	0.064973
976.429445	0.063726
976.603790	0.062294
976.778118	0.066508
976.952427	0.066088
977.126719	0.068155
977.300992	0.067827
977.475246	0.067031
977.649483	0.067595
977.823701	0.066283
977.997901	0.066527
978.172083	0.066634
978.346247	0.063843
978.520392	0.063486
978.694519	0.063267
978.868628	0.062176
979.042719	0.064102
979.216791	0.063767
979.390845	0.064166
979.564882	0.064549
979.738899	0.066600
979.912899	0.068349
980.086880	0.069957
980.260843	0.067487
980.434788	0.070819
980.608715	0.070703
980.782623	0.070546
980.956514	0.069259
981.130386	0.069347
981.304240	0.066209
981.478075	0.066644
981.651892	0.066216
981.825692	0.068166
981.999472	0.064436
982.173235	0.063445
982.346980	0.063979
982.520706	0.063059
982.694414	0.062712
982.868104	0.064469
983.041775	0.062423
983.215428	0.061195
983.389064	0.060063
983.562680	0.062106
983.736279	0.061486
983.909860	0.060649
984.083422	0.062965
984.256966	0.062368
984.430491	0.061357
984.603999	0.062479
984.777488	0.063486
984.950959	0.063481
985.124412	0.062489
985.297847	0.063152
985.471263	0.062902
985.644661	0.064472
985.818041	0.064091
985.991403	0.065410
986.164747	0.063913
986.338072	0.062971
986.511379	0.064223
986.684668	0.065384
986.857938	0.066328
987.031191	0.065725
987.204425	0.064127
987.377641	0.064935
987.550839	0.065047
987.724018	0.066031
987.897179	0.066434
988.070322	0.065322
988.243447	0.063602
988.416554	0.062926
988.589642	0.064165
988.762712	0.063095
988.935764	0.062798
989.108798	0.060925
989.281813	0.061658
989.454811	0.062162
989.627790	0.064950
989.800751	0.063757
989.973693	0.063891
990.146617	0.063723
990.319524	0.063955
990.492412	0.064562
990.665281	0.067923
990.838133	0.066881
991.010966	0.067117
991.183781	0.065888
991.356578	0.068161
991.529356	0.068403
991.702117	0.070863
991.874859	0.069533
992.047583	0.068578
992.220288	0.064689
992.392976	0.065764
992.565645	0.064565
992.738296	0.063986
992.910929	0.063197
993.083543	0.062652
993.256139	0.060759
993.428718	0.061203
993.601277	0.061709
993.773819	0.065042
993.946342	0.065359
994.118848	0.065817
994.291335	0.065248
994.463803	0.066752
994.636254	0.068136
994.808686	0.068648
994.981100	0.070474
995.153496	0.070161
995.325874	0.068617
995.498233	0.067872
995.670574	0.068222
995.842897	0.067480
996.015202	0.066679
996.187488	0.064362
996.359757	0.063945
996.532007	0.061570
996.704239	0.061227
996.876452	0.061957
997.048648	0.061813
997.220825	0.061005
997.392984	0.061144
997.565124	0.062080
997.737247	0.063708
997.909351	0.064057
998.081437	0.065392
998.253505	0.064842
998.425554	0.064491
998.597586	0.063341
998.769599	0.062752
998.941594	0.062556
999.113571	0.062905
999.285529	0.063217
999.457469	0.062126
999.629391	0.061648
999.801295	0.062683
999.973181	0.061915
1000.145048	0.063559
1000.316897	0.064967
1000.488728	0.066540
1000.660541	0.065155
1000.832335	0.064803
1001.004111	0.066944
1001.175869	0.066029
1001.347609	0.065149
1001.519331	0.067551
1001.691034	0.065938
1001.862719	0.065413
1002.034386	0.064774
1002.206035	0.064604
1002.377665	0.065802
1002.549277	0.064443
1002.720871	0.066192
1002.892447	0.067256
1003.064004	0.065720
1003.235544	0.066597
1003.407065	0.066145
1003.578568	0.064978
1003.750052	0.063726
1003.921519	0.061583
1004.092967	0.060405
1004.264397	0.059264
1004.435809	0.057835
1004.607202	0.058792
1004.778577	0.058854
1004.949934	0.058078
1005.121273	0.057513
1005.292594	0.057928
1005.463896	0.059739
1005.635180	0.060592
1005.806446	0.062283
1005.977694	0.064307
1006.148923	0.062490
1006.320135	0.062178
1006.491328	0.062588
1006.662503	0.064602
1006.833659	0.064486
1007.004798	0.062507
1007.175918	0.062358
1007.347020	0.060025
1007.518103	0.059385
1007.689169	0.059477
1007.860216	0.059397
1008.031245	0.058998
1008.202256	0.059908
1008.373248	0.060013
1008.544223	0.060939
1008.715179	0.061217
1008.886117	0.062541
1009.057036	0.062833
1009.227938	0.063894
1009.398821	0.064154
1009.569686	0.064634
1009.740533	0.063816
1009.911361	0.064478
1010.082172	0.063581
1010.252964	0.063472
1010.423738	0.063677
1010.594493	0.063310
1010.765231	0.061741
1010.935950	0.061037
1011.106651	0.061040
1011.277334	0.060772
1011.447998	0.060679
1011.618645	0.061068
1011.789273	0.060132
1011.959882	0.058487
1012.130474	0.058109
1012.301048	0.059131
1012.471603	0.060454
1012.642140	0.061760
1012.812658	0.060906
1012.983159	0.060952
1013.153641	0.061207
1013.324105	0.061278
1013.494551	0.063735
1013.664979	0.064375
1013.835388	0.063467
1014.005779	0.062477
1014.176152	0.062494
1014.346507	0.063287
1014.516843	0.062364
1014.687162	0.062974
1014.857462	0.062181
1015.027744	0.061287
1015.198007	0.058312
1015.368252	0.058461
1015.538480	0.059760
1015.708689	0.057757
1015.878879	0.057390
1016.049052	0.057545
1016.219206	0.057769
1016.389342	0.059058
1016.559460	0.059387
1016.729559	0.061578
1016.899641	0.062082
1017.069704	0.060668
1017.239749	0.063191
1017.409775	0.062741
1017.579784	0.063710
1017.749774	0.062381
1017.919746	0.063367
1018.089700	0.062117
1018.259635	0.061929
1018.429553	0.062830
1018.599452	0.063164
1018.769333	0.061349
1018.939195	0.061709
1019.109040	0.061891
1019.278866	0.062641
1019.448674	0.061922
1019.618464	0.062680
1019.788235	0.062887
1019.957989	0.061505
1020.127724	0.059913
1020.297441	0.060787
1020.467139	0.060094
1020.636820	0.059322
1020.806482	0.060043
1020.976126	0.059475
1021.145752	0.059325
1021.315359	0.058551
1021.484948	0.059226
1021.654519	0.060404
1021.824072	0.058889
1021.993607	0.059105
1022.163123	0.059667
1022.332621	0.058162
1022.502101	0.057478
1022.671563	0.057077
1022.841007	0.057855
1023.010432	0.059069
1023.179839	0.059837
1023.349228	0.059910
1023.518598	0.059297
1023.687951	0.059444
1023.857285	0.058658
1024.026601	0.060824
1024.195899	0.060919
1024.365178	0.060616
1024.534439	0.059121
1024.703682	0.059316
1024.872907	0.061843
1025.042114	0.064434
1025.211302	0.063141
1025.380472	0.064827
1025.549624	0.065407
1025.718758	0.065983
1025.887873	0.067434
1026.056970	0.068295
1026.226049	0.068195
1026.395110	0.066830
1026.564153	0.064765
1026.733177	0.066761
1026.902183	0.065830
1027.071171	0.064543
1027.240141	0.064148
1027.409092	0.063953
1027.578026	0.063042
1027.746940	0.061782
1027.915837	0.061323
1028.084716	0.062910
1028.253576	0.062076
1028.422418	0.062941
1028.591242	0.061594
1028.760048	0.062450
1028.928835	0.061168
1029.097604	0.060783
1029.266355	0.060630
1029.435088	0.061930
1029.603803	0.060053
1029.772499	0.060711
1029.941177	0.059150
1030.109837	0.059392
1030.278478	0.057124
1030.447102	0.057188
1030.615707	0.057945
1030.784294	0.059242
1030.952863	0.057874
1031.121413	0.059726
1031.289945	0.058777
1031.458460	0.059485
1031.626955	0.059041
1031.795433	0.061079
1031.963892	0.061126
1032.132334	0.060133
1032.300756	0.059612
1032.469161	0.059601
1032.637548	0.058423
1032.805916	0.057783
1032.974266	0.058119
1033.142598	0.059616
1033.310911	0.059553
1033.479207	0.059183
1033.647484	0.060684
1033.815743	0.060828
1033.983983	0.061458
1034.152206	0.061679
1034.320410	0.062559
1034.488596	0.063392
1034.656764	0.063461
1034.824914	0.062602
1034.993045	0.063026
1035.161158	0.063472
1035.329253	0.062617
1035.497330	0.063096
1035.665388	0.061721
1035.833428	0.062287
1036.001450	0.061056
1036.169454	0.061214
1036.337440	0.060298
1036.505407	0.061243
1036.673356	0.060152
1036.841287	0.061794
1037.009200	0.062584
1037.177094	0.063987
1037.344970	0.062523
1037.512828	0.062147
1037.680668	0.060419
1037.848489	0.061889
1038.016293	0.061653
1038.184078	0.062896
1038.351845	0.061815
1038.519593	0.059609
1038.687324	0.059569
1038.855036	0.059505
1039.022730	0.058950
1039.190406	0.058743
1039.358063	0.058267
1039.525702	0.057961
1039.693323	0.056013
1039.860926	0.056972
1040.028511	0.057630
1040.196077	0.056804
1040.363625	0.056672
1040.531155	0.058174
1040.698667	0.060342
1040.866161	0.061195
1041.033636	0.060823
1041.201093	0.061780
1041.368532	0.061424
1041.535952	0.062049
1041.703355	0.061618
1041.870739	0.063150
1042.038105	0.062780
1042.205452	0.061704
1042.372782	0.061236
1042.540093	0.061362
1042.707386	0.060797
1042.874661	0.060489
1043.041918	0.060575
1043.209156	0.062728
1043.376376	0.061825
1043.543578	0.062540
1043.710762	0.063799
1043.877927	0.063853
1044.045074	0.063697
1044.212203	0.064832
1044.379314	0.063968
1044.546407	0.063516
1044.713481	0.062470
1044.880537	0.061445
1045.047575	0.059459
1045.214595	0.058282
1045.381596	0.057316
1045.548579	0.058104
1045.715544	0.057385
1045.882491	0.058603
1046.049420	0.058003
1046.216330	0.057727
1046.383222	0.058174
1046.550096	0.058626
1046.716951	0.057902
1046.883789	0.056898
1047.050608	0.055235
1047.217409	0.054515
1047.384192	0.054198
1047.550956	0.054554
1047.717703	0.054787
1047.884431	0.055614
1048.051140	0.056620
1048.217832	0.055735
1048.384505	0.058155
1048.551161	0.058923
1048.717798	0.059911
1048.884416	0.059984
1049.051017	0.059656
1049.217599	0.061410
1049.384163	0.060961
1049.550709	0.061489
1049.717237	0.063376
1049.883746	0.060974
1050.050237	0.061474
1050.216710	0.061049
1050.383165	0.061523
1050.549601	0.060648
1050.716019	0.059627
1050.882420	0.061642
1051.048801	0.062353
1051.215165	0.061965
1051.381510	0.064206
1051.547837	0.063363
1051.714146	0.061887
1051.880437	0.059981
1052.046709	0.060346
1052.212964	0.058403
1052.379200	0.056198
1052.545417	0.054612
1052.711617	0.055448
1052.877798	0.054637
1053.043961	0.054396
1053.210106	0.055223
1053.376233	0.055847
1053.542341	0.057179
1053.708432	0.057673
1053.874504	0.056857
1054.040557	0.057503
1054.206593	0.057831
1054.372610	0.059103
1054.538609	0.059036
1054.704590	0.060299
1054.870553	0.060447
1055.036497	0.061293
1055.202424	0.061447
1055.368331	0.063902
1055.534221	0.064277
1055.700093	0.062952
1055.865946	0.061760
1056.031781	0.063069
1056.197598	0.062912
1056.363397	0.062897
1056.529177	0.062882
1056.694939	0.062599
1056.860683	0.060751
1057.026409	0.059035
1057.192116	0.059002
1057.357806	0.058266
1057.523477	0.057051
1057.689130	0.056166
1057.854764	0.055020
1058.020381	0.055071
1058.185979	0.055288
1058.351559	0.058766
1058.517120	0.061559
1058.682664	0.063121
1058.848189	0.064727
1059.013696	0.063533
1059.179185	0.063810
1059.344656	0.064442
1059.510108	0.062759
1059.675542	0.062705
1059.840958	0.060953
1060.006356	0.058926
1060.171735	0.056766
1060.337096	0.056180
1060.502439	0.057763
1060.667764	0.056392
1060.833071	0.057998
1060.998359	0.059517
1061.163629	0.061176
1061.328881	0.061084
1061.494115	0.061587
1061.659330	0.061731
1061.824527	0.061233
1061.989706	0.060837
1062.154867	0.061638
1062.320010	0.061864
1062.485134	0.060529
1062.650240	0.058652
1062.815328	0.058073
1062.980398	0.057430
1063.145449	0.057680
1063.310482	0.058634
1063.475497	0.060611
1063.640494	0.061670
1063.805473	0.059823
1063.970433	0.061461
1064.135375	0.062170
1064.300299	0.062019
1064.465204	0.062235
1064.630092	0.062880
1064.794961	0.062064
1064.959812	0.058475
1065.124645	0.059582
1065.289459	0.059396
1065.454256	0.057924
1065.619034	0.057729
1065.783793	0.057063
1065.948535	0.056779
1066.113258	0.056568
1066.277964	0.057738
1066.442651	0.060984
1066.607319	0.058964
1066.771970	0.061074
1066.936602	0.058966
1067.101216	0.061566
1067.265812	0.061828
1067.430389	0.063206
1067.594949	0.062990
1067.759490	0.061353
1067.924013	0.060728
1068.088518	0.059890
1068.253004	0.058679
1068.417472	0.061725
1068.581922	0.059810
1068.746354	0.061425
1068.910768	0.060822
1069.075163	0.061717
1069.239540	0.061629
1069.403899	0.061413
1069.568240	0.061799
1069.732562	0.062033
1069.896866	0.059197
1070.061152	0.059684
1070.225420	0.058942
1070.389670	0.059703
1070.553901	0.059285
1070.718114	0.058648
1070.882309	0.058923
1071.046486	0.060422
1071.210644	0.060283
1071.374784	0.061665
1071.538906	0.060622
1071.703010	0.060872
1071.867096	0.058169
1072.031163	0.058433
1072.195212	0.057888
1072.359243	0.057379
1072.523256	0.056011
1072.687250	0.057829
1072.851226	0.059243
1073.015184	0.060953
1073.179124	0.061081
1073.343045	0.061779
1073.506949	0.063128
1073.670834	0.065414
1073.834701	0.065685
1073.998549	0.066526
1074.162380	0.064479
1074.326192	0.062852
1074.489986	0.060348
1074.653761	0.061035
1074.817519	0.061484
1074.981258	0.061879
1075.144979	0.061692
1075.308682	0.060833
1075.472367	0.059520
1075.636033	0.060324
1075.799681	0.059362
1075.963311	0.060834
1076.126923	0.058196
1076.290516	0.060238
1076.454092	0.057231
1076.617649	0.056931
1076.781187	0.058545
1076.944708	0.059689
1077.108210	0.058875
1077.271695	0.062321
1077.435160	0.061749
1077.598608	0.062132
1077.762038	0.061315
1077.925449	0.060970
1078.088842	0.060496
1078.252217	0.060268
1078.415573	0.061119
1078.578912	0.063232
1078.742232	0.062201
1078.905534	0.061927
1079.068817	0.062216
1079.232083	0.060306
1079.395330	0.060631
1079.558559	0.062502
1079.721770	0.062645
1079.884962	0.060240
1080.048136	0.058815
1080.211293	0.057095
1080.374430	0.057849
1080.537550	0.059047
1080.700651	0.059068
1080.863735	0.058338
1081.026800	0.055652
1081.189846	0.054391
1081.352875	0.055814
1081.515885	0.057021
1081.678877	0.057786
1081.841851	0.056745
1082.004807	0.053612
1082.167744	0.055589
1082.330663	0.057812
1082.493564	0.057427
1082.656447	0.059106
1082.819312	0.059629
1082.982158	0.057751
1083.144986	0.058837
1083.307796	0.059810
1083.470587	0.062411
1083.633361	0.061159
1083.796116	0.063342
1083.958853	0.065383
1084.121571	0.063615
1084.284272	0.062835
1084.446954	0.064767
1084.609618	0.064055
1084.772264	0.063711
1084.934892	0.061934
1085.097501	0.063050
1085.260092	0.061202
1085.422665	0.061744
1085.585220	0.063406
1085.747756	0.063852
1085.910274	0.063336
1086.072774	0.063779
1086.235256	0.063277
1086.397720	0.064310
1086.560165	0.066624
1086.722592	0.064415
1086.885001	0.065100
1087.047392	0.063848
1087.209764	0.066095
1087.372119	0.063431
1087.534455	0.062906
1087.696772	0.063884
1087.859072	0.064128
1088.021353	0.061520
1088.183616	0.065552
1088.345861	0.065833
1088.508088	0.067964
1088.670296	0.065896
1088.832486	0.066876
1088.994658	0.068085
1089.156812	0.067411
1089.318948	0.070613
1089.481065	0.068633
1089.643164	0.065589
1089.805245	0.065994
1089.967308	0.062776
1090.129352	0.062982
1090.291378	0.062168
1090.453386	0.061287
1090.615376	0.062068
1090.777347	0.060468
1090.939301	0.059241
1091.101236	0.060217
1091.263153	0.059292
1091.425051	0.060711
1091.586932	0.058408
1091.748794	0.059866
1091.910638	0.061042
1092.072463	0.059883
1092.234271	0.057189
1092.396060	0.060249
1092.557831	0.057727
1092.719584	0.055942
1092.881319	0.058116
1093.043035	0.062972
1093.204733	0.063455
1093.366413	0.061901
1093.528075	0.061070
1093.689718	0.062414
1093.851343	0.060818
1094.012950	0.063350
1094.174539	0.062890
1094.336110	0.062194
1094.497662	0.059509
1094.659196	0.058153
1094.820712	0.056378
1094.982210	0.058794
1095.143689	0.060607
1095.305151	0.062727
1095.466594	0.063050
1095.628018	0.062797
1095.789425	0.062012
1095.950813	0.064843
1096.112183	0.068928
1096.273535	0.069048
1096.434869	0.068157
1096.596184	0.068917
1096.757482	0.065850
1096.918761	0.063189
1097.080021	0.065909
1097.241264	0.068051
1097.402488	0.064313
1097.563694	0.062587
1097.724882	0.062054
1097.886052	0.062386
1098.047203	0.061759
1098.208336	0.066485
1098.369451	0.067535
1098.530548	0.067825
1098.691627	0.064422
1098.852687	0.067766
1099.013729	0.065718
1099.174753	0.068101
1099.335758	0.067159
1099.496746	0.066377
1099.657715	0.062793
1099.818666	0.065279
1099.979599	0.064874
1100.140513	0.064606
1100.301409	0.063590
1100.462287	0.066856
1100.623147	0.066578
1100.783989	0.067130
1100.944812	0.062771
1101.105617	0.063031
1101.266404	0.062851
1101.427173	0.062564
1101.587923	0.064722
1101.748656	0.063246
1101.909370	0.063255
1102.070066	0.067719
1102.230743	0.069129
1102.391403	0.069104
1102.552044	0.073017
1102.712667	0.070376
1102.873271	0.069924
1103.033858	0.072235
1103.194426	0.072772
1103.354976	0.070457
1103.515508	0.069011
1103.676021	0.068816
1103.836517	0.074626
1103.996994	0.069437
1104.157453	0.074175
1104.317893	0.072475
1104.478316	0.071302
1104.638720	0.069378
1104.799106	0.068648
1104.959474	0.066743
1105.119823	0.066570
1105.280155	0.066521
1105.440468	0.067735
1105.600763	0.063015
1105.761039	0.061676
1105.921298	0.060199
1106.081538	0.060123
1106.241760	0.061159
1106.401964	0.059845
1106.562149	0.059174
1106.722316	0.056589
1106.882465	0.058645
1107.042596	0.056170
1107.202709	0.059829
1107.362803	0.062363
1107.522879	0.065523
1107.682937	0.063222
1107.842977	0.064064
1108.002999	0.065955
1108.163002	0.065857
1108.322987	0.063494
1108.482954	0.071931
1108.642902	0.068850
1108.802833	0.066769
1108.962745	0.065443
1109.122639	0.069556
1109.282515	0.071801
1109.442372	0.073170
1109.602211	0.073211
1109.762032	0.075565
1109.921835	0.068164
1110.081620	0.074581
1110.241386	0.071928
1110.401134	0.068935
1110.560864	0.066403
1110.720576	0.067468
1110.880269	0.065392
1111.039945	0.067703
1111.199602	0.069706
1111.359240	0.072996
1111.518861	0.070785
1111.678463	0.071998
1111.838047	0.074312
1111.997613	0.075165
1112.157161	0.072077
1112.316690	0.070604
1112.476202	0.067781
1112.635695	0.065727
1112.795169	0.064136
1112.954626	0.063679
1113.114064	0.063718
1113.273484	0.066468
1113.432886	0.063487
1113.592270	0.062499
1113.751635	0.064984
1113.910983	0.066438
1114.070312	0.065947
1114.229622	0.065839
1114.388915	0.064330
1114.548189	0.062115
1114.707445	0.061655
1114.866683	0.066317
1115.025903	0.071045
1115.185104	0.070061
1115.344287	0.069496
1115.503452	0.067830
1115.662599	0.072156
1115.821727	0.073862
1115.980838	0.075716
1116.139930	0.075862
1116.299004	0.073179
1116.458059	0.068058
1116.617097	0.069376
1116.776116	0.070925
1116.935117	0.073435
1117.094099	0.069837
1117.253064	0.066959
1117.412010	0.068695
1117.570938	0.067327
1117.729848	0.072712
1117.888740	0.076471
1118.047613	0.074099
1118.206468	0.074373
1118.365305	0.072587
1118.524124	0.072670
1118.682924	0.081457
1118.841707	0.080896
1119.000471	0.079740
1119.159216	0.076255
1119.317944	0.070213
1119.476653	0.069483
1119.635344	0.066932
1119.794017	0.072830
1119.952672	0.072339
1120.111308	0.066691
1120.269927	0.067483
1120.428527	0.063285
1120.587108	0.064312
1120.745672	0.067189
1120.904217	0.068050
1121.062744	0.070844
1121.221253	0.070838
1121.379744	0.070194
1121.538216	0.071290
1121.696671	0.066575
1121.855107	0.072654
1122.013524	0.066702
1122.171924	0.066072
1122.330305	0.066627
1122.488668	0.066197
1122.647013	0.058813
1122.805340	0.062788
1122.963648	0.054972
1123.121938	0.059278
1123.280210	0.056446
1123.438464	0.059399
1123.596700	0.064868
1123.754917	0.061305
1123.913116	0.062086
1124.071297	0.064044
1124.229459	0.063067
1124.387604	0.071112
1124.545730	0.072398
1124.703838	0.074891
1124.861928	0.075105
1125.019999	0.070842
1125.178052	0.071251
1125.336088	0.070662
1125.494104	0.076908
1125.652103	0.067161
1125.810083	0.067182
1125.968045	0.065747
1126.125989	0.066059
1126.283915	0.068073
1126.441823	0.068395
1126.599712	0.074774
1126.757583	0.078087
1126.915436	0.071228
1127.073270	0.082510
1127.231087	0.078583
1127.388885	0.076176
1127.546665	0.076838
1127.704426	0.079450
1127.862170	0.078323
1128.019895	0.072268
1128.177602	0.061169
1128.335291	0.067602
1128.492961	0.064331
1128.650614	0.072665
1128.808248	0.072737
1128.965864	0.069568
1129.123461	0.067734
1129.281041	0.069347
1129.438602	0.070788
1129.596145	0.080221
1129.753670	0.080369
1129.911176	0.080309
1130.068665	0.073904
1130.226135	0.080270
1130.383587	0.083424
1130.541020	0.080463
1130.698436	0.079281
1130.855833	0.084865
1131.013212	0.086563
1131.170573	0.080649
1131.327915	0.079938
1131.485239	0.080862
1131.642545	0.074695
1131.799833	0.076799
1131.957103	0.079933
1132.114354	0.074066
1132.271588	0.066251
1132.428803	0.063078
1132.585999	0.069634
1132.743178	0.070695
1132.900338	0.069538
1133.057480	0.080598
1133.214604	0.072415
1133.371710	0.066242
1133.528797	0.075478
1133.685866	0.077994
1133.842917	0.083325
1133.999950	0.077069
1134.156964	0.077296
1134.313960	0.078292
1134.470938	0.073689
1134.627898	0.077150
1134.784840	0.078462
1134.941763	0.071235
1135.098668	0.076311
1135.255555	0.063020
1135.412424	0.066301
1135.569274	0.067821
1135.726107	0.073380
1135.882921	0.069122
1136.039716	0.076783
1136.196494	0.079110
1136.353253	0.084962
1136.509995	0.087210
1136.666717	0.097783
1136.823422	0.097700
1136.980109	0.097825
1137.136777	0.088566
1137.293427	0.085345
1137.450059	0.080156
1137.606672	0.082643
1137.763267	0.081946
1137.919844	0.077612
1138.076403	0.069465
1138.232944	0.067384
1138.389466	0.066270
1138.545971	0.059641
1138.702457	0.063088
1138.858924	0.061288
1139.015374	0.066807
1139.171805	0.064735
1139.328218	0.064648
1139.484613	0.067801
1139.640990	0.067241
1139.797348	0.074412
1139.953688	0.086016
1140.110010	0.081695
1140.266314	0.086535
1140.422600	0.079479
1140.578867	0.083259
1140.735116	0.081403
1140.891347	0.081017
1141.047559	0.089388
1141.203754	0.086906
1141.359930	0.089660
1141.516088	0.096145
1141.672228	0.100934
1141.828349	0.103698
1141.984452	0.101085
1142.140537	0.099765
1142.296604	0.103943
1142.452653	0.094431
1142.608683	0.081942
1142.764695	0.074141
1142.920689	0.069784
1143.076665	0.069575
1143.232622	0.070543
1143.388562	0.076086
1143.544483	0.077582
1143.700385	0.071458
1143.856270	0.072227
1144.012136	0.080567
1144.167985	0.078401
1144.323814	0.075040
1144.479626	0.068486
1144.635420	0.055011
1144.791195	0.051014
1144.946952	0.052657
1145.102691	0.051442
1145.258411	0.048436
1145.414113	0.046205
1145.569798	0.055996
1145.725463	0.061646
1145.881111	0.060844
1146.036741	0.065836
1146.192352	0.071638
1146.347945	0.067386
1146.503519	0.072430
1146.659076	0.076972
1146.814614	0.075599
1146.970134	0.069155
1147.125636	0.071950
1147.281120	0.069296
1147.436585	0.080428
1147.592032	0.072964
1147.747461	0.076634
1147.902872	0.079950
1148.058265	0.068714
1148.213639	0.063532
1148.368995	0.067753
1148.524333	0.071921
1148.679653	0.076472
1148.834954	0.068835
1148.990237	0.073176
1149.145502	0.079796
1149.300749	0.084784
1149.455977	0.091551
1149.611188	0.090022
1149.766380	0.090817
1149.921553	0.073432
1150.076709	0.070300
1150.231846	0.074919
1150.386966	0.070938
1150.542066	0.067201
1150.697149	0.057597
1150.852214	0.062216
1151.007260	0.075502
1151.162288	0.072345
1151.317298	0.082418
1151.472289	0.086386
1151.627263	0.087671
1151.782218	0.089846
1151.937155	0.092275
1152.092073	0.096598
1152.246974	0.090843
1152.401856	0.082760
1152.556720	0.082241
1152.711566	0.084078
1152.866393	0.076502
1153.021203	0.077507
1153.175994	0.066323
1153.330767	0.066609
1153.485521	0.058111
1153.640258	0.064737
1153.794976	0.072170
1153.949676	0.075633
1154.104358	0.082776
1154.259021	0.085764
1154.413667	0.093150
1154.568294	0.108246
1154.722903	0.102714
1154.877493	0.120922
1155.032066	0.116411
1155.186620	0.104469
1155.341156	0.102076
1155.495674	0.091341
1155.650173	0.100267
1155.804654	0.078677
1155.959118	0.069601
1156.113562	0.067341
1156.267989	0.061070
1156.422397	0.058458
1156.576788	0.070546
1156.731160	0.072976
1156.885513	0.081521
1157.039849	0.078572
1157.194166	0.085685
1157.348465	0.087819
1157.502746	0.089234
1157.657009	0.084975
1157.811253	0.086264
1157.965479	0.084402
1158.119687	0.075473
1158.273877	0.063322
1158.428048	0.060413
1158.582201	0.045563
1158.736337	0.047887
1158.890453	0.058500
1159.044552	0.069320
1159.198632	0.061313
1159.352694	0.058943
1159.506738	0.053760
1159.660764	0.061237
1159.814771	0.060610
1159.968761	0.079274
1160.122732	0.084534
1160.276685	0.063694
1160.430619	0.056697
1160.584535	0.069163
1160.738434	0.067192
1160.892313	0.085197
1161.046175	0.073295
1161.200019	0.070727
1161.353844	0.058725
1161.507651	0.048783
1161.661440	0.054577
1161.815210	0.045388
1161.968962	0.046161
1162.122697	0.052837
1162.276412	0.046016
1162.430110	0.054888
1162.583789	0.057593
1162.737451	0.071440
1162.891094	0.082717
1163.044718	0.080867
1163.198325	0.089774
1163.351913	0.080081
1163.505483	0.071386
1163.659035	0.067036
1163.812569	0.063948
1163.966084	0.062551
1164.119581	0.042845
1164.273060	0.035851
1164.426521	0.037663
1164.579964	0.028616
1164.733388	0.038515
1164.886794	0.035456
1165.040182	0.033734
1165.193551	0.036981
1165.346903	0.036780
1165.500236	0.065597
1165.653551	0.061690
1165.806848	0.061996
1165.960126	0.068644
1166.113386	0.071383
1166.266628	0.084165
1166.419852	0.083529
1166.573058	0.079150
1166.726245	0.092776
1166.879414	0.072365
1167.032565	0.070480
1167.185698	0.073714
1167.338812	0.075974
1167.491909	0.075925
1167.644987	0.075362
1167.798046	0.099054
1167.951088	0.096708
1168.104111	0.087505
1168.257117	0.089164
1168.410103	0.103856
1168.563072	0.102454
1168.716023	0.098564
1168.868955	0.099521
1169.021869	0.104203
1169.174765	0.073273
1169.327642	0.089256
1169.480501	0.085107
1169.633343	0.083206
1169.786165	0.074937
1169.938970	0.072597
1170.091757	0.077902
1170.244525	0.073155
1170.397275	0.042783
1170.550007	0.059714
1170.702720	0.060428
1170.855415	0.036705
1171.008092	0.040629
1171.160751	0.041003
1171.313392	0.042345
1171.466014	-0.103145
1171.618619	0.060022
1171.771205	0.060022
1171.923772	0.060022
