sample name	sample
index	95
start time	 02-15-2021  10:50:39 AM
880	0.421733
Peak Time (s)	91.535
Peak Height 	0.4217
calc peak height	90,93
Baseline Time (s)	10.534
Baseline Value 	-0.003044
subtract baseline	10,4
Abs	0.329257
Peak Time (s)	91.535
Peak Height 	0.3293
calc peak height	90,93
Baseline Time (s)	11.536
Baseline Value 	0.004685
subtract baseline	10,3
PK_550	0.154639
Peak Time (s)	91.04
Peak Height 	0.1546
calc peak height	90,93
Baseline Time (s)	9.037
Baseline Value 	6.4433E-4
subtract baseline	10,2
PK_880	0.303678
Peak Time (s)	91.535
Peak Height 	0.3037
calc peak height	90,93
Baseline Time (s)	11.536
Baseline Value 	4.0256E-4
subtract baseline	10,1


Time (s)	A880-A510	A880-A775	A880-A975	A880	I510	I775	I975	I880	
0.034500	-0.000834	-0.000587	-0.004701	0.001468	4202.850177	15807.499565	3181.415946	8932.287936
0.537500	-0.005107	-0.000621	-0.014390	0.004379	4181.670157	15720.543325	3172.616956	8891.963713
1.035000	-0.002404	-0.001581	0.004850	0.003277	4192.846003	15724.744014	3186.949915	8907.199162
1.539000	-0.003485	-0.001518	-0.007086	0.005389	4183.461460	15664.590067	3176.980354	8878.044625
2.036000	-0.001066	0.001458	0.007726	0.001420	4202.304757	15869.646942	3190.382272	8932.957321
2.535500	-0.003092	0.000648	-0.002508	0.000105	4200.191656	15884.669572	3183.945373	8951.248418
3.036000	0.001618	-0.001377	-0.010104	-0.001784	4219.917042	15880.625255	3179.895799	8977.646037
3.537000	-0.000045	0.000393	0.000031	0.004148	4197.239550	15757.243271	3182.872851	8895.153975
4.037000	-0.002075	-0.000228	0.006468	0.000863	4200.962132	15836.082626	3189.871454	8940.699504
4.537000	0.000909	-0.000106	-0.011782	0.001155	4208.976973	15831.052737	3176.658181	8936.638499
5.037500	0.002522	0.000099	-0.007240	0.000123	4216.898581	15867.805382	3180.571388	8951.005518
5.537000	-0.000298	-0.000748	0.009506	-0.000908	4211.534058	15873.300014	3193.391411	8965.396933
6.035500	-0.000932	0.001053	-0.001762	0.000858	4204.373044	15874.328012	3183.940329	8940.766524
6.535500	0.001873	0.001173	-0.005171	0.001279	4211.485144	15865.345012	3181.216629	8934.906727
7.035000	0.000853	-0.000142	0.005725	-0.000749	4214.504642	15886.584740	3190.504215	8963.162696
7.535500	0.001230	0.000757	0.006215	0.000723	4211.228269	15869.523271	3189.789482	8942.651286
8.036500	-0.001039	-0.000739	-0.008657	-0.001853	4212.144154	15901.706010	3180.966736	8978.613641
8.536500	0.000415	0.000230	0.000601	0.000960	4208.082680	15846.805560	3185.559594	8939.352073
9.037000	0.000998	0.000000	0.000280	-0.000183	4213.244134	15873.963684	3186.150732	8955.271434
9.537500	-0.001500	-0.001176	-0.003498	-0.001360	4209.292051	15873.991974	3184.284742	8971.710436
10.037500	-0.002918	-0.000098	-0.005351	-0.000646	4202.937284	15884.830998	3182.454660	8961.728089
10.534500	0.001630	0.000423	0.002062	0.000000	4214.590662	15881.112082	3187.302815	8952.717287
11.037500	-0.003010	-0.000245	-0.004272	0.000017	4200.694881	15860.714663	3182.750306	8952.477634
11.535500	0.000000	0.001174	0.000000	0.000016	4209.661626	15903.019728	3185.805802	8952.492374
12.036000	-0.002479	0.000138	0.002931	-0.000693	4204.384853	15893.269401	3188.432210	8962.388599
12.536000	-0.004933	-0.000975	-0.005456	0.002470	4187.779067	15766.398959	3180.173784	8918.382656
13.036000	-0.002647	-0.001346	-0.002189	-0.003268	4211.566766	15925.821668	3186.593040	8998.447601
13.537000	-0.002199	-0.000250	-0.000934	-0.002012	4209.151533	15921.055911	3186.593040	8980.837529
14.051000	0.000383	0.000595	-0.002077	-0.001894	4216.529351	15942.774115	3185.685736	8979.177711
14.537000	-0.001741	0.000205	-0.004125	0.002756	4196.342194	15792.820315	3180.911359	8914.411653
15.037500	-0.000418	0.000954	0.001620	0.000828	4205.992801	15872.261285	3186.387696	8941.189397
15.548500	0.000504	0.000290	-0.000140	-0.001787	4216.572485	15930.453153	3187.003261	8977.682072
16.035500	-0.001223	-0.000144	0.011972	-0.002153	4212.492236	15928.419202	3196.134047	8982.806487
16.535500	-0.006098	-0.002737	-0.003515	0.001893	4186.049129	15731.451381	3181.955030	8926.379349
17.036000	-0.001379	0.001570	-0.006619	-0.000346	4206.629429	15925.654967	3181.342168	8957.548777
17.535500	0.005282	-0.000168	-0.005932	-0.000523	4227.172673	15879.101074	3181.955030	8960.018604
18.036500	0.000660	-0.000153	0.009775	-0.003238	4221.411598	15960.645758	3195.310523	8998.035979
18.537000	-0.000851	-0.001696	-0.000007	-0.000840	4209.676745	15843.068937	3186.416702	8964.439617
19.037500	-0.000263	0.000260	0.008430	0.000428	4207.645563	15863.499919	3191.620614	8946.752931
19.537500	-0.003585	-0.001896	0.001020	-0.000207	4199.655723	15818.344541	3186.700178	8955.604847
20.037500	0.000196	0.000508	0.003104	-0.000399	4211.487466	15895.517623	3188.345057	8958.280729
20.535000	0.001034	0.000917	0.010357	0.000075	4212.578849	15893.601887	3193.294188	8951.675323
21.035000	-0.004530	0.000211	-0.005038	-0.000835	4198.714294	15899.682643	3182.811399	8964.370130
21.536000	0.003780	-0.000023	0.007346	0.000673	4219.028036	15847.816823	3190.649826	8943.347983
22.036000	0.002099	0.000550	0.007612	-0.000266	4216.795515	15892.832032	3191.530603	8956.430620
22.536000	-0.002721	-0.001416	-0.005952	-0.001064	4204.766978	15858.038924	3182.324679	8967.567823
23.039500	0.000329	0.000402	-0.010674	0.000525	4209.122234	15864.830794	3177.872699	8945.397526
23.537000	-0.002980	-0.000601	-0.003241	-0.000772	4203.129285	15873.616788	3184.048293	8963.496048
24.037000	-0.000009	-0.000097	0.000540	-0.000493	4211.158850	15880.305056	3186.561108	8959.598710
24.537000	-0.000256	0.001770	0.008525	0.002037	4202.876067	15860.563380	3190.514664	8924.385576
25.038000	0.003408	0.001721	0.011816	0.001125	4216.548126	15886.256082	3193.594792	8937.046753
25.535500	0.000243	0.000237	-0.011513	0.000061	4210.251958	15873.739067	3177.609810	8951.863026
26.035500	0.002096	0.000896	0.004930	0.000572	4214.271484	15878.146557	3188.964150	8944.740384
26.535500	0.000756	-0.000918	0.001416	-0.000606	4213.785008	15859.220988	3187.273586	8961.167777
27.036500	-0.000448	0.000761	0.001757	0.000492	4206.903547	15876.516486	3186.728202	8945.863506
27.536500	-0.000070	0.000287	0.001193	-0.000090	4209.770077	15879.733452	3186.740751	8953.976641
28.037000	0.000366	0.000962	0.001262	-0.001684	4215.848157	15947.487851	3187.941291	8976.241270
28.540500	-0.000709	-0.001467	-0.001075	0.003108	4198.353711	15733.083119	3182.825669	8909.536064
29.037500	-0.003594	0.000656	0.012336	-0.001925	4204.733380	15945.549611	3196.235625	8979.622694
29.535000	-0.000219	-0.000504	0.004497	-0.001619	4213.898450	15901.739921	3190.243357	8975.327512
30.037500	-0.000004	0.001949	0.002409	-0.000898	4212.385316	15953.534476	3188.202837	8965.254621
30.535500	0.000849	0.000428	-0.004920	0.004877	4197.727755	15736.780136	3178.856191	8885.094893
31.036000	0.003629	0.000396	0.001264	-0.001847	4226.175512	15935.430452	3188.061133	8978.521592
31.550000	0.000161	0.000398	-0.003971	-0.001979	4216.122028	15939.452832	3184.389781	8980.379401
32.039500	-0.001811	0.000863	0.008850	0.001892	4198.694036	15837.919608	3190.857717	8926.398451
32.536500	-0.003946	-0.000461	0.006506	0.003307	4188.216678	15756.864735	3188.124841	8906.781430
33.066500	-0.002003	0.000447	-0.001004	-0.001463	4208.097898	15925.480430	3186.147203	8973.150756
33.537500	-0.000795	0.000228	0.004610	0.001345	4203.330130	15835.292355	3188.171956	8933.988455
34.034500	0.001774	0.001682	0.018008	-0.001451	4219.380861	15962.075291	3200.118776	8972.980048
34.540500	-0.000568	-0.000248	0.001389	0.003260	4198.321447	15764.550020	3184.476108	8907.436013
35.035000	0.004173	-0.000698	0.000079	-0.001603	4227.085368	15895.465492	3187.028806	8975.111412
35.535500	0.001278	-0.001066	0.003838	0.000097	4213.245419	15833.942254	3188.517711	8951.366817
36.035500	-0.000349	0.000410	0.008963	0.000283	4207.822297	15872.284613	3192.117609	8948.766738
36.536000	0.000841	0.000577	-0.001529	0.000718	4210.077200	15864.310954	3184.206833	8942.710905
37.036500	0.000537	0.000062	0.000077	0.000574	4209.597494	15853.270731	3185.460339	8944.716379
37.536500	-0.001614	-0.000139	0.007077	-0.000235	4205.595459	15871.377905	3191.116543	8955.998391
38.037000	-0.000937	-0.000982	0.003545	-0.000291	4207.780745	15847.983377	3188.586308	8956.779614
38.534000	0.002715	-0.000814	-0.018552	0.000243	4217.118646	15837.097733	3172.599381	8949.329035
39.035000	-0.003372	-0.000291	-0.003867	0.000197	4199.089304	15853.980362	3182.910188	8949.969420
39.535000	0.001002	0.000828	-0.005091	0.000905	4209.997208	15866.214971	3181.537597	8940.105984
40.035500	0.003383	0.001462	0.009425	0.001525	4215.272993	15866.646499	3191.546612	8931.492094
40.536000	0.001614	0.000391	0.012706	0.001655	4209.589934	15830.956002	3193.861141	8929.691347
41.036000	0.001552	-0.000144	-0.001176	0.000859	4211.782088	15838.707462	3184.358520	8940.758222
41.536500	0.003122	0.000348	-0.004145	0.000753	4216.808904	15856.473159	3182.317845	8942.229284
42.036500	-0.001330	-0.000165	-0.007107	-0.000433	4207.029885	15876.482830	3181.057573	8958.752453
42.537000	-0.000087	0.000893	-0.001400	0.001691	4204.405752	15844.783000	3183.603817	8929.179916
43.037000	0.002414	-0.000527	0.009323	-0.000570	4218.654557	15869.787421	3193.007630	8960.664198
43.534500	0.002643	0.000305	-0.010577	0.001040	4214.509188	15846.661016	3177.580512	8938.238277
44.037500	0.001031	0.000094	-0.000259	0.000868	4210.195534	15845.478055	3185.007892	8940.620241
44.535500	-0.001862	-0.000230	-0.003602	0.001210	4200.564295	15825.723872	3182.378850	8935.872826
45.035500	0.002925	-0.000856	0.015341	-0.002726	4226.706307	15924.273225	3199.074365	8990.841803
45.535500	0.004678	-0.000141	-0.001135	-0.002491	4231.310038	15938.642786	3186.793115	8987.547555
46.036000	0.001988	0.001132	0.011920	-0.000590	4217.436738	15919.878845	3194.938086	8960.956070
46.536000	0.001905	0.000548	0.003961	0.003344	4205.414327	15785.562274	3186.260573	8906.265187
47.036000	0.000626	0.000456	0.003210	-0.001285	4215.432237	15920.412492	3189.063921	8970.655809
47.537000	0.002771	-0.000421	0.005198	-0.001120	4221.386153	15889.326636	3190.390690	8968.347121
48.037500	0.002116	0.000683	-0.001584	-0.001714	4221.206059	15940.036943	3185.910910	8976.664594
48.588000	-0.003279	-0.001608	0.000624	0.002313	4193.106731	15752.345165	3184.606157	8920.556464
49.035000	0.003383	0.001379	-0.000761	0.002257	4213.079554	15842.418011	3183.656181	8921.333326
49.535500	0.002194	-0.000297	-0.002142	0.000982	4213.336577	15830.501586	3183.580527	8939.041550
50.044500	0.001029	0.000499	0.017746	-0.000735	4214.992847	15905.289208	3199.384437	8962.978751
50.536000	0.000579	-0.000167	0.011600	0.004620	4197.690650	15726.830443	3190.873415	8888.636646
51.036500	0.000851	-0.000057	-0.005277	-0.001951	4218.110175	15924.997120	3183.436120	8979.980082
51.536500	0.002241	-0.000042	0.001647	-0.003758	4227.758213	15979.559810	3189.725464	9005.336937
52.036500	0.003492	-0.000166	-0.004225	-0.006460	4239.790011	16057.178703	3187.427770	9043.459443
52.537000	-0.001475	-0.002390	0.004065	0.004576	4191.755015	15662.853537	3185.449977	8889.247313
53.037000	-0.079703	-0.040252	0.018702	0.243337	3528.789787	9671.065967	3059.786153	6355.225173
53.537500	-0.027787	-0.016123	0.004864	0.004635	4116.356630	15265.273447	3185.981985	8888.431797
54.035500	0.015282	-0.003061	0.018489	-0.106341	4629.123277	19338.362351	3289.742027	10632.704526
54.535000	0.001074	-0.010324	0.003080	-0.049502	4369.987853	17088.635716	3225.985650	9683.783870
55.035000	0.006202	-0.010288	-0.001036	-0.016984	4280.875411	16069.352484	3197.490871	9194.219426
55.536000	0.015323	-0.007355	0.021144	-0.037501	4377.553028	16797.515723	3230.938017	9498.825910
56.036500	0.023562	-0.005209	0.010806	-0.025133	4363.685854	16475.254503	3212.741427	9313.475038
56.536000	0.036485	-0.001550	0.031011	-0.017275	4380.717145	16345.048202	3222.518504	9198.432970
57.037000	0.053940	0.002224	0.061566	0.014344	4333.588795	15512.832153	3221.664925	8755.994135
57.537000	0.066461	0.007257	0.072419	0.046466	4270.854636	14752.806448	3205.035838	8338.313304
58.037000	0.080175	0.012627	0.090010	0.084284	4197.489557	13902.648607	3189.959055	7884.563457
58.535000	0.098891	0.023221	0.103272	0.114494	4163.915625	13418.703931	3177.856553	7549.451607
59.035000	0.117639	0.034504	0.112604	0.145985	4127.712916	12942.446280	3162.728455	7224.063226
59.535500	0.140016	0.048046	0.153145	0.176305	4105.681736	12563.559177	3169.610675	6932.307249
60.036000	0.163575	0.061568	0.172474	0.218735	4054.923495	11944.089700	3154.282880	6556.750158
60.536000	0.178634	0.072762	0.185108	0.256144	3997.595214	11416.911773	3138.727278	6254.747755
61.036500	0.198600	0.084885	0.216267	0.288410	3967.279126	11032.882208	3138.052137	6014.352371
61.536500	0.210257	0.096126	0.210311	0.311715	3939.353321	10811.294233	3120.830019	5851.505538
62.037000	0.229285	0.107036	0.251508	0.343328	3910.008554	10445.040949	3126.343555	5644.113989
62.537000	0.242102	0.115243	0.243061	0.344652	3936.772520	10564.879450	3120.723483	5635.753409
63.037500	0.245439	0.116939	0.271619	0.354510	3921.499824	10422.979163	3131.590880	5574.295317
63.535500	0.257881	0.122437	0.276591	0.357815	3942.963597	10460.845023	3132.582634	5554.001601
64.035500	0.258858	0.126468	0.268552	0.357453	3946.146934	10537.273209	3128.047632	5556.219868
64.536000	0.256048	0.126033	0.288800	0.357271	3939.908079	10532.859951	3140.296572	5557.336459
65.036000	0.256571	0.126199	0.286877	0.358799	3937.533953	10509.089688	3138.186921	5547.993809
65.554500	0.261022	0.127841	0.272690	0.355797	3955.285027	10590.429768	3131.463309	5566.378277
66.036500	0.260174	0.134092	0.284470	0.362415	3937.501887	10583.969651	3134.544797	5526.015607
66.537000	0.261787	0.134095	0.288912	0.362939	3940.076957	10574.802757	3136.908316	5522.848388
67.037000	0.263593	0.133467	0.270184	0.362928	3944.385078	10563.958222	3125.806950	5522.909634
67.537500	0.266932	0.134439	0.274540	0.365818	3945.455364	10530.386709	3126.659255	5505.500889
68.035000	0.267900	0.137039	0.275549	0.368986	3940.230864	10520.471056	3125.404991	5486.541041
68.535000	0.263650	0.136134	0.295413	0.368432	3931.517881	10514.355344	3137.519750	5489.848105
69.035500	0.271260	0.140507	0.288264	0.374512	3935.116793	10484.663096	3129.605805	5453.810099
69.536000	0.272406	0.140549	0.286009	0.376256	3933.709690	10455.150622	3127.260084	5443.561901
70.036000	0.277885	0.139595	0.285553	0.376825	3945.327099	10428.872254	3126.662784	5440.231282
70.536000	0.277979	0.141735	0.285239	0.379846	3938.386546	10413.710005	3124.727818	5422.604666
71.036500	0.275145	0.141741	0.288949	0.379744	3931.947043	10415.555794	3126.940321	5423.194788
71.536500	0.273087	0.142362	0.281759	0.383017	3919.505056	10370.072692	3120.913575	5404.233916
72.037500	0.281851	0.144817	0.314067	0.386367	3932.144035	10354.783092	3137.957169	5384.973771
72.537000	0.275039	0.145393	0.305721	0.391572	3904.301582	10276.213692	3129.839241	5355.334244
73.035000	0.281539	0.145895	0.297972	0.390019	3922.875701	10310.998634	3126.211542	5364.141251
73.538500	0.281131	0.145388	0.294122	0.391449	3918.605724	10278.211607	3123.161004	5356.033470
74.035500	0.285184	0.148334	0.306298	0.394343	3921.295767	10279.078819	3128.549138	5339.703930
74.536000	0.277000	0.147754	0.302501	0.399179	3891.486363	10188.183421	3123.534044	5312.662137
75.036000	0.275005	0.146873	0.302329	0.400137	3884.849672	10157.566758	3122.884672	5307.337264
75.536500	0.285971	0.148932	0.299477	0.396879	3917.239877	10246.430312	3123.118039	5325.484667
76.036500	0.289745	0.150107	0.308370	0.397892	3923.651809	10249.155893	3127.684215	5319.829811
76.534000	0.282506	0.150600	0.305660	0.406099	3888.301593	10120.537861	3121.379689	5274.479232
77.037000	0.285898	0.149221	0.316097	0.404989	3898.474546	10116.098602	3128.052589	5280.562950
77.535000	0.284067	0.149264	0.309001	0.399990	3905.698112	10199.843441	3126.827847	5308.154285
78.034500	0.290691	0.150761	0.312277	0.401531	3917.395217	10199.107261	3127.840412	5299.613220
78.535500	0.292010	0.153051	0.319799	0.411799	3896.890116	10067.047517	3126.238740	5243.484545
79.035500	0.286343	0.149615	0.281154	0.407945	3892.788078	10073.916365	3106.800366	5264.400116
79.536000	0.291936	0.151346	0.318025	0.405519	3911.068217	10142.487658	3128.872584	5277.659718
80.036500	0.291586	0.151803	0.300800	0.406303	3908.460538	10137.060758	3118.508880	5273.364986
80.536500	0.288399	0.150004	0.307167	0.411829	3888.670477	10016.765753	3118.983412	5243.326110
81.037000	0.291829	0.154019	0.317440	0.414965	3889.329734	10031.088127	3123.046808	5226.446004
81.540000	0.296387	0.152423	0.302725	0.408580	3914.268749	10109.677083	3118.310525	5260.941056
82.034500	0.292763	0.153166	0.329375	0.408980	3905.023785	10115.331439	3133.549669	5258.762704
82.534500	0.293747	0.154035	0.314165	0.417631	3887.647919	9987.977539	3119.659448	5212.192029
83.035000	0.292987	0.154710	0.304801	0.419186	3882.461811	9973.727291	3113.553655	5203.921390
83.536000	0.295917	0.154911	0.299480	0.412715	3903.696624	10082.553384	3114.189807	5238.543532
84.036000	0.297042	0.156309	0.304564	0.415318	3900.327611	10062.777118	3115.567288	5224.553933
84.536500	0.294664	0.155552	0.310790	0.420394	3883.508578	9967.791609	3116.208466	5197.511026
85.036500	0.299100	0.155880	0.310018	0.422549	3888.626898	9938.320170	3114.579596	5186.128548
85.536500	0.301944	0.153505	0.316612	0.415361	3911.447526	10016.256423	3122.345295	5224.323636
86.037000	0.293255	0.153097	0.322519	0.414969	3892.537034	10015.999341	3125.978106	5226.427475
86.537500	0.299112	0.153360	0.306314	0.416361	3902.668435	9997.635269	3115.961052	5218.971329
87.034500	0.298053	0.153875	0.322509	0.422498	3886.388449	9906.924461	3121.637017	5186.398883
87.534500	0.296544	0.153841	0.311081	0.417030	3895.311813	9994.581963	3118.257782	5215.398353
88.035000	0.296886	0.153072	0.308662	0.416400	3897.515578	9992.334620	3117.252584	5218.764043
88.538500	0.295170	0.153478	0.317786	0.417447	3891.264223	9981.930621	3121.824097	5213.173679
89.036000	0.293877	0.155205	0.319183	0.420743	3880.973727	9956.562732	3120.741815	5195.667776
89.536500	0.299556	0.150443	0.316713	0.417858	3900.268271	9926.305490	3120.977283	5210.981403
90.036500	0.298415	0.152849	0.303490	0.418607	3895.978135	9952.999273	3113.150044	5206.997706
90.536500	0.296154	0.149443	0.313583	0.415896	3896.996147	9941.779148	3120.313485	5221.457164
91.040000	0.298981	0.154639	0.324976	0.421539	3890.631449	9934.596144	3123.600386	5191.458715
91.535000	0.303678	0.153111	0.329257	0.421733	3900.832466	9906.926457	3125.962476	5190.433477
92.035000	0.300501	0.152658	0.326208	0.419979	3897.595521	9927.815645	3125.210923	5199.709801
92.538000	0.301131	0.151044	0.327965	0.419401	3900.340259	9911.168253	3126.566766	5202.775860
93.035500	0.301640	0.152484	0.312389	0.422412	3894.665797	9886.021210	3115.974806	5186.852199
93.536000	0.304074	0.153303	0.326229	0.422668	3899.605753	9895.021037	3123.671461	5185.501728
94.036000	0.301568	0.151450	0.320306	0.422323	3894.703100	9870.942586	3120.482163	5187.322509
94.536000	0.302692	0.155259	0.318521	0.425829	3889.328696	9875.771094	3117.494059	5168.909163
95.036000	0.303437	0.151716	0.324711	0.423608	3896.026160	9854.703523	3122.260844	5180.554337
95.537000	0.307697	0.154082	0.318160	0.424065	3904.678519	9885.143195	3118.282501	5178.152310
96.034000	0.302738	0.152440	0.323475	0.424446	3892.549090	9852.885987	3121.076830	5176.152640
96.534500	0.298742	0.151605	0.319051	0.424321	3883.849546	9841.608476	3118.640806	5176.811646
97.035000	0.308827	0.151939	0.325879	0.425549	3903.871629	9827.415741	3121.818915	5170.372617
97.535000	0.304195	0.153380	0.315204	0.427111	3889.824856	9825.490465	3114.925954	5162.211441
98.035500	0.303174	0.152973	0.317170	0.426622	3888.627392	9826.791421	3116.292985	5164.762792
98.568000	0.299201	0.152149	0.332474	0.426464	3880.085610	9816.240808	3125.084402	5165.588382
99.036500	0.306244	0.155945	0.322455	0.436295	3873.893545	9721.416945	3113.855240	5114.825609
