sample name	sample
index	1521
start time	 05-18-2021  03:28:30 PM
880	0.550203
Peak Time (s)	91.036
Peak Height 	0.5502
calc peak height	90,93
Baseline Time (s)	10.037
Baseline Value 	-0.004858
subtract baseline	10,4
Abs	0.375558
Peak Time (s)	92.039
Peak Height 	0.3756
calc peak height	90,93
Baseline Time (s)	9.039
Baseline Value 	-0.001643
subtract baseline	10,3
PK_550	0.203169
Peak Time (s)	90.536
Peak Height 	0.2032
calc peak height	90,93
Baseline Time (s)	11.534
Baseline Value 	1.6811E-4
subtract baseline	10,2
PK_880	0.360559
Peak Time (s)	90.035
Peak Height 	0.3606
calc peak height	90,93
Baseline Time (s)	11.534
Baseline Value 	8.1842E-4
subtract baseline	10,1


Time (s)	A880-A510	A880-A775	A880-A975	A880	I510	I775	I975	I880	
0.036000	-0.000365	0.000168	0.003988	0.002657	6597.316522	43967.868171	4015.950380	22796.819656
0.536500	0.000116	-0.000620	-0.000316	0.003788	6591.964253	43787.453642	4003.266121	22745.341626
1.036500	-0.000037	-0.000370	-0.000957	0.004623	6583.851731	43732.625227	3999.851047	22707.476553
1.538000	-0.002420	0.000319	-0.001478	0.008128	6535.878249	43469.713658	3990.589522	22549.205945
2.037000	-0.000264	-0.001368	0.004538	0.000261	6617.928740	44048.860897	4022.889250	22906.209097
2.535000	-0.000335	0.000026	0.002843	0.001292	6608.815697	44083.135374	4016.464813	22859.044773
3.038000	0.002097	0.000632	0.003732	-0.000072	6640.316748	44269.813601	4021.772248	22921.495314
3.535000	-0.001667	-0.000450	-0.001378	0.002361	6589.037000	43937.509048	4004.113245	22810.281188
4.035500	0.001671	-0.000018	0.004762	0.000950	6628.266817	44111.436414	4021.792389	22874.703667
4.536000	-0.001492	-0.000590	0.003906	0.000311	6607.365954	44117.714999	4021.280434	22903.952895
5.036000	0.002072	-0.000310	0.000348	0.000243	6637.483667	44150.649830	4013.073545	22907.049574
5.536500	-0.000745	-0.000380	0.003246	-0.000148	6617.342410	44181.009228	4020.805747	22924.966771
6.037000	0.001320	-0.000082	-0.000771	0.000155	6631.957677	44180.593374	4010.663756	22911.085794
6.537000	0.000596	-0.000277	0.001306	-0.000032	6627.498960	44179.817459	4015.967128	22919.661962
7.037000	-0.000579	-0.000352	0.007274	-0.000492	6621.568019	44216.336294	4031.171483	22940.752030
7.535000	0.002193	0.000283	-0.000784	0.000614	6635.393393	44171.559215	4009.560129	22890.045234
8.035000	0.001031	0.000733	0.000532	0.000967	6622.816422	44180.795140	4011.809521	22873.910408
8.538000	0.001346	0.000429	-0.000283	0.000611	6628.384903	44185.755503	4010.739789	22890.223496
9.038500	-0.001056	-0.000353	0.000000	-0.000033	6613.813461	44172.688435	4012.905556	22919.690511
9.535500	0.001976	0.000755	-0.002570	0.000508	6634.471925	44226.372670	4005.646923	22894.896520
10.036500	-0.000416	0.000079	0.006924	0.000000	6618.837065	44210.522014	4029.167560	22918.180941
10.536500	0.001246	-0.000302	0.002795	-0.000076	6633.261912	44181.623130	4019.571847	22921.680252
11.037000	-0.003256	-0.000426	-0.000387	0.003879	6563.616252	43797.188038	4002.890826	22741.243892
11.534500	0.000000	0.000000	0.001645	-0.000431	6625.856969	44243.815075	4017.698179	22937.920752
12.037500	0.000211	0.000409	0.000907	0.000410	6620.636422	44202.903746	4013.993553	22899.413515
12.535000	-0.000858	0.000447	0.009938	0.000869	6607.997493	44163.107610	4034.282201	22878.416908
13.035500	-0.002338	-0.000578	0.000694	0.005274	6559.721532	43652.230070	4002.164302	22677.992002
13.536000	0.001077	0.001777	0.007950	0.001123	6621.901625	44265.014171	4028.935914	22866.772575
14.036000	-0.000399	-0.000333	0.005157	0.001694	6604.975376	44011.445718	4020.968331	22840.717037
14.539500	0.000529	0.000845	-0.000203	0.002543	6605.624455	44042.431377	4006.421835	22802.016384
15.036500	-0.000765	-0.000313	0.000678	0.004447	6579.333081	43754.457140	4004.042996	22715.455977
15.536500	0.002219	0.001387	0.000860	0.001166	6631.028403	44224.012333	4012.112759	22864.840315
16.037000	-0.000465	0.000647	0.003759	0.000017	6618.290756	44262.772340	4021.626568	22917.419209
16.537000	0.000354	0.000243	0.004449	-0.000038	6625.540112	44229.710048	4023.387606	22919.941499
17.034500	-0.002310	-0.000159	0.003481	0.004648	6565.054335	43750.087462	4010.100400	22706.350362
17.540000	-0.000322	0.000152	0.005130	0.001064	6610.817678	44116.749935	4022.391944	22869.508199
18.038000	0.001093	-0.000152	0.003662	0.000941	6623.548804	44099.574647	4019.218276	22875.105934
18.535500	-0.001517	0.000893	0.004224	0.001829	6594.650096	44114.447623	4018.450714	22834.547649
19.036000	-0.000671	-0.000099	0.000889	0.002463	6596.393424	43960.908044	4009.149150	22805.633308
19.536500	0.001168	0.000592	0.003596	0.001262	6621.507246	44139.574049	4018.307358	22860.458201
20.036500	0.001700	0.000121	0.007144	0.001158	6626.781697	44104.889925	4026.940098	22865.212114
20.537000	-0.001924	-0.000007	0.004598	0.000838	6599.455217	44123.031321	4021.669173	22879.827656
21.037000	-0.000402	0.001047	0.004112	0.001552	6606.124271	44155.207999	4018.840503	22847.212110
21.540000	-0.000140	0.000159	0.004755	0.001000	6612.844364	44123.400538	4021.654971	22872.405419
22.038000	-0.001220	-0.000466	0.002987	0.000966	6604.209446	44067.588601	4017.570006	22873.977665
22.538000	0.002060	-0.000201	-0.001335	0.000956	6631.446003	44093.483233	4007.478657	22874.421297
23.035000	-0.001919	-0.000371	0.002076	0.001345	6595.324967	44040.750457	4014.541484	22856.640668
23.535500	0.000042	0.000862	0.004461	0.001341	6611.531186	44157.585714	4020.158406	22856.819136
24.036500	-0.001051	0.000413	0.005429	0.001017	6605.177358	44145.773422	4023.207584	22871.628191
24.536500	0.001194	0.000510	-0.001318	0.001037	6623.587589	44153.091907	4007.330120	22870.717021
25.036500	0.002084	0.000402	0.002567	0.001017	6631.136558	44144.737385	4016.463695	22871.622295
25.537000	-0.001101	-0.000511	0.000303	0.000701	6607.375540	44088.338958	4011.898103	22886.098235
26.037500	-0.000114	0.000158	0.002595	0.000686	6615.651752	44152.975946	4017.305843	22886.754896
26.537500	0.000483	-0.000243	0.002692	0.000787	6619.764808	44105.496210	4017.296978	22882.139444
27.035000	-0.001728	0.000625	0.002613	0.001353	6596.832913	44134.136272	4015.782752	22856.295614
27.535500	0.000919	0.000660	0.006267	0.000186	6628.367462	44247.933677	4027.162948	22909.656633
28.035500	0.000947	0.000797	0.008303	0.000364	6627.124987	44244.103120	4031.585388	22901.528184
28.541500	0.000117	0.001215	0.009548	0.000921	6615.625911	44230.890007	4033.225086	22876.016805
29.035500	0.001441	0.000518	0.007438	0.000029	6634.010450	44249.358981	4030.319712	22916.835916
29.536500	0.000523	0.000464	0.004084	0.000451	6622.883469	44204.267983	4021.368637	22897.548276
30.036500	-0.000085	0.001049	0.004234	0.000705	6615.741033	44235.564485	4021.121224	22885.884244
30.535000	-0.001162	0.000716	-0.002444	0.000785	6606.175705	44196.443885	4005.296726	22882.223970
31.037000	-0.001637	-0.000160	-0.003464	0.002568	6587.593038	43945.308408	3998.807531	22800.868418
31.542500	0.000055	0.000806	0.004175	0.000789	6616.204138	44204.534861	4020.785693	22882.044424
32.037500	0.001269	0.000617	0.003482	0.000272	6630.565891	44235.693520	4020.371857	22905.732464
32.535000	0.000839	-0.000213	0.000431	0.000104	6628.381197	44172.986587	4013.594297	22913.400860
33.035500	0.000558	-0.000978	0.002496	-0.001018	6635.375754	44206.783394	4021.087416	22964.898381
33.536000	0.002028	0.000607	0.004284	0.000676	6633.511672	44196.459119	4021.308303	22887.220455
34.036500	0.000681	0.000120	0.001442	0.001607	6614.615014	44062.332320	4012.441990	22844.680403
34.536500	-0.000787	-0.000819	0.001060	0.001240	6605.516645	44008.299101	4012.406753	22861.425025
35.037000	0.000564	0.000765	0.002044	0.002677	6604.806597	44022.217926	4011.347538	22795.905355
35.537000	0.002178	0.000216	0.004110	0.001995	6623.798168	44034.773284	4017.791048	22826.961586
36.034500	0.001233	0.000391	0.005584	0.001841	6617.248139	44065.814333	4021.626121	22833.985504
36.537500	0.000696	0.000312	0.002872	0.001636	6614.496484	44077.704482	4015.724380	22843.349003
37.035500	-0.000769	-0.000251	0.002500	0.001523	6603.336893	44035.337967	4015.119488	22848.538904
37.535000	-0.000350	0.000005	0.001912	0.001156	6609.825063	44094.131340	4014.599718	22865.301994
38.036000	-0.000848	0.000582	0.006618	0.002350	6595.866285	44035.776471	4022.869110	22810.785279
38.536000	0.001214	0.000972	0.010194	0.002027	6615.549625	44103.094234	4032.126038	22825.498735
39.036000	0.000544	0.001329	0.002208	0.002250	6608.167063	44115.794007	4012.728840	22815.343487
39.536000	0.001047	-0.000180	0.002301	0.001189	6621.112226	44073.524227	4015.433915	22863.775796
40.037000	0.000459	0.000474	0.002701	0.002115	6608.581699	44047.791371	4014.200617	22821.500511
40.540500	-0.000281	-0.000152	0.001884	0.001524	6607.344659	44044.478108	4013.670622	22848.452332
41.034500	-0.002660	-0.000291	0.004631	0.002194	6582.262755	43968.163631	4018.548832	22817.886742
41.537500	0.000832	0.000231	0.007752	0.001791	6614.340007	44055.468507	4026.877508	22836.272775
42.038000	0.000977	-0.000849	0.002393	0.001090	6621.351610	44019.735511	4015.883659	22868.304255
42.536000	0.002245	0.000232	-0.000008	0.001757	6626.333909	44058.785395	4008.704966	22837.852009
43.036000	-0.001310	-0.000498	0.001914	0.001897	6595.794001	43976.759195	4012.868288	22831.461411
43.535500	-0.000443	-0.000398	0.001433	-0.001162	6628.251895	44275.438862	4018.922922	22971.509110
44.036500	0.002036	0.001229	0.011514	-0.001041	6647.882861	44418.596085	4042.647008	22965.928735
44.537000	0.000408	0.000059	0.006840	0.000022	6625.486455	44206.438036	4028.913673	22917.154680
45.037500	-0.000754	0.000346	0.004767	0.006001	6566.711297	43670.632686	4009.942326	22645.086892
45.540500	0.001416	0.000881	0.005872	0.000679	6628.403629	44222.111831	4025.058099	22887.095259
46.035000	0.000149	0.000051	0.008248	-0.000262	6625.697874	44232.703807	4032.945070	22930.201733
46.535000	0.001360	0.000002	0.006309	-0.000216	6635.378274	44223.710756	4028.219305	22928.086644
47.035500	-0.001590	0.000313	0.003957	0.004398	6572.984639	43817.787405	4011.798848	22717.696957
47.541000	-0.000611	-0.000034	0.004783	0.002129	6599.643166	43998.548042	4019.059513	22820.871223
48.036000	0.002067	0.000399	0.000638	0.000416	6635.999585	44201.437994	4013.349964	22899.143211
48.536500	0.000599	0.000240	0.003294	0.000031	6626.997859	44222.828291	4020.496502	22916.765107
49.037000	0.000574	0.000576	-0.002004	0.004358	6591.048072	43846.210833	3998.045013	22719.510605
49.536500	0.005478	0.000285	0.005230	-0.002379	6688.023918	44456.187981	4030.798082	23027.497971
50.037500	0.003050	0.000625	0.004620	0.001951	6631.405291	44077.532929	4019.094595	22828.981801
50.540000	-0.002189	-0.007417	0.007361	-0.005177	6647.143266	43991.370934	4042.607417	23156.832066
51.035000	-0.013367	-0.023100	0.015477	0.411573	4374.948511	18178.681095	3404.584501	10732.169462
51.535500	-0.005438	-0.004174	-0.011429	0.345432	4626.650482	21451.267753	3443.196036	12001.160484
52.038000	-0.017194	-0.026662	-0.012355	-0.029521	6725.953947	44474.722324	4053.816525	24317.906823
52.536000	0.007909	-0.089545	0.005631	-0.266969	9802.291912	64967.201774	4900.616783	39816.049363
53.036000	0.001014	-0.083752	0.010345	-0.258332	9564.048704	64562.956432	4883.488670	39091.401202
53.537000	0.014295	-0.059183	0.021923	-0.225582	9277.237384	63415.270832	4793.689012	36471.222189
54.037000	0.023003	-0.032184	0.032979	-0.177288	8732.231722	60526.818642	4645.988791	32950.542555
54.537000	0.037704	-0.016199	0.048327	-0.140324	8446.856655	57816.624148	4565.882225	30508.319062
55.037000	0.041935	-0.005452	0.058286	-0.099554	8009.077908	54158.789203	4458.384713	28045.111082
55.537500	0.064032	0.005751	0.079345	-0.073678	7965.851837	52460.961906	4442.252777	26597.492511
56.035000	0.087407	0.020213	0.109248	-0.005367	7479.836310	46699.535030	4319.860602	23165.637057
56.538500	0.112418	0.036291	0.129221	0.076026	6937.022654	40605.200447	4145.296366	19722.420272
57.036000	0.137701	0.055083	0.155300	0.148428	6534.425739	36244.511136	4029.041176	17157.363713
57.536000	0.167166	0.070701	0.181595	0.226192	6164.678774	31819.251379	3913.613348	14839.343522
58.036000	0.186673	0.083100	0.203305	0.258631	6072.463827	30522.057020	3891.227891	13988.557333
58.537000	0.210847	0.099337	0.227418	0.306709	5909.071114	28580.271775	3843.176479	12838.903622
59.037000	0.232304	0.114042	0.246965	0.332660	5879.345112	27927.774979	3830.779002	12269.261027
59.537000	0.251370	0.125814	0.269814	0.373647	5738.668428	26309.531347	3796.641686	11436.101095
60.034000	0.265487	0.134756	0.284109	0.403630	5641.198942	25209.713650	3768.244802	10874.558492
60.538000	0.278473	0.145675	0.298064	0.417474	5636.019899	25060.974269	3768.440230	10628.060800
61.035500	0.287142	0.153438	0.308612	0.452257	5483.447241	23733.561486	3726.528350	10042.355540
61.535000	0.293631	0.157957	0.312620	0.478020	5376.566285	22746.327325	3690.845858	9637.785536
62.036000	0.295969	0.160848	0.318486	0.497425	5285.809925	22011.597748	3669.524659	9348.520534
62.536500	0.296915	0.166210	0.322107	0.501413	5269.999567	22071.620061	3668.955004	9290.645797
63.036000	0.310410	0.169707	0.328661	0.502986	5332.582881	22156.069239	3676.715591	9267.974358
63.536500	0.313292	0.172491	0.333591	0.504622	5339.227972	22206.632108	3681.898244	9244.480635
64.037000	0.317977	0.176133	0.337506	0.508014	5346.136855	22217.672477	3682.722973	9196.033799
64.537000	0.319320	0.177555	0.342429	0.510303	5341.080295	22179.468510	3686.899515	9163.563147
65.040000	0.324862	0.179789	0.345265	0.514118	5350.323381	22109.942644	3685.345473	9109.816886
65.535000	0.326106	0.182902	0.344420	0.517473	5339.028362	22099.331277	3678.711338	9062.931502
66.035500	0.329843	0.186412	0.342266	0.520906	5340.650738	22102.738766	3669.987916	9015.343770
66.535500	0.333760	0.185605	0.348593	0.519703	5368.153755	22120.085222	3681.771947	9031.978357
67.036000	0.330981	0.188105	0.345035	0.526744	5315.684153	21921.739468	3665.242923	8935.259875
67.536000	0.338769	0.190981	0.349082	0.523871	5372.701951	22173.186720	3675.988843	8974.529532
68.036500	0.338147	0.191308	0.347857	0.523323	5372.297395	22211.719236	3674.929249	8982.049086
68.537000	0.338098	0.193586	0.356639	0.525407	5360.787548	22220.323644	3685.480344	8953.509340
69.037000	0.340140	0.193252	0.358146	0.528415	5355.588247	22073.395904	3683.100970	8912.542984
69.537500	0.339978	0.191960	0.362479	0.527369	5360.341241	22062.587916	3691.661722	8926.749315
70.037500	0.338375	0.191772	0.361725	0.526926	5354.106043	22073.760469	3691.164416	8932.780929
70.535500	0.341442	0.191955	0.359632	0.528269	5363.383962	22023.053294	3685.687408	8914.525477
71.035500	0.337368	0.194149	0.360292	0.535823	5301.507979	21790.374394	3674.828566	8812.849256
71.535500	0.343589	0.195508	0.361547	0.532294	5353.281267	22002.458724	3682.346025	8860.130108
72.039000	0.344650	0.196953	0.361713	0.534399	5347.679238	21973.668497	3679.289119	8831.878111
72.536500	0.345026	0.196991	0.362888	0.534775	5347.682005	21958.960847	3680.546688	8826.850464
73.036500	0.344504	0.197624	0.365441	0.541402	5309.699208	21699.801283	3674.156885	8738.880960
73.537000	0.345897	0.198013	0.364512	0.536085	5345.331299	21946.425961	3681.042857	8809.355360
74.037500	0.346575	0.197596	0.366543	0.534538	5357.263243	21995.643929	3686.707616	8830.016782
74.540500	0.352367	0.198602	0.370367	0.536284	5379.127422	21963.405709	3690.018272	8806.699542
75.035000	0.352261	0.199253	0.363361	0.536353	5378.176754	21988.750435	3678.808269	8805.780727
75.535500	0.347759	0.199256	0.363650	0.535783	5356.932848	22013.737589	3680.157949	8813.375817
76.035500	0.354382	0.201617	0.371144	0.537771	5381.999733	22030.034551	3688.886397	8786.919664
76.535500	0.349549	0.200451	0.371875	0.537164	5359.135230	22005.633136	3691.023693	8794.981665
77.036500	0.345985	0.201772	0.358643	0.544376	5301.847415	21750.294040	3659.073646	8699.848910
77.536500	0.351548	0.201628	0.352804	0.537910	5365.890650	22024.414015	3660.030835	8785.063688
78.036500	0.353498	0.201878	0.369221	0.538105	5375.382409	22026.854664	3685.294607	8782.480366
78.537000	0.353426	0.203160	0.369596	0.539011	5370.088639	22043.286593	3684.452595	8770.467906
79.037500	0.348806	0.203278	0.362666	0.544170	5317.793993	21824.121450	3665.559536	8702.538028
79.540500	0.355861	0.204876	0.361465	0.540662	5374.334011	22046.114952	3669.124800	8748.640952
80.035000	0.355172	0.204116	0.371328	0.539886	5374.803737	22046.824894	3685.813395	8758.891196
80.535500	0.353045	0.204405	0.363721	0.539896	5363.253672	22059.033648	3673.824573	8758.761700
81.036000	0.352408	0.203743	0.357536	0.545536	5329.649501	21785.218748	3655.621596	8684.684574
81.535500	0.353310	0.204418	0.366490	0.539857	5364.893538	22061.266233	3678.218026	8759.267265
82.036500	0.355042	0.204579	0.374340	0.540379	5371.428448	22045.479425	3689.824135	8752.372753
82.536000	0.355427	0.205051	0.366005	0.540523	5372.740045	22059.879766	3676.414763	8750.480353
83.037000	0.348081	0.204048	0.363788	0.546073	5303.943914	21775.227105	3664.356518	8677.688091
83.537000	0.355066	0.202597	0.367133	0.539607	5375.740620	21992.654601	3679.622480	8762.574451
84.037500	0.356324	0.204360	0.369806	0.541492	5372.345025	21987.328043	3680.862922	8737.692956
84.536000	0.354686	0.204580	0.361962	0.542713	5356.917137	21943.765071	3666.720863	8721.635980
85.035500	0.355605	0.204196	0.363078	0.542268	5364.266545	21946.396444	3669.135473	8727.486361
85.535500	0.355417	0.204820	0.365903	0.544151	5353.118565	21891.700580	3670.595975	8702.782073
86.036500	0.358538	0.204666	0.363369	0.544022	5370.636036	21890.610417	3666.872103	8704.470227
86.535000	0.358868	0.204546	0.367105	0.544502	5369.821142	21864.601673	3671.918681	8698.190024
87.036500	0.357379	0.203301	0.376423	0.544342	5362.646837	21817.666772	3686.827166	8700.282643
87.536000	0.355557	0.203081	0.363700	0.544604	5351.440803	21796.879849	3666.484570	8696.857272
88.037500	0.358229	0.204394	0.368109	0.545800	5359.375948	21801.954012	3671.462327	8681.248434
88.540000	0.357691	0.203486	0.370314	0.545757	5356.712635	21764.659134	3674.965828	8681.807272
89.036500	0.359941	0.202173	0.371826	0.544927	5373.329784	21743.827002	3678.635907	8692.636961
89.540500	0.360230	0.204382	0.368678	0.547348	5361.814255	21734.708064	3669.941869	8661.094473
90.035500	0.360559	0.202283	0.369425	0.546252	5369.506311	21691.605166	3672.806602	8675.350976
90.536000	0.358466	0.203169	0.362161	0.546228	5358.345189	21730.726407	3661.620561	8675.669289
91.036000	0.352387	0.199846	0.365468	0.550203	5304.869977	21419.503047	3660.598080	8624.122735
91.536500	0.358927	0.201396	0.371426	0.546687	5358.356751	21634.982817	3675.250510	8669.693682
92.039000	0.358865	0.201885	0.375558	0.547788	5352.108311	21608.816840	3680.006038	8655.379454
92.536500	0.359648	0.202664	0.369109	0.548478	5352.604125	21612.625186	3668.858091	8646.430318
93.037000	0.360741	0.202856	0.370723	0.549019	5355.569768	21597.718316	3670.521663	8639.422974
93.540000	0.359088	0.200719	0.366160	0.548062	5351.836268	21547.388432	3664.946003	8651.826542
94.035000	0.361361	0.202305	0.373443	0.550132	5352.919005	21526.781247	3673.020500	8625.032072
94.534500	0.360273	0.204509	0.372509	0.551598	5339.254060	21558.232199	3669.292652	8606.145529
95.035500	0.357263	0.202500	0.364658	0.556754	5296.078138	21255.420508	3649.431956	8540.193721
95.536000	0.361443	0.201255	0.372772	0.549814	5355.071336	21495.699383	3672.471812	8629.145777
96.036500	0.364671	0.203324	0.372861	0.552510	5357.931393	21469.081021	3668.425319	8594.425423
