sample name	sample
index	1410
start time	 05-10-2021  11:36:18 AM
880	0.287385
Peak Time (s)	92.535
Peak Height 	0.2874
calc peak height	90,93
Baseline Time (s)	9.537
Baseline Value 	-0.003246
subtract baseline	10,4
Abs	0.213610
Peak Time (s)	90.04
Peak Height 	0.2136
calc peak height	90,93
Baseline Time (s)	9.537
Baseline Value 	5.2744E-4
subtract baseline	10,3
PK_550	0.124091
Peak Time (s)	90.04
Peak Height 	0.1241
calc peak height	90,93
Baseline Time (s)	9.537
Baseline Value 	2.4835E-4
subtract baseline	10,2
PK_880	0.204454
Peak Time (s)	92.035
Peak Height 	0.2045
calc peak height	90,93
Baseline Time (s)	10.04
Baseline Value 	-3.205E-4
subtract baseline	10,1


Time (s)	A880-A510	A880-A775	A880-A975	A880	I510	I775	I975	I880	
0.036500	-0.002192	-0.001147	-0.002697	0.003862	6459.769024	44066.963292	3909.975132	22570.539998
0.540000	0.000566	0.000319	-0.004569	0.006837	6457.965962	43924.359197	3897.825584	22435.974278
1.038000	-0.001933	-0.000412	-0.000389	0.004266	6458.556690	44098.304215	3914.784728	22552.207268
1.535500	0.000568	-0.000304	0.003173	0.001839	6499.731173	44339.243391	3930.048677	22662.536964
2.035500	-0.000925	-0.000638	-0.005684	0.003872	6470.226570	44114.271859	3902.445571	22570.070979
2.536000	-0.001738	0.000603	0.004274	0.002724	6473.016764	44341.380265	3930.605560	22622.242307
3.038500	0.002131	0.000548	0.003937	-0.000912	6536.164768	44684.131666	3939.109661	22788.401290
3.536500	0.002508	-0.000355	-0.000638	0.001142	6521.965372	44400.916063	3922.086878	22694.390243
4.036500	-0.001818	0.000058	-0.002453	0.003641	6464.707251	44202.167107	3911.145927	22580.538858
4.537000	-0.000379	-0.000053	0.003389	0.001033	6498.555845	44440.127978	3932.679664	22699.367565
5.037500	-0.000679	0.000405	-0.001513	0.000895	6497.187182	44497.106159	3920.487822	22705.643888
5.537500	0.001274	0.000826	0.000524	0.001047	6512.335418	44522.837148	3925.292857	22698.686808
6.035000	-0.000222	0.000715	0.001467	0.001168	6498.735148	44500.690657	3927.399426	22693.192914
6.535500	0.000490	-0.000500	-0.001449	-0.000161	6515.922224	44511.566504	3923.342192	22753.990916
7.035000	0.001130	0.000212	-0.000124	0.000294	6517.481852	44536.130059	3925.562579	22733.117849
7.535500	-0.000380	0.000618	0.004756	0.000291	6504.775233	44575.317401	3938.116633	22733.260940
8.036000	0.000252	-0.000277	-0.002050	-0.000465	6516.483850	44562.120035	3922.585303	22767.922790
8.536500	-0.000314	-0.000972	-0.003259	-0.000607	6512.901787	44509.136000	3919.867231	22774.434192
9.036500	0.002305	0.000258	0.000442	0.000065	6529.352627	44562.542975	3927.597023	22743.615354
9.537000	0.000411	0.000000	0.000000	0.000000	6513.896824	44544.033644	3926.632243	22746.597368
10.040000	0.000000	-0.000589	-0.001756	-0.000606	6515.541532	44545.680012	3923.694937	22774.376771
10.535000	0.002710	-0.000080	0.002595	-0.000453	6537.177444	44579.730550	3934.457829	22767.337632
11.035000	-0.000605	0.000637	0.006845	0.000016	6505.197478	44603.628951	3944.245200	22745.875253
11.535500	-0.000201	0.000806	-0.000600	0.000494	6504.580860	44573.976071	3923.836709	22723.993460
12.035500	0.001427	-0.000248	0.003733	-0.000538	6527.028256	44571.782452	3937.615798	22771.246007
12.536000	0.002177	0.000367	0.004691	0.000092	6528.043847	44570.404482	3938.464575	22742.392699
13.036500	0.001532	-0.000247	0.001193	-0.001207	6533.588217	44636.111491	3932.792139	22801.964915
13.536500	-0.000660	-0.000459	0.000232	-0.000217	6506.699149	44520.817956	3927.780642	22756.532820
14.037000	-0.000685	-0.000281	0.002054	0.001701	6490.373904	44354.603212	3927.534812	22668.839728
14.537500	-0.001181	-0.000242	0.000592	0.001537	6487.592159	44373.892926	3924.215688	22676.323547
15.034000	-0.001380	-0.000561	0.001428	-0.000962	6506.905034	44582.458511	3932.765612	22790.689402
15.537000	0.000674	0.000919	0.001890	0.000936	6508.220188	44542.462991	3929.076995	22703.786439
16.038000	0.004350	0.000419	0.004147	-0.000509	6551.603625	44632.960498	3938.611684	22769.909765
16.535500	0.000877	0.000123	0.002191	-0.000585	6522.766431	44611.892743	3933.758571	22773.385820
17.036000	0.004416	0.001285	0.006225	-0.000076	6548.483333	44674.675098	3942.874261	22750.085696
17.536500	-0.000292	-0.000048	-0.002149	0.000628	6502.686787	44479.342457	3919.549189	22717.870041
18.036500	0.001863	0.000489	-0.002623	0.001265	6515.472113	44469.770733	3916.728042	22688.747270
18.536500	-0.000123	0.000635	0.001961	0.001780	6494.428757	44434.522860	3927.097841	22665.270571
19.037000	-0.000768	-0.000152	0.000822	0.000590	6499.005561	44473.007914	3927.225636	22719.604487
19.540000	0.000053	-0.000000	0.002859	0.000987	6502.567515	44449.594379	3931.433594	22701.459222
20.034500	0.000463	0.000867	-0.003704	0.001468	6501.975602	44486.559098	3913.476533	22679.500237
20.535000	0.000675	-0.000102	-0.003320	0.001430	6504.073781	44397.538933	3914.542668	22681.231894
21.035500	0.000266	0.000605	0.002722	0.001612	6499.102154	44447.701843	3929.477817	22672.919896
21.536000	0.000424	-0.000202	0.001844	0.001059	6505.083838	44423.396522	3928.642415	22698.168671
22.036000	0.001241	-0.000533	0.001043	0.000936	6512.996602	44403.575030	3926.906183	22703.778350
22.535500	-0.000645	0.000424	-0.000606	0.001431	6492.974864	44447.702117	3921.432014	22681.174077
23.036500	-0.000929	-0.000039	0.003404	0.001643	6488.816550	44383.209747	3931.148688	22671.511701
23.537000	0.000664	-0.000784	0.001648	0.001147	6506.364456	44359.454553	3927.915357	22694.142707
24.039500	0.001146	0.000366	-0.000120	0.001525	6507.239924	44433.153880	3922.431050	22676.891679
24.534500	-0.001871	0.000814	0.002819	0.001819	6479.464073	44447.897474	3929.195322	22663.489468
25.035000	-0.000480	-0.000308	0.002686	0.001314	6495.341183	44388.965581	3930.149119	22686.527767
25.535000	-0.000361	0.000215	0.000072	0.001924	6491.220469	44380.613348	3921.903930	22658.689049
26.035000	-0.000734	-0.000099	-0.002050	0.003418	6475.606854	44208.503023	3912.727906	22590.688569
26.536000	0.001036	0.000268	0.003785	0.001856	6503.525298	44392.219901	3931.579497	22661.786903
27.036000	0.002030	0.000279	-0.001621	0.001774	6512.588834	44401.084924	3917.979672	22665.532000
27.536500	0.003159	0.000443	0.000509	-0.000786	6543.831873	44661.942511	3929.952951	22782.635191
28.036500	-0.000612	-0.000739	0.000178	0.005395	6460.151545	43960.590280	3913.362854	22501.069747
28.540500	-0.000787	-0.000419	0.001617	-0.000457	6507.641961	44547.646304	3931.952227	22767.515284
29.037500	0.003243	0.000930	0.002883	0.000474	6533.840101	44587.731895	3932.813329	22724.902437
29.534500	0.002629	0.000483	0.003547	-0.000464	6536.588545	44634.827015	3936.942757	22767.846146
30.035000	-0.000399	0.000104	0.003244	-0.000182	6508.599991	44571.402304	3935.433351	22754.931238
30.535500	0.001253	-0.000016	0.003038	-0.000378	6524.194978	44578.710150	3935.407048	22763.901851
31.035500	0.000512	0.000581	0.004284	0.002917	6490.219454	44320.883695	3930.135520	22613.457502
31.536000	0.000047	-0.000094	0.002327	-0.000085	6511.534606	44543.144752	3932.820386	22750.473107
32.036500	-0.002295	0.000231	0.002122	0.006095	6440.403530	43986.042984	3916.512939	22469.435485
32.536500	0.002206	-0.000215	0.002489	-0.000663	6534.685529	44586.978703	3934.726054	22776.967854
33.037000	0.002691	0.000707	0.003177	-0.000108	6534.088922	44622.129035	3935.069934	22751.522557
33.539500	0.003490	0.000712	0.007464	-0.001450	6552.292428	44751.666666	3949.676833	22813.090477
34.037500	-0.002214	-0.000264	-0.004722	0.004858	6451.311582	44056.315156	3902.385150	22525.381094
34.535000	-0.001137	0.000110	0.003386	0.002038	6483.770761	44359.821517	3930.087958	22653.501073
35.035000	-0.000019	0.000125	0.003375	0.001621	6496.634746	44401.020544	3931.131182	22672.515790
35.535500	0.000896	0.000245	0.005332	0.002026	6500.920830	44373.772808	3935.125310	22654.047606
36.035500	0.001391	0.000101	-0.001592	0.003445	6493.163308	44224.890055	3913.817779	22589.465615
36.536000	0.000422	-0.000124	0.000860	0.001782	6498.989454	44361.826848	3924.274060	22665.158039
37.036500	0.000830	0.000301	0.001083	0.001888	6501.521686	44392.274979	3924.575043	22660.333889
37.536500	-0.000404	-0.000398	0.003350	0.001462	6494.733854	44366.208062	3931.474167	22679.747505
38.036500	-0.001242	-0.000272	-0.002102	0.002234	6481.252808	44304.694547	3915.593689	22644.576155
38.537000	0.000854	0.000565	0.001001	0.001899	6501.636413	44416.445771	3924.337165	22659.833860
39.035000	-0.000804	0.000037	0.000279	0.001876	6487.906150	44368.155476	3922.552924	22660.852117
39.535000	-0.001181	0.000330	0.003627	0.001738	6485.913655	44409.387975	3931.476198	22667.153950
40.035000	0.001220	0.000400	0.000582	0.002079	6503.197917	44383.592770	3922.808445	22651.640225
40.535500	0.001774	0.000928	-0.000859	0.002637	6503.165654	44380.683697	3917.721965	22626.216923
41.036000	0.001803	0.000331	-0.000575	0.002241	6506.745049	44361.486233	3919.450400	22644.244873
41.536000	-0.000885	0.001549	0.003265	0.002878	6478.857387	44416.958177	3927.622947	22615.254217
42.036500	0.000245	-0.000049	0.002915	0.002018	6495.522463	44346.527745	3928.930781	22654.406322
42.536500	0.002224	0.000095	0.001381	0.001747	6514.446147	44386.031899	3925.694815	22666.743948
43.040000	-0.001579	-0.000808	0.003649	0.001311	6486.151458	44341.494341	3932.631878	22686.650801
43.537500	0.000618	0.000250	-0.000780	0.001332	6504.420134	44440.558389	3921.242233	22685.710540
44.040500	0.002537	0.000039	0.004882	-0.002995	6557.352792	44835.679117	3946.974168	22884.238953
44.535000	-0.000389	-0.000113	0.001915	-0.000500	6511.364986	44581.161859	3932.830078	22769.505781
45.035500	0.001607	0.000389	0.006745	0.000161	6522.641230	44565.913367	3943.609048	22739.238983
45.536000	0.001339	0.000495	-0.000374	0.000631	6516.399312	44531.046393	3924.064138	22717.718252
46.036000	-0.000649	0.000353	-0.000135	0.006000	6454.820224	44006.606370	3911.043659	22473.736235
46.536500	0.003547	0.000306	0.006557	0.000251	6538.306131	44549.240945	3942.885450	22735.093513
47.036000	0.002801	0.000177	0.002397	0.000318	6531.411725	44530.536916	3931.966360	22732.044449
47.537000	-0.000172	0.000738	0.002496	0.002840	6485.139128	44343.159203	3925.754392	22616.986111
48.034000	-0.001664	0.000503	0.002205	0.005504	6450.522282	44067.713480	3918.223179	22496.148286
48.537000	0.003838	0.000417	0.001832	0.000011	6542.826658	44582.963904	3931.303991	22746.114212
49.035000	0.002033	-0.000053	0.006132	-0.000077	6528.253388	44546.349267	3942.636005	22750.135662
49.535000	0.001991	0.000502	0.005230	-0.000720	6533.350364	44661.281386	3941.964634	22779.605716
50.035500	0.000595	0.000320	0.003017	0.003230	6488.295093	44266.210738	3926.086928	22599.245397
50.536000	0.003111	0.000749	0.001885	0.002612	6514.644373	44365.989872	3924.774223	22627.362812
51.036000	0.005764	-0.010195	0.013932	0.069732	6009.156531	37550.581999	3792.631635	19796.447555
51.536500	0.001179	-0.020265	-0.000489	0.099136	5771.366152	34543.430654	3698.816522	18687.591264
52.036500	-0.016407	-0.051683	-0.033765	-0.199424	8428.702903	61402.372002	4442.747896	34337.304948
52.539500	-0.018741	-0.103681	-0.028273	-0.280897	9543.706355	65507.777112	4803.560145	40832.950795
53.037000	-0.013635	-0.057682	-0.018892	-0.215855	8680.898070	62823.608500	4564.390841	35551.122473
53.535000	-0.002457	-0.029090	-0.001884	-0.138639	7858.429809	56480.692413	4337.957782	30225.875802
54.035000	-0.014804	-0.022488	-0.008707	-0.093923	7241.811488	51982.205396	4167.566939	27548.269417
54.535500	-0.018284	-0.029394	-0.012156	-0.150473	7812.595120	57921.213754	4343.444861	30981.855767
55.036000	-0.001442	-0.036691	0.005417	-0.183113	8411.443740	61225.165761	4530.752037	33177.004110
55.536000	0.010887	-0.022675	0.017102	-0.129966	7912.583992	56203.003211	4374.550125	29684.744167
56.036500	0.019524	-0.008302	0.028719	-0.053931	7184.908761	49153.046827	4159.600561	25376.233519
56.536000	0.034901	0.001592	0.046812	0.009103	6734.429720	43830.716538	4027.444237	22334.064690
57.039500	0.043244	0.010577	0.056607	0.044802	6497.322215	41391.218709	3957.254403	20797.175537
57.537000	0.057582	0.019484	0.070490	0.077325	6347.768117	39356.207263	3909.278422	19502.874944
58.034500	0.067587	0.027375	0.080019	0.119406	6098.768591	36599.249622	3830.276893	17965.777153
58.535000	0.087431	0.038118	0.093021	0.127881	6184.927642	36775.499954	3840.911836	17673.833893
59.035500	0.100058	0.046852	0.108419	0.152398	6094.875155	35567.956361	3819.599054	16860.620333
59.536000	0.113586	0.053852	0.122233	0.178123	6005.020698	34191.011215	3792.428634	16055.288739
60.035000	0.119971	0.059198	0.138992	0.209386	5829.389066	32380.684721	3760.333801	15138.685386
60.536000	0.130735	0.065624	0.150828	0.221829	5817.893844	31975.592053	3759.012816	14791.830599
61.036500	0.136136	0.071513	0.150951	0.230897	5792.940649	31763.825285	3739.773760	14545.240470
61.539500	0.145810	0.076506	0.161437	0.239998	5796.828847	31492.461159	3742.726852	14302.883589
62.036500	0.143129	0.079740	0.165595	0.249121	5717.823645	31107.912687	3732.184846	14064.977500
62.537000	0.147292	0.085237	0.166377	0.248313	5750.831505	31519.827512	3735.547556	14085.854417
63.037500	0.154134	0.089235	0.168515	0.248197	5797.674077	31791.818229	3740.336358	14088.849545
63.537000	0.159611	0.091144	0.169997	0.244262	5862.243216	32182.698021	3751.946822	14191.063821
64.037500	0.165263	0.096536	0.173269	0.246695	5884.659485	32382.608899	3753.760292	14127.764884
64.541500	0.165362	0.096986	0.175942	0.243019	5911.143897	32663.695574	3767.579283	14223.557967
65.036000	0.165413	0.096941	0.171235	0.241689	5920.894557	32751.778012	3760.205094	14258.425086
65.536500	0.172787	0.100753	0.177536	0.245024	5949.582833	32784.493774	3766.679416	14171.209461
66.036000	0.170613	0.102341	0.173067	0.250009	5898.911847	32552.002596	3746.191364	14042.087976
66.545000	0.171966	0.101317	0.174952	0.249602	5911.292864	32509.964117	3751.118564	14052.580852
67.037000	0.172380	0.102980	0.180288	0.252625	5892.962477	32417.521064	3756.115704	13974.932163
67.537500	0.175033	0.104625	0.181780	0.254985	5895.016682	32368.968945	3754.235737	13914.686049
68.035000	0.174586	0.105804	0.181525	0.257632	5873.404684	32269.744532	3747.984935	13847.512158
68.540500	0.179881	0.108092	0.182320	0.258165	5906.725843	32388.446691	3748.545571	13834.018830
69.035000	0.183592	0.108418	0.189808	0.258711	5929.085737	32373.532405	3763.582676	13820.227704
69.538000	0.184855	0.110501	0.187737	0.261121	5920.964964	32351.403914	3753.850235	13759.586693
70.036000	0.183359	0.110027	0.189315	0.262327	5901.920575	32237.833524	3754.653773	13729.350277
70.536000	0.190406	0.112426	0.189900	0.262922	5947.587473	32359.776801	3754.632738	13714.453298
71.036500	0.188019	0.112991	0.197127	0.264367	5920.382833	32300.235675	3767.221426	13678.396159
71.537000	0.190651	0.113716	0.196663	0.265489	5931.080702	32273.468961	3763.753454	13650.493278
72.037000	0.192827	0.115548	0.195530	0.269322	5919.352371	32138.576848	3752.970508	13555.663469
72.537500	0.192311	0.115263	0.196708	0.267755	5926.784934	32224.939163	3758.914698	13594.326521
73.035000	0.195508	0.117376	0.197774	0.269453	5937.418670	32252.847878	3757.541865	13552.420476
73.535500	0.191978	0.116184	0.198903	0.269243	5913.909931	32186.737887	3760.452507	13557.609323
74.035500	0.191258	0.116107	0.204291	0.270165	5902.352256	32119.473739	3770.221769	13534.914031
74.535500	0.194239	0.117574	0.199980	0.270597	5920.314551	32189.143544	3759.850473	13524.301106
75.036500	0.196680	0.118898	0.205727	0.271887	5928.464821	32191.408429	3769.592537	13492.664675
75.541500	0.195830	0.118691	0.203916	0.272133	5920.698405	32160.881378	3765.082546	13486.631526
76.042500	0.197641	0.119039	0.197775	0.272774	5928.988699	32141.221258	3750.366632	13470.969958
76.537000	0.196518	0.119056	0.198168	0.272855	5920.461096	32136.877874	3751.037574	13468.974046
77.037000	0.196479	0.119388	0.205063	0.272736	5921.029886	32167.241153	3766.273860	13471.899809
77.534500	0.197172	0.119336	0.203866	0.272478	5927.761986	32181.063042	3764.218828	13478.197640
78.034500	0.200741	0.119605	0.206006	0.271892	5957.343913	32238.748692	3770.194503	13492.539211
78.535500	0.197792	0.120201	0.197173	0.272510	5931.932602	32237.269445	3749.638301	13477.420236
79.035500	0.201075	0.122022	0.210068	0.273749	5946.468026	32276.521790	3775.055722	13447.166736
79.536000	0.200528	0.120534	0.202194	0.271631	5957.684485	32319.135042	3762.419938	13498.931917
80.036000	0.200089	0.121215	0.206237	0.271035	5958.810800	32405.581256	3772.588972	13513.536062
80.542500	0.203968	0.122343	0.209320	0.271583	5982.738671	32444.974081	3778.193706	13500.098382
81.037000	0.204297	0.122501	0.208292	0.270644	5991.903544	32519.598665	3777.996420	13523.135359
81.537500	0.205643	0.123491	0.205794	0.271464	5995.710169	32531.265643	3770.672271	13503.035304
82.037500	0.204752	0.123699	0.210349	0.271145	5991.575324	32567.157008	3781.453720	13510.858072
82.535000	0.202698	0.124243	0.210027	0.270858	5978.821075	32623.892938	3781.375208	13517.897150
83.035500	0.203685	0.123746	0.207723	0.270714	5986.976583	32599.801670	3776.582722	13521.424644
83.535000	0.204475	0.123300	0.210252	0.271443	5987.412958	32519.651436	3780.574819	13503.537982
84.035500	0.202690	0.125394	0.208734	0.273598	5959.083239	32515.437270	3772.445100	13450.842377
84.536000	0.207976	0.124768	0.210625	0.273082	6000.892127	32507.991050	3777.766065	13463.449350
85.036000	0.206343	0.123734	0.210171	0.272648	5992.209827	32467.143607	3777.720759	13474.046816
85.539500	0.206805	0.124254	0.204116	0.273871	5986.705577	32419.388625	3761.726533	13444.194528
86.037000	0.206124	0.124614	0.210398	0.274127	5979.940671	32426.479362	3774.949410	13437.946510
86.537500	0.205455	0.125403	0.211312	0.275620	5964.405072	32378.738864	3773.672458	13401.654567
87.035000	0.204042	0.124134	0.206479	0.275274	5956.768008	32316.258306	3763.820330	13410.055726
87.538000	0.204003	0.123501	0.211928	0.276098	5950.597683	32217.819440	3773.974646	13390.042961
88.035000	0.204341	0.124423	0.209367	0.277955	5939.774860	32154.847589	3764.274050	13345.116401
88.536000	0.206910	0.125091	0.213943	0.279597	5946.378843	32089.455725	3770.707421	13305.546265
89.036000	0.203926	0.124206	0.207303	0.279543	5925.563408	32033.713973	3756.326453	13306.848489
89.536000	0.203872	0.124203	0.208512	0.280734	5916.750423	31953.771254	3756.363342	13278.217175
90.039500	0.204406	0.124091	0.213610	0.281430	5915.611854	31899.893071	3765.952737	13261.535663
90.542500	0.203761	0.123214	0.211870	0.282042	5906.752178	31800.777369	3760.818782	13246.897858
91.037000	0.203613	0.123421	0.209149	0.283589	5894.847310	31711.882669	3751.570253	13209.951746
91.537500	0.201069	0.121103	0.206783	0.283716	5876.176202	31550.262148	3746.211057	13206.911166
92.035000	0.204454	0.122716	0.212177	0.286055	5883.481489	31502.589235	3752.784702	13151.345239
92.535500	0.201746	0.123160	0.212918	0.287385	5855.404938	31444.359190	3751.512174	13119.863424
93.035500	0.203478	0.121281	0.213660	0.287698	5865.237319	31300.785637	3752.437587	13112.464491
93.557500	0.202877	0.121881	0.212664	0.289647	5847.586199	31212.830256	3746.103539	13066.549782
94.035500	0.200415	0.121277	0.210282	0.290681	5823.560104	31106.471564	3738.811322	13042.285002
94.536500	0.204324	0.121839	0.212495	0.292027	5841.162408	31055.661390	3740.657326	13010.776539
95.036500	0.202876	0.121073	0.215550	0.293544	5820.806571	30908.234922	3743.939872	12975.364300
95.537000	0.201220	0.120743	0.209845	0.294160	5805.310746	30847.364496	3730.522100	12961.026432
96.037500	0.203922	0.121862	0.216033	0.297177	5803.164295	30725.670555	3737.227224	12891.079975
