sample name	sample
index	89
start time	 02-15-2021  10:27:19 AM
880	0.311205
Peak Time (s)	90.535
Peak Height 	0.3112
calc peak height	90,93
Baseline Time (s)	9.037
Baseline Value 	-0.003932
subtract baseline	10,4
Abs	0.227536
Peak Time (s)	92.035
Peak Height 	0.2275
calc peak height	90,93
Baseline Time (s)	10.536
Baseline Value 	0.007055
subtract baseline	10,3
PK_550	0.099234
Peak Time (s)	90.535
Peak Height 	0.09923
calc peak height	90,93
Baseline Time (s)	9.037
Baseline Value 	7.7627E-4
subtract baseline	10,2
PK_880	0.208320
Peak Time (s)	91.035
Peak Height 	0.2083
calc peak height	90,93
Baseline Time (s)	8.537
Baseline Value 	0.001278
subtract baseline	10,1


Time (s)	A880-A510	A880-A775	A880-A975	A880	I510	I775	I975	I880	
0.035000	0.001281	-0.000512	-0.000703	0.000241	4244.152184	16123.692462	3162.550241	9054.693774
0.535000	-0.001619	-0.000989	0.005676	0.002386	4228.187127	16044.151076	3165.987176	9024.094105
1.035500	0.001762	-0.001669	-0.011234	0.004625	4231.785051	15956.163157	3150.705738	8992.313590
1.535500	-0.000842	-0.001125	-0.004336	-0.002128	4244.937729	16177.226678	3161.530394	9088.671285
2.036000	-0.000590	-0.001281	-0.005328	-0.001867	4244.906898	16164.472778	3160.522562	9084.910698
2.536500	0.001457	0.000340	-0.010161	-0.000705	4247.728467	16178.516574	3155.740301	9068.235471
3.039500	-0.001285	0.000001	-0.008437	0.005067	4220.821711	15993.095686	3152.549040	8986.057873
3.536500	0.000570	0.000347	-0.011304	0.000645	4240.607918	16137.521162	3153.770994	9048.914805
4.037000	0.002326	0.001160	-0.008741	0.000593	4246.360791	16163.926442	3155.837972	9049.668472
4.537500	0.002927	0.000144	-0.014538	0.000130	4249.756140	16147.050076	3151.636556	9056.281187
5.034500	-0.001153	-0.000779	-0.007548	-0.000896	4240.029246	16150.173182	3157.969037	9070.974822
5.535500	0.003734	-0.000343	-0.004769	-0.000426	4254.121574	16149.165069	3159.815420	9064.247230
6.035500	0.003590	-0.000159	0.003496	0.000111	4251.938857	16138.403700	3166.064793	9056.556967
6.536000	-0.002374	-0.000550	-0.003010	-0.000538	4235.028123	16146.252060	3161.318061	9065.846046
7.036000	0.000488	-0.000517	-0.002234	-0.000783	4244.888370	16154.727230	3162.141138	9069.359402
7.536500	0.002756	0.001321	-0.000627	-0.000102	4249.954811	16190.085407	3162.889162	9059.606512
8.036500	-0.000420	0.000540	-0.003445	-0.000194	4240.126877	16169.011537	3160.691016	9060.912372
8.536500	0.000000	-0.000239	0.004292	-0.001158	4244.528232	16174.648187	3167.753016	9074.732973
9.037000	-0.000411	0.000000	-0.006477	0.000000	4239.543018	16146.622558	3158.108554	9058.141615
9.534500	-0.000987	-0.001043	-0.002558	-0.001296	4241.827417	16154.335052	3162.293359	9076.716313
10.035000	-0.004986	-0.000572	0.001662	-0.000925	4228.009702	16157.386655	3165.413768	9071.387950
10.535500	0.002661	0.001893	0.000000	0.000626	4247.324355	16185.285720	3162.806898	9049.188026
11.035500	0.000595	0.000983	-0.004182	0.000073	4242.507624	16174.413663	3159.885359	9057.102087
11.536000	0.003245	0.000269	0.004086	0.000469	4249.689537	16140.508934	3166.253593	9051.428580
12.036000	0.000696	-0.001002	-0.003441	-0.001060	4246.432977	16148.383716	3161.391168	9073.328122
12.539000	-0.000286	0.000186	-0.004231	-0.000246	4240.720816	16159.815951	3160.102494	9061.666344
13.036500	0.003717	0.001764	0.000860	0.000542	4250.966697	16183.910039	3163.570690	9050.386860
13.537000	0.002242	0.000070	-0.000109	-0.001369	4252.361448	16190.553226	3164.335240	9077.761645
14.037500	-0.002875	-0.001314	-0.006872	0.000586	4229.900415	16088.821734	3157.327480	9049.762025
14.535000	-0.000617	-0.001074	0.004927	0.004061	4226.070766	15991.029271	3164.015855	9000.303095
15.035000	0.002517	0.001223	-0.001538	-0.000517	4250.515004	16199.772049	3162.487359	9065.540907
15.538000	0.004353	0.000149	-0.011006	-0.000712	4257.024716	16172.894152	3155.077554	9068.337174
16.036000	0.002659	0.001310	0.009941	-0.000010	4249.346247	16186.908504	3171.462239	9058.278061
16.539500	-0.000450	0.000892	-0.004791	0.005287	4222.749530	16013.332044	3155.248176	8982.941429
17.037000	0.006013	0.002368	-0.003361	-0.001255	4264.120709	16257.500729	3161.612055	9076.124266
17.542000	0.002366	-0.000785	0.011115	0.000280	4247.488342	16114.212035	3172.195373	9054.136258
18.036500	-0.001845	0.000375	0.006738	0.001788	4229.357317	16103.612093	3167.343174	9032.602320
18.537000	0.000685	-0.000114	-0.003594	0.003023	4233.444285	16051.352190	3157.997130	9015.037821
19.034500	0.002052	0.000501	0.006521	0.002268	4240.162204	16092.898735	3166.773897	9025.777203
19.534000	0.004689	-0.000256	-0.001884	0.001773	4250.136289	16084.909932	3160.365383	9032.818809
20.035500	0.003127	0.001765	0.003511	0.002787	4241.929644	16115.509383	3163.900299	9018.392682
20.535000	0.000086	-0.000029	0.003640	0.002978	4231.693200	16055.269778	3163.849656	9015.672730
21.036000	-0.000589	0.000556	-0.006678	0.001792	4233.304855	16109.006840	3156.522960	9032.551033
21.536000	0.000449	-0.000467	-0.005319	0.000711	4240.014127	16110.769096	3158.465206	9047.973612
22.039000	0.002128	0.000209	-0.014694	0.001152	4243.949412	16117.923939	3150.715877	9041.683900
22.537000	0.002834	-0.001171	0.000215	0.002619	4241.530028	16031.587186	3161.372836	9020.774256
23.037000	0.001430	0.000308	-0.004108	0.002803	4236.494615	16070.797361	3157.762867	9018.157633
23.537500	0.003388	0.001654	-0.001375	0.003464	4240.602582	16091.559492	3159.416835	9008.761017
24.034500	0.004638	-0.000426	-0.000541	0.001499	4250.850043	16088.053967	3161.665401	9036.720509
24.535000	0.003624	0.000438	-0.002459	0.004299	4238.704062	16029.457855	3157.884431	8996.923505
25.035500	0.004135	0.000366	-0.002057	0.002390	4246.400417	16085.084891	3159.731641	9024.039267
25.536000	0.004764	0.001803	-0.003781	0.002339	4248.568657	16130.308091	3158.393907	9024.762497
26.035500	-0.000125	0.000896	0.003974	0.002380	4232.914973	16101.474156	3164.606391	9024.179082
26.539500	0.005670	0.000524	0.011770	0.001401	4254.470299	16119.913119	3171.809045	9038.127047
27.036500	0.004631	0.001306	0.000615	0.000231	4254.890073	16179.412277	3163.624035	9054.833497
27.536500	0.006516	0.000525	0.009783	-0.000164	4262.223473	16167.646073	3171.459003	9060.487032
28.037000	0.006299	0.002874	-0.004517	0.002045	4254.423707	16171.921837	3158.041386	9028.950982
28.534500	0.006361	0.000615	0.010493	-0.000486	4262.760543	16180.227999	3172.314837	9065.096167
29.035000	0.002607	0.001001	0.002380	0.000753	4246.745288	16154.175951	3164.632762	9047.374043
29.535000	0.003747	0.001568	0.004618	0.001134	4249.168871	16159.867221	3166.145560	9041.936309
30.035500	0.004175	0.000905	0.003073	0.000395	4252.903705	16162.189931	3165.488596	9052.497978
30.535500	0.001632	0.001727	0.005469	0.004138	4232.911959	16073.348789	3164.393250	8999.212281
31.036000	0.002680	0.001293	0.003793	0.003320	4238.814984	16084.954866	3163.696161	9010.807039
31.536500	0.002744	0.001203	0.009369	0.001402	4245.115748	16140.551854	3169.822541	9038.109932
32.036500	0.004766	-0.000606	0.013191	-0.000641	4258.125092	16147.703694	3174.691732	9067.324088
32.536000	0.003397	0.002951	0.006491	0.002277	4244.407082	16167.160145	3166.741432	9025.636999
33.037500	0.004119	0.001455	0.012204	0.002265	4246.745041	16121.940807	3171.452324	9025.811167
33.537500	0.008753	0.000352	-0.002827	-0.000089	4269.211014	16160.053550	3161.103337	9059.412372
34.034500	0.004727	0.000790	0.000519	0.004259	4242.330989	16041.294757	3160.298146	8997.484450
34.535500	0.002500	0.002093	0.005804	0.005797	4230.414658	16034.191385	3163.318766	8975.732337
35.036000	0.002879	-0.000156	0.002356	0.001976	4243.717044	16081.817387	3163.621333	9029.934228
35.538500	0.003638	0.000752	-0.002338	0.003693	4240.671260	16057.254564	3158.463933	9005.511884
36.039000	0.008399	0.000959	0.008499	0.003194	4257.475321	16078.685693	3167.634534	9012.605320
36.539500	0.001559	-0.000050	0.000187	0.004381	4231.912871	16012.228917	3159.934350	8995.759598
37.036500	0.003528	0.000900	0.004583	0.003825	4239.904095	16057.778762	3163.927497	9003.646286
37.534000	0.002560	-0.001839	0.017256	0.001405	4244.518597	16048.101239	3176.382675	9038.062884
38.037000	0.001914	-0.000384	0.004318	0.001694	4241.545641	16083.429514	3165.444047	9033.946773
38.535000	0.003700	0.000193	-0.005957	0.004321	4238.874373	16021.365469	3155.089500	8996.606696
39.035500	0.005860	0.000932	0.012071	0.003468	4248.462231	16069.547712	3170.347871	9008.708615
39.535500	0.002529	-0.000091	0.008075	0.002758	4240.120158	16060.056391	3167.644828	9018.802020
40.036000	0.006038	0.000511	0.016241	0.003554	4248.757299	16054.176044	3173.735748	9007.486831
40.536500	0.002249	0.001005	-0.008316	0.005320	4231.131624	16015.770989	3152.445586	8982.481017
41.036500	0.009538	0.000507	0.003360	0.003412	4260.440619	16058.369483	3163.271962	9009.511979
41.537000	0.003238	0.001479	0.011361	0.004283	4237.530364	16061.432768	3169.090302	8997.150044
42.037000	0.004587	0.002058	0.013673	0.004151	4242.233061	16082.985333	3171.107687	8999.021180
42.537000	0.002990	-0.000477	0.011697	0.003976	4237.720291	16011.601611	3169.620435	9001.508276
43.034500	0.006575	0.000900	0.002212	0.003321	4251.218828	16073.030715	3162.416507	9010.796362
43.535000	0.006871	0.000077	-0.000708	0.001316	4258.600747	16108.913327	3161.678174	9039.334755
44.035000	0.006654	0.001063	-0.011366	0.001661	4256.793682	16128.412405	3152.923577	9034.423040
44.535500	0.003470	0.001202	0.001567	0.006894	4230.016525	15974.241382	3159.027115	8960.263253
45.035500	0.003862	0.001054	0.014716	0.001226	4249.243231	16141.382207	3174.406310	9040.621185
45.539000	0.006996	0.000446	0.005857	0.002228	4256.070688	16092.422401	3166.263595	9026.340646
46.036500	0.003819	-0.000785	0.004457	-0.000199	4253.666177	16128.786877	3167.103196	9060.996477
46.536500	0.004296	0.001163	0.007792	0.006184	4234.863840	15994.445513	3164.617511	8970.276371
47.037000	0.005267	0.001872	0.008239	0.005596	4239.801177	16033.570067	3165.459522	8978.568128
47.537500	0.006466	0.000550	0.008691	0.005095	4245.206709	16008.807402	3166.236845	8985.655813
48.034500	0.007284	0.001612	-0.002795	0.001902	4258.045446	16137.800107	3159.531118	9030.986809
48.535000	0.001883	-0.000572	0.008721	0.005694	4228.798063	15956.985545	3165.773054	8977.194134
49.035500	0.006978	0.001361	0.005142	0.002822	4254.108037	16102.166977	3165.196410	9017.889224
49.536500	0.005514	0.001406	0.006743	0.000285	4257.553782	16180.840876	3168.580758	9054.069237
50.036500	0.004166	0.001023	0.015953	0.000792	4251.602880	16153.673066	3175.804602	9046.818153
50.536000	-0.001929	-0.002980	0.005011	0.018738	4176.756042	15500.884527	3152.374355	8795.700229
51.036500	-0.053691	-0.033126	0.022677	0.143676	3737.178827	11719.435767	3077.816165	7307.584077
51.537000	-0.045762	-0.026351	0.003215	0.041328	3990.248819	14236.301577	3133.771985	8493.983108
52.037500	-0.000007	-0.014114	0.008413	-0.033556	4351.610083	16752.752303	3198.987057	9557.386727
52.537500	-0.014772	-0.010829	-0.012452	-0.066304	4414.597114	17950.402252	3209.729740	10083.245313
53.034500	-0.009053	-0.010884	-0.015621	-0.110290	4602.890946	19551.567844	3248.951280	10854.936415
53.535000	0.002914	-0.003727	0.005722	-0.126697	4720.449167	20479.582708	3288.659367	11163.412626
54.035500	0.005961	-0.004075	-0.003996	-0.096773	4608.905437	19296.480062	3247.051173	10609.422182
54.535500	0.014355	-0.004764	0.017217	-0.043660	4437.949722	17386.999779	3216.221122	9715.426373
55.039000	0.023902	-0.003325	0.020036	-0.001345	4323.397017	16086.390204	3181.056368	9077.416799
55.536500	0.027652	-0.000425	0.023350	0.027057	4242.736484	15334.866531	3160.324741	8682.759234
56.036500	0.044759	0.003805	0.056656	0.051757	4218.801992	14762.740577	3167.302601	8359.913001
56.537000	0.059513	0.006033	0.064292	0.084657	4163.267336	13954.413554	3147.207263	7957.432784
57.034500	0.073649	0.014215	0.076188	0.111400	4126.027099	13492.242051	3135.930608	7652.002061
57.534500	0.082865	0.021151	0.086760	0.136403	4080.895295	13060.999372	3125.334673	7382.973982
58.035500	0.105285	0.030027	0.119543	0.145649	4118.441321	13052.334594	3142.800882	7287.340747
58.535500	0.120560	0.042329	0.141206	0.178302	4069.149621	12587.958211	3134.527738	6965.462660
59.035500	0.138731	0.052551	0.156375	0.202294	4053.073296	12285.874718	3128.035909	6743.906771
59.538000	0.150305	0.059006	0.164053	0.222946	4028.428509	11984.278600	3118.725859	6562.759004
60.035500	0.158280	0.063760	0.163636	0.231957	4025.648394	11895.739164	3112.132676	6486.376290
60.535500	0.166062	0.070154	0.169702	0.242457	4018.385401	11811.162213	3109.081019	6399.350897
61.037000	0.173212	0.076011	0.189835	0.247740	4023.372739	11822.962603	3119.424962	6356.358582
61.537500	0.176770	0.079856	0.169784	0.253914	4016.395377	11775.281596	3101.393452	6306.768140
62.035000	0.179881	0.082477	0.189320	0.249211	4037.357357	11926.060237	3118.020818	6344.473907
62.535000	0.174746	0.086369	0.192451	0.257200	4002.361647	11841.385233	3114.613404	6280.655596
63.035500	0.185455	0.084416	0.205817	0.254667	4037.675646	11853.331412	3125.908081	6300.762242
63.536000	0.178247	0.087272	0.181989	0.256007	4014.757931	11884.614859	3108.217593	6290.111564
64.039000	0.185470	0.088923	0.207582	0.256898	4031.691492	11900.340143	3125.570811	6283.047610
64.536500	0.181579	0.085966	0.191029	0.261093	4010.109485	11753.478156	3110.929502	6249.984637
65.036500	0.188156	0.090124	0.199675	0.260520	4029.171118	11850.342395	3117.348982	6254.477902
65.537000	0.191466	0.091597	0.208459	0.261543	4035.337984	11859.624976	3122.859574	6246.455158
66.037000	0.186400	0.090771	0.184566	0.261534	4021.752142	11842.815297	3106.210794	6246.528013
66.537500	0.186941	0.091750	0.202505	0.271333	3997.283298	11663.177800	3111.781584	6170.592988
67.037500	0.190987	0.091980	0.203172	0.265263	4024.045238	11791.103304	3116.473231	6217.425969
67.534500	0.192293	0.095032	0.212589	0.270684	4013.082293	11742.774265	3119.290178	6175.567812
68.035500	0.192046	0.092184	0.197297	0.269205	4016.352243	11714.981310	3109.661415	6186.937298
68.535500	0.194341	0.092611	0.192913	0.277691	4000.010645	11553.060017	3100.961438	6122.238467
69.038500	0.191119	0.094541	0.195822	0.272647	4004.797583	11693.012158	3106.307191	6160.545667
69.536000	0.193132	0.093826	0.198923	0.273584	4007.632590	11659.646476	3107.778590	6153.392704
70.036500	0.196774	0.095147	0.202562	0.275556	4012.046593	11646.544270	3108.917522	6138.398895
70.536500	0.185886	0.092351	0.208352	0.281760	3967.654828	11467.322792	3108.634648	6091.659886
71.034000	0.193125	0.093471	0.197905	0.275615	4002.266585	11611.693428	3105.707636	6137.948527
71.534500	0.195649	0.096298	0.219929	0.279839	3997.813105	11583.765212	3118.007890	6106.061497
72.034500	0.194745	0.094512	0.213161	0.279747	3995.688986	11549.970109	3113.334868	6106.748960
72.535000	0.190539	0.095667	0.192619	0.288111	3963.338111	11407.712946	3093.912950	6044.499357
73.035500	0.196107	0.094279	0.203547	0.282118	3993.058036	11498.311675	3105.124984	6088.980063
73.535500	0.195688	0.097058	0.222574	0.284348	3986.178600	11509.200925	3116.696304	6072.361660
74.036000	0.195961	0.095754	0.222878	0.283192	3989.884580	11506.254188	3117.722382	6080.964238
74.536000	0.194909	0.096821	0.203329	0.292413	3963.510200	11346.329748	3098.108049	6012.944297
75.037000	0.199671	0.097368	0.224844	0.286584	3990.711727	11471.123998	3116.719750	6055.778268
75.536500	0.195795	0.094346	0.212030	0.285217	3984.207796	11438.562594	3108.785664	6065.903920
76.037000	0.199894	0.096258	0.213271	0.288445	3986.460278	11412.747760	3107.428927	6042.038160
76.537500	0.196363	0.097472	0.201108	0.294917	3960.849555	11310.395206	3095.008986	5994.721724
77.035000	0.199307	0.098498	0.202458	0.291389	3977.353016	11398.966539	3098.208285	6020.426343
77.535000	0.202025	0.098793	0.208308	0.292041	3982.671193	11391.996964	3101.658286	6015.659284
78.035500	0.198708	0.099310	0.211485	0.293516	3970.371058	11373.287717	3102.796323	6004.902481
78.535500	0.198591	0.099905	0.210264	0.293767	3969.434026	11380.010904	3101.812315	6003.080348
79.036000	0.202088	0.098741	0.219751	0.293046	3980.243262	11371.367129	3108.711060	6008.326890
79.536500	0.203071	0.098167	0.196878	0.293400	3981.864995	11353.310987	3093.244643	6005.748922
80.038000	0.204093	0.099748	0.203829	0.295739	3978.471574	11338.568675	3096.250254	5988.761186
80.536000	0.198825	0.099421	0.207254	0.303286	3946.003155	11187.112540	3093.562461	5934.574425
81.034500	0.202605	0.098445	0.219020	0.296428	3972.889160	11300.000307	3105.911774	5983.773759
81.534500	0.200451	0.098382	0.215879	0.296777	3966.503957	11292.044226	3103.557567	5981.253272
82.035000	0.206675	0.099792	0.208677	0.298183	3978.826474	11292.123255	3097.829462	5971.109091
82.535500	0.207941	0.099636	0.219616	0.304374	3966.233051	11170.497741	3100.974882	5926.841147
83.036000	0.200964	0.099966	0.217931	0.299372	3961.220810	11272.566846	3103.192945	5962.561321
83.536000	0.205872	0.100334	0.212360	0.300808	3970.046049	11252.023711	3098.528117	5952.265052
84.036500	0.201418	0.096920	0.219909	0.298595	3964.341250	11228.974119	3105.047970	5968.146813
84.536500	0.200169	0.098195	0.211241	0.305091	3944.851889	11129.530162	3094.982080	5921.752017
85.037000	0.207001	0.098930	0.226711	0.300508	3973.696592	11230.823901	3108.368162	5954.409172
85.537000	0.201554	0.098094	0.222308	0.300655	3959.467897	11212.010997	3105.276982	5953.358814
86.035000	0.200996	0.099950	0.218465	0.302801	3952.652347	11206.451619	3101.255880	5938.024282
86.535000	0.196531	0.097809	0.221423	0.306038	3933.476976	11104.340857	3101.070453	5915.048338
87.035000	0.201805	0.097495	0.221505	0.301314	3958.437138	11188.006504	3104.290254	5948.644517
87.535500	0.208130	0.100778	0.219367	0.305714	3963.309651	11166.720303	3099.918370	5917.340482
88.038500	0.206432	0.099093	0.216961	0.304842	3961.213992	11151.280574	3098.902344	5923.516455
88.536000	0.205391	0.098400	0.216625	0.309441	3947.028084	11051.445683	3095.657600	5891.071611
89.036500	0.204844	0.097329	0.215350	0.303132	3961.523042	11150.244977	3098.967946	5935.668157
89.536500	0.206204	0.097033	0.211746	0.302960	3965.410844	11147.890334	3096.706229	5936.893011
90.036500	0.208166	0.097279	0.213188	0.304899	3965.468455	11115.839615	3096.380906	5923.114578
90.534500	0.199857	0.099234	0.220908	0.311205	3928.942318	11034.024044	3097.308866	5878.714129
91.034500	0.208320	0.098216	0.215130	0.305462	3964.429840	11122.914385	3097.286557	5919.126550
91.535000	0.205044	0.097095	0.193806	0.304650	3958.190590	11117.071448	3084.111981	5924.879047
92.035000	0.206615	0.097283	0.227536	0.304628	3962.220442	11121.030473	3106.126051	5925.033182
92.538500	0.200555	0.096775	0.225792	0.311006	3931.147466	10991.839280	3100.671420	5880.105087
93.036000	0.211287	0.100444	0.220893	0.310234	3959.855408	11074.921127	3097.938476	5885.507657
93.536500	0.210395	0.098196	0.233322	0.307765	3963.850723	11079.090963	3107.927283	5902.855186
94.037000	0.206881	0.096855	0.224586	0.306803	3957.394224	11071.971002	3102.672280	5909.638939
94.537000	0.201912	0.097235	0.229125	0.313104	3929.325431	10961.429235	3101.494652	5865.472606
95.034000	0.207879	0.097335	0.226678	0.308119	3956.591732	11056.265072	3103.192498	5900.361652
95.537500	0.209361	0.097771	0.214740	0.307798	3961.145215	11070.486628	3095.499216	5902.621849
96.035000	0.205509	0.096108	0.217933	0.306887	3953.726190	11056.358420	3098.193705	5909.044846
