sample name	sample
index	1163
start time	 04-26-2021  10:25:51 AM
880	0.477841
Peak Time (s)	92.538
Peak Height 	0.4778
calc peak height	90,93
Baseline Time (s)	9.037
Baseline Value 	-0.006796
subtract baseline	10,4
Abs	0.326117
Peak Time (s)	90.037
Peak Height 	0.3261
calc peak height	90,93
Baseline Time (s)	8.536
Baseline Value 	0.002942
subtract baseline	10,3
PK_550	0.169365
Peak Time (s)	91.035
Peak Height 	0.1694
calc peak height	90,93
Baseline Time (s)	9.037
Baseline Value 	8.8851E-4
subtract baseline	10,2
PK_880	0.310299
Peak Time (s)	91.534
Peak Height 	0.3103
calc peak height	90,93
Baseline Time (s)	11.538
Baseline Value 	0.002001
subtract baseline	10,1


Time (s)	A880-A510	A880-A775	A880-A975	A880	I510	I775	I975	I880	
0.037000	0.001934	-0.000760	-0.002457	0.001269	6151.290961	44026.086131	3793.545033	22784.951646
0.537500	0.000480	-0.000241	-0.000570	0.005154	6110.236391	43707.809497	3788.811900	22606.778760
1.038000	-0.004473	-0.000780	-0.005135	0.007001	6058.672594	43483.682966	3773.764277	22522.624955
1.535000	0.001509	-0.000868	-0.007114	0.000650	6152.793670	44074.616276	3783.998758	22813.485435
2.038500	-0.000468	-0.000708	0.000371	-0.000419	6145.771049	44191.547115	3804.326326	22862.870248
2.536000	-0.000478	-0.000271	-0.001032	-0.000414	6145.650542	44232.677129	3800.952118	22862.612967
3.036000	-0.001173	-0.000191	0.001455	0.005400	6095.759270	43689.366231	3793.026916	22595.566747
3.536000	-0.003121	-0.000293	-0.001022	0.000486	6118.398420	44144.859115	3798.826097	22821.052366
4.036500	0.000444	-0.001221	0.001785	0.000123	6148.625523	44091.061463	3806.420571	22837.796117
4.537000	-0.001042	-0.000287	-0.001489	0.000727	6132.512982	44122.435235	3797.137563	22809.927169
5.037000	0.000441	-0.000507	-0.002060	0.000614	6144.812920	44112.306629	3796.047157	22815.131146
5.534500	-0.000153	-0.000182	-0.003259	-0.000115	6145.858057	44212.645082	3794.928521	22848.809896
6.035000	0.000822	0.000484	0.002708	0.000695	6147.125532	44198.957245	3807.264235	22811.397116
6.535500	0.002258	0.000090	0.001601	0.000556	6159.330210	44174.727622	3804.940239	22817.839214
7.035500	-0.002152	-0.001370	-0.003319	-0.000480	6133.259445	44134.305866	3795.654908	22865.685763
7.535500	-0.001759	-0.000309	0.003125	-0.000316	6135.019869	44219.726499	3810.706954	22858.076024
8.036000	-0.000446	-0.000283	-0.001474	-0.000142	6143.805778	44205.641357	3799.246457	22850.069433
8.536000	0.001545	0.000014	0.000000	0.000332	6155.536185	44188.742450	3801.637105	22828.156387
9.036500	0.001769	0.000000	0.000408	0.000000	6159.847220	44219.074730	3803.411208	22843.492935
9.536500	0.001230	0.000428	-0.000676	-0.000156	6156.874017	44274.804470	3801.186311	22850.679351
10.037500	-0.000095	-0.000225	0.000579	-0.000313	6147.834198	44227.469389	3804.571485	22857.961840
10.535000	-0.002096	-0.000853	-0.001649	-0.000683	6135.251742	44202.802451	3800.118679	22875.052722
11.035000	-0.000043	-0.000102	0.002564	0.000071	6145.269800	44202.544509	3808.421654	22840.214359
11.538000	0.000000	0.000519	-0.002246	0.000324	6143.646930	44237.686546	3796.294502	22828.523703
12.035500	-0.000969	0.000414	-0.000601	-0.000443	6142.087945	44300.909033	3802.053042	22863.972940
12.536000	0.001264	-0.000518	-0.002521	-0.000647	6160.943149	44231.413912	3797.952154	22873.408363
13.039000	0.001920	0.000148	-0.000751	-0.000547	6165.261992	44285.453649	3801.945748	22868.798205
13.536500	0.000302	0.000181	0.001229	-0.001865	6162.931000	44414.684997	3809.871260	22929.855352
14.036500	0.000325	0.000044	-0.003865	0.001834	6134.517533	44048.765297	3788.871029	22758.953529
14.537000	0.000181	0.000412	0.003158	0.002078	6131.521799	44060.511634	3805.021298	22747.697026
15.042500	0.000468	0.000166	-0.002275	-0.001660	6162.630547	44393.607154	3800.960535	22920.342475
15.535000	0.000471	0.000126	0.001287	-0.001431	6160.876497	44367.830370	3808.963733	22909.706653
16.038000	0.001933	0.000292	0.000595	-0.001461	6172.473155	44386.549175	3807.368671	22911.092860
16.535500	0.001606	0.000528	-0.001701	-0.000911	6165.649700	44356.506918	3800.541896	22885.625574
17.036000	0.004590	0.000705	0.006072	-0.001637	6194.600977	44443.102365	3821.064514	22919.287488
17.536000	-0.001539	-0.000453	-0.000409	0.000032	6134.034466	44172.783851	3801.375043	22841.996876
18.036500	0.001087	0.000403	-0.001933	0.001007	6146.769248	44161.490411	3795.413123	22797.021556
18.537000	-0.000566	-0.000644	0.000449	-0.000068	6142.307763	44164.191969	3803.672220	22846.638531
19.036500	-0.000830	0.000047	0.000015	0.001017	6131.910496	44126.718030	3800.035880	22796.565530
19.537000	0.000348	0.000527	-0.000334	0.001538	6136.966710	44122.767776	3797.957559	22772.556106
20.035000	0.001880	-0.000075	0.003538	0.001052	6152.549048	44111.708163	3808.402564	22794.927372
20.534500	-0.000860	0.000342	-0.000093	0.001125	6130.851771	44144.533166	3799.520397	22791.600755
21.035500	-0.001196	-0.000525	-0.004722	0.000419	6133.702787	44129.221704	3790.191412	22824.160446
21.535000	0.000678	-0.000218	-0.000460	0.000568	6147.003790	44144.166074	3799.973067	22817.279139
22.036500	-0.000128	-0.000035	-0.000988	0.000904	6138.191150	44129.672238	3797.909481	22801.778053
22.536000	-0.000602	-0.000086	-0.004969	0.000522	6137.476309	44161.072379	3789.361054	22819.372605
23.037000	-0.000693	0.000114	-0.002220	0.000448	6137.349872	44187.231251	3796.062942	22822.825258
23.537000	0.001827	0.000173	0.002419	0.000702	6154.855386	44168.692550	3806.553633	22811.096880
24.037500	0.000095	0.000523	0.001194	0.000531	6142.778428	44218.220829	3804.019784	22818.952979
24.537000	0.000434	0.000186	-0.001910	0.000566	6145.130122	44182.852271	3796.518849	22817.376938
25.040000	-0.001842	-0.000235	-0.005416	0.000248	6130.048785	44173.110917	3788.955033	22832.056040
25.538000	0.000319	-0.000092	0.001330	0.000338	6146.006431	44178.092813	3804.811841	22827.891048
26.035500	0.002445	0.000466	0.001189	0.001205	6155.736536	44148.630419	3802.392790	22787.883481
26.536000	0.000178	0.000013	0.002165	0.000629	6142.669087	44160.399754	3806.118985	22814.449609
27.036000	0.000636	0.000627	-0.001169	-0.000898	6158.017280	44364.680878	3801.782269	22885.006276
27.536500	0.002707	0.001004	0.004357	-0.001717	6180.503165	44479.361811	3817.084587	22922.981445
28.036500	0.002546	0.001072	0.000696	-0.001060	6174.118457	44422.918321	3806.646726	22892.520690
28.537000	0.000810	-0.000558	-0.005009	-0.001850	6166.760846	44342.460962	3794.892303	22929.159166
29.037000	0.001782	0.000110	0.001559	-0.001320	6170.198489	44355.690042	3809.351267	22904.582542
29.535000	0.003253	-0.000337	-0.000350	-0.001630	6184.085969	44342.522614	3805.502147	22918.929284
30.035000	0.000995	0.000116	0.003447	-0.001751	6167.429590	44397.461149	3814.957585	22924.534992
30.535500	0.001705	0.000475	0.001931	0.001588	6147.048653	44113.027575	3803.253358	22770.252413
31.036000	-0.001212	-0.000394	-0.004325	0.000801	6130.630471	44105.307720	3790.224772	22806.514187
31.536000	0.000703	-0.000343	-0.000764	-0.002305	6169.466651	44406.670926	3806.129813	22950.283856
32.036000	0.001610	0.000638	-0.000433	-0.001345	6169.054782	44408.609075	3804.617618	22905.722803
32.536500	0.002461	0.000308	-0.001443	-0.000639	6170.187668	44309.527998	3800.509672	22873.044086
33.037000	0.000426	0.000151	-0.000514	-0.001040	6157.494686	44332.821195	3803.694908	22891.619296
33.537000	0.000376	0.000427	0.002269	0.000896	6142.132858	44174.370600	3805.726426	22802.124251
34.034000	0.000002	0.000090	0.002682	0.000810	6139.917679	44150.452533	3806.927500	22806.117847
34.535000	0.000660	-0.000357	0.003346	0.000894	6144.342206	44099.932053	3808.321797	22802.238380
35.038000	0.001131	0.000635	0.004091	0.001727	6141.551122	44115.057039	3808.109620	22763.864251
35.535500	-0.001043	0.000368	-0.003646	0.001505	6126.519144	44110.723671	3790.166159	22774.062935
36.036000	0.000590	0.000281	0.002248	0.001101	6142.211071	44141.010064	3805.184795	22792.705889
36.536000	-0.000735	-0.000491	0.004008	0.000766	6134.571783	44099.390643	3810.228067	22808.135052
37.065000	-0.001424	-0.000488	-0.000132	0.000806	6128.969902	44095.820463	3800.188394	22806.289907
37.536500	0.000091	0.000926	-0.000611	0.001397	6136.072219	44174.140215	3797.633596	22779.036018
38.036500	-0.000859	-0.000106	0.002295	0.001250	6129.897052	44089.921989	3804.938655	22785.819106
38.537500	-0.000101	0.000107	-0.001794	0.001523	6133.627538	44084.317475	3794.516647	22773.257859
39.037500	0.000822	-0.000032	0.000810	0.001506	6140.871558	44072.674209	3800.767449	22774.037699
39.535500	0.000580	0.000106	0.000127	0.001174	6141.563672	44117.337451	3799.927089	22789.318539
40.035500	0.001268	0.000615	-0.003463	0.001854	6141.623456	44101.073980	3789.773599	22758.022264
40.535500	-0.001004	0.000321	-0.004008	0.001754	6124.909466	44082.607020	3788.721510	22762.610641
41.036000	-0.000340	-0.000353	-0.005302	0.000882	6136.724954	44101.487728	3787.725711	22802.802358
41.536000	0.001511	-0.000342	-0.000993	0.001202	6148.536588	44072.039305	3797.187535	22788.020920
42.036500	-0.001659	0.000814	0.004112	0.002201	6116.459238	44086.981752	3807.018629	22742.048547
42.536500	-0.000090	0.000085	-0.005215	0.001336	6135.153469	44099.960013	3786.858310	22781.850454
43.037000	0.000736	0.000066	0.000009	0.001230	6142.331479	44108.175118	3799.510929	22786.737050
43.538000	0.001083	-0.000059	-0.001977	-0.003372	6180.742104	44536.202808	3805.777585	22999.875986
44.034500	0.001881	0.000339	0.000307	-0.001222	6170.207036	44368.145808	3806.100429	22900.020844
44.537500	-0.000088	-0.000046	-0.003892	0.002278	6127.918046	43997.987350	3787.757264	22738.501440
45.035500	0.000236	0.000517	0.000495	0.001377	6137.347995	44137.202010	3800.322972	22779.987827
45.536000	0.001781	-0.000158	0.000664	-0.002102	6176.276321	44404.789998	3809.078687	22940.824763
46.036000	0.002436	-0.000072	0.003665	-0.001598	6177.462025	44364.909249	3815.115143	22917.465837
46.538500	-0.003117	-0.000268	-0.000068	0.001624	6109.721061	44038.996862	3798.387696	22768.595573
47.036500	0.000954	0.000568	-0.001543	0.002712	6132.595742	44015.162639	3792.289340	22718.593326
47.537000	0.000042	0.000217	-0.000723	0.001885	6131.938016	44060.321899	3796.202615	22756.581968
48.037500	0.000573	0.001251	0.004898	-0.000682	6155.853140	44403.779725	3815.882842	22875.009670
48.538000	-0.000223	-0.000508	0.000990	0.001389	6133.718993	44038.500130	3801.476621	22779.400562
49.041000	0.001914	0.001050	-0.001217	0.000373	6158.076965	44283.648088	3798.629550	22826.255563
49.538000	-0.000460	-0.000126	0.002446	-0.002997	6165.807856	44493.779914	3815.551133	22982.432199
50.038500	0.001093	0.000407	0.006295	0.000228	6152.833839	44236.133892	3817.065876	22832.955302
50.536000	0.004287	-0.010103	0.004331	0.020366	6024.203974	41413.057397	3764.721918	21924.279184
51.036000	0.031911	-0.011313	0.006213	0.265422	4750.833093	24703.150727	3334.864395	13668.379252
51.536500	0.014042	-0.015601	0.000228	-0.045566	6639.727107	47177.491967	3918.117761	25063.095838
52.036500	0.002321	-0.026977	0.000986	-0.121137	7249.237133	54245.931040	4140.233263	29298.518747
52.537000	0.021213	-0.011035	0.022634	-0.065464	6887.229558	49748.765358	4036.387944	26107.809370
53.378500	0.061799	0.012478	0.071172	0.060755	6154.220882	39862.027743	3827.685567	20224.061699
53.808500	0.065019	0.015162	0.078435	0.070828	6101.572767	39236.885892	3820.816274	19824.114395
54.038000	0.072835	0.022748	0.083885	0.082290	6073.900922	38913.103165	3806.259639	19380.114490
54.552000	0.094328	0.039210	0.106618	0.115930	5983.354350	37512.777791	3780.365121	18142.757401
55.035500	0.120264	0.059415	0.125110	0.133091	6048.507892	37756.878745	3783.489127	17547.475191
55.536000	0.148663	0.074511	0.148062	0.131378	6282.374598	39136.275105	3843.174603	17605.854020
56.036500	0.175845	0.088734	0.179824	0.175093	6151.964843	36750.912760	3813.827897	16186.063757
56.536500	0.192789	0.101446	0.190391	0.218971	5949.868612	34400.234282	3736.177925	14897.678372
57.036500	0.214249	0.111928	0.214948	0.254783	5847.191623	32610.106407	3711.257654	13938.429652
57.537000	0.228911	0.120318	0.231279	0.289770	5707.467535	30839.578869	3671.350231	13074.683104
58.037000	0.242056	0.129217	0.247101	0.326397	5553.971581	29105.530596	3628.821134	12241.958555
58.538000	0.253180	0.134857	0.258122	0.363312	5394.677052	27278.091711	3578.656388	11470.836037
59.034500	0.261655	0.140725	0.270028	0.381835	5335.130677	26575.254154	3566.309398	11107.907068
59.535500	0.271756	0.148751	0.280276	0.401691	5278.628604	25936.441148	3548.714103	10735.672713
60.035500	0.275344	0.150692	0.287600	0.407857	5263.910222	25712.542183	3550.814734	10623.504396
60.536000	0.276305	0.155842	0.290082	0.442901	5077.267917	24188.710386	3493.844179	10015.367173
61.036500	0.283458	0.153929	0.297535	0.458081	5035.407940	23363.440584	3480.941960	9766.802371
61.537000	0.280289	0.158699	0.295657	0.465238	4982.677313	23250.714353	3466.142353	9652.581623
62.034000	0.288174	0.163255	0.292714	0.464111	5028.629248	23520.042643	3463.204513	9670.447472
62.537500	0.287001	0.165582	0.298443	0.467309	5006.219255	23478.544511	3467.302319	9619.880314
63.053500	0.287262	0.168560	0.304143	0.460766	5041.196338	23936.790351	3487.463552	9723.731335
63.537500	0.288723	0.169277	0.302021	0.458593	5060.102185	24077.903553	3487.548897	9758.569034
64.038500	0.291900	0.170750	0.306802	0.458404	5077.751872	24159.457557	3495.897558	9761.600770
64.535500	0.286218	0.168845	0.300359	0.461478	5032.112742	23915.996745	3479.992965	9712.347322
65.036000	0.293522	0.171402	0.301727	0.457958	5088.669115	24213.522911	3488.119758	9768.784864
65.536000	0.292545	0.171177	0.308328	0.456670	5090.317233	24265.999521	3501.427309	9789.541702
66.036500	0.292248	0.170888	0.308761	0.455903	5092.806974	24289.617843	3503.473097	9801.940305
66.537000	0.293183	0.171302	0.302270	0.455618	5099.283977	24324.229035	3492.954916	9806.548448
67.037000	0.292553	0.171306	0.307176	0.457519	5085.864049	24230.396623	3498.027934	9775.841150
67.537500	0.296177	0.173526	0.307658	0.459691	5093.550917	24232.761923	3495.169674	9740.938325
68.040500	0.291386	0.171145	0.306685	0.459650	5068.508243	24117.660010	3493.598350	9741.599560
68.535000	0.291102	0.172805	0.305926	0.468918	5018.964659	23747.510927	3476.904487	9594.586326
69.035500	0.293349	0.172908	0.305312	0.465991	5045.669038	23894.162396	3480.721004	9640.681459
69.535500	0.293887	0.172959	0.305365	0.466989	5043.278904	23848.196294	3479.158389	9624.921526
70.036500	0.293036	0.171881	0.309080	0.468846	5029.280847	23706.498230	3482.233044	9595.719162
70.536500	0.290536	0.171568	0.300258	0.475856	4980.805622	23356.995243	3456.455734	9486.565318
71.036500	0.295094	0.170648	0.306244	0.471866	5024.331701	23502.811269	3472.588427	9548.479431
71.537000	0.293637	0.170029	0.313378	0.472521	5013.496428	23442.152587	3483.266869	9538.270727
72.037000	0.295569	0.171754	0.306980	0.474513	5013.183919	23429.443328	3469.468621	9507.334758
72.535000	0.289968	0.169959	0.305483	0.480203	4956.164046	23077.047895	3457.860033	9419.755942
73.035000	0.296972	0.170354	0.312553	0.475397	5015.843972	23321.274900	3477.147391	9493.658631
73.535000	0.296128	0.169692	0.309858	0.475328	5011.881611	23293.323283	3472.838165	9494.732299
74.035500	0.297536	0.170857	0.311744	0.475752	5016.917469	23328.294903	3475.234442	9488.172856
74.538500	0.295009	0.171369	0.309979	0.481836	4973.220338	23066.650323	3462.462358	9394.835104
75.036500	0.297659	0.170651	0.312816	0.475949	5016.535344	23309.266464	3476.672859	9485.131314
75.536000	0.296912	0.169443	0.316790	0.473939	5023.022723	23347.175519	3486.586751	9516.248371
76.037000	0.297054	0.169997	0.314586	0.475055	5018.014238	23320.582610	3481.067741	9498.942383
76.537000	0.294827	0.169496	0.307960	0.480468	4979.184531	23043.094203	3461.413127	9415.704682
77.037500	0.301461	0.171178	0.320334	0.476245	5034.575210	23320.170363	3488.654400	9480.565103
77.537500	0.298696	0.169683	0.315452	0.473826	5032.788007	23363.850926	3484.544871	9517.994640
78.035500	0.301543	0.171555	0.318614	0.475407	5039.333985	23377.639105	3487.179541	9493.506780
78.535500	0.301918	0.170171	0.313731	0.479983	5017.690859	23097.236535	3471.560163	9423.134058
79.036000	0.302621	0.170811	0.309266	0.474077	5051.832100	23405.445189	3473.918122	9514.104855
79.536000	0.303789	0.171243	0.316542	0.474677	5054.792902	23397.486049	3484.942853	9504.806992
80.036500	0.305204	0.170542	0.318659	0.473378	5068.980242	23425.803678	3490.649321	9524.942815
80.536500	0.305060	0.170969	0.316590	0.473057	5069.907145	23461.375742	3487.723738	9529.939507
81.037000	0.306617	0.169942	0.318051	0.472385	5081.636711	23444.521293	3491.297712	9540.394149
81.537000	0.303213	0.168689	0.317562	0.470627	5072.969925	23468.504437	3493.430429	9567.817304
82.040500	0.305825	0.170664	0.318309	0.471922	5079.898028	23500.852118	3492.507117	9547.599423
82.534500	0.305139	0.169183	0.321864	0.471379	5079.143956	23456.261551	3499.432544	9556.073528
83.035500	0.305331	0.168925	0.314606	0.471583	5079.084468	23434.286247	3486.872103	9552.887597
83.535500	0.304219	0.169196	0.323307	0.470340	5079.777323	23506.316830	3503.658145	9572.310538
84.036000	0.307450	0.168933	0.322016	0.469694	5100.294084	23524.582336	3502.558805	9582.420456
84.535500	0.306703	0.168891	0.317636	0.475278	5066.875491	23257.878662	3485.764053	9495.496467
85.036500	0.304487	0.167289	0.317300	0.469458	5085.843544	23457.539691	3494.959305	9586.116825
85.539500	0.308480	0.167726	0.315924	0.468836	5110.350532	23507.942452	3493.688205	9595.866408
86.037000	0.309138	0.170485	0.325541	0.471479	5099.780433	23513.465465	3505.530676	9554.517215
86.537000	0.308450	0.168441	0.320527	0.469639	5105.908564	23503.736105	3500.115724	9583.272701
87.037500	0.308535	0.168984	0.319485	0.470694	5100.748987	23479.332768	3496.562406	9566.769146
87.535000	0.307878	0.167901	0.318625	0.469543	5103.372181	23482.566983	3497.055270	9584.782118
88.035500	0.310596	0.168608	0.322241	0.470719	5111.598886	23460.270253	3501.195681	9566.382910
88.536000	0.308599	0.167773	0.324505	0.469836	5105.657272	23462.552404	3506.569614	9580.193559
89.036000	0.307459	0.168378	0.323830	0.471175	5092.482706	23427.649468	3503.124708	9559.252234
89.537500	0.307493	0.167698	0.320595	0.470200	5097.832653	23441.657375	3499.280030	9574.491082
90.036500	0.307834	0.168626	0.326117	0.470970	5095.556653	23449.226442	3507.389609	9562.462682
90.537000	0.310283	0.167327	0.322275	0.470694	5110.063864	23400.627887	3501.295383	9566.774981
91.034500	0.309013	0.169365	0.321650	0.472574	5093.306740	23408.157257	3497.044753	9537.455364
91.534000	0.310299	0.169250	0.319456	0.472875	5098.530301	23388.381467	3492.834626	9532.760558
92.035000	0.309177	0.168599	0.321458	0.472785	5093.054757	23361.842318	3496.363380	9534.169685
92.538000	0.309594	0.168443	0.321389	0.477841	5068.595301	23116.591032	3487.748973	9455.978282
93.073500	0.314733	0.168535	0.324876	0.475207	5109.722550	23244.486360	3498.048522	9496.597898
93.535500	0.311421	0.167888	0.315751	0.473137	5103.106512	23311.585731	3486.191557	9528.701179
94.036000	0.309922	0.167510	0.326330	0.473174	5094.944581	23291.965272	3503.981971	9528.120864
94.536500	0.308388	0.167332	0.319413	0.479012	5056.166456	23010.124801	3482.509532	9437.994278
95.036500	0.311943	0.165704	0.326752	0.473095	5106.107630	23210.666995	3504.837581	9529.349476
95.537000	0.309875	0.165808	0.322594	0.474571	5087.296301	23146.333433	3495.265693	9506.445753
96.037500	0.311454	0.167128	0.322854	0.475317	5091.704572	23173.213711	3494.444114	9494.898104
