sample name	sample
index	536
start time	 03-11-2021  05:05:25 PM


Wavelength (nm)	Absorbance
494.344910	NaN
494.563924	NaN
494.782919	NaN
495.001897	0.365275
495.220856	NaN
495.439797	NaN
495.658719	0.419050
495.877624	0.805085
496.096510	0.696532
496.315378	2.314569
496.534227	0.383343
496.753059	NaN
496.971872	NaN
497.190667	0.199956
497.409444	0.181452
497.628203	0.181079
497.846943	0.175693
498.065665	0.174635
498.284369	0.172001
498.503055	0.170792
498.721723	0.170350
498.940372	0.168466
499.159003	0.169283
499.377616	0.169427
499.596210	0.169165
499.814787	0.170488
500.033345	0.170202
500.251885	0.171762
500.470406	0.173252
500.688910	0.173477
500.907395	0.174914
501.125862	0.173864
501.344311	0.172999
501.562742	0.172408
501.781154	0.171700
501.999548	0.171911
502.217924	0.171985
502.436282	0.172064
502.654621	0.172779
502.872942	0.173507
503.091245	0.173357
503.309530	0.175120
503.527797	0.176727
503.746045	0.177663
503.964275	0.178065
504.182487	0.178469
504.400681	0.178440
504.618856	0.177757
504.837013	0.177094
505.055152	0.178054
505.273273	0.177722
505.491376	0.177197
505.709460	0.175629
505.927526	0.176080
506.145574	0.176106
506.363604	0.176642
506.581615	0.176745
506.799608	0.176615
507.017583	0.175657
507.235540	0.175135
507.453478	0.175188
507.671399	0.175716
507.889301	0.175003
508.107185	0.174487
508.325050	0.174338
508.542898	0.174878
508.760727	0.175858
508.978538	0.176988
509.196330	0.176846
509.414105	0.177449
509.631861	0.178151
509.849599	0.179005
510.067319	0.179932
510.285021	0.180444
510.502704	0.180817
510.720369	0.179837
510.938016	0.179947
511.155645	0.180136
511.373255	0.180317
511.590848	0.180512
511.808422	0.181171
512.025977	0.181224
512.243515	0.181390
512.461034	0.180826
512.678536	0.181490
512.896018	0.181665
513.113483	0.182694
513.330930	0.182466
513.548358	0.182846
513.765768	0.183049
513.983160	0.183526
514.200533	0.182436
514.417889	0.183406
514.635226	0.184291
514.852545	0.184694
515.069845	0.184583
515.287128	0.185061
515.504392	0.186060
515.721638	0.185780
515.938866	0.184979
516.156075	0.186483
516.373267	0.185816
516.590440	0.186032
516.807594	0.185694
517.024731	0.186025
517.241850	0.186273
517.458950	0.185932
517.676032	0.186356
517.893095	0.187417
518.110141	0.186736
518.327168	0.187762
518.544177	0.187589
518.761168	0.188556
518.978141	0.188861
519.195095	0.188908
519.412031	0.188350
519.628949	0.188476
519.845849	0.188862
520.062731	0.190013
520.279594	0.190120
520.496439	0.190742
520.713266	0.192016
520.930074	0.191798
521.146865	0.192970
521.363637	0.194130
521.580391	0.193859
521.797127	0.194665
522.013844	0.194081
522.230543	0.194014
522.447224	0.193800
522.663887	0.192743
522.880532	0.193445
523.097158	0.192762
523.313766	0.192786
523.530356	0.194294
523.746928	0.193834
523.963481	0.194746
524.180017	0.194848
524.396534	0.196054
524.613032	0.195858
524.829513	0.196496
525.045975	0.196904
525.262420	0.196507
525.478845	0.196587
525.695253	0.197237
525.911643	0.196953
526.128014	0.197449
526.344367	0.196934
526.560702	0.199035
526.777018	0.198812
526.993316	0.199685
527.209597	0.200811
527.425858	0.200765
527.642102	0.200709
527.858328	0.200747
528.074535	0.200953
528.290724	0.200427
528.506894	0.199767
528.723047	0.200543
528.939181	0.200426
529.155297	0.200109
529.371395	0.199782
529.587475	0.200293
529.803536	0.201238
530.019579	0.201625
530.235604	0.203077
530.451611	0.203640
530.667600	0.203326
530.883570	0.203891
531.099522	0.204147
531.315456	0.204656
531.531372	0.204730
531.747269	0.205362
531.963148	0.206170
532.179009	0.206536
532.394852	0.206130
532.610676	0.206674
532.826482	0.206686
533.042271	0.207305
533.258040	0.207376
533.473792	0.207474
533.689525	0.207319
533.905240	0.207519
534.120937	0.207757
534.336616	0.208803
534.552277	0.209226
534.767919	0.209731
534.983543	0.210021
535.199149	0.210870
535.414736	0.211311
535.630306	0.212006
535.845857	0.212197
536.061390	0.212019
536.276904	0.211620
536.492401	0.211591
536.707879	0.211843
536.923339	0.211850
537.138781	0.212105
537.354204	0.212715
537.569610	0.212752
537.784997	0.213078
538.000366	0.213807
538.215716	0.213935
538.431049	0.214363
538.646363	0.214520
538.861659	0.215234
539.076937	0.215725
539.292196	0.216105
539.507438	0.216506
539.722661	0.216929
539.937866	0.216993
540.153052	0.218012
540.368221	0.218084
540.583371	0.218546
540.798503	0.218901
541.013617	0.218915
541.228712	0.218793
541.443789	0.218822
541.658848	0.219123
541.873889	0.219583
542.088912	0.219454
542.303916	0.220382
542.518902	0.220440
542.733870	0.220926
542.948820	0.221505
543.163752	0.222674
543.378665	0.222873
543.593560	0.222535
543.808437	0.223285
544.023295	0.224211
544.238136	0.224186
544.452958	0.225010
544.667762	0.225112
544.882548	0.225155
545.097315	0.224914
545.312064	0.225368
545.526795	0.226162
545.741508	0.225710
545.956203	0.225713
546.170879	0.226144
546.385537	0.226223
546.600177	0.226924
546.814799	0.227539
547.029402	0.227871
547.243988	0.228492
547.458555	0.228488
547.673103	0.228490
547.887634	0.228191
548.102146	0.228298
548.316640	0.227970
548.531116	0.227979
548.745574	0.227750
548.960013	0.227840
549.174435	0.227490
549.388838	0.227952
549.603222	0.228944
549.817589	0.229093
550.031937	0.229179
550.246267	0.230000
550.460579	0.229914
550.674873	0.229922
550.889148	0.230284
551.103405	0.230534
551.317644	0.230919
551.531865	0.231039
551.746068	0.231635
551.960252	0.231967
552.174418	0.232151
552.388566	0.232471
552.602696	0.232863
552.816807	0.232790
553.030900	0.233549
553.244975	0.233699
553.459032	0.233818
553.673070	0.234293
553.887091	0.235065
554.101093	0.235144
554.315077	0.235601
554.529042	0.236157
554.742990	0.236325
554.956919	0.236157
555.170830	0.236373
555.384722	0.236756
555.598597	0.236949
555.812453	0.236564
556.026291	0.236769
556.240111	0.237287
556.453913	0.237438
556.667696	0.237838
556.881461	0.238402
557.095208	0.238316
557.308937	0.238308
557.522647	0.238211
557.736339	0.237977
557.950013	0.238054
558.163669	0.237824
558.377307	0.238215
558.590926	0.238088
558.804527	0.237898
559.018110	0.238568
559.231675	0.238303
559.445221	0.238487
559.658749	0.238986
559.872259	0.238958
560.085751	0.238844
560.299225	0.239160
560.512680	0.239534
560.726117	0.240330
560.939536	0.240308
561.152937	0.240732
561.366319	0.241212
561.579683	0.241552
561.793029	0.242170
562.006357	0.242661
562.219667	0.242726
562.432958	0.243269
562.646231	0.243046
562.859486	0.243038
563.072723	0.243247
563.285941	0.243374
563.499141	0.243783
563.712323	0.243844
563.925487	0.243953
564.138632	0.244120
564.351760	0.244065
564.564869	0.244016
564.777960	0.244324
564.991032	0.244657
565.204087	0.244464
565.417123	0.244470
565.630141	0.244479
565.843140	0.244866
566.056122	0.245191
566.269085	0.245693
566.482030	0.246194
566.694957	0.246577
566.907866	0.246747
567.120756	0.247492
567.333628	0.247825
567.546482	0.248595
567.759318	0.249099
567.972135	0.248930
568.184935	0.248615
568.397716	0.248591
568.610478	0.248628
568.823223	0.248965
569.035949	0.248609
569.248657	0.249369
569.461347	0.249465
569.674019	0.249491
569.886672	0.249860
570.099308	0.250434
570.311925	0.250996
570.524523	0.251434
570.737104	0.251288
570.949666	0.251996
571.162210	0.251401
571.374736	0.251133
571.587244	0.251324
571.799733	0.251186
572.012205	0.250946
572.224658	0.251125
572.437092	0.251198
572.649509	0.251613
572.861907	0.251542
573.074287	0.251908
573.286649	0.252560
573.498993	0.252330
573.711318	0.252737
573.923625	0.253372
574.135914	0.253583
574.348185	0.253620
574.560438	0.253881
574.772672	0.254284
574.984888	0.254338
575.197086	0.254561
575.409266	0.254395
575.621427	0.254605
575.833570	0.254886
576.045695	0.254956
576.257802	0.255326
576.469890	0.255654
576.681961	0.255194
576.894013	0.255447
577.106046	0.254967
577.318062	0.255579
577.530059	0.255716
577.742039	0.255428
577.954000	0.255600
578.165942	0.255621
578.377867	0.255658
578.589773	0.256055
578.801661	0.256299
579.013531	0.256926
579.225382	0.257104
579.437216	0.257312
579.649031	0.257427
579.860828	0.257460
580.072606	0.257966
580.284367	0.258408
580.496109	0.258620
580.707833	0.258903
580.919539	0.259007
581.131227	0.259189
581.342896	0.259389
581.554547	0.259762
581.766180	0.259826
581.977795	0.259872
582.189391	0.260153
582.400969	0.261072
582.612529	0.261561
582.824071	0.261933
583.035595	0.262098
583.247100	0.262453
583.458587	0.262997
583.670056	0.263665
583.881506	0.263990
584.092939	0.264288
584.304353	0.263832
584.515749	0.263771
584.727127	0.263993
584.938486	0.264151
585.149828	0.264132
585.361151	0.264209
585.572456	0.264903
585.783742	0.264958
585.995011	0.264590
586.206261	0.264825
586.417493	0.264737
586.628706	0.264904
586.839902	0.265331
587.051079	0.265663
587.262238	0.265844
587.473379	0.265298
587.684502	0.265558
587.895606	0.265917
588.106692	0.266158
588.317760	0.266230
588.528810	0.266178
588.739841	0.266414
588.950855	0.266453
589.161850	0.266506
589.372827	0.266470
589.583785	0.266396
589.794726	0.266546
590.005648	0.266751
590.216552	0.267222
590.427437	0.267521
590.638305	0.267477
590.849154	0.267649
591.059985	0.267793
591.270798	0.267649
591.481592	0.267719
591.692369	0.268063
591.903127	0.268184
592.113867	0.268089
592.324588	0.268074
592.535292	0.268424
592.745977	0.268568
592.956644	0.269000
593.167293	0.269676
593.377923	0.270016
593.588536	0.270288
593.799130	0.270606
594.009706	0.271229
594.220263	0.271745
594.430803	0.272267
594.641324	0.272754
594.851827	0.272899
595.062312	0.272992
595.272778	0.273323
595.483227	0.272863
595.693657	0.273022
595.904069	0.272960
596.114462	0.273432
596.324838	0.273131
596.535195	0.273093
596.745534	0.273340
596.955855	0.273511
597.166157	0.273742
597.376441	0.274295
597.586707	0.274380
597.796955	0.274517
598.007185	0.274176
598.217396	0.274499
598.427589	0.274822
598.637764	0.274976
598.847921	0.275274
599.058060	0.275376
599.268180	0.275545
599.478282	0.275711
599.688366	0.275646
599.898431	0.276312
600.108479	0.276361
600.318508	0.276679
600.528519	0.276649
600.738511	0.276754
600.948486	0.277012
601.158442	0.277099
601.368380	0.277031
601.578300	0.277729
601.788202	0.277851
601.998085	0.278258
602.207950	0.278197
602.417797	0.278605
602.627626	0.278884
602.837436	0.278962
603.047228	0.279276
603.257002	0.279670
603.466758	0.279607
603.676496	0.279616
603.886215	0.279509
604.095916	0.280031
604.305599	0.280168
604.515264	0.280735
604.724910	0.280755
604.934538	0.280738
605.144148	0.281323
605.353740	0.281865
605.563314	0.281956
605.772869	0.282532
605.982406	0.282443
606.191925	0.282735
606.401425	0.282864
606.610908	0.283078
606.820372	0.283544
607.029818	0.283105
607.239246	0.283021
607.448655	0.283131
607.658047	0.282972
607.867420	0.282927
608.076775	0.283111
608.286111	0.282859
608.495430	0.283116
608.704730	0.283508
608.914012	0.284336
609.123275	0.284757
609.332521	0.285536
609.541748	0.285765
609.750957	0.286283
609.960148	0.286265
610.169321	0.286777
610.378475	0.287176
610.587611	0.287547
610.796729	0.287598
611.005829	0.287580
611.214910	0.287423
611.423974	0.287630
611.633019	0.287566
611.842045	0.287763
612.051054	0.287958
612.260044	0.287819
612.469017	0.287285
612.677970	0.287067
612.886906	0.287227
613.095824	0.287153
613.304723	0.286889
613.513604	0.287129
613.722467	0.287328
613.931311	0.287208
614.140138	0.287293
614.348946	0.287513
614.557736	0.287904
614.766507	0.288238
614.975261	0.288515
615.183996	0.288899
615.392713	0.288953
615.601412	0.289003
615.810092	0.289440
616.018754	0.289584
616.227399	0.290102
616.436024	0.290198
616.644632	0.290372
616.853222	0.290844
617.061793	0.290933
617.270346	0.291348
617.478880	0.291505
617.687397	0.291469
617.895895	0.291886
618.104375	0.291944
618.312837	0.291958
618.521281	0.292146
618.729706	0.292073
618.938113	0.292593
619.146502	0.292577
619.354873	0.292990
619.563226	0.292764
619.771560	0.293180
619.979876	0.293291
620.188174	0.293490
620.396453	0.293573
620.604715	0.293485
620.812958	0.293486
621.021183	0.293635
621.229390	0.293578
621.437578	0.294236
621.645748	0.293885
621.853900	0.293761
622.062034	0.294105
622.270150	0.294131
622.478247	0.294557
622.686326	0.294648
622.894387	0.294891
623.102430	0.295053
623.310454	0.295249
623.518461	0.295545
623.726449	0.295882
623.934418	0.295848
624.142370	0.295874
624.350303	0.295835
624.558218	0.295955
624.766115	0.296076
624.973994	0.296427
625.181855	0.296443
625.389697	0.296515
625.597521	0.296703
625.805327	0.296934
626.013114	0.297144
626.220883	0.297299
626.428634	0.297566
626.636367	0.297760
626.844082	0.297839
627.051778	0.297909
627.259457	0.298129
627.467117	0.298422
627.674758	0.298862
627.882382	0.299015
628.089987	0.299262
628.297574	0.299512
628.505143	0.299789
628.712694	0.299869
628.920226	0.300116
629.127740	0.300356
629.335236	0.300594
629.542714	0.300563
629.750174	0.300811
629.957615	0.300956
630.165038	0.301018
630.372443	0.300959
630.579829	0.301240
630.787198	0.301429
630.994548	0.301580
631.201880	0.301707
631.409194	0.302100
631.616489	0.302299
631.823766	0.302526
632.031025	0.302746
632.238266	0.303105
632.445489	0.302987
632.652693	0.303091
632.859879	0.303303
633.067047	0.303385
633.274197	0.303315
633.481329	0.303364
633.688442	0.303398
633.895537	0.304033
634.102614	0.303909
634.309672	0.304325
634.516713	0.304615
634.723735	0.304890
634.930739	0.305129
635.137724	0.305278
635.344692	0.305447
635.551641	0.305700
635.758572	0.305128
635.965485	0.305588
636.172379	0.305745
636.379256	0.306058
636.586114	0.305966
636.792954	0.306128
636.999775	0.306361
637.206579	0.306648
637.413364	0.306732
637.620131	0.307242
637.826880	0.307326
638.033610	0.307382
638.240323	0.307522
638.447017	0.307733
638.653692	0.307929
638.860350	0.308174
639.066990	0.308435
639.273611	0.308514
639.480214	0.308698
639.686798	0.308787
639.893365	0.309006
640.099913	0.309113
640.306443	0.309483
640.512955	0.309631
640.719449	0.309665
640.925924	0.309643
641.132381	0.310242
641.338820	0.310423
641.545241	0.310940
641.751644	0.311248
641.958028	0.311411
642.164394	0.311663
642.370742	0.311691
642.577071	0.312045
642.783383	0.312144
642.989676	0.312227
643.195951	0.312727
643.402207	0.312722
643.608446	0.312809
643.814666	0.312788
644.020868	0.312924
644.227052	0.313318
644.433218	0.313423
644.639365	0.313520
644.845494	0.313832
645.051605	0.313761
645.257698	0.313785
645.463772	0.314076
645.669828	0.314425
645.875866	0.314358
646.081886	0.314537
646.287888	0.314828
646.493871	0.315160
646.699836	0.315095
646.905783	0.315029
647.111712	0.315374
647.317622	0.315400
647.523514	0.315572
647.729388	0.316156
647.935244	0.316147
648.141082	0.316563
648.346901	0.316795
648.552702	0.316934
648.758485	0.317251
648.964250	0.317507
649.169996	0.317635
649.375724	0.317788
649.581434	0.317997
649.787126	0.318258
649.992800	0.318134
650.198455	0.318543
650.404092	0.318762
650.609711	0.318931
650.815311	0.318929
651.020894	0.319416
651.226458	0.319881
651.432004	0.319816
651.637532	0.320227
651.843041	0.320376
652.048532	0.320418
652.254006	0.320529
652.459460	0.320782
652.664897	0.321191
652.870315	0.321367
653.075716	0.321492
653.281097	0.321815
653.486461	0.322047
653.691807	0.322388
653.897134	0.322631
654.102443	0.323023
654.307734	0.323311
654.513006	0.323349
654.718261	0.323523
654.923497	0.323503
655.128715	0.323807
655.333915	0.323994
655.539096	0.324199
655.744259	0.324438
655.949404	0.324603
656.154531	0.324870
656.359640	0.325113
656.564730	0.325352
656.769802	0.325742
656.974856	0.325636
657.179892	0.325751
657.384909	0.325975
657.589908	0.326394
657.794889	0.326775
657.999852	0.327092
658.204797	0.327389
658.409723	0.327577
658.614631	0.327841
658.819521	0.328101
659.024393	0.328384
659.229246	0.328573
659.434081	0.328462
659.638898	0.328482
659.843697	0.328685
660.048478	0.329041
660.253240	0.329209
660.457984	0.329202
660.662710	0.329497
660.867417	0.329959
661.072107	0.330106
661.276778	0.330287
661.481431	0.330344
661.686066	0.330234
661.890682	0.330331
662.095281	0.330523
662.299861	0.330896
662.504422	0.331125
662.708966	0.330893
662.913491	0.331241
663.117999	0.331633
663.322488	0.331984
663.526958	0.332372
663.731411	0.332529
663.935845	0.332787
664.140261	0.333005
664.344659	0.333051
664.549038	0.333539
664.753400	0.333630
664.957743	0.333746
665.162068	0.333953
665.366375	0.334216
665.570663	0.334450
665.774933	0.334631
665.979185	0.334727
666.183419	0.335212
666.387635	0.335435
666.591832	0.335665
666.796011	0.336138
667.000172	0.336557
667.204315	0.336795
667.408439	0.337201
667.612545	0.337695
667.816634	0.338168
668.020703	0.338195
668.224755	0.338570
668.428788	0.338798
668.632803	0.339145
668.836800	0.339236
669.040779	0.339530
669.244739	0.339769
669.448681	0.339931
669.652605	0.340195
669.856511	0.340499
670.060399	0.340482
670.264268	0.340956
670.468119	0.341011
670.671952	0.341392
670.875767	0.341792
671.079563	0.341823
671.283341	0.342062
671.487101	0.341784
671.690843	0.342059
671.894567	0.342390
672.098272	0.342450
672.301959	0.342652
672.505628	0.342630
672.709278	0.342630
672.912911	0.342910
673.116525	0.343127
673.320121	0.343804
673.523699	0.343888
673.727258	0.344233
673.930799	0.344574
674.134322	0.344857
674.337827	0.345332
674.541314	0.345737
674.744782	0.346026
674.948232	0.346155
675.151664	0.346113
675.355078	0.346619
675.558474	0.346790
675.761851	0.347005
675.965210	0.347201
676.168551	0.347216
676.371873	0.347324
676.575178	0.347661
676.778464	0.347853
676.981732	0.348360
677.184981	0.348587
677.388213	0.348938
677.591426	0.349091
677.794621	0.349447
677.997798	0.349863
678.200956	0.350088
678.404097	0.350137
678.607219	0.350328
678.810323	0.350305
679.013408	0.350462
679.216476	0.350508
679.419525	0.350710
679.622556	0.350722
679.825569	0.350990
680.028563	0.351254
680.231540	0.351616
680.434498	0.351828
680.637438	0.352132
680.840359	0.352298
681.043263	0.352501
681.246148	0.352899
681.449015	0.353375
681.651864	0.353853
681.854694	0.354186
682.057506	0.354716
682.260301	0.355444
682.463076	0.355813
682.665834	0.356259
682.868573	0.356729
683.071295	0.357072
683.273998	0.357018
683.476682	0.356925
683.679349	0.356993
683.881997	0.356961
684.084627	0.357286
684.287239	0.357557
684.489833	0.357821
684.692408	0.357724
684.894965	0.357855
685.097504	0.358171
685.300025	0.358596
685.502527	0.358886
685.705012	0.358857
685.907478	0.358693
686.109925	0.358874
686.312355	0.359227
686.514766	0.359743
686.717159	0.359970
686.919534	0.360557
687.121891	0.360670
687.324230	0.361028
687.526550	0.361651
687.728852	0.361886
687.931136	0.362313
688.133401	0.362454
688.335649	0.362511
688.537878	0.362730
688.740089	0.362783
688.942281	0.363138
689.144456	0.363450
689.346612	0.363489
689.548750	0.363618
689.750870	0.364053
689.952971	0.364081
690.155055	0.364071
690.357120	0.364146
690.559167	0.364216
690.761195	0.364342
690.963206	0.364283
691.165198	0.364571
691.367172	0.364718
691.569128	0.364609
691.771065	0.364815
691.972984	0.365042
692.174885	0.365395
692.376768	0.365653
692.578633	0.365841
692.780479	0.365990
692.982308	0.365938
693.184118	0.366309
693.385909	0.366626
693.587683	0.366835
693.789438	0.367136
693.991175	0.367008
694.192894	0.367103
694.394595	0.367215
694.596277	0.367473
694.797941	0.367747
694.999587	0.367886
695.201215	0.367956
695.402824	0.367977
695.604416	0.368169
695.805989	0.368402
696.007543	0.368474
696.209080	0.368238
696.410598	0.368457
696.612099	0.368633
696.813580	0.368695
697.015044	0.368764
697.216490	0.369177
697.417917	0.369360
697.619326	0.369200
697.820717	0.369403
698.022089	0.369965
698.223444	0.370126
698.424780	0.370207
698.626098	0.370355
698.827397	0.370677
699.028679	0.370874
699.229942	0.371038
699.431187	0.371524
699.632414	0.371959
699.833622	0.372047
700.034813	0.372262
700.235985	0.372611
700.437139	0.372737
700.638274	0.372793
700.839392	0.372912
701.040491	0.373262
701.241572	0.373629
701.442635	0.373552
701.643679	0.373963
701.844706	0.373878
702.045714	0.373858
702.246704	0.374163
702.447675	0.374011
702.648629	0.373928
702.849564	0.373763
703.050481	0.373937
703.251380	0.374081
703.452260	0.374014
703.653122	0.374157
703.853966	0.374196
704.054792	0.374153
704.255600	0.374405
704.456389	0.374518
704.657160	0.374340
704.857913	0.373995
705.058648	0.374002
705.259365	0.373908
705.460063	0.373777
705.660743	0.374028
705.861405	0.373979
706.062048	0.373856
706.262674	0.373941
706.463281	0.374021
706.663870	0.374178
706.864441	0.374159
707.064993	0.374014
707.265527	0.374438
707.466043	0.374316
707.666541	0.374394
707.867021	0.374958
708.067482	0.375021
708.267925	0.375256
708.468350	0.375436
708.668757	0.375472
708.869145	0.375975
709.069516	0.375771
709.269868	0.376175
709.470201	0.376248
709.670517	0.376049
709.870814	0.376075
710.071093	0.376199
710.271354	0.376398
710.471597	0.376432
710.671821	0.376060
710.872028	0.376114
711.072216	0.375896
711.272385	0.375743
711.472537	0.375594
711.672670	0.375565
711.872785	0.375460
712.072882	0.375092
712.272961	0.375143
712.473021	0.375458
712.673063	0.375241
712.873087	0.375145
713.073093	0.375435
713.273081	0.375316
713.473050	0.375394
713.673001	0.375121
713.872934	0.375347
714.072849	0.375498
714.272745	0.375412
714.472623	0.375661
714.672483	0.375664
714.872325	0.375707
715.072148	0.375916
715.271954	0.375934
715.471741	0.376245
715.671509	0.376079
715.871260	0.376134
716.070992	0.376125
716.270707	0.375921
716.470403	0.375755
716.670080	0.375664
716.869740	0.375448
717.069381	0.375269
717.269004	0.375093
717.468609	0.375111
717.668195	0.374940
717.867764	0.374986
718.067314	0.374994
718.266846	0.375030
718.466360	0.374722
718.665855	0.374911
718.865332	0.374894
719.064791	0.374968
719.264232	0.374855
719.463655	0.374732
719.663059	0.374228
719.862445	0.374216
720.061813	0.374379
720.261163	0.374409
720.460494	0.374273
720.659807	0.373978
720.859102	0.373857
721.058379	0.373805
721.257638	0.373633
721.456878	0.373834
721.656100	0.373844
721.855304	0.373501
722.054490	0.373727
722.253657	0.373499
722.452806	0.373953
722.651937	0.374279
722.851050	0.374185
723.050145	0.374184
723.249221	0.374197
723.448279	0.374200
723.647319	0.374223
723.846340	0.373787
724.045344	0.373760
724.244329	0.373271
724.443296	0.372875
724.642245	0.372919
724.841175	0.372739
725.040088	0.372615
725.238982	0.372331
725.437857	0.372621
725.636715	0.372791
725.835554	0.372849
726.034376	0.372839
726.233179	0.372730
726.431963	0.372690
726.630730	0.372743
726.829478	0.372390
727.028208	0.372456
727.226920	0.371930
727.425614	0.371708
727.624289	0.371277
727.822946	0.370937
728.021585	0.370880
728.220206	0.370534
728.418808	0.370313
728.617392	0.370348
728.815958	0.369916
729.014506	0.370006
729.213036	0.369670
729.411547	0.369711
729.610040	0.369932
729.808515	0.370002
730.006972	0.369812
730.205410	0.369633
730.403831	0.369569
730.602233	0.369682
730.800616	0.369217
730.998982	0.369076
731.197329	0.368823
731.395658	0.368516
731.593969	0.367854
731.792262	0.367889
731.990536	0.367551
732.188793	0.367529
732.387031	0.367059
732.585250	0.366972
732.783452	0.367076
732.981635	0.366737
733.179800	0.366578
733.377947	0.366328
733.576076	0.365982
733.774186	0.366207
733.972278	0.365538
734.170352	0.365806
734.368408	0.365411
734.566446	0.365110
734.764465	0.364963
734.962466	0.364593
735.160449	0.364617
735.358413	0.364478
735.556360	0.364253
735.754288	0.364353
735.952198	0.363759
736.150090	0.363723
736.347963	0.363076
736.545818	0.363128
736.743655	0.362992
736.941474	0.362724
737.139275	0.362341
737.337057	0.361928
737.534821	0.361566
737.732567	0.361173
737.930295	0.360962
738.128005	0.361090
738.325696	0.360782
738.523369	0.360858
738.721024	0.360850
738.918660	0.361028
739.116279	0.360898
739.313879	0.361251
739.511461	0.361457
739.709024	0.361088
739.906570	0.360921
740.104097	0.360775
740.301606	0.360283
740.499097	0.360070
740.696569	0.359656
740.894024	0.359552
741.091460	0.358811
741.288878	0.358446
741.486277	0.358609
741.683659	0.358382
741.881022	0.358247
742.078367	0.358467
742.275694	0.358278
742.473002	0.358112
742.670293	0.357792
742.867565	0.357659
743.064819	0.357510
743.262054	0.357338
743.459272	0.357181
743.656471	0.356952
743.853652	0.356328
744.050815	0.356201
744.247959	0.356082
744.445085	0.355681
744.642194	0.355662
744.839283	0.355265
745.036355	0.355028
745.233408	0.354819
745.430444	0.354822
745.627461	0.354814
745.824459	0.354443
746.021440	0.354257
746.218402	0.354248
746.415346	0.353907
746.612272	0.353952
746.809180	0.353661
747.006069	0.353643
747.202940	0.353277
747.399793	0.353009
747.596628	0.352775
747.793444	0.352471
747.990243	0.352170
748.187023	0.351959
748.383784	0.351968
748.580528	0.351906
748.777253	0.351756
748.973960	0.351332
749.170649	0.351138
749.367320	0.351059
749.563973	0.350786
749.760607	0.350956
749.957223	0.351205
750.153821	0.350864
750.350400	0.350385
750.546962	0.349918
750.743505	0.350005
750.940030	0.350048
751.136536	0.349680
751.333025	0.349771
751.529495	0.349301
751.725947	0.348703
751.922381	0.348748
752.118796	0.348642
752.315194	0.348571
752.511573	0.348266
752.707934	0.347620
752.904276	0.347579
753.100601	0.347238
753.296907	0.346975
753.493195	0.346734
753.689465	0.346254
753.885716	0.346080
754.081949	0.345872
754.278164	0.345754
754.474361	0.345931
754.670540	0.345651
754.866700	0.345283
755.062843	0.345168
755.258967	0.344918
755.455072	0.344850
755.651160	0.344784
755.847229	0.344704
756.043280	0.344222
756.239313	0.343918
756.435328	0.343683
756.631324	0.343641
756.827302	0.343536
757.023262	0.343658
757.219204	0.343476
757.415127	0.343137
757.611033	0.342895
757.806920	0.342899
758.002788	0.342552
758.198639	0.342407
758.394471	0.342248
758.590286	0.342022
758.786081	0.341602
758.981859	0.341510
759.177619	0.341485
759.373360	0.341237
759.569083	0.341045
759.764788	0.341031
759.960474	0.340982
760.156143	0.340827
760.351793	0.340818
760.547425	0.340839
760.743038	0.340477
760.938634	0.340170
761.134211	0.340281
761.329770	0.340230
761.525311	0.340210
761.720833	0.340195
761.916338	0.339925
762.111824	0.339502
762.307292	0.339220
762.502741	0.338998
762.698173	0.339265
762.893586	0.338829
763.088981	0.338460
763.284358	0.338395
763.479716	0.338023
763.675057	0.338191
763.870379	0.338245
764.065683	0.338272
764.260968	0.338214
764.456236	0.337828
764.651485	0.337606
764.846716	0.337516
765.041929	0.337070
765.237123	0.336817
765.432299	0.336373
765.627457	0.335994
765.822597	0.335643
766.017719	0.335463
766.212822	0.335525
766.407907	0.335605
766.602974	0.335778
766.798023	0.336014
766.993054	0.336276
767.188066	0.336339
767.383060	0.336560
767.578036	0.336462
767.772993	0.336351
767.967933	0.335978
768.162854	0.335674
768.357757	0.335209
768.552642	0.334828
768.747508	0.334748
768.942356	0.334677
769.137186	0.334429
769.331998	0.334393
769.526792	0.334387
769.721567	0.334146
769.916324	0.334133
770.111063	0.334185
770.305784	0.333957
770.500486	0.333547
770.695171	0.333290
770.889837	0.332968
771.084484	0.332902
771.279114	0.332848
771.473725	0.332851
771.668318	0.332790
771.862893	0.332836
772.057450	0.332722
772.251988	0.332662
772.446509	0.332480
772.641011	0.332433
772.835494	0.332285
773.029960	0.331923
773.224407	0.331668
773.418836	0.331409
773.613247	0.331230
773.807640	0.331305
774.002014	0.331085
774.196370	0.330931
774.390708	0.330939
774.585028	0.331023
774.779330	0.331341
774.973613	0.331328
775.167878	0.331335
775.362125	0.331397
775.556354	0.331195
775.750564	0.331365
775.944756	0.331619
776.138930	0.331495
776.333086	0.331286
776.527223	0.330865
776.721343	0.331020
776.915444	0.330973
777.109526	0.330713
777.303591	0.330638
777.497637	0.330346
777.691666	0.330110
777.885676	0.330163
778.079667	0.330220
778.273641	0.330078
778.467596	0.329770
778.661533	0.329546
778.855452	0.329745
779.049352	0.329872
779.243235	0.330042
779.437099	0.330045
779.630945	0.329761
779.824773	0.329766
780.018582	0.330040
780.212373	0.330528
780.406146	0.330734
780.599901	0.330414
780.793638	0.330605
780.987356	0.330878
781.181056	0.330793
781.374738	0.331032
781.568402	0.330812
781.762047	0.330922
781.955674	0.330715
782.149283	0.330750
782.342874	0.331041
782.536447	0.330986
782.730001	0.330568
782.923537	0.330679
783.117055	0.330842
783.310555	0.330951
783.504036	0.331033
783.697499	0.331087
783.890944	0.331060
784.084371	0.331037
784.277780	0.331012
784.471170	0.331342
784.664542	0.331547
784.857896	0.331605
785.051231	0.331928
785.244549	0.331733
785.437848	0.331632
785.631129	0.331607
785.824392	0.331555
786.017636	0.331462
786.210863	0.331604
786.404071	0.331487
786.597260	0.331319
786.790432	0.331029
786.983585	0.331289
787.176721	0.331334
787.369838	0.331679
787.562936	0.331745
787.756017	0.331587
787.949079	0.331242
788.142123	0.331298
788.335149	0.331648
788.528156	0.331865
788.721146	0.331857
788.914117	0.331954
789.107070	0.332002
789.300005	0.332237
789.492921	0.332466
789.685819	0.332755
789.878699	0.332961
790.071561	0.332711
790.264405	0.332666
790.457230	0.332696
790.650037	0.332589
790.842826	0.332420
791.035597	0.332226
791.228349	0.332343
791.421084	0.332449
791.613800	0.332419
791.806497	0.332744
791.999177	0.332853
792.191838	0.333042
792.384481	0.333258
792.577106	0.333396
792.769713	0.333460
792.962301	0.333774
793.154871	0.333995
793.347423	0.334062
793.539957	0.333966
793.732473	0.333869
793.924970	0.333998
794.117449	0.333955
794.309910	0.334401
794.502353	0.334699
794.694777	0.334507
794.887183	0.334594
795.079571	0.334799
795.271941	0.335092
795.464293	0.335605
795.656626	0.335749
795.848941	0.336202
796.041238	0.336505
796.233516	0.336674
796.425777	0.337344
796.618019	0.337518
796.810243	0.337769
797.002449	0.338140
797.194636	0.338257
797.386805	0.338376
797.578956	0.338390
797.771089	0.338076
797.963204	0.338009
798.155300	0.337721
798.347378	0.337919
798.539438	0.337964
798.731480	0.337994
798.923503	0.338010
799.115509	0.338098
799.307496	0.338373
799.499465	0.338552
799.691415	0.339100
799.883348	0.339441
800.075262	0.339508
800.267158	0.339772
800.459035	0.339876
800.650895	0.339927
800.842736	0.340328
801.034559	0.340417
801.226364	0.340669
801.418150	0.340277
801.609919	0.340773
801.801669	0.340727
801.993401	0.340890
802.185114	0.341278
802.376810	0.341822
802.568487	0.341651
802.760146	0.341763
802.951787	0.342005
803.143409	0.342308
803.335014	0.342184
803.526600	0.342571
803.718168	0.342871
803.909717	0.342913
804.101249	0.342807
804.292762	0.343025
804.484257	0.343429
804.675734	0.343423
804.867192	0.343816
805.058632	0.344087
805.250054	0.344380
805.441458	0.344430
805.632844	0.344550
805.824211	0.345128
806.015561	0.345345
806.206891	0.345634
806.398204	0.346106
806.589499	0.346537
806.780775	0.346739
806.972033	0.346712
807.163273	0.346984
807.354495	0.346768
807.545698	0.346838
807.736883	0.347563
807.928050	0.348048
808.119199	0.348205
808.310329	0.348440
808.501441	0.348707
808.692535	0.349304
808.883611	0.349766
809.074669	0.350572
809.265708	0.351129
809.456729	0.351410
809.647732	0.351364
809.838717	0.351610
810.029683	0.352189
810.220632	0.352606
810.411562	0.352776
810.602474	0.353050
810.793367	0.353661
810.984242	0.353995
811.175100	0.354024
811.365938	0.354661
811.556759	0.354994
811.747562	0.354953
811.938346	0.355330
812.129112	0.355687
812.319860	0.355903
812.510589	0.356139
812.701300	0.356413
812.891994	0.356963
813.082668	0.357310
813.273325	0.357901
813.463964	0.358504
813.654584	0.358783
813.845186	0.359163
814.035769	0.359971
814.226335	0.360003
814.416882	0.360400
814.607411	0.360552
814.797922	0.360682
814.988415	0.361385
815.178889	0.361558
815.369345	0.361710
815.559783	0.362152
815.750203	0.362069
815.940605	0.362667
816.130988	0.362688
816.321353	0.363068
816.511700	0.363461
816.702028	0.363432
816.892339	0.364082
817.082631	0.364921
817.272905	0.365195
817.463161	0.365480
817.653398	0.365740
817.843617	0.366095
818.033819	0.366378
818.224001	0.366511
818.414166	0.366806
818.604312	0.366795
818.794440	0.366448
818.984550	0.366493
819.174642	0.367047
819.364716	0.367524
819.554771	0.367879
819.744808	0.368245
819.934827	0.368472
820.124827	0.368893
820.314810	0.369322
820.504774	0.369944
820.694720	0.370422
820.884647	0.370595
821.074557	0.371175
821.264448	0.371631
821.454321	0.371943
821.644176	0.372452
821.834012	0.372871
822.023831	0.373165
822.213631	0.373330
822.403413	0.373799
822.593176	0.374249
822.782922	0.374262
822.972649	0.374273
823.162358	0.374639
823.352049	0.374897
823.541721	0.375072
823.731376	0.375503
823.921012	0.376189
824.110629	0.376248
824.300229	0.376582
824.489811	0.376793
824.679374	0.377442
824.868919	0.377821
825.058445	0.378276
825.247954	0.378546
825.437444	0.378647
825.626916	0.378863
825.816370	0.379320
826.005806	0.379771
826.195223	0.380298
826.384622	0.380841
826.574003	0.381460
826.763366	0.381725
826.952711	0.382359
827.142037	0.382939
827.331345	0.383184
827.520635	0.383673
827.709906	0.384096
827.899160	0.384380
828.088395	0.384825
828.277612	0.385205
828.466810	0.385946
828.655991	0.386565
828.845153	0.387485
829.034297	0.388118
829.223423	0.388809
829.412531	0.389598
829.601620	0.390366
829.790691	0.390538
829.979744	0.390956
830.168779	0.391391
830.357795	0.391409
830.546793	0.391617
830.735773	0.391970
830.924735	0.392465
831.113679	0.392318
831.302604	0.392600
831.491511	0.392965
831.680400	0.393143
831.869271	0.393612
832.058123	0.394162
832.246957	0.394743
832.435773	0.395452
832.624571	0.395888
832.813351	0.396755
833.002112	0.397162
833.190855	0.397958
833.379580	0.398552
833.568287	0.398865
833.756975	0.399338
833.945645	0.399278
834.134297	0.399674
834.322931	0.400203
834.511547	0.400248
834.700144	0.400869
834.888723	0.401120
835.077284	0.401551
835.265826	0.402650
835.454351	0.403222
835.642857	0.403744
835.831345	0.403846
836.019815	0.404148
836.208266	0.404661
836.396699	0.404825
836.585114	0.405587
836.773511	0.406090
836.961890	0.406245
837.150250	0.406650
837.338592	0.407376
837.526916	0.407968
837.715222	0.408687
837.903510	0.409220
838.091779	0.410030
838.280030	0.410253
838.468263	0.410758
838.656477	0.410564
838.844674	0.411430
839.032852	0.412094
839.221012	0.412663
839.409153	0.413145
839.597277	0.413754
839.785382	0.413958
839.973469	0.414507
840.161538	0.414810
840.349589	0.415432
840.537621	0.415505
840.725635	0.415525
840.913631	0.416074
841.101609	0.415943
841.289568	0.416630
841.477509	0.417273
841.665432	0.417916
841.853337	0.418993
842.041224	0.419926
842.229092	0.420199
842.416942	0.420903
842.604774	0.421433
842.792588	0.422495
842.980383	0.422798
843.168160	0.423339
843.355919	0.423770
843.543660	0.423875
843.731382	0.424187
843.919087	0.425014
844.106773	0.425534
844.294441	0.426143
844.482090	0.426593
844.669722	0.426413
844.857335	0.426465
845.044930	0.426595
845.232507	0.427036
845.420065	0.427157
845.607605	0.427391
845.795127	0.427573
845.982631	0.427976
846.170117	0.428291
846.357584	0.429425
846.545033	0.430103
846.732464	0.430778
846.919877	0.431370
847.107272	0.432338
847.294648	0.432622
847.482006	0.433268
847.669346	0.433972
847.856667	0.434147
848.043971	0.434246
848.231256	0.434882
848.418523	0.435552
848.605771	0.436368
848.793002	0.436818
848.980214	0.437746
849.167408	0.438002
849.354584	0.438311
849.541742	0.439373
849.728881	0.440307
849.916002	0.440958
850.103105	0.441256
850.290190	0.441398
850.477256	0.441610
850.664304	0.441840
850.851334	0.442750
851.038346	0.443396
851.225340	0.443641
851.412315	0.444243
851.599272	0.444505
851.786211	0.445060
851.973132	0.445542
852.160034	0.446124
852.346918	0.446910
852.533784	0.447626
852.720632	0.448029
852.907462	0.448294
853.094273	0.448366
853.281066	0.448793
853.467841	0.449204
853.654598	0.449583
853.841336	0.450347
854.028056	0.450412
854.214758	0.450332
854.401442	0.450709
854.588107	0.451456
854.774755	0.451976
854.961384	0.452774
855.147995	0.453190
855.334587	0.453485
855.521162	0.454141
855.707718	0.454703
855.894256	0.455488
856.080775	0.455996
856.267277	0.456020
856.453760	0.456738
856.640225	0.457002
856.826672	0.457132
857.013101	0.457561
857.199511	0.457289
857.385903	0.457784
857.572277	0.457647
857.758633	0.457606
857.944970	0.458547
858.131290	0.459030
858.317591	0.459484
858.503873	0.460718
858.690138	0.461219
858.876384	0.462380
859.062612	0.462806
859.248822	0.463414
859.435014	0.464212
859.621188	0.464451
859.807343	0.464919
859.993480	0.465221
860.179599	0.465272
860.365699	0.465881
860.551781	0.466444
860.737846	0.466989
860.923891	0.467846
861.109919	0.468704
861.295929	0.469251
861.481920	0.469445
861.667893	0.469853
861.853848	0.470683
862.039784	0.471101
862.225702	0.470844
862.411603	0.471424
862.597484	0.471518
862.783348	0.471333
862.969193	0.471288
863.155021	0.471513
863.340830	0.471983
863.526620	0.471991
863.712393	0.472298
863.898147	0.473147
864.083883	0.473536
864.269601	0.474112
864.455301	0.474622
864.640982	0.475380
864.826645	0.476048
865.012290	0.476511
865.197917	0.477001
865.383526	0.477309
865.569116	0.477565
865.754688	0.477956
865.940242	0.478537
866.125777	0.479228
866.311295	0.479924
866.496794	0.480139
866.682275	0.480590
866.867737	0.480914
867.053182	0.481433
867.238608	0.482031
867.424016	0.482075
867.609406	0.482158
867.794778	0.482238
867.980131	0.482010
868.165466	0.482548
868.350783	0.482484
868.536082	0.482915
868.721362	0.483099
868.906625	0.483220
869.091869	0.483848
869.277094	0.484127
869.462302	0.484772
869.647491	0.485475
869.832662	0.485878
870.017815	0.486968
870.202950	0.487660
870.388066	0.488210
870.573165	0.488536
870.758245	0.488511
870.943306	0.489291
871.128350	0.489546
871.313375	0.490195
871.498382	0.490391
871.683371	0.490862
871.868342	0.491160
872.053294	0.491528
872.238229	0.491683
872.423144	0.492103
872.608042	0.492183
872.792922	0.492291
872.977783	0.492266
873.162626	0.492721
873.347451	0.492747
873.532258	0.492429
873.717046	0.492578
873.901816	0.493015
874.086568	0.493546
874.271302	0.493788
874.456017	0.494440
874.640715	0.494886
874.825394	0.494841
875.010055	0.494834
875.194697	0.495410
875.379322	0.496318
875.563928	0.496371
875.748516	0.496565
875.933085	0.497041
876.117637	0.496974
876.302170	0.496679
876.486685	0.496907
876.671182	0.497120
876.855661	0.496791
877.040121	0.495919
877.224563	0.496005
877.408987	0.496055
877.593393	0.496061
877.777780	0.496340
877.962150	0.496550
878.146501	0.496633
878.330833	0.496739
878.515148	0.497680
878.699444	0.498236
878.883722	0.499303
879.067982	0.499711
879.252224	0.500169
879.436447	0.500321
879.620653	0.500683
879.804840	0.501817
879.989008	0.501983
880.173159	0.501898
880.357291	0.502078
880.541405	0.501283
880.725501	0.501557
880.909579	0.501746
881.093638	0.502015
881.277680	0.502049
881.461703	0.501872
881.645707	0.502313
881.829694	0.502448
882.013662	0.502714
882.197612	0.502975
882.381544	0.503145
882.565458	0.503287
882.749353	0.502946
882.933230	0.503264
883.117089	0.502855
883.300930	0.502381
883.484753	0.502257
883.668557	0.502460
883.852343	0.502782
884.036111	0.502996
884.219861	0.502396
884.403592	0.502740
884.587305	0.502959
884.771000	0.502813
884.954677	0.503268
885.138335	0.503703
885.321976	0.504131
885.505598	0.504344
885.689201	0.503977
885.872787	0.504130
886.056354	0.504027
886.239904	0.503878
886.423434	0.504533
886.606947	0.504857
886.790442	0.504478
886.973918	0.503724
887.157376	0.503751
887.340816	0.503739
887.524237	0.504455
887.707641	0.504927
887.891026	0.505221
888.074393	0.504691
888.257741	0.504714
888.441072	0.504969
888.624384	0.505343
888.807678	0.505181
888.990954	0.505001
889.174211	0.504738
889.357451	0.503957
889.540672	0.503694
889.723875	0.504460
889.907059	0.503895
890.090226	0.503587
890.273374	0.503502
890.456504	0.503241
890.639616	0.503333
890.822709	0.503086
891.005785	0.503677
891.188842	0.503865
891.371881	0.503317
891.554901	0.503795
891.737904	0.504518
891.920888	0.504327
892.103854	0.504540
892.286802	0.504322
892.469731	0.504245
892.652643	0.504087
892.835536	0.504172
893.018410	0.503989
893.201267	0.503830
893.384106	0.503284
893.566926	0.503766
893.749728	0.503354
893.932511	0.503473
894.115277	0.502986
894.298024	0.503132
894.480753	0.502914
894.663464	0.503145
894.846157	0.503189
895.028831	0.502664
895.211487	0.502059
895.394125	0.502326
895.576745	0.502315
895.759346	0.502860
895.941930	0.502188
896.124495	0.502075
896.307041	0.501789
896.489570	0.501099
896.672080	0.501138
896.854573	0.501122
897.037046	0.500985
897.219502	0.500421
897.401940	0.499691
897.584359	0.499920
897.766760	0.499150
897.949143	0.498994
898.131507	0.499082
898.313854	0.498818
898.496182	0.498187
898.678492	0.497250
898.860783	0.497461
899.043057	0.497527
899.225312	0.496995
899.407549	0.496537
899.589768	0.496397
899.771968	0.495693
899.954151	0.495754
900.136315	0.495783
900.318461	0.496047
900.500588	0.495470
900.682698	0.495175
900.864789	0.494868
901.046862	0.494756
901.228917	0.493851
901.410953	0.493929
901.592971	0.493533
901.774972	0.493020
901.956953	0.492391
902.138917	0.491636
902.320862	0.491330
902.502790	0.491207
902.684699	0.491020
902.866589	0.490981
903.048462	0.490406
903.230316	0.489716
903.412152	0.489187
903.593970	0.488732
903.775770	0.488512
903.957551	0.488159
904.139314	0.487003
904.321059	0.486241
904.502786	0.485811
904.684494	0.485299
904.866185	0.485653
905.047857	0.485314
905.229510	0.484915
905.411146	0.484742
905.592763	0.483881
905.774363	0.483370
905.955943	0.483532
906.137506	0.483079
906.319051	0.482751
906.500577	0.481492
906.682085	0.480842
906.863575	0.480327
907.045046	0.479578
907.226500	0.479323
907.407935	0.479530
907.589352	0.478343
907.770750	0.477435
907.952131	0.477007
908.133493	0.476566
908.314837	0.475676
908.496163	0.475349
908.677470	0.474903
908.858760	0.474495
909.040031	0.473772
909.221284	0.473904
909.402518	0.473704
909.583735	0.473219
909.764933	0.472162
909.946113	0.472174
910.127275	0.471507
910.308418	0.471428
910.489544	0.471096
910.670651	0.470246
910.851740	0.469304
911.032810	0.468588
911.213863	0.468153
911.394897	0.468107
911.575913	0.467837
911.756911	0.467376
911.937890	0.466605
912.118851	0.465956
912.299794	0.465769
912.480719	0.465753
912.661626	0.465312
912.842514	0.464222
913.023384	0.463743
913.204236	0.463648
913.385070	0.463349
913.565886	0.462965
913.746683	0.462284
913.927462	0.461799
914.108223	0.460559
914.288965	0.460106
914.469690	0.459519
914.650396	0.458930
914.831084	0.457853
915.011754	0.456745
915.192405	0.456107
915.373038	0.454727
915.553653	0.454169
915.734250	0.453437
915.914829	0.452862
916.095389	0.452292
916.275931	0.450787
916.456455	0.449599
916.636961	0.448790
916.817448	0.448352
916.997917	0.448210
917.178368	0.447305
917.358801	0.447452
917.539216	0.446372
917.719612	0.445709
917.899990	0.446107
918.080350	0.445885
918.260692	0.445328
918.441015	0.443796
918.621320	0.442615
918.801607	0.442203
918.981876	0.440810
919.162127	0.439805
919.342359	0.438790
919.522573	0.437539
919.702769	0.435780
919.882947	0.435055
920.063106	0.434676
920.243247	0.434300
920.423370	0.432700
920.603475	0.431514
920.783562	0.431315
920.963630	0.430355
921.143680	0.429427
921.323712	0.429306
921.503725	0.428441
921.683721	0.427295
921.863698	0.426174
922.043657	0.425545
922.223598	0.425005
922.403520	0.423563
922.583424	0.423105
922.763311	0.422469
922.943178	0.421440
923.123028	0.420611
923.302859	0.419911
923.482673	0.418837
923.662467	0.418319
923.842244	0.417571
924.022003	0.417043
924.201743	0.416489
924.381465	0.415206
924.561169	0.415222
924.740854	0.414080
924.920522	0.412907
925.100171	0.411974
925.279802	0.411548
925.459414	0.409994
925.639009	0.408772
925.818585	0.407481
925.998143	0.406769
926.177683	0.404984
926.357205	0.404707
926.536708	0.403116
926.716193	0.402859
926.895660	0.400785
927.075109	0.401176
927.254539	0.400254
927.433951	0.399879
927.613345	0.398493
927.792721	0.397958
927.972079	0.395589
928.151418	0.396115
928.330739	0.394747
928.510042	0.394712
928.689327	0.393505
928.868593	0.392564
929.047841	0.390370
929.227071	0.390162
929.406283	0.388746
929.585476	0.389934
929.764652	0.387800
929.943809	0.386047
930.122948	0.384319
930.302068	0.382614
930.481171	0.381750
930.660255	0.381997
930.839321	0.380495
931.018369	0.379288
931.197398	0.376830
931.376409	0.376547
931.555402	0.376150
931.734377	0.376240
931.913334	0.375135
932.092272	0.373844
932.271192	0.372015
932.450094	0.370430
932.628978	0.369075
932.807844	0.367280
932.986691	0.366312
933.165520	0.364845
933.344331	0.362502
933.523123	0.361371
933.701898	0.360139
933.880654	0.358208
934.059392	0.357984
934.238111	0.356838
934.416813	0.355957
934.595496	0.354086
934.774161	0.353927
934.952808	0.353652
935.131437	0.352112
935.310047	0.351874
935.488639	0.350945
935.667213	0.349949
935.845769	0.348916
936.024306	0.348790
936.202825	0.348083
936.381326	0.346512
936.559809	0.345213
936.738274	0.344910
936.916720	0.343076
937.095148	0.343128
937.273558	0.341496
937.451950	0.341535
937.630323	0.339631
937.808678	0.338243
937.987015	0.337556
938.165334	0.336121
938.343635	0.335105
938.521917	0.334728
938.700181	0.333284
938.878427	0.332844
939.056655	0.330971
939.234864	0.329110
939.413055	0.328272
939.591228	0.327078
939.769383	0.325468
939.947519	0.324113
940.125638	0.321799
940.303738	0.320327
940.481820	0.318324
940.659883	0.317517
940.837929	0.317553
941.015956	0.316586
941.193965	0.313908
941.371955	0.313597
941.549928	0.311991
941.727882	0.312347
941.905818	0.310678
942.083736	0.309674
942.261636	0.307362
942.439517	0.306007
942.617380	0.303603
942.795225	0.303110
942.973052	0.301696
943.150860	0.300184
943.328651	0.298427
943.506423	0.298062
943.684176	0.296004
943.861912	0.295120
944.039629	0.294068
944.217328	0.292558
944.395009	0.290203
944.572672	0.288644
944.750317	0.288271
944.927943	0.285916
945.105551	0.284485
945.283141	0.284156
945.460712	0.282235
945.638265	0.280425
945.815801	0.279679
945.993317	0.279396
946.170816	0.277223
946.348297	0.275221
946.525759	0.274319
946.703203	0.271483
946.880629	0.269114
947.058036	0.268026
947.235425	0.266857
947.412797	0.266882
947.590149	0.265391
947.767484	0.263222
947.944800	0.262021
948.122099	0.260472
948.299379	0.260610
948.476640	0.260289
948.653884	0.259217
948.831109	0.257686
949.008316	0.254710
949.185505	0.255151
949.362676	0.255757
949.539828	0.255393
949.716962	0.253656
949.894078	0.251838
950.071176	0.250468
950.248256	0.250191
950.425317	0.251502
950.602360	0.252186
950.779385	0.248643
950.956391	0.246472
951.133380	0.244240
951.310350	0.241697
951.487302	0.239399
951.664235	0.238064
951.841151	0.237731
952.018048	0.234248
952.194927	0.233607
952.371788	0.235108
952.548631	0.233071
952.725455	0.232603
952.902261	0.233434
953.079049	0.234317
953.255819	0.234289
953.432570	0.232568
953.609303	0.232297
953.786018	0.229432
953.962715	0.225703
954.139394	0.224362
954.316054	0.221675
954.492696	0.220454
954.669320	0.219276
954.845926	0.216796
955.022513	0.213983
955.199083	0.214212
955.375634	0.213351
955.552166	0.212892
955.728681	0.211685
955.905177	0.212051
956.081655	0.212286
956.258115	0.211001
956.434557	0.211972
956.610980	0.211589
956.787385	0.210799
956.963772	0.207992
957.140141	0.207363
957.316492	0.207007
957.492824	0.203383
957.669138	0.202512
957.845434	0.202465
958.021712	0.199592
958.197971	0.198725
958.374212	0.197738
958.550435	0.197798
958.726640	0.196040
958.902826	0.196633
959.078995	0.196063
959.255145	0.195942
959.431277	0.193536
959.607390	0.193356
959.783486	0.194399
959.959563	0.191866
960.135622	0.190299
960.311662	0.192125
960.487685	0.191287
960.663689	0.192373
960.839675	0.189783
961.015643	0.189766
961.191593	0.187990
961.367524	0.185423
961.543437	0.182977
961.719332	0.182280
961.895209	0.181023
962.071067	0.179520
962.246907	0.178253
962.422730	0.175616
962.598533	0.174141
962.774319	0.176322
962.950086	0.174745
963.125835	0.177760
963.301566	0.178515
963.477279	0.175692
963.652973	0.176368
963.828650	0.178303
964.004308	0.180574
964.179947	0.180430
964.355569	0.178288
964.531172	0.178371
964.706757	0.175194
964.882324	0.175351
965.057873	0.177199
965.233403	0.175842
965.408916	0.173850
965.584410	0.173598
965.759885	0.172223
965.935343	0.172230
966.110782	0.169185
966.286203	0.169759
966.461606	0.169671
966.636991	0.171459
966.812357	0.170214
966.987705	0.171773
967.163035	0.169807
967.338347	0.169696
967.513641	0.167933
967.688916	0.172300
967.864173	0.171653
968.039412	0.171069
968.214632	0.167991
968.389835	0.169105
968.565019	0.167798
968.740185	0.168673
968.915333	0.171658
969.090462	0.172430
969.265573	0.171629
969.440667	0.173053
969.615741	0.171703
969.790798	0.170047
969.965836	0.170206
970.140856	0.171323
970.315858	0.170965
970.490842	0.169661
970.665808	0.169357
970.840755	0.169741
971.015684	0.167339
971.190595	0.169163
971.365487	0.171081
971.540362	0.171068
971.715218	0.170530
971.890056	0.170672
972.064875	0.170187
972.239677	0.169668
972.414460	0.168659
972.589225	0.169976
972.763972	0.168683
972.938700	0.166595
973.113411	0.168902
973.288103	0.167392
973.462777	0.167419
973.637432	0.166103
973.812070	0.167543
973.986689	0.165896
974.161290	0.165350
974.335873	0.166391
974.510437	0.169769
974.684984	0.167002
974.859512	0.168404
975.034022	0.168106
975.208513	0.167610
975.382987	0.169291
975.557442	0.170698
975.731879	0.174824
975.906298	0.175709
976.080698	0.174829
976.255080	0.173963
976.429445	0.171972
976.603790	0.173414
976.778118	0.176047
976.952427	0.171434
977.126719	0.173008
977.300992	0.169171
977.475246	0.167349
977.649483	0.165618
977.823701	0.167781
977.997901	0.168993
978.172083	0.167185
978.346247	0.166188
978.520392	0.169146
978.694519	0.169648
978.868628	0.170843
979.042719	0.170600
979.216791	0.171431
979.390845	0.168835
979.564882	0.170019
979.738899	0.172724
979.912899	0.172930
980.086880	0.170379
980.260843	0.168223
980.434788	0.166157
980.608715	0.166889
980.782623	0.166976
980.956514	0.168803
981.130386	0.167684
981.304240	0.166169
981.478075	0.164473
981.651892	0.165981
981.825692	0.165471
981.999472	0.167175
982.173235	0.165281
982.346980	0.164222
982.520706	0.164434
982.694414	0.163335
982.868104	0.164625
983.041775	0.167658
983.215428	0.166155
983.389064	0.168952
983.562680	0.167003
983.736279	0.168594
983.909860	0.170510
984.083422	0.169287
984.256966	0.171877
984.430491	0.168920
984.603999	0.168449
984.777488	0.168204
984.950959	0.165683
985.124412	0.166048
985.297847	0.165106
985.471263	0.164685
985.644661	0.166044
985.818041	0.166099
985.991403	0.167594
986.164747	0.165788
986.338072	0.170358
986.511379	0.171953
986.684668	0.172655
986.857938	0.174435
987.031191	0.172911
987.204425	0.170634
987.377641	0.169569
987.550839	0.168127
987.724018	0.170664
987.897179	0.166332
988.070322	0.167623
988.243447	0.165842
988.416554	0.165023
988.589642	0.166425
988.762712	0.167234
988.935764	0.166302
989.108798	0.166824
989.281813	0.163557
989.454811	0.166432
989.627790	0.163970
989.800751	0.164068
989.973693	0.162887
990.146617	0.161214
990.319524	0.162305
990.492412	0.161972
990.665281	0.161898
990.838133	0.163658
991.010966	0.161998
991.183781	0.161500
991.356578	0.161547
991.529356	0.161430
991.702117	0.162051
991.874859	0.162373
992.047583	0.162957
992.220288	0.161784
992.392976	0.161248
992.565645	0.161149
992.738296	0.162072
992.910929	0.163151
993.083543	0.163557
993.256139	0.166321
993.428718	0.165376
993.601277	0.165649
993.773819	0.165830
993.946342	0.165940
994.118848	0.167118
994.291335	0.167124
994.463803	0.166998
994.636254	0.166152
994.808686	0.165395
994.981100	0.164487
995.153496	0.162884
995.325874	0.165463
995.498233	0.165927
995.670574	0.165173
995.842897	0.165983
996.015202	0.166758
996.187488	0.167180
996.359757	0.165979
996.532007	0.167858
996.704239	0.168572
996.876452	0.166892
997.048648	0.167249
997.220825	0.167065
997.392984	0.167171
997.565124	0.166241
997.737247	0.167745
997.909351	0.166109
998.081437	0.167198
998.253505	0.167479
998.425554	0.166270
998.597586	0.165794
998.769599	0.167482
998.941594	0.167149
999.113571	0.166628
999.285529	0.164719
999.457469	0.166775
999.629391	0.164292
999.801295	0.163793
999.973181	0.166558
1000.145048	0.167126
1000.316897	0.167088
1000.488728	0.166170
1000.660541	0.164509
1000.832335	0.164203
1001.004111	0.162879
1001.175869	0.164994
1001.347609	0.165924
1001.519331	0.162140
1001.691034	0.161062
1001.862719	0.159051
1002.034386	0.160533
1002.206035	0.162028
1002.377665	0.162524
1002.549277	0.162824
1002.720871	0.161714
1002.892447	0.160538
1003.064004	0.161950
1003.235544	0.162391
1003.407065	0.162519
1003.578568	0.161442
1003.750052	0.162320
1003.921519	0.164791
1004.092967	0.164196
1004.264397	0.164059
1004.435809	0.164593
1004.607202	0.165645
1004.778577	0.163634
1004.949934	0.164267
1005.121273	0.164235
1005.292594	0.164086
1005.463896	0.161949
1005.635180	0.162716
1005.806446	0.163111
1005.977694	0.161714
1006.148923	0.160326
1006.320135	0.160827
1006.491328	0.160137
1006.662503	0.159550
1006.833659	0.160109
1007.004798	0.159276
1007.175918	0.158891
1007.347020	0.157077
1007.518103	0.158826
1007.689169	0.158888
1007.860216	0.159853
1008.031245	0.160970
1008.202256	0.161662
1008.373248	0.160660
1008.544223	0.163060
1008.715179	0.161882
1008.886117	0.161896
1009.057036	0.163073
1009.227938	0.165010
1009.398821	0.164907
1009.569686	0.165639
1009.740533	0.165163
1009.911361	0.165227
1010.082172	0.163843
1010.252964	0.165373
1010.423738	0.165956
1010.594493	0.166243
1010.765231	0.165291
1010.935950	0.165967
1011.106651	0.165869
1011.277334	0.167008
1011.447998	0.166390
1011.618645	0.167557
1011.789273	0.167696
1011.959882	0.167801
1012.130474	0.166865
1012.301048	0.167317
1012.471603	0.166624
1012.642140	0.166204
1012.812658	0.163903
1012.983159	0.164959
1013.153641	0.165106
1013.324105	0.164974
1013.494551	0.165592
1013.664979	0.163799
1013.835388	0.163537
1014.005779	0.163198
1014.176152	0.161874
1014.346507	0.162655
1014.516843	0.163113
1014.687162	0.161813
1014.857462	0.162730
1015.027744	0.163884
1015.198007	0.164402
1015.368252	0.163417
1015.538480	0.164546
1015.708689	0.165216
1015.878879	0.166297
1016.049052	0.165093
1016.219206	0.165429
1016.389342	0.164228
1016.559460	0.161475
1016.729559	0.160931
1016.899641	0.159631
1017.069704	0.159436
1017.239749	0.158482
1017.409775	0.157386
1017.579784	0.158645
1017.749774	0.159522
1017.919746	0.160315
1018.089700	0.161312
1018.259635	0.162143
1018.429553	0.164904
1018.599452	0.165336
1018.769333	0.166322
1018.939195	0.166261
1019.109040	0.167465
1019.278866	0.166662
1019.448674	0.164599
1019.618464	0.166086
1019.788235	0.165075
1019.957989	0.164799
1020.127724	0.163818
1020.297441	0.164295
1020.467139	0.164309
1020.636820	0.163016
1020.806482	0.163454
1020.976126	0.165569
1021.145752	0.164073
1021.315359	0.163977
1021.484948	0.163308
1021.654519	0.162504
1021.824072	0.161717
1021.993607	0.163452
1022.163123	0.164720
1022.332621	0.165693
1022.502101	0.165568
1022.671563	0.166722
1022.841007	0.169637
1023.010432	0.169750
1023.179839	0.171307
1023.349228	0.169750
1023.518598	0.168265
1023.687951	0.165902
1023.857285	0.164943
1024.026601	0.164923
1024.195899	0.162608
1024.365178	0.161265
1024.534439	0.162324
1024.703682	0.162775
1024.872907	0.164475
1025.042114	0.163684
1025.211302	0.165143
1025.380472	0.164098
1025.549624	0.163579
1025.718758	0.164415
1025.887873	0.166424
1026.056970	0.163940
1026.226049	0.166231
1026.395110	0.166902
1026.564153	0.168034
1026.733177	0.166221
1026.902183	0.166155
1027.071171	0.165052
1027.240141	0.167295
1027.409092	0.163501
1027.578026	0.165914
1027.746940	0.161387
1027.915837	0.160092
1028.084716	0.159853
1028.253576	0.159641
1028.422418	0.160002
1028.591242	0.161358
1028.760048	0.159579
1028.928835	0.160530
1029.097604	0.158977
1029.266355	0.158563
1029.435088	0.158399
1029.603803	0.158918
1029.772499	0.160005
1029.941177	0.160847
1030.109837	0.159266
1030.278478	0.160743
1030.447102	0.162750
1030.615707	0.162944
1030.784294	0.163880
1030.952863	0.164883
1031.121413	0.163568
1031.289945	0.164991
1031.458460	0.164178
1031.626955	0.165681
1031.795433	0.163859
1031.963892	0.162589
1032.132334	0.161273
1032.300756	0.161221
1032.469161	0.159346
1032.637548	0.157944
1032.805916	0.154949
1032.974266	0.155414
1033.142598	0.155066
1033.310911	0.155099
1033.479207	0.155895
1033.647484	0.157505
1033.815743	0.158074
1033.983983	0.157861
1034.152206	0.162014
1034.320410	0.163952
1034.488596	0.164168
1034.656764	0.163270
1034.824914	0.163215
1034.993045	0.162319
1035.161158	0.162494
1035.329253	0.162085
1035.497330	0.162574
1035.665388	0.160461
1035.833428	0.159543
1036.001450	0.160432
1036.169454	0.162046
1036.337440	0.161368
1036.505407	0.162438
1036.673356	0.163390
1036.841287	0.163424
1037.009200	0.165393
1037.177094	0.165443
1037.344970	0.166314
1037.512828	0.164303
1037.680668	0.163772
1037.848489	0.164823
1038.016293	0.164490
1038.184078	0.163358
1038.351845	0.162785
1038.519593	0.161899
1038.687324	0.161261
1038.855036	0.161042
1039.022730	0.162841
1039.190406	0.160876
1039.358063	0.160264
1039.525702	0.160549
1039.693323	0.161511
1039.860926	0.163909
1040.028511	0.162946
1040.196077	0.164927
1040.363625	0.164201
1040.531155	0.162636
1040.698667	0.164296
1040.866161	0.164124
1041.033636	0.163744
1041.201093	0.162795
1041.368532	0.161838
1041.535952	0.164440
1041.703355	0.164347
1041.870739	0.165190
1042.038105	0.164057
1042.205452	0.163472
1042.372782	0.163665
1042.540093	0.160895
1042.707386	0.160778
1042.874661	0.159491
1043.041918	0.156712
1043.209156	0.156643
1043.376376	0.155707
1043.543578	0.157087
1043.710762	0.157499
1043.877927	0.158241
1044.045074	0.159540
1044.212203	0.159192
1044.379314	0.159767
1044.546407	0.161929
1044.713481	0.161072
1044.880537	0.161606
1045.047575	0.161077
1045.214595	0.161311
1045.381596	0.161150
1045.548579	0.161397
1045.715544	0.162352
1045.882491	0.162420
1046.049420	0.161593
1046.216330	0.161671
1046.383222	0.162328
1046.550096	0.163649
1046.716951	0.163303
1046.883789	0.163125
1047.050608	0.165658
1047.217409	0.163680
1047.384192	0.163567
1047.550956	0.164213
1047.717703	0.163980
1047.884431	0.163117
1048.051140	0.163360
1048.217832	0.164292
1048.384505	0.163833
1048.551161	0.160751
1048.717798	0.161382
1048.884416	0.161226
1049.051017	0.161920
1049.217599	0.162137
1049.384163	0.163076
1049.550709	0.164072
1049.717237	0.162456
1049.883746	0.164703
1050.050237	0.166426
1050.216710	0.168753
1050.383165	0.170213
1050.549601	0.169157
1050.716019	0.168043
1050.882420	0.167276
1051.048801	0.165770
1051.215165	0.167009
1051.381510	0.165488
1051.547837	0.165233
1051.714146	0.162668
1051.880437	0.161103
1052.046709	0.160747
1052.212964	0.159937
1052.379200	0.159597
1052.545417	0.160435
1052.711617	0.160679
1052.877798	0.160274
1053.043961	0.159414
1053.210106	0.161065
1053.376233	0.161038
1053.542341	0.160919
1053.708432	0.162808
1053.874504	0.163977
1054.040557	0.162876
1054.206593	0.163348
1054.372610	0.163064
1054.538609	0.162534
1054.704590	0.163285
1054.870553	0.162940
1055.036497	0.163089
1055.202424	0.162123
1055.368331	0.160135
1055.534221	0.160426
1055.700093	0.158971
1055.865946	0.156778
1056.031781	0.156943
1056.197598	0.155771
1056.363397	0.157681
1056.529177	0.157829
1056.694939	0.158721
1056.860683	0.161997
1057.026409	0.162920
1057.192116	0.164087
1057.357806	0.165796
1057.523477	0.166529
1057.689130	0.165671
1057.854764	0.163240
1058.020381	0.163644
1058.185979	0.164293
1058.351559	0.162715
1058.517120	0.161637
1058.682664	0.161292
1058.848189	0.163076
1059.013696	0.163658
1059.179185	0.165026
1059.344656	0.167789
1059.510108	0.168482
1059.675542	0.166538
1059.840958	0.166967
1060.006356	0.168436
1060.171735	0.170211
1060.337096	0.169203
1060.502439	0.169033
1060.667764	0.169036
1060.833071	0.168246
1060.998359	0.166392
1061.163629	0.166645
1061.328881	0.166370
1061.494115	0.166508
1061.659330	0.167350
1061.824527	0.166945
1061.989706	0.166863
1062.154867	0.165828
1062.320010	0.166276
1062.485134	0.166182
1062.650240	0.166145
1062.815328	0.164129
1062.980398	0.163753
1063.145449	0.160342
1063.310482	0.161269
1063.475497	0.160562
1063.640494	0.162164
1063.805473	0.162866
1063.970433	0.161337
1064.135375	0.163239
1064.300299	0.164778
1064.465204	0.164084
1064.630092	0.166534
1064.794961	0.166929
1064.959812	0.168163
1065.124645	0.170212
1065.289459	0.168744
1065.454256	0.169731
1065.619034	0.171843
1065.783793	0.172961
1065.948535	0.174351
1066.113258	0.173038
1066.277964	0.172855
1066.442651	0.172195
1066.607319	0.170250
1066.771970	0.170603
1066.936602	0.173761
1067.101216	0.170295
1067.265812	0.170403
1067.430389	0.168226
1067.594949	0.166708
1067.759490	0.166873
1067.924013	0.166545
1068.088518	0.167535
1068.253004	0.167347
1068.417472	0.165048
1068.581922	0.166140
1068.746354	0.166143
1068.910768	0.166173
1069.075163	0.166427
1069.239540	0.166616
1069.403899	0.167884
1069.568240	0.166286
1069.732562	0.165450
1069.896866	0.165485
1070.061152	0.165213
1070.225420	0.167201
1070.389670	0.167069
1070.553901	0.168007
1070.718114	0.167489
1070.882309	0.166076
1071.046486	0.168538
1071.210644	0.172233
1071.374784	0.172858
1071.538906	0.171247
1071.703010	0.169818
1071.867096	0.170493
1072.031163	0.170038
1072.195212	0.168677
1072.359243	0.168409
1072.523256	0.165535
1072.687250	0.162385
1072.851226	0.162576
1073.015184	0.165064
1073.179124	0.163605
1073.343045	0.164951
1073.506949	0.166203
1073.670834	0.166692
1073.834701	0.166661
1073.998549	0.167797
1074.162380	0.168940
1074.326192	0.167092
1074.489986	0.166542
1074.653761	0.168445
1074.817519	0.168851
1074.981258	0.168420
1075.144979	0.169413
1075.308682	0.170857
1075.472367	0.171060
1075.636033	0.169840
1075.799681	0.170977
1075.963311	0.169431
1076.126923	0.168785
1076.290516	0.167559
1076.454092	0.165855
1076.617649	0.166610
1076.781187	0.166139
1076.944708	0.165856
1077.108210	0.167101
1077.271695	0.167904
1077.435160	0.170023
1077.598608	0.171051
1077.762038	0.171026
1077.925449	0.173359
1078.088842	0.173705
1078.252217	0.173991
1078.415573	0.175352
1078.578912	0.174088
1078.742232	0.174405
1078.905534	0.172869
1079.068817	0.171823
1079.232083	0.172055
1079.395330	0.173445
1079.558559	0.171725
1079.721770	0.169393
1079.884962	0.167873
1080.048136	0.170075
1080.211293	0.171183
1080.374430	0.174917
1080.537550	0.173384
1080.700651	0.174411
1080.863735	0.171227
1081.026800	0.173661
1081.189846	0.175954
1081.352875	0.176144
1081.515885	0.175289
1081.678877	0.174212
1081.841851	0.172166
1082.004807	0.173013
1082.167744	0.169325
1082.330663	0.171030
1082.493564	0.169037
1082.656447	0.170314
1082.819312	0.170469
1082.982158	0.170452
1083.144986	0.172416
1083.307796	0.172465
1083.470587	0.172877
1083.633361	0.175037
1083.796116	0.176967
1083.958853	0.177572
1084.121571	0.176100
1084.284272	0.175011
1084.446954	0.176492
1084.609618	0.175061
1084.772264	0.173353
1084.934892	0.176705
1085.097501	0.176539
1085.260092	0.175228
1085.422665	0.176571
1085.585220	0.179834
1085.747756	0.180385
1085.910274	0.180183
1086.072774	0.182066
1086.235256	0.184722
1086.397720	0.183247
1086.560165	0.185026
1086.722592	0.184041
1086.885001	0.183613
1087.047392	0.184047
1087.209764	0.185651
1087.372119	0.184291
1087.534455	0.183443
1087.696772	0.181903
1087.859072	0.177830
1088.021353	0.178384
1088.183616	0.177999
1088.345861	0.179262
1088.508088	0.178482
1088.670296	0.180742
1088.832486	0.182627
1088.994658	0.183745
1089.156812	0.184753
1089.318948	0.186776
1089.481065	0.186067
1089.643164	0.190115
1089.805245	0.187375
1089.967308	0.188721
1090.129352	0.186152
1090.291378	0.184633
1090.453386	0.184851
1090.615376	0.184964
1090.777347	0.183416
1090.939301	0.184659
1091.101236	0.183787
1091.263153	0.185979
1091.425051	0.185212
1091.586932	0.185253
1091.748794	0.187171
1091.910638	0.186814
1092.072463	0.185943
1092.234271	0.186058
1092.396060	0.179518
1092.557831	0.177951
1092.719584	0.177060
1092.881319	0.176405
1093.043035	0.176997
1093.204733	0.177507
1093.366413	0.176132
1093.528075	0.174907
1093.689718	0.176794
1093.851343	0.178399
1094.012950	0.176637
1094.174539	0.177794
1094.336110	0.176957
1094.497662	0.176038
1094.659196	0.177306
1094.820712	0.180386
1094.982210	0.183850
1095.143689	0.182516
1095.305151	0.188523
1095.466594	0.191989
1095.628018	0.190042
1095.789425	0.191110
1095.950813	0.192636
1096.112183	0.191395
1096.273535	0.189558
1096.434869	0.188447
1096.596184	0.190094
1096.757482	0.190839
1096.918761	0.189294
1097.080021	0.189473
1097.241264	0.191587
1097.402488	0.191032
1097.563694	0.188069
1097.724882	0.189276
1097.886052	0.187562
1098.047203	0.188394
1098.208336	0.185271
1098.369451	0.187166
1098.530548	0.189499
1098.691627	0.189635
1098.852687	0.187446
1099.013729	0.187848
1099.174753	0.188238
1099.335758	0.189418
1099.496746	0.190732
1099.657715	0.189211
1099.818666	0.188296
1099.979599	0.189063
1100.140513	0.187550
1100.301409	0.190806
1100.462287	0.193181
1100.623147	0.193848
1100.783989	0.193422
1100.944812	0.190382
1101.105617	0.191382
1101.266404	0.197075
1101.427173	0.194091
1101.587923	0.193781
1101.748656	0.193623
1101.909370	0.188714
1102.070066	0.188874
1102.230743	0.190306
1102.391403	0.188939
1102.552044	0.186522
1102.712667	0.182262
1102.873271	0.181603
1103.033858	0.179407
1103.194426	0.180870
1103.354976	0.188649
1103.515508	0.181763
1103.676021	0.182067
1103.836517	0.183164
1103.996994	0.182948
1104.157453	0.185697
1104.317893	0.188195
1104.478316	0.185252
1104.638720	0.185766
1104.799106	0.181608
1104.959474	0.185748
1105.119823	0.186724
1105.280155	0.187828
1105.440468	0.191545
1105.600763	0.187460
1105.761039	0.188339
1105.921298	0.195114
1106.081538	0.194167
1106.241760	0.198224
1106.401964	0.204945
1106.562149	0.203439
1106.722316	0.210373
1106.882465	0.211640
1107.042596	0.213713
1107.202709	0.214989
1107.362803	0.213552
1107.522879	0.214147
1107.682937	0.210638
1107.842977	0.204531
1108.002999	0.208875
1108.163002	0.199735
1108.322987	0.197712
1108.482954	0.198123
1108.642902	0.199078
1108.802833	0.200031
1108.962745	0.195905
1109.122639	0.194333
1109.282515	0.196024
1109.442372	0.193772
1109.602211	0.201488
1109.762032	0.197646
1109.921835	0.199668
1110.081620	0.198468
1110.241386	0.201744
1110.401134	0.206187
1110.560864	0.209740
1110.720576	0.211541
1110.880269	0.212906
1111.039945	0.210892
1111.199602	0.216578
1111.359240	0.211697
1111.518861	0.211107
1111.678463	0.207524
1111.838047	0.208267
1111.997613	0.209939
1112.157161	0.203809
1112.316690	0.196864
1112.476202	0.197945
1112.635695	0.200992
1112.795169	0.204843
1112.954626	0.206767
1113.114064	0.201211
1113.273484	0.200151
1113.432886	0.193938
1113.592270	0.197594
1113.751635	0.199966
1113.910983	0.201321
1114.070312	0.202289
1114.229622	0.200101
1114.388915	0.195515
1114.548189	0.202768
1114.707445	0.205035
1114.866683	0.211189
1115.025903	0.215475
1115.185104	0.216990
1115.344287	0.212011
1115.503452	0.212725
1115.662599	0.214872
1115.821727	0.218966
1115.980838	0.217439
1116.139930	0.221267
1116.299004	0.222367
1116.458059	0.221068
1116.617097	0.220945
1116.776116	0.221360
1116.935117	0.217043
1117.094099	0.214032
1117.253064	0.213051
1117.412010	0.211614
1117.570938	0.205699
1117.729848	0.203851
1117.888740	0.203197
1118.047613	0.211587
1118.206468	0.211171
1118.365305	0.216038
1118.524124	0.217336
1118.682924	0.221741
1118.841707	0.223260
1119.000471	0.219669
1119.159216	0.221385
1119.317944	0.213828
1119.476653	0.209609
1119.635344	0.215110
1119.794017	0.211504
1119.952672	0.209456
1120.111308	0.207970
1120.269927	0.208386
1120.428527	0.210388
1120.587108	0.200253
1120.745672	0.206287
1120.904217	0.203600
1121.062744	0.202640
1121.221253	0.207422
1121.379744	0.209512
1121.538216	0.203897
1121.696671	0.207229
1121.855107	0.209810
1122.013524	0.216660
1122.171924	0.211273
1122.330305	0.211366
1122.488668	0.208311
1122.647013	0.204190
1122.805340	0.206631
1122.963648	0.209394
1123.121938	0.207607
1123.280210	0.208288
1123.438464	0.211157
1123.596700	0.222925
1123.754917	0.219511
1123.913116	0.218455
1124.071297	0.214105
1124.229459	0.210282
1124.387604	0.210701
1124.545730	0.209924
1124.703838	0.203966
1124.861928	0.197342
1125.019999	0.187709
1125.178052	0.189603
1125.336088	0.187645
1125.494104	0.187932
1125.652103	0.191472
1125.810083	0.193934
1125.968045	0.187649
1126.125989	0.188645
1126.283915	0.190467
1126.441823	0.192076
1126.599712	0.198524
1126.757583	0.204390
1126.915436	0.211308
1127.073270	0.211979
1127.231087	0.216897
1127.388885	0.216693
1127.546665	0.223118
1127.704426	0.220309
1127.862170	0.223897
1128.019895	0.220432
1128.177602	0.211228
1128.335291	0.205302
1128.492961	0.204806
1128.650614	0.192511
1128.808248	0.202707
1128.965864	0.194787
1129.123461	0.197126
1129.281041	0.191203
1129.438602	0.189932
1129.596145	0.198347
1129.753670	0.197943
1129.911176	0.195704
1130.068665	0.198832
1130.226135	0.200408
1130.383587	0.202561
1130.541020	0.212879
1130.698436	0.215037
1130.855833	0.211829
1131.013212	0.209432
1131.170573	0.218991
1131.327915	0.224482
1131.485239	0.226654
1131.642545	0.221074
1131.799833	0.225110
1131.957103	0.217840
1132.114354	0.220485
1132.271588	0.238080
1132.428803	0.245242
1132.585999	0.235924
1132.743178	0.227517
1132.900338	0.231363
1133.057480	0.234039
1133.214604	0.232850
1133.371710	0.231030
1133.528797	0.230855
1133.685866	0.225419
1133.842917	0.227705
1133.999950	0.233603
1134.156964	0.239675
1134.313960	0.239887
1134.470938	0.239970
1134.627898	0.242186
1134.784840	0.239020
1134.941763	0.243217
1135.098668	0.231441
1135.255555	0.228343
1135.412424	0.229264
1135.569274	0.223604
1135.726107	0.215500
1135.882921	0.216811
1136.039716	0.215619
1136.196494	0.222485
1136.353253	0.220122
1136.509995	0.219226
1136.666717	0.204029
1136.823422	0.201085
1136.980109	0.204637
1137.136777	0.207258
1137.293427	0.199887
1137.450059	0.198703
1137.606672	0.193640
1137.763267	0.198746
1137.919844	0.201451
1138.076403	0.214145
1138.232944	0.210372
1138.389466	0.207733
1138.545971	0.205844
1138.702457	0.215636
1138.858924	0.219695
1139.015374	0.226689
1139.171805	0.220532
1139.328218	0.226470
1139.484613	0.217315
1139.640990	0.229955
1139.797348	0.237807
1139.953688	0.250292
1140.110010	0.248583
1140.266314	0.258528
1140.422600	0.252252
1140.578867	0.260494
1140.735116	0.249010
1140.891347	0.256665
1141.047559	0.249575
1141.203754	0.243427
1141.359930	0.231113
1141.516088	0.226728
1141.672228	0.211210
1141.828349	0.214329
1141.984452	0.206207
1142.140537	0.219548
1142.296604	0.217121
1142.452653	0.213084
1142.608683	0.210606
1142.764695	0.211882
1142.920689	0.210664
1143.076665	0.212258
1143.232622	0.206768
1143.388562	0.211936
1143.544483	0.206914
1143.700385	0.209459
1143.856270	0.207585
1144.012136	0.212690
1144.167985	0.226931
1144.323814	0.224496
1144.479626	0.236446
1144.635420	0.238916
1144.791195	0.229953
1144.946952	0.235409
1145.102691	0.232388
1145.258411	0.234785
1145.414113	0.235278
1145.569798	0.221393
1145.725463	0.226457
1145.881111	0.218112
1146.036741	0.226289
1146.192352	0.226406
1146.347945	0.214192
1146.503519	0.217610
1146.659076	0.222668
1146.814614	0.221975
1146.970134	0.235157
1147.125636	0.232985
1147.281120	0.225099
1147.436585	0.214107
1147.592032	0.211395
1147.747461	0.222613
1147.902872	0.233833
1148.058265	0.227774
1148.213639	0.227011
1148.368995	0.212807
1148.524333	0.208911
1148.679653	0.216124
1148.834954	0.223067
1148.990237	0.218253
1149.145502	0.211427
1149.300749	0.205373
1149.455977	0.200352
1149.611188	0.207617
1149.766380	0.220449
1149.921553	0.216119
1150.076709	0.204870
1150.231846	0.208563
1150.386966	0.220968
1150.542066	0.219534
1150.697149	0.222727
1150.852214	0.228390
1151.007260	0.214992
1151.162288	0.218311
1151.317298	0.230243
1151.472289	0.242652
1151.627263	0.240030
1151.782218	0.236225
1151.937155	0.234721
1152.092073	0.228217
1152.246974	0.236407
1152.401856	0.242180
1152.556720	0.234823
1152.711566	0.228384
1152.866393	0.225673
1153.021203	0.237644
1153.175994	0.239880
1153.330767	0.251278
1153.485521	0.253648
1153.640258	0.247074
1153.794976	0.242400
1153.949676	0.242971
1154.104358	0.250484
1154.259021	0.260098
1154.413667	0.246202
1154.568294	0.239476
1154.722903	0.237922
1154.877493	0.237801
1155.032066	0.236047
1155.186620	0.242501
1155.341156	0.236498
1155.495674	0.226516
1155.650173	0.218947
1155.804654	0.222418
1155.959118	0.231038
1156.113562	0.218344
1156.267989	0.218639
1156.422397	0.225706
1156.576788	0.228000
1156.731160	0.225947
1156.885513	0.236331
1157.039849	0.238692
1157.194166	0.232725
1157.348465	0.235157
1157.502746	0.240467
1157.657009	0.238777
1157.811253	0.234398
1157.965479	0.235884
1158.119687	0.226113
1158.273877	0.232395
1158.428048	0.234851
1158.582201	0.229937
1158.736337	0.227536
1158.890453	0.228353
1159.044552	0.231960
1159.198632	0.235188
1159.352694	0.235827
1159.506738	0.248913
1159.660764	0.255689
1159.814771	0.246951
1159.968761	0.258174
1160.122732	0.270799
1160.276685	0.273429
1160.430619	0.265392
1160.584535	0.272239
1160.738434	0.283592
1160.892313	0.285414
1161.046175	0.281745
1161.200019	0.294138
1161.353844	0.295868
1161.507651	0.269394
1161.661440	0.276344
1161.815210	0.285569
1161.968962	0.285256
1162.122697	0.278097
1162.276412	0.271804
1162.430110	0.264718
1162.583789	0.252459
1162.737451	0.251117
1162.891094	0.251565
1163.044718	0.250956
1163.198325	0.256457
1163.351913	0.239041
1163.505483	0.223851
1163.659035	0.226422
1163.812569	0.208074
1163.966084	0.212173
1164.119581	0.212648
1164.273060	0.217354
1164.426521	0.213012
1164.579964	0.194313
1164.733388	0.205744
1164.886794	0.213849
1165.040182	0.211000
1165.193551	0.221726
1165.346903	0.228692
1165.500236	0.222830
1165.653551	0.230832
1165.806848	0.252835
1165.960126	0.258728
1166.113386	0.265995
1166.266628	0.255154
1166.419852	0.241049
1166.573058	0.249190
1166.726245	0.229470
1166.879414	0.228742
1167.032565	0.232463
1167.185698	0.205789
1167.338812	0.199897
1167.491909	0.197205
1167.644987	0.204630
1167.798046	0.218735
1167.951088	0.200414
1168.104111	0.212839
1168.257117	0.232586
1168.410103	0.215190
1168.563072	0.219010
1168.716023	0.236452
1168.868955	0.228802
1169.021869	0.247039
1169.174765	0.272101
1169.327642	0.286414
1169.480501	0.282053
1169.633343	0.247765
1169.786165	0.267503
1169.938970	0.261849
1170.091757	0.267772
1170.244525	0.246955
1170.397275	0.215320
1170.550007	0.188576
1170.702720	0.190667
1170.855415	0.195363
1171.008092	0.212767
1171.160751	0.206070
1171.313392	0.215133
1171.466014	0.253530
1171.618619	0.240410
1171.771205	0.240410
1171.923772	0.240410
