sample name	sample
index	1435
start time	 05-10-2021  12:44:35 PM
880	0.428953
Peak Time (s)	92.035
Peak Height 	0.429
calc peak height	90,93
Baseline Time (s)	8.54
Baseline Value 	-0.004489
subtract baseline	10,4
Abs	0.293210
Peak Time (s)	92.538
Peak Height 	0.2932
calc peak height	90,93
Baseline Time (s)	9.037
Baseline Value 	0.003112
subtract baseline	10,3
PK_550	0.152556
Peak Time (s)	90.535
Peak Height 	0.1526
calc peak height	90,93
Baseline Time (s)	8.54
Baseline Value 	7.2128E-4
subtract baseline	10,2
PK_880	0.269090
Peak Time (s)	92.538
Peak Height 	0.2691
calc peak height	90,93
Baseline Time (s)	11.036
Baseline Value 	0.002249
subtract baseline	10,1


Time (s)	A880-A510	A880-A775	A880-A975	A880	I510	I775	I975	I880	
0.037500	-0.002928	-0.000111	-0.004167	0.007699	6407.614945	43430.329788	3918.316426	22347.004236
0.535000	-0.000495	-0.000579	-0.003302	0.003904	6458.989359	43741.683593	3930.215237	22518.037480
1.035000	-0.003083	-0.000570	-0.006313	0.005308	6425.981697	43610.947565	3918.940545	22454.612445
1.535500	-0.002764	-0.000847	-0.005288	0.001115	6463.319368	43979.308445	3932.279736	22644.705712
2.036000	-0.000023	-0.000533	-0.004452	0.000820	6488.661210	44036.848506	3935.193373	22658.135687
2.536000	0.000036	0.000099	-0.001994	0.001033	6487.367499	44076.479736	3940.996462	22648.431946
3.036500	-0.000139	-0.000115	-0.002023	0.003724	6463.448719	43802.271797	3933.968115	22526.178111
3.537000	-0.000402	-0.000155	0.000856	0.000873	6485.044511	44067.624179	3948.824596	22655.722439
4.039000	0.002461	-0.000319	0.001744	0.000427	6512.840323	44094.324939	3952.312106	22676.062026
4.537500	0.000787	-0.000329	0.000429	0.000452	6498.548039	44091.042182	3948.809878	22674.929671
5.034500	0.001854	0.000593	-0.000062	0.000878	6503.932819	44138.102493	3946.419609	22655.515154
5.535000	-0.000532	-0.000675	-0.006743	-0.000069	6491.841780	44107.612815	3931.582958	22698.707506
6.035000	0.000746	-0.000001	-0.000738	-0.000520	6506.368754	44214.302821	3948.301676	22719.321697
6.536000	-0.000186	-0.000439	-0.002682	0.000007	6494.115409	44122.827597	3941.875897	22695.270342
7.036000	-0.000553	0.000195	-0.004393	0.000067	6490.524353	44177.196762	3937.286947	22692.492038
7.536500	0.000446	0.000076	0.002612	-0.000074	6500.099069	44179.358685	3955.902692	22698.954468
8.036500	-0.000113	-0.000677	-0.003320	-0.000209	6496.531976	44120.607757	3940.779706	22705.099279
8.540000	-0.000942	0.000000	0.002042	0.000000	6487.835891	44165.079652	3954.213487	22695.568653
9.037500	0.001054	0.000586	0.000000	0.000515	6500.264142	44171.822559	3947.528417	22672.077245
9.534500	0.000292	-0.000736	-0.000349	-0.000885	6505.626689	44179.198266	3950.270760	22736.035431
10.035000	-0.003312	0.000029	0.000560	0.004434	6431.291327	43749.102897	3938.805218	22494.076968
10.535500	0.001808	-0.000061	-0.004977	0.000056	6510.468816	44153.979133	3935.809093	22693.019952
11.035500	0.000000	0.000106	-0.003072	-0.000259	6497.902221	44199.723895	3941.550711	22707.379693
11.535500	-0.000817	-0.000556	0.000650	-0.000741	6495.093795	44182.650634	3952.506398	22729.429422
12.036000	-0.003054	0.000184	-0.002323	0.004714	6431.109652	43737.246934	3930.650332	22481.395154
12.536500	0.000522	-0.000181	0.001113	-0.000266	6502.351007	44173.123185	3952.473795	22707.700741
13.039500	-0.001501	0.000019	0.000493	-0.000408	6486.563870	44205.582818	3951.225470	22714.200381
13.537000	0.001918	-0.000038	0.002595	-0.000078	6512.524455	44168.936760	3955.869486	22699.150022
14.037000	-0.003199	-0.000025	-0.005154	0.004276	6433.529727	43758.865729	3924.521989	22501.225295
14.535500	0.000178	0.000285	0.000756	0.002444	6476.763506	43960.690311	3944.473455	22584.264793
15.035000	-0.003325	0.000121	-0.006812	0.005348	6423.652731	43671.878435	3917.569228	22452.769737
15.535500	0.000045	0.000384	0.003251	0.000225	6494.216746	44180.127239	3956.795123	22685.272025
16.035500	-0.000166	-0.000178	-0.004747	0.005401	6449.300164	43638.822698	3922.688310	22450.382175
16.535500	0.001205	-0.000617	-0.003502	-0.000416	6509.363055	44146.055059	3940.845980	22714.589900
17.036500	-0.002854	-0.001063	-0.003209	0.003480	6442.958738	43736.167867	3931.544640	22537.265768
17.537000	0.001465	0.000289	0.003921	0.001831	6492.667988	44019.028188	3954.341058	22612.131907
18.037000	-0.000642	0.000242	-0.002761	0.003343	6462.439008	43871.745404	3933.049846	22543.459552
18.537500	-0.000001	0.000073	-0.001077	0.001250	6485.246196	44053.482805	3942.810914	22638.537347
19.034500	-0.000855	-0.000556	-0.003585	0.000659	6483.043469	44049.912827	3937.846463	22665.491994
19.535000	-0.002106	0.000232	-0.000623	0.001454	6465.966919	44049.190837	3943.462318	22629.254134
20.035500	-0.003402	-0.000784	-0.002897	0.002499	6446.529091	43854.550047	3934.873163	22581.728098
20.535500	-0.001278	-0.000662	-0.006750	0.000815	6478.200897	44025.123977	3929.294490	22658.367038
21.036000	-0.000021	-0.000236	-0.001009	0.001261	6484.990606	44023.276045	3942.961036	22638.069893
21.536000	0.000302	-0.000472	-0.001843	0.001155	6488.584676	44010.999761	3941.073029	22642.896090
22.036500	-0.001627	-0.000264	-0.005547	0.002368	6462.348986	43916.001050	3928.397635	22587.682075
22.537000	0.000721	-0.000334	0.002126	0.001272	6491.111671	44012.945527	3951.101048	22637.550343
23.037000	0.001303	0.000209	-0.002742	0.001513	6493.969950	44041.418174	3937.817458	22626.560654
23.537000	-0.000018	-0.000235	-0.000070	0.001193	6485.579357	44029.811163	3945.579250	22641.162814
24.035000	-0.003626	-0.001034	-0.002083	0.002687	6443.121192	43813.369936	3936.486558	22573.192777
24.535000	0.002272	0.000732	0.000477	0.002127	6496.949626	44032.858793	3944.573002	22598.653923
25.035500	0.000450	0.000473	0.003759	0.001752	6484.818418	44043.868125	3954.122048	22615.697666
25.535500	-0.000108	0.000200	-0.000386	0.001299	6483.938108	44060.901944	3944.482320	22636.328284
26.036500	0.002247	-0.000064	-0.001093	0.001125	6505.162101	44052.410111	3943.097248	22644.253358
26.536000	0.001211	0.000128	-0.001721	0.001544	6492.935683	44030.922622	3940.381432	22625.178358
27.036500	-0.000619	-0.000257	0.001996	0.001034	6481.884495	44042.747072	3951.384370	22648.399852
27.540000	0.001411	0.000407	0.002867	-0.000305	6510.170833	44232.747625	3957.182656	22709.523721
28.037000	-0.000197	-0.000304	0.002515	0.000143	6492.883952	44122.696566	3955.080820	22689.057939
28.537500	-0.000062	-0.000149	0.002337	-0.000167	6496.613401	44166.816218	3955.425750	22703.204711
29.035000	-0.003981	-0.000281	0.000522	0.005552	6416.587569	43615.137268	3935.818250	22443.586691
29.535500	0.001394	0.000366	0.000920	0.000603	6502.372945	44142.629076	3949.697799	22668.042169
30.035500	-0.000217	0.000473	-0.003683	0.000540	6489.384747	44158.725994	3937.902201	22670.933158
30.538000	0.002772	-0.000505	-0.004439	0.000325	6516.326484	44086.367795	3936.504512	22680.730208
31.036000	-0.000849	-0.000173	-0.001464	0.004129	6454.186363	43758.738745	3934.367439	22507.881087
31.536000	-0.000097	-0.000205	0.002484	-0.000023	6495.110643	44147.721861	3955.433565	22696.597198
32.036500	0.000696	0.000554	0.004364	0.000730	6495.447461	44148.337594	3958.395142	22662.253997
32.536500	0.001033	0.000165	0.001687	0.000018	6504.263608	44179.010069	3953.235711	22694.756055
33.037500	-0.000897	-0.000404	-0.001569	0.004634	6449.605113	43689.652976	3932.795444	22485.048867
33.534500	0.001839	0.000253	0.002824	-0.002092	6528.882802	44388.264263	3961.775961	22791.365737
34.035000	-0.000858	0.000428	-0.000751	0.004027	6454.961039	43824.855858	3936.469051	22512.495606
34.535000	0.000484	-0.000754	-0.002157	0.001456	6487.582475	43955.821062	3939.478862	22629.181638
35.038500	0.000210	-0.000766	-0.003039	0.001717	6483.103549	43929.991690	3936.522397	22617.281236
35.536000	-0.000502	0.000493	-0.000140	0.002261	6472.610331	43997.591712	3942.620306	22592.561063
36.036500	-0.002201	-0.000488	-0.001003	0.003454	6448.574799	43792.524546	3937.295433	22538.413735
36.536500	-0.000837	-0.000520	-0.003027	0.002037	6471.683428	43923.027095	3935.727792	22602.720703
37.037000	-0.000012	-0.000747	-0.003848	0.001721	6481.209872	43931.425819	3934.425674	22617.093320
37.536500	-0.001600	0.000534	-0.000902	0.002397	6462.342068	43988.671848	3940.294055	22586.393691
38.034500	0.000425	0.000281	-0.000555	0.002354	6479.573711	43968.819209	3941.302179	22588.342012
38.535000	-0.000185	0.000046	-0.003173	0.002396	6474.129542	43942.636605	3934.427326	22586.425967
39.035000	0.001751	0.000621	-0.003541	0.002857	6486.454826	43953.307519	3932.291304	22565.486208
39.538500	-0.000193	0.000139	-0.002662	0.002182	6475.850932	43971.578408	3936.297826	22596.153110
40.036000	-0.000260	-0.000220	-0.004227	0.003854	6461.357506	43780.124885	3927.973058	22520.296507
40.536000	0.000946	0.000730	0.001810	0.002583	6482.012265	43989.503208	3946.853878	22577.930568
41.036500	0.001080	0.001231	0.000319	0.002897	6480.511879	44007.279507	3942.161473	22563.688050
41.536500	-0.000867	-0.000652	0.001565	0.001415	6476.622495	43969.358147	3949.260449	22631.028653
42.036500	-0.000038	-0.000188	0.001690	0.003431	6466.726821	43823.019919	3944.336708	22539.470799
42.537500	0.000200	0.000248	0.003092	0.002035	6480.362912	43995.811438	3951.632610	22602.827942
43.035000	0.000449	0.000381	0.005157	0.002561	6478.044124	43958.664180	3955.666708	22578.923169
43.535000	-0.000066	0.000307	0.001520	0.001674	6481.151916	44035.453818	3948.468546	22619.238189
44.035000	0.000209	0.001030	-0.000964	0.004028	6463.821753	43881.465902	3935.916679	22512.445129
44.536000	0.003074	0.001310	0.000089	0.001471	6509.215521	44149.817519	3945.270607	22628.496702
45.036000	0.001923	0.000360	0.002976	0.001173	6502.029210	44087.945901	3953.585908	22642.052025
45.536000	0.003791	-0.000321	0.002978	0.000655	6522.145960	44072.524117	3954.949031	22665.661320
46.036000	-0.000441	0.000088	0.004105	0.004451	6454.898685	43752.958796	3947.968693	22493.301007
46.537000	0.000298	-0.000678	0.000078	-0.000132	6499.341538	44113.252284	3949.419504	22701.584808
47.034500	-0.003500	-0.000061	-0.002274	0.005153	6423.824030	43673.121894	3929.650247	22461.593859
47.537500	0.000928	0.000424	-0.003723	0.002982	6478.537121	43922.997872	3931.504222	22559.844831
48.035000	-0.001536	-0.000181	-0.001374	0.004325	6446.868330	43739.604196	3934.093809	22499.011001
48.535500	0.001344	0.000110	0.001438	0.000376	6503.859941	44139.808315	3951.646432	22678.388915
49.035500	-0.000072	0.000016	0.004576	0.000081	6494.451189	44158.979871	3960.666843	22691.887475
49.536500	0.004480	0.001397	-0.001869	-0.001488	6546.168004	44439.829734	3947.876737	22763.647762
50.036000	-0.002212	0.000682	0.002097	0.004808	6437.275481	43775.192391	3941.814805	22477.144070
50.536500	0.002778	0.000569	0.001401	0.000566	6514.348071	44165.396591	3951.053108	22669.747049
51.036500	-0.011330	-0.015480	0.009607	0.009797	6322.643524	41834.167900	3948.374938	22253.079036
51.536500	0.004562	-0.021447	0.030647	0.238600	4977.062635	25592.449163	3517.543546	14310.344517
52.037500	-0.018770	-0.031903	-0.036376	-0.110529	7353.339062	52346.885885	4159.932650	28444.783393
52.535000	-0.012393	-0.125344	-0.038802	-0.306722	10029.448505	65535.000000	4916.053903	43056.221335
53.034500	-0.012226	-0.073827	-0.022350	-0.245623	9089.681022	64168.949708	4710.814850	37780.725740
53.535500	-0.000284	-0.046498	-0.007101	-0.202989	8663.959419	62048.786338	4594.977007	34515.322798
54.038000	0.004973	-0.023477	0.006441	-0.120008	7711.313969	54426.358239	4332.003832	29009.382997
54.536000	0.005641	-0.023910	0.000365	-0.138720	7933.149223	56639.626520	4376.782769	30160.769564
55.035500	0.007155	-0.021601	0.008978	-0.141645	7985.366891	57290.785153	4418.825903	30345.283473
55.539000	0.023730	-0.012629	0.023678	-0.112348	7837.121673	54805.631093	4365.821969	28552.152521
56.037000	0.037781	-0.001965	0.045263	-0.040189	7212.620431	47957.915951	4195.377867	24618.917045
56.537000	0.056731	0.010601	0.064959	0.022012	6799.115117	43096.014336	4066.701530	21715.166723
57.037000	0.069061	0.020693	0.078557	0.089443	6328.605939	38129.395692	3920.808945	19003.341602
57.534500	0.081889	0.028874	0.099672	0.127077	6135.498982	35822.049343	3879.547556	17663.190762
58.035500	0.103176	0.039769	0.121200	0.178375	5916.160338	32900.968476	3809.037822	16013.812816
58.535500	0.122319	0.052665	0.146026	0.212636	5811.275779	31462.722310	3787.682883	15015.869972
59.035000	0.145144	0.064941	0.162694	0.249445	5717.453477	29896.141488	3743.613344	14027.893620
59.535000	0.165284	0.078345	0.184229	0.265496	5744.579310	29732.355381	3755.412160	13622.630165
60.036500	0.176325	0.085711	0.192813	0.280616	5717.520277	29258.228983	3741.366654	13254.304490
60.536500	0.189106	0.093679	0.207785	0.313113	5590.264807	27812.969955	3704.740572	12504.797006
61.037000	0.196185	0.100584	0.218989	0.340126	5467.349375	26687.611791	3672.943865	11923.071204
61.539500	0.202880	0.104834	0.225377	0.338305	5519.175432	27021.924587	3689.311044	11961.165642
62.037000	0.203977	0.107386	0.224329	0.350706	5450.600354	26481.922869	3662.658741	11704.907508
62.534500	0.207693	0.111541	0.236279	0.359474	5420.527949	26233.175232	3668.889110	11528.092890
63.035000	0.215214	0.117321	0.242027	0.359552	5464.964034	26541.072640	3680.108064	11526.551226
63.535500	0.219629	0.121353	0.247328	0.358080	5500.646521	26842.053575	3693.702621	11555.980367
64.036000	0.221269	0.123961	0.243284	0.357494	5514.262404	27018.489339	3686.736105	11567.724929
64.536000	0.225921	0.126342	0.244349	0.358534	5536.512759	27092.958484	3686.785543	11546.892348
65.036500	0.229019	0.129149	0.241321	0.362246	5532.711075	27042.670824	3673.362659	11472.934973
65.539500	0.232139	0.130399	0.252491	0.363318	5545.393730	27052.559579	3693.549418	11451.701600
66.040000	0.232273	0.132331	0.251771	0.372249	5491.352841	26667.068840	3674.247343	11276.793488
66.537500	0.238024	0.135172	0.257233	0.370838	5535.260551	26900.483297	3687.947541	11304.176033
67.037500	0.237700	0.135022	0.257450	0.374884	5508.385416	26670.132875	3680.290030	11225.875198
67.535500	0.244129	0.137181	0.260804	0.377516	5531.723598	26644.303375	3681.727466	11175.307918
68.035500	0.246776	0.139320	0.264237	0.381866	5521.231911	26523.882154	3679.899192	11092.412145
68.535500	0.246800	0.141543	0.268855	0.384720	5503.883763	26489.697894	3683.419597	11038.492679
69.035500	0.249874	0.142939	0.265043	0.388439	5499.944822	26364.042108	3668.495792	10968.737689
69.536500	0.249687	0.143496	0.265304	0.390639	5485.420862	26275.611309	3664.693340	10927.755179
70.036500	0.253108	0.144785	0.268617	0.399599	5452.029099	25867.030896	3653.720749	10762.983006
70.536500	0.255152	0.145541	0.272200	0.395033	5491.931957	26149.748229	3669.601450	10846.523616
71.037000	0.253881	0.146115	0.275173	0.397059	5471.953304	26072.243943	3671.465477	10809.341012
71.537500	0.253850	0.148206	0.277611	0.400210	5452.819634	26015.885725	3670.063209	10751.875583
72.035000	0.254681	0.146292	0.278901	0.407138	5416.538958	25550.831390	3659.038323	10626.955550
72.535000	0.255537	0.149458	0.274355	0.404858	5435.133582	25836.136534	3654.645783	10667.837076
73.035000	0.256577	0.149879	0.274834	0.405570	5437.088872	25820.810020	3654.196865	10655.048900
73.535500	0.259215	0.150217	0.277522	0.406534	5447.069330	25787.789769	3657.531998	10637.750343
74.035500	0.255977	0.150520	0.279263	0.407430	5422.474593	25756.629188	3659.174020	10621.723444
74.536500	0.259143	0.152180	0.277865	0.409087	5431.424391	25756.771718	3653.257406	10592.154398
75.036500	0.259390	0.151917	0.280820	0.409385	5431.126507	25727.381138	3658.400450	10586.864390
75.536500	0.260331	0.152114	0.276105	0.408577	5441.539832	25780.192705	3650.850301	10601.256164
76.037500	0.260321	0.153659	0.280188	0.409009	5438.903546	25838.777043	3657.903454	10593.545776
76.535000	0.264792	0.153547	0.278201	0.408363	5469.585058	25866.953259	3655.306567	10605.068404
77.035000	0.263266	0.152694	0.282309	0.407646	5464.711952	25859.780307	3664.690706	10617.873757
77.535500	0.263742	0.154280	0.278151	0.407539	5468.219556	25949.265856	3656.802685	10619.772174
78.036000	0.264660	0.154989	0.279696	0.408256	5469.434263	25948.855367	3658.411122	10606.975933
78.535500	0.263209	0.153176	0.278173	0.406467	5471.466285	25947.562048	3658.926003	10638.956577
79.036500	0.263065	0.154778	0.286450	0.407757	5462.833047	25964.131691	3672.609677	10615.887018
79.536500	0.267084	0.155141	0.284114	0.408138	5484.804294	25963.178950	3667.262718	10609.076075
80.037000	0.265138	0.155061	0.283996	0.408069	5473.445538	25962.585501	3667.166321	10610.311906
80.536500	0.267564	0.156479	0.287572	0.409891	5477.089016	25941.137947	3670.613774	10577.848502
81.037500	0.265137	0.155575	0.282841	0.410535	5458.582290	25859.311462	3660.092375	10566.411247
81.535000	0.265602	0.156240	0.281277	0.410081	5464.109712	25918.467313	3657.936212	10574.478840
82.035000	0.263516	0.155962	0.282848	0.417005	5410.448378	25540.546428	3647.614646	10452.440379
82.535500	0.268398	0.155506	0.281552	0.410625	5477.701236	25850.944270	3657.415237	10564.818687
83.035500	0.263367	0.155894	0.287101	0.410975	5445.348335	25852.941635	3667.557091	10558.614859
83.539000	0.262634	0.154664	0.283859	0.410509	5443.757284	25812.720838	3662.126732	10566.887965
84.036500	0.263504	0.156308	0.276993	0.418399	5402.173006	25486.117112	3633.836160	10428.106356
84.536500	0.266308	0.155567	0.283607	0.413051	5450.525599	25726.561003	3656.695168	10521.897723
85.037000	0.263144	0.153939	0.285160	0.413442	5429.322950	25620.837801	3658.950430	10514.997046
85.537000	0.264618	0.154138	0.288091	0.413386	5438.423493	25634.120916	3664.771249	10515.975236
86.037500	0.262917	0.154674	0.284256	0.420979	5383.626407	25268.376119	3642.709170	10383.257884
86.535000	0.267123	0.154719	0.287392	0.416396	5435.415852	25507.556573	3657.548902	10463.089492
87.035500	0.261978	0.154015	0.284055	0.416453	5404.635375	25468.070913	3650.991557	10462.092559
87.535000	0.264267	0.153911	0.285101	0.417001	5414.897214	25434.270829	3651.950623	10452.509385
88.038500	0.264877	0.152744	0.282939	0.417413	5416.066811	25352.620658	3647.006673	10445.306220
88.536000	0.262757	0.151740	0.278159	0.417870	5400.886756	25277.366406	3637.035615	10437.323932
89.036500	0.267040	0.152982	0.283799	0.419843	5414.490088	25239.791063	3644.004454	10402.971253
89.537000	0.262679	0.152236	0.287959	0.420137	5387.155406	25186.437262	3651.413949	10397.864825
90.037000	0.267395	0.151494	0.290043	0.420372	5413.466246	25136.506788	3654.982071	10393.791278
90.534500	0.265020	0.152556	0.292063	0.422603	5386.421196	25076.823901	3654.574173	10355.174250
91.035000	0.267063	0.150549	0.290003	0.423359	5393.953070	24936.430931	3649.149150	10342.136162
91.535000	0.266467	0.151413	0.289406	0.424605	5383.186227	24917.095001	3645.619278	10320.694237
92.035500	0.261696	0.148856	0.283140	0.428953	5330.558370	24570.439654	3625.571726	10246.358630
92.538500	0.269090	0.150906	0.293210	0.426746	5385.995345	24783.452848	3648.804823	10283.994819
93.036000	0.268396	0.151081	0.287212	0.428011	5374.590639	24728.742244	3634.980875	10262.411849
93.539500	0.265902	0.150077	0.284118	0.428457	5357.554209	24656.082451	3628.325034	10254.795915
94.067500	0.268406	0.150212	0.291358	0.430548	5359.940390	24558.519512	3638.022772	10219.272318
94.537000	0.267662	0.149805	0.288102	0.430768	5354.379123	24527.308759	3631.464601	10215.545841
95.034500	0.269406	0.150322	0.288077	0.433236	5350.205097	24430.571047	3626.791424	10173.852856
95.537500	0.268712	0.147207	0.287686	0.431392	5356.839763	24367.804952	3629.513180	10204.994460
96.035000	0.266187	0.149103	0.293418	0.434179	5326.365569	24323.873606	3635.052553	10157.996636
