sample name	sample
index	1188
start time	 04-26-2021  12:05:48 PM
880	0.519543
Peak Time (s)	91.037
Peak Height 	0.5195
calc peak height	90,93
Baseline Time (s)	8.536
Baseline Value 	-0.005656
subtract baseline	10,4
Abs	0.335047
Peak Time (s)	92.035
Peak Height 	0.335
calc peak height	90,93
Baseline Time (s)	9.037
Baseline Value 	0.004468
subtract baseline	10,3
PK_550	0.158239
Peak Time (s)	90.036
Peak Height 	0.1582
calc peak height	90,93
Baseline Time (s)	9.037
Baseline Value 	7.8515E-4
subtract baseline	10,2
PK_880	0.326102
Peak Time (s)	92.035
Peak Height 	0.3261
calc peak height	90,93
Baseline Time (s)	10.537
Baseline Value 	0.001742
subtract baseline	10,1


Time (s)	A880-A510	A880-A775	A880-A975	A880	I510	I775	I975	I880	
0.037000	-0.002065	-0.000278	-0.001868	0.003705	6139.220378	43648.210015	3861.312132	22546.710724
0.537000	-0.001234	-0.000918	-0.006531	0.004963	6136.048009	43470.727539	3848.076103	22489.923311
1.121500	-0.000496	0.000136	-0.003523	0.004082	6148.099719	43651.745880	3856.750759	22529.683074
1.535000	-0.003706	-0.000292	0.000899	0.006643	6105.354145	43372.432942	3860.929780	22414.295501
2.500500	-0.002183	-0.000969	0.000607	0.000013	6165.909687	43930.618648	3875.296788	22714.435643
3.054500	-0.000186	0.000373	-0.002893	0.000707	6175.687422	43991.731837	3865.764560	22682.786701
3.163500	0.001531	-0.000077	0.001627	0.000574	6189.635329	43961.803747	3876.343609	22688.865966
3.538000	-0.003063	-0.001036	-0.006511	0.006260	6112.905980	43338.785386	3845.244283	22431.483992
4.036500	-0.000507	-0.000488	0.002612	-0.001115	6186.991532	44082.715108	3882.473897	22765.934218
4.536500	0.000792	0.000049	0.003079	0.000259	6186.434254	44003.561433	3880.392270	22703.224203
5.037000	0.000730	-0.000221	-0.000804	0.000226	6186.211472	43981.092289	3871.592970	22704.690483
5.540000	-0.003242	-0.000745	-0.002245	0.002504	6139.403337	43717.081787	3863.170531	22601.126699
6.035000	0.001143	0.000143	-0.004684	0.000259	6189.080077	44012.422226	3862.732819	22703.204017
6.535500	-0.000595	-0.000522	-0.003959	-0.000022	6178.101222	43976.077727	3865.004589	22716.030579
7.035000	-0.000489	-0.000380	0.002063	0.000083	6178.098653	43979.528411	3878.463915	22711.211692
7.535500	-0.001220	-0.000153	0.002093	-0.000280	6175.336869	44035.336667	3879.365813	22727.778174
8.036000	-0.000293	-0.000354	-0.002874	0.000058	6179.769746	43984.404654	3867.277736	22712.385107
8.536000	0.000308	-0.000104	0.005002	0.000000	6184.736679	44013.566387	3885.411806	22715.019479
9.036500	0.001228	0.000000	0.000000	-0.000316	6194.069392	44053.275895	3874.660791	22729.441123
9.537000	-0.001034	-0.000320	0.004890	-0.000254	6176.534530	44017.124006	3885.737129	22726.591614
10.037000	0.001838	0.000244	0.003612	0.000025	6196.104032	44044.091295	3882.153308	22713.871932
10.537000	0.000000	0.000015	-0.000593	0.000141	6181.351212	44011.420559	3872.269161	22708.597865
11.035000	-0.000114	0.000274	-0.005370	0.000305	6179.253823	44020.457428	3861.084101	22701.113986
11.535000	-0.000492	-0.001178	-0.002300	-0.000670	6183.750091	43975.249205	3870.229175	22745.586779
12.035500	0.001506	0.000230	0.003492	-0.000358	6196.483242	44078.987310	3882.756168	22731.351004
12.535500	-0.001696	0.000321	-0.006002	0.003506	6143.443515	43723.078460	3852.494723	22555.718608
13.036000	0.002058	0.000204	-0.002631	-0.000463	6201.464503	44086.510215	3869.008787	22736.137073
13.536500	0.000165	0.000352	-0.002425	-0.000223	6185.336843	44077.828775	3868.932307	22725.199457
14.037000	0.000234	-0.000225	-0.001016	-0.000653	6189.103842	44063.894422	3873.111104	22744.821740
14.540000	-0.003534	-0.000572	-0.001146	0.003147	6132.452012	43672.971838	3864.197677	22571.962599
15.037000	0.000245	-0.000309	-0.004330	0.001933	6169.714829	43811.788076	3859.762377	22627.041733
15.537500	0.000924	-0.000227	-0.003315	0.000973	6182.045845	43909.992108	3864.210449	22670.691915
16.035500	0.000155	-0.000017	0.001475	-0.000512	6187.445003	44070.292521	3878.482403	22738.407826
16.535500	0.000430	0.000945	-0.001713	0.003967	6155.868160	43738.454395	3861.073963	22534.892436
17.036000	0.000873	-0.000667	-0.003101	-0.000672	6194.076358	44023.885773	3868.417115	22745.720010
17.536000	0.000229	0.000474	0.005529	-0.000429	6187.378005	44108.927961	3887.619954	22734.608225
18.036000	0.001020	-0.000164	0.006057	-0.003086	6213.499957	44300.814349	3895.009084	22856.302741
18.536500	-0.000151	0.000251	-0.000423	0.002498	6162.510583	43811.355156	3867.301250	22601.398117
19.037000	0.000728	-0.000869	-0.001926	0.000742	6182.307907	43871.271468	3867.874745	22681.205093
19.537500	-0.001794	-0.000643	-0.002186	0.000862	6162.460878	43881.236286	3867.014245	22675.743713
20.037500	0.000621	-0.000497	-0.005984	0.000942	6179.994110	43887.412460	3858.271440	22672.088136
20.535000	-0.002580	-0.000271	-0.001674	0.002135	6147.081954	43796.381324	3865.294607	22617.878454
21.035000	0.000811	0.000942	-0.000476	0.002132	6172.472562	43910.921375	3868.011026	22617.998472
21.535500	-0.000563	-0.000358	0.004197	0.001078	6170.070224	43887.704075	3881.077860	22665.907320
22.036000	-0.001268	0.000176	0.000949	0.001148	6164.256431	43931.542842	3873.486847	22662.731044
22.535500	0.001279	0.000503	-0.000618	0.003503	6165.699849	43740.470694	3864.588136	22555.869551
23.036000	-0.002041	0.000096	0.001062	0.001425	6156.396386	43897.778684	3873.112825	22650.106206
23.536500	-0.001855	-0.000142	0.000783	0.001340	6158.423368	43883.384312	3872.671051	22653.994517
24.034500	-0.001978	-0.000222	-0.001015	0.001492	6156.366049	43861.516546	3868.239951	22647.063610
24.539500	-0.000572	0.000550	0.002868	0.003453	6152.224139	43749.569013	3872.606586	22558.126983
25.034500	0.000951	0.000263	0.000639	0.001996	6174.544950	43859.713567	3870.849611	22624.157420
25.534000	-0.001469	0.000154	-0.005328	0.001595	6159.404768	43887.224372	3858.279032	22642.386553
26.035500	-0.001194	0.000086	-0.005346	0.001469	6162.407715	43892.694816	3858.520954	22648.105903
26.535000	-0.000977	-0.000624	-0.001700	0.002997	6152.607746	43682.246966	3863.287671	22578.789610
27.035500	-0.000546	0.000540	-0.002537	0.001876	6164.219078	43897.176830	3863.930054	22629.642324
27.536500	0.002489	-0.000151	-0.001219	0.001482	6190.008363	43869.105004	3867.800811	22647.528329
28.036500	0.001140	-0.000022	0.002009	-0.001386	6201.500225	44152.603946	3881.709950	22778.327650
28.537000	-0.001705	-0.000201	-0.000132	0.004252	6137.825132	43604.095526	3863.993762	22521.975305
29.040000	0.000291	0.000272	0.003335	0.000052	6184.210232	44044.202972	3881.452621	22712.636912
29.534500	-0.001689	-0.000363	-0.004525	-0.000617	6174.337978	44047.402671	3865.067712	22743.170523
30.035000	0.002543	0.000287	-0.001293	0.000211	6200.029039	44030.565160	3870.515870	22705.397437
30.535000	-0.000544	0.000547	0.002324	0.000360	6175.606096	44041.065382	3878.429815	22698.614678
31.035500	0.000560	0.000255	0.000076	0.000078	6186.045706	44040.066370	3873.935833	22711.452819
31.536000	-0.001734	-0.000095	-0.004351	0.003077	6146.365037	43724.336001	3857.147984	22575.166998
32.036500	0.000868	0.000103	-0.001369	0.000492	6185.248946	43986.618214	3869.705566	22692.606161
32.541500	0.001006	-0.000193	0.001995	-0.000448	6193.388395	44047.585339	3879.526074	22735.489165
33.037000	0.004380	0.000675	-0.002424	-0.000071	6216.123595	44094.017630	3868.588117	22718.247219
33.537500	0.001660	0.000360	-0.001424	0.000300	6192.675332	44029.102705	3870.016619	22701.356405
34.037500	0.001140	-0.000286	0.001466	-0.000616	6195.669534	44054.596479	3878.698779	22743.120710
34.535000	-0.001467	0.000153	0.001005	0.003217	6147.309233	43734.469112	3868.908861	22568.821760
35.034500	-0.000714	-0.000715	-0.007025	0.001352	6166.879624	43828.158134	3855.020087	22653.415798
35.535500	-0.000424	-0.000363	0.000220	0.001914	6164.844540	43808.489481	3870.084303	22627.901464
36.035500	-0.001188	-0.000134	0.000933	0.001799	6159.978252	43840.836173	3871.967284	22633.121479
36.583000	-0.000751	-0.000203	0.002024	0.002777	6155.933972	43742.372367	3872.224388	22588.726865
37.035500	0.002003	0.000201	0.000158	0.002425	6179.234652	43813.485165	3868.785645	22604.714147
37.536000	-0.001518	-0.000542	0.000602	0.001660	6158.553954	43815.545610	3871.532188	22639.453152
38.036000	0.000307	0.000293	0.002226	0.003033	6161.931120	43764.934566	3872.100191	22577.134452
38.534000	-0.001822	0.000029	0.002114	0.003655	6141.403737	43681.748567	3870.433227	22548.996071
39.037000	-0.000579	0.000615	-0.001373	0.002395	6160.078254	43855.219907	3865.385444	22606.045608
39.534500	-0.000073	0.000004	-0.000671	0.002112	6165.989086	43824.370479	3867.613198	22618.887385
40.034500	-0.001142	-0.000468	-0.001902	0.001744	6160.740970	43814.613359	3865.661931	22635.636399
40.535500	-0.000683	-0.000374	-0.003329	0.002963	6155.058751	43708.863734	3859.697756	22580.321284
41.036000	-0.000171	-0.000092	-0.000847	0.002124	6165.165843	43814.210926	3867.187570	22618.350658
41.536000	-0.001139	0.000025	-0.000772	0.002238	6157.059843	43814.455539	3867.100951	22613.178324
42.036500	-0.000543	0.000315	0.001562	0.002229	6161.588522	43842.647447	3872.419817	22613.582942
42.536500	-0.001716	0.000397	-0.000242	0.003827	6140.913655	43700.127124	3864.704742	22541.206810
43.036000	-0.000785	-0.000282	0.001495	0.001747	6163.392178	43831.854163	3873.366625	22635.487649
43.537000	-0.000332	0.000194	0.003473	0.002354	6162.236317	43819.463674	3876.495831	22607.928170
44.037000	-0.001040	0.000259	-0.000410	0.002295	6157.375266	43831.113148	3867.790586	22610.589434
44.536500	0.000051	0.000387	-0.001363	0.004285	6150.665796	43656.189296	3861.146088	22520.519550
45.035000	0.003701	0.000074	0.003979	-0.001127	6218.993140	44137.227627	3885.651628	22766.509508
45.535000	0.000354	0.000672	0.001699	0.000321	6182.659300	44056.528036	3877.085161	22700.362274
46.036500	0.000843	0.001016	0.000650	-0.000158	6189.964093	44134.636629	3875.784471	22722.246558
46.536500	-0.001848	-0.000455	-0.000795	0.002915	6146.716875	43705.738614	3865.515804	22582.480114
47.036500	-0.000541	0.000397	-0.002671	-0.000251	6180.227762	44084.772258	3868.437927	22726.474422
47.537000	0.002097	0.000389	0.006572	0.000312	6195.885597	44030.657300	3888.316956	22700.780603
48.039500	-0.000898	-0.000008	-0.004333	0.001456	6164.721018	43885.032731	3860.827599	22648.689830
48.534500	-0.002850	-0.000578	-0.002979	0.003680	6133.576055	43622.516819	3858.872803	22547.871238
49.035000	-0.001305	-0.000243	-0.000158	-0.000516	6176.473757	44049.194829	3874.757102	22738.588792
49.535000	-0.000868	0.000188	0.003114	0.000203	6174.345834	44021.857316	3880.599042	22705.740535
50.035000	0.002118	-0.000307	-0.005634	-0.000288	6200.593383	44021.517690	3861.825068	22728.150814
50.535500	-0.001123	-0.000927	-0.002073	0.002110	6158.136700	43736.983205	3864.448016	22618.980274
51.036000	0.000977	-0.000179	-0.000099	0.000777	6183.914324	43932.974536	3871.943391	22679.597615
51.536000	0.011439	-0.010912	0.003486	0.036512	5998.827101	39772.457105	3801.424928	21117.454090
52.036500	0.010984	-0.018096	-0.020190	0.236703	4855.992412	25784.965017	3431.772204	14390.476543
52.537000	0.011588	-0.041104	-0.027187	-0.121593	7356.844344	52390.513988	4114.390885	29116.317162
53.037000	0.013133	-0.081637	-0.004403	-0.254299	8967.669073	64084.837885	4644.223038	38484.835958
53.535000	0.025262	-0.067158	0.012197	-0.230669	8809.343888	62809.637343	4615.954103	36600.518684
54.034500	0.021205	-0.049548	0.016185	-0.189227	8222.569112	59612.456440	4472.823468	33533.656696
54.535000	0.030046	-0.034209	0.017137	-0.136660	7713.716751	54956.035372	4294.745058	30041.674914
55.035500	0.025182	-0.026499	0.017588	-0.109694	7374.231771	52699.689738	4211.171862	28407.860201
55.536000	0.030301	-0.019172	0.025038	-0.102220	7350.088332	52682.835051	4211.098910	27972.701565
56.036000	0.044781	-0.012033	0.043583	-0.080290	7274.572108	51017.001929	4200.794919	26738.226170
56.536500	0.053851	-0.006553	0.051056	-0.026409	6846.679547	45945.725654	4067.306956	23957.146422
57.037000	0.072767	0.003784	0.070968	0.009002	6699.962878	43532.668023	4025.811752	22308.599152
57.539500	0.093883	0.015673	0.092466	0.073129	6342.593225	38931.225573	3919.026872	19644.696322
58.036500	0.121131	0.031788	0.121912	0.157034	5922.755032	33728.477161	3797.008185	16703.482111
58.534500	0.142489	0.045489	0.137462	0.193532	5819.534105	32153.502065	3754.000425	15591.082837
59.035500	0.159728	0.056120	0.164448	0.255797	5532.987367	28877.763737	3686.095977	13896.361773
59.535500	0.182711	0.070475	0.182077	0.289086	5471.468607	27770.839648	3657.676026	13085.186627
60.035500	0.206044	0.088081	0.203000	0.329445	5372.995882	26503.023911	3623.801978	12181.605987
60.535500	0.222917	0.097557	0.226704	0.366022	5263.741047	25076.997303	3602.184754	11432.136859
61.036000	0.239983	0.105988	0.245788	0.404718	5149.379503	23586.235452	3570.459501	10705.045099
61.536500	0.254438	0.116433	0.259211	0.436143	5063.561073	22612.156689	3542.574571	10160.445077
62.039500	0.265860	0.123639	0.267267	0.469462	4957.667644	21463.628120	3505.339466	9624.473235
62.540000	0.270379	0.126198	0.279680	0.484171	4910.179600	20952.353512	3502.061207	9400.638620
63.034500	0.277764	0.132542	0.282124	0.467714	5023.060817	21923.729655	3529.568294	9651.574196
63.535000	0.280348	0.136865	0.277742	0.467129	5038.534358	22139.595763	3523.945072	9660.670638
64.035000	0.287326	0.140055	0.284956	0.464565	5085.823287	22395.813955	3538.525308	9700.691800
64.535500	0.291030	0.142997	0.292763	0.462857	5113.104361	22605.327173	3553.029268	9727.470117
65.044000	0.292847	0.145471	0.298504	0.465799	5107.405541	22584.132361	3557.357653	9681.395376
65.536000	0.293051	0.146213	0.291437	0.461955	5127.982778	22792.772324	3552.375988	9741.659929
66.035500	0.294487	0.148864	0.296244	0.461919	5135.516875	22916.050981	3559.876699	9742.233988
66.536500	0.292155	0.150864	0.296903	0.468224	5091.689058	22718.895292	3551.142088	9643.657095
67.037000	0.299502	0.151895	0.304518	0.464316	5148.972378	22945.219763	3569.087425	9704.580684
67.537000	0.299032	0.151747	0.301840	0.464219	5147.049993	22942.899818	3565.027713	9706.112029
68.034500	0.301367	0.154865	0.308456	0.467394	5142.729422	22940.242738	3570.447331	9656.552870
68.535000	0.299855	0.153925	0.310250	0.473048	5106.189599	22638.755623	3564.370302	9569.202006
69.035500	0.305669	0.155449	0.311619	0.468761	5157.870642	22904.214061	3573.294557	9635.333214
69.536000	0.305284	0.157357	0.315281	0.470707	5145.834447	22902.465831	3576.024128	9605.233032
70.035500	0.308433	0.158504	0.307413	0.469752	5167.063480	22999.370115	3565.090302	9619.982407
70.536000	0.309374	0.159969	0.310331	0.476327	5137.972228	22764.645016	3559.377293	9519.060998
71.037000	0.308474	0.159582	0.319251	0.468924	5171.585984	23087.629618	3585.256337	9632.805899
71.536500	0.311198	0.160891	0.316531	0.471793	5170.828552	23015.350705	3576.285054	9588.489914
72.037500	0.309399	0.159259	0.317791	0.471916	5160.846019	22934.384145	3578.101605	9586.602296
72.534500	0.308752	0.159876	0.321912	0.477934	5126.565348	22687.141920	3575.073996	9494.618353
73.035000	0.312852	0.160498	0.318961	0.473794	5169.020746	22904.948539	3576.969439	9557.751424
73.534500	0.313125	0.160953	0.317131	0.475334	5162.442703	22855.107586	3571.611205	9534.206835
74.035500	0.315258	0.161581	0.319470	0.477702	5161.223203	22775.428559	3571.565227	9498.143953
74.535500	0.308427	0.161792	0.311834	0.485148	5088.417823	22447.574287	3548.085629	9386.031527
75.036000	0.313188	0.160091	0.316346	0.484935	5113.510746	22380.861729	3555.354469	9389.213876
75.536000	0.310846	0.161160	0.315480	0.482951	5111.700618	22518.056099	3557.085520	9418.915489
76.036500	0.312891	0.161650	0.314693	0.484202	5115.724244	22483.768804	3553.932664	9400.170655
76.537000	0.315533	0.162007	0.325397	0.486246	5118.765434	22407.940714	3567.431203	9369.659904
77.036500	0.313448	0.161856	0.318601	0.493637	5071.092157	22072.634198	3545.456276	9260.540352
77.534500	0.315354	0.160868	0.315778	0.489780	5099.958897	22199.517055	3547.033764	9317.252413
78.035000	0.316592	0.162250	0.327384	0.491869	5095.674344	22168.179665	3561.731500	9286.478216
78.535500	0.314054	0.161167	0.315956	0.497791	5053.506009	21860.338673	3535.176644	9200.013226
79.035000	0.313941	0.162386	0.326943	0.498620	5048.861071	21877.349054	3550.594518	9188.002813
79.536000	0.318917	0.160762	0.324206	0.493302	5100.167499	22039.212797	3554.570537	9265.441360
80.036000	0.318600	0.162537	0.323605	0.494883	5090.619118	22047.736436	3551.207982	9242.329901
80.536500	0.312566	0.161220	0.320260	0.500399	5033.386393	21749.312386	3537.726192	9162.319221
81.039500	0.318104	0.162571	0.327657	0.500931	5058.006773	21784.848213	3548.147150	9154.659608
81.537000	0.319912	0.162437	0.326429	0.496019	5091.501355	21993.426982	3553.807485	9225.762425
82.034500	0.320939	0.161871	0.328030	0.496672	5093.383867	21940.004076	3555.272876	9216.268796
82.534500	0.321334	0.162602	0.322750	0.498252	5087.432718	21902.867164	3544.747327	9193.338004
83.035500	0.318920	0.164817	0.328886	0.506035	5036.897308	21661.151450	3542.244359	9081.604894
83.535500	0.321520	0.164124	0.328848	0.500484	5077.195929	21871.892930	3550.658312	9161.096596
84.035500	0.319965	0.161946	0.328412	0.499604	5073.827853	21815.336756	3551.339082	9173.779549
84.535500	0.316657	0.163216	0.321033	0.507736	5017.570896	21519.288847	3527.914774	9057.458093
85.036000	0.316356	0.162425	0.323803	0.507305	5018.201941	21503.903263	3532.681491	9063.568672
85.537000	0.319422	0.161501	0.320206	0.501330	5062.550819	21721.148732	3536.243450	9148.906691
86.037000	0.320568	0.160575	0.329624	0.502169	5064.076651	21644.953055	3549.262344	9136.853744
86.536500	0.315161	0.160143	0.326375	0.509197	5003.272732	21326.265603	3533.698411	9036.792310
87.035000	0.315797	0.159907	0.322995	0.510748	4998.864856	21250.705234	3526.358787	9014.922493
87.535000	0.319110	0.160094	0.334210	0.506279	5036.632281	21448.165374	3549.993689	9078.137951
88.035500	0.319346	0.158829	0.323294	0.506001	5039.155867	21406.159122	3533.870687	9082.102218
88.536000	0.319323	0.159175	0.325521	0.507079	5033.765306	21375.033074	3535.592649	9066.781732
89.035500	0.321435	0.158976	0.325201	0.508842	5035.468515	21291.883331	3532.474203	9041.809096
89.536500	0.325925	0.159446	0.329149	0.510768	5048.056355	21230.445200	3535.501209	9014.637747
90.036000	0.321422	0.158239	0.331958	0.511214	5023.830453	21160.920781	3539.057919	9008.371352
90.539500	0.323749	0.155715	0.320268	0.510749	5037.458094	21074.661281	3522.334603	9014.902757
91.037000	0.320273	0.156959	0.325215	0.519543	4978.191470	20762.009047	3516.702964	8892.390046
91.536500	0.322702	0.155881	0.328751	0.513839	5017.292232	20952.931195	3530.314511	8971.573539
92.034500	0.326102	0.157057	0.335047	0.516121	5022.721875	20907.088379	3536.319707	8939.768568
92.534500	0.325102	0.154570	0.326905	0.516077	5018.079062	20806.264749	3524.262735	8940.380289
93.034500	0.317296	0.156357	0.324802	0.525257	4937.217683	20504.571309	3507.834998	8814.111589
93.536000	0.322809	0.155635	0.338429	0.519899	4988.604153	20693.158205	3535.724885	8887.482661
94.036000	0.324839	0.155216	0.331416	0.520650	4994.736533	20645.376087	3524.172501	8877.151832
94.536500	0.319810	0.153983	0.326450	0.526841	4941.559846	20345.119449	3507.926282	8792.582853
95.039500	0.322381	0.154389	0.325508	0.528626	4945.240183	20289.910026	3504.019015	8768.421701
95.537500	0.326479	0.153152	0.324119	0.523543	4988.726291	20444.327108	3509.316759	8837.475273
96.037000	0.324320	0.152434	0.332818	0.524458	4974.065271	20378.580804	3520.633229	8824.991602
96.535000	0.322653	0.150701	0.340336	0.530428	4938.081294	20071.841931	3522.906961	8744.136437
97.035500	0.326089	0.153965	0.330993	0.534711	4934.133509	20031.694853	3503.162802	8686.817322
