sample name	sample
index	593
start time	 03-16-2021  04:39:11 PM


Wavelength (nm)	Absorbance
494.344910	-0.188658
494.563924	-0.188658
494.782919	-0.188658
495.001897	-0.418966
495.220856	-0.245514
495.439797	-0.230311
495.658719	-0.240481
495.877624	-0.224082
496.096510	-0.174363
496.315378	-0.213263
496.534227	-0.160955
496.753059	-0.162615
496.971872	-0.085752
497.190667	0.124156
497.409444	0.138900
497.628203	0.143536
497.846943	0.146433
498.065665	0.150162
498.284369	0.151795
498.503055	0.152193
498.721723	0.151202
498.940372	0.151707
499.159003	0.151134
499.377616	0.151485
499.596210	0.153308
499.814787	0.153778
500.033345	0.153991
500.251885	0.153345
500.470406	0.152682
500.688910	0.153857
500.907395	0.153986
501.125862	0.153334
501.344311	0.154801
501.562742	0.154198
501.781154	0.153611
501.999548	0.152241
502.217924	0.152969
502.436282	0.154970
502.654621	0.155970
502.872942	0.154642
503.091245	0.154215
503.309530	0.153652
503.527797	0.153349
503.746045	0.153434
503.964275	0.152557
504.182487	0.150882
504.400681	0.148490
504.618856	0.147526
504.837013	0.148967
505.055152	0.149995
505.273273	0.149036
505.491376	0.149897
505.709460	0.150721
505.927526	0.151384
506.145574	0.152624
506.363604	0.153901
506.581615	0.154519
506.799608	0.153858
507.017583	0.153117
507.235540	0.154455
507.453478	0.154459
507.671399	0.154055
507.889301	0.155532
508.107185	0.156623
508.325050	0.157739
508.542898	0.157831
508.760727	0.157620
508.978538	0.158094
509.196330	0.158169
509.414105	0.157169
509.631861	0.156971
509.849599	0.157747
510.067319	0.157560
510.285021	0.157268
510.502704	0.157313
510.720369	0.158490
510.938016	0.158973
511.155645	0.158958
511.373255	0.159477
511.590848	0.159764
511.808422	0.158717
512.025977	0.159349
512.243515	0.158739
512.461034	0.159158
512.678536	0.158144
512.896018	0.158033
513.113483	0.157767
513.330930	0.158807
513.548358	0.160144
513.765768	0.160144
513.983160	0.159899
514.200533	0.160025
514.417889	0.160132
514.635226	0.160234
514.852545	0.161323
515.069845	0.161364
515.287128	0.160900
515.504392	0.160910
515.721638	0.161554
515.938866	0.162173
516.156075	0.161673
516.373267	0.162046
516.590440	0.163885
516.807594	0.163602
517.024731	0.164783
517.241850	0.164902
517.458950	0.164820
517.676032	0.165000
517.893095	0.164801
518.110141	0.165639
518.327168	0.165421
518.544177	0.165171
518.761168	0.164324
518.978141	0.163384
519.195095	0.163203
519.412031	0.163495
519.628949	0.162884
519.845849	0.162907
520.062731	0.162654
520.279594	0.163568
520.496439	0.163842
520.713266	0.164072
520.930074	0.164364
521.146865	0.164453
521.363637	0.164138
521.580391	0.165047
521.797127	0.165091
522.013844	0.166345
522.230543	0.166343
522.447224	0.166096
522.663887	0.167422
522.880532	0.168725
523.097158	0.169030
523.313766	0.169332
523.530356	0.169935
523.746928	0.170097
523.963481	0.169969
524.180017	0.169326
524.396534	0.169214
524.613032	0.169237
524.829513	0.169575
525.045975	0.169494
525.262420	0.170108
525.478845	0.169420
525.695253	0.169844
525.911643	0.169914
526.128014	0.170840
526.344367	0.171445
526.560702	0.171455
526.777018	0.170795
526.993316	0.171410
527.209597	0.170775
527.425858	0.171185
527.642102	0.171383
527.858328	0.171619
528.074535	0.171787
528.290724	0.171987
528.506894	0.172866
528.723047	0.173429
528.939181	0.174265
529.155297	0.175638
529.371395	0.175845
529.587475	0.177110
529.803536	0.178229
530.019579	0.178256
530.235604	0.178260
530.451611	0.177877
530.667600	0.177914
530.883570	0.177776
531.099522	0.177299
531.315456	0.177459
531.531372	0.176897
531.747269	0.177394
531.963148	0.178022
532.179009	0.178574
532.394852	0.179134
532.610676	0.178721
532.826482	0.179242
533.042271	0.179727
533.258040	0.179825
533.473792	0.180369
533.689525	0.179668
533.905240	0.179656
534.120937	0.179281
534.336616	0.179089
534.552277	0.180431
534.767919	0.180755
534.983543	0.180726
535.199149	0.181332
535.414736	0.180723
535.630306	0.181207
535.845857	0.181404
536.061390	0.182483
536.276904	0.183089
536.492401	0.183340
536.707879	0.183820
536.923339	0.184410
537.138781	0.184369
537.354204	0.184915
537.569610	0.185062
537.784997	0.184683
538.000366	0.184864
538.215716	0.184583
538.431049	0.184478
538.646363	0.184596
538.861659	0.184865
539.076937	0.185585
539.292196	0.185547
539.507438	0.186002
539.722661	0.186956
539.937866	0.187386
540.153052	0.188346
540.368221	0.188311
540.583371	0.188183
540.798503	0.188071
541.013617	0.187592
541.228712	0.188142
541.443789	0.188160
541.658848	0.188407
541.873889	0.188532
542.088912	0.188487
542.303916	0.189056
542.518902	0.189295
542.733870	0.190072
542.948820	0.190320
543.163752	0.190810
543.378665	0.191496
543.593560	0.192205
543.808437	0.191939
544.023295	0.192763
544.238136	0.192517
544.452958	0.192948
544.667762	0.192453
544.882548	0.192560
545.097315	0.193001
545.312064	0.193221
545.526795	0.192855
545.741508	0.193369
545.956203	0.193067
546.170879	0.193593
546.385537	0.193157
546.600177	0.193942
546.814799	0.194575
547.029402	0.194799
547.243988	0.194573
547.458555	0.194433
547.673103	0.194660
547.887634	0.194924
548.102146	0.194804
548.316640	0.195408
548.531116	0.195936
548.745574	0.196484
548.960013	0.196531
549.174435	0.196850
549.388838	0.197324
549.603222	0.197121
549.817589	0.197707
550.031937	0.198039
550.246267	0.198254
550.460579	0.197928
550.674873	0.198447
550.889148	0.198953
551.103405	0.198945
551.317644	0.199188
551.531865	0.199846
551.746068	0.200211
551.960252	0.200657
552.174418	0.201695
552.388566	0.202179
552.602696	0.202069
552.816807	0.201706
553.030900	0.202134
553.244975	0.202567
553.459032	0.202543
553.673070	0.202227
553.887091	0.202077
554.101093	0.201122
554.315077	0.200777
554.529042	0.200424
554.742990	0.200432
554.956919	0.200773
555.170830	0.200560
555.384722	0.201186
555.598597	0.200967
555.812453	0.201805
556.026291	0.202294
556.240111	0.203216
556.453913	0.203641
556.667696	0.203776
556.881461	0.203770
557.095208	0.204070
557.308937	0.203821
557.522647	0.204142
557.736339	0.203923
557.950013	0.204056
558.163669	0.203888
558.377307	0.203762
558.590926	0.204855
558.804527	0.204602
559.018110	0.205073
559.231675	0.205570
559.445221	0.206026
559.658749	0.206229
559.872259	0.206745
560.085751	0.206914
560.299225	0.207399
560.512680	0.207330
560.726117	0.208437
560.939536	0.208041
561.152937	0.207987
561.366319	0.208423
561.579683	0.208267
561.793029	0.207992
562.006357	0.208283
562.219667	0.208454
562.432958	0.207755
562.646231	0.207072
562.859486	0.207767
563.072723	0.207472
563.285941	0.207314
563.499141	0.207981
563.712323	0.208282
563.925487	0.208410
564.138632	0.208634
564.351760	0.209559
564.564869	0.210166
564.777960	0.210043
564.991032	0.210743
565.204087	0.210449
565.417123	0.210552
565.630141	0.210984
565.843140	0.211238
566.056122	0.211572
566.269085	0.211683
566.482030	0.211372
566.694957	0.211782
566.907866	0.211712
567.120756	0.212234
567.333628	0.211703
567.546482	0.211164
567.759318	0.210774
567.972135	0.211025
568.184935	0.211019
568.397716	0.211069
568.610478	0.211475
568.823223	0.211956
569.035949	0.212555
569.248657	0.213015
569.461347	0.213732
569.674019	0.214260
569.886672	0.213903
570.099308	0.213925
570.311925	0.214081
570.524523	0.214174
570.737104	0.213803
570.949666	0.213457
571.162210	0.213253
571.374736	0.213522
571.587244	0.213566
571.799733	0.213860
572.012205	0.213919
572.224658	0.214284
572.437092	0.213578
572.649509	0.213792
572.861907	0.214216
573.074287	0.214934
573.286649	0.215156
573.498993	0.215191
573.711318	0.215298
573.923625	0.215644
574.135914	0.215611
574.348185	0.216000
574.560438	0.216217
574.772672	0.215479
574.984888	0.216041
575.197086	0.216239
575.409266	0.216406
575.621427	0.216657
575.833570	0.216891
576.045695	0.217204
576.257802	0.217605
576.469890	0.217745
576.681961	0.218579
576.894013	0.218848
577.106046	0.218573
577.318062	0.218795
577.530059	0.218735
577.742039	0.218610
577.954000	0.218748
578.165942	0.218357
578.377867	0.218786
578.589773	0.218721
578.801661	0.218478
579.013531	0.218711
579.225382	0.218414
579.437216	0.218722
579.649031	0.218447
579.860828	0.218549
580.072606	0.218646
580.284367	0.218171
580.496109	0.218541
580.707833	0.218210
580.919539	0.218171
581.131227	0.218335
581.342896	0.218246
581.554547	0.219176
581.766180	0.219709
581.977795	0.220141
582.189391	0.220550
582.400969	0.220530
582.612529	0.220682
582.824071	0.220563
583.035595	0.220995
583.247100	0.221286
583.458587	0.220836
583.670056	0.220360
583.881506	0.220860
584.092939	0.220899
584.304353	0.221216
584.515749	0.221449
584.727127	0.221897
584.938486	0.221939
585.149828	0.221673
585.361151	0.222221
585.572456	0.222526
585.783742	0.222279
585.995011	0.222690
586.206261	0.222618
586.417493	0.222668
586.628706	0.222021
586.839902	0.222058
587.051079	0.222972
587.262238	0.223185
587.473379	0.223703
587.684502	0.224081
587.895606	0.224196
588.106692	0.223932
588.317760	0.224221
588.528810	0.224990
588.739841	0.225281
588.950855	0.225181
589.161850	0.225255
589.372827	0.225123
589.583785	0.225250
589.794726	0.225151
590.005648	0.225764
590.216552	0.226110
590.427437	0.226749
590.638305	0.226778
590.849154	0.226948
591.059985	0.226889
591.270798	0.226896
591.481592	0.226969
591.692369	0.227178
591.903127	0.226918
592.113867	0.226697
592.324588	0.226490
592.535292	0.226643
592.745977	0.226778
592.956644	0.226580
593.167293	0.226653
593.377923	0.226430
593.588536	0.226832
593.799130	0.227310
594.009706	0.227669
594.220263	0.228052
594.430803	0.228047
594.641324	0.227914
594.851827	0.228377
595.062312	0.228679
595.272778	0.229378
595.483227	0.229586
595.693657	0.229791
595.904069	0.229863
596.114462	0.229536
596.324838	0.229709
596.535195	0.230310
596.745534	0.230484
596.955855	0.230803
597.166157	0.231046
597.376441	0.230838
597.586707	0.231147
597.796955	0.231235
598.007185	0.231656
598.217396	0.231787
598.427589	0.231505
598.637764	0.231501
598.847921	0.231625
599.058060	0.231218
599.268180	0.231639
599.478282	0.231206
599.688366	0.231595
599.898431	0.231868
600.108479	0.232195
600.318508	0.232579
600.528519	0.232741
600.738511	0.232796
600.948486	0.233104
601.158442	0.233004
601.368380	0.233465
601.578300	0.233502
601.788202	0.233627
601.998085	0.233989
602.207950	0.233652
602.417797	0.234029
602.627626	0.234352
602.837436	0.234799
603.047228	0.235270
603.257002	0.235206
603.466758	0.235150
603.676496	0.235143
603.886215	0.234797
604.095916	0.235189
604.305599	0.234918
604.515264	0.234467
604.724910	0.234732
604.934538	0.234564
605.144148	0.234772
605.353740	0.234988
605.563314	0.235170
605.772869	0.235250
605.982406	0.235414
606.191925	0.235541
606.401425	0.236213
606.610908	0.235999
606.820372	0.236676
607.029818	0.236854
607.239246	0.236951
607.448655	0.237009
607.658047	0.237610
607.867420	0.237885
608.076775	0.238212
608.286111	0.237910
608.495430	0.237505
608.704730	0.237244
608.914012	0.237536
609.123275	0.237885
609.332521	0.237901
609.541748	0.238252
609.750957	0.238198
609.960148	0.238340
610.169321	0.238816
610.378475	0.239230
610.587611	0.239159
610.796729	0.239143
611.005829	0.239245
611.214910	0.239598
611.423974	0.238988
611.633019	0.239059
611.842045	0.238867
612.051054	0.238870
612.260044	0.239039
612.469017	0.239234
612.677970	0.239390
612.886906	0.239519
613.095824	0.239630
613.304723	0.240083
613.513604	0.240368
613.722467	0.240901
613.931311	0.240715
614.140138	0.241301
614.348946	0.241299
614.557736	0.241725
614.766507	0.242005
614.975261	0.241782
615.183996	0.242109
615.392713	0.241971
615.601412	0.241997
615.810092	0.242393
616.018754	0.242280
616.227399	0.241971
616.436024	0.241487
616.644632	0.241351
616.853222	0.241716
617.061793	0.242004
617.270346	0.242479
617.478880	0.242637
617.687397	0.242986
617.895895	0.243197
618.104375	0.243913
618.312837	0.244283
618.521281	0.244558
618.729706	0.244590
618.938113	0.244206
619.146502	0.244266
619.354873	0.244484
619.563226	0.244329
619.771560	0.244529
619.979876	0.244804
620.188174	0.245007
620.396453	0.245024
620.604715	0.245264
620.812958	0.245674
621.021183	0.245634
621.229390	0.245670
621.437578	0.245833
621.645748	0.245629
621.853900	0.245660
622.062034	0.245984
622.270150	0.246164
622.478247	0.246590
622.686326	0.246677
622.894387	0.247130
623.102430	0.247547
623.310454	0.247735
623.518461	0.247957
623.726449	0.248120
623.934418	0.248011
624.142370	0.248089
624.350303	0.247716
624.558218	0.247929
624.766115	0.247893
624.973994	0.247757
625.181855	0.247868
625.389697	0.248046
625.597521	0.248221
625.805327	0.248428
626.013114	0.248800
626.220883	0.248939
626.428634	0.248903
626.636367	0.249058
626.844082	0.249259
627.051778	0.249566
627.259457	0.249500
627.467117	0.249418
627.674758	0.249619
627.882382	0.249275
628.089987	0.249712
628.297574	0.250122
628.505143	0.250228
628.712694	0.250190
628.920226	0.249969
629.127740	0.250301
629.335236	0.250380
629.542714	0.250359
629.750174	0.250626
629.957615	0.250473
630.165038	0.250345
630.372443	0.250253
630.579829	0.250602
630.787198	0.251114
630.994548	0.251332
631.201880	0.251546
631.409194	0.251969
631.616489	0.252256
631.823766	0.252404
632.031025	0.252746
632.238266	0.253135
632.445489	0.253331
632.652693	0.253382
632.859879	0.253425
633.067047	0.253822
633.274197	0.253809
633.481329	0.253896
633.688442	0.254261
633.895537	0.254114
634.102614	0.254390
634.309672	0.254528
634.516713	0.254512
634.723735	0.254506
634.930739	0.254422
635.137724	0.254627
635.344692	0.254822
635.551641	0.254872
635.758572	0.255568
635.965485	0.255444
636.172379	0.255710
636.379256	0.255980
636.586114	0.256121
636.792954	0.256368
636.999775	0.256365
637.206579	0.256424
637.413364	0.256621
637.620131	0.256393
637.826880	0.256395
638.033610	0.256416
638.240323	0.256632
638.447017	0.256891
638.653692	0.256852
638.860350	0.257303
639.066990	0.257663
639.273611	0.258003
639.480214	0.258020
639.686798	0.258043
639.893365	0.258122
640.099913	0.258166
640.306443	0.258347
640.512955	0.258809
640.719449	0.258532
640.925924	0.258488
641.132381	0.258226
641.338820	0.258543
641.545241	0.259005
641.751644	0.259060
641.958028	0.259115
642.164394	0.259577
642.370742	0.259494
642.577071	0.259533
642.783383	0.259760
642.989676	0.259952
643.195951	0.259958
643.402207	0.260022
643.608446	0.260389
643.814666	0.260707
644.020868	0.260192
644.227052	0.260458
644.433218	0.260736
644.639365	0.260978
644.845494	0.261214
645.051605	0.261175
645.257698	0.261216
645.463772	0.261359
645.669828	0.261521
645.875866	0.262229
646.081886	0.262064
646.287888	0.262175
646.493871	0.262172
646.699836	0.262451
646.905783	0.262928
647.111712	0.263546
647.317622	0.263445
647.523514	0.263295
647.729388	0.263248
647.935244	0.263833
648.141082	0.264113
648.346901	0.264490
648.552702	0.264595
648.758485	0.264782
648.964250	0.265020
649.169996	0.265171
649.375724	0.265478
649.581434	0.265601
649.787126	0.265683
649.992800	0.266001
650.198455	0.265840
650.404092	0.265954
650.609711	0.265702
650.815311	0.265406
651.020894	0.265522
651.226458	0.265925
651.432004	0.266274
651.637532	0.266452
651.843041	0.266560
652.048532	0.266701
652.254006	0.266873
652.459460	0.267594
652.664897	0.267601
652.870315	0.267713
653.075716	0.267750
653.281097	0.267712
653.486461	0.267747
653.691807	0.267771
653.897134	0.268188
654.102443	0.268281
654.307734	0.268447
654.513006	0.268804
654.718261	0.268940
654.923497	0.268631
655.128715	0.268597
655.333915	0.268794
655.539096	0.268938
655.744259	0.269193
655.949404	0.269695
656.154531	0.269838
656.359640	0.269954
656.564730	0.270208
656.769802	0.270782
656.974856	0.271291
657.179892	0.271584
657.384909	0.271979
657.589908	0.271912
657.794889	0.271695
657.999852	0.271642
658.204797	0.271919
658.409723	0.272227
658.614631	0.272648
658.819521	0.272678
659.024393	0.272748
659.229246	0.273134
659.434081	0.273322
659.638898	0.273681
659.843697	0.273972
660.048478	0.274259
660.253240	0.274588
660.457984	0.274559
660.662710	0.275082
660.867417	0.275468
661.072107	0.275414
661.276778	0.275623
661.481431	0.275677
661.686066	0.275755
661.890682	0.275829
662.095281	0.276166
662.299861	0.276453
662.504422	0.276403
662.708966	0.276325
662.913491	0.276517
663.117999	0.276781
663.322488	0.277254
663.526958	0.277664
663.731411	0.278178
663.935845	0.278004
664.140261	0.277966
664.344659	0.278181
664.549038	0.278730
664.753400	0.278678
664.957743	0.278848
665.162068	0.279168
665.366375	0.279161
665.570663	0.279013
665.774933	0.279144
665.979185	0.279459
666.183419	0.279657
666.387635	0.279707
666.591832	0.280013
666.796011	0.280050
667.000172	0.280015
667.204315	0.280190
667.408439	0.280514
667.612545	0.280851
667.816634	0.281193
668.020703	0.281354
668.224755	0.281408
668.428788	0.281514
668.632803	0.281917
668.836800	0.282047
669.040779	0.282162
669.244739	0.282121
669.448681	0.282272
669.652605	0.282420
669.856511	0.282812
670.060399	0.282846
670.264268	0.283344
670.468119	0.283368
670.671952	0.283337
670.875767	0.283619
671.079563	0.284022
671.283341	0.284289
671.487101	0.284535
671.690843	0.284367
671.894567	0.284843
672.098272	0.284826
672.301959	0.285324
672.505628	0.285837
672.709278	0.285836
672.912911	0.286029
673.116525	0.286211
673.320121	0.286563
673.523699	0.287205
673.727258	0.287282
673.930799	0.287575
674.134322	0.287623
674.337827	0.287619
674.541314	0.288194
674.744782	0.288472
674.948232	0.288692
675.151664	0.288851
675.355078	0.289158
675.558474	0.289063
675.761851	0.289436
675.965210	0.289508
676.168551	0.289629
676.371873	0.289541
676.575178	0.289632
676.778464	0.289734
676.981732	0.289616
677.184981	0.289340
677.388213	0.289936
677.591426	0.289951
677.794621	0.290197
677.997798	0.290761
678.200956	0.291140
678.404097	0.291478
678.607219	0.291728
678.810323	0.292064
679.013408	0.292197
679.216476	0.292384
679.419525	0.292475
679.622556	0.292629
679.825569	0.292446
680.028563	0.292466
680.231540	0.292402
680.434498	0.292384
680.637438	0.292490
680.840359	0.292829
681.043263	0.292759
681.246148	0.292860
681.449015	0.292822
681.651864	0.293201
681.854694	0.293550
682.057506	0.293869
682.260301	0.294390
682.463076	0.294580
682.665834	0.295063
682.868573	0.295438
683.071295	0.295672
683.273998	0.295839
683.476682	0.295825
683.679349	0.295832
683.881997	0.296088
684.084627	0.296304
684.287239	0.296670
684.489833	0.296366
684.692408	0.296631
684.894965	0.296830
685.097504	0.297039
685.300025	0.297556
685.502527	0.297586
685.705012	0.297626
685.907478	0.297845
686.109925	0.297733
686.312355	0.298119
686.514766	0.298036
686.717159	0.298149
686.919534	0.298744
687.121891	0.298838
687.324230	0.299287
687.526550	0.299599
687.728852	0.299666
687.931136	0.300128
688.133401	0.300392
688.335649	0.300534
688.537878	0.300987
688.740089	0.300920
688.942281	0.300941
689.144456	0.301189
689.346612	0.301285
689.548750	0.301475
689.750870	0.301749
689.952971	0.301751
690.155055	0.302175
690.357120	0.302442
690.559167	0.302745
690.761195	0.303000
690.963206	0.303131
691.165198	0.303518
691.367172	0.303688
691.569128	0.303248
691.771065	0.303490
691.972984	0.303549
692.174885	0.303620
692.376768	0.303702
692.578633	0.304123
692.780479	0.304202
692.982308	0.304015
693.184118	0.304052
693.385909	0.304686
693.587683	0.304853
693.789438	0.304975
693.991175	0.304663
694.192894	0.304837
694.394595	0.304726
694.596277	0.304715
694.797941	0.305002
694.999587	0.304925
695.201215	0.304727
695.402824	0.304892
695.604416	0.305147
695.805989	0.305447
696.007543	0.305598
696.209080	0.305692
696.410598	0.305958
696.612099	0.306166
696.813580	0.306494
697.015044	0.306765
697.216490	0.307014
697.417917	0.307362
697.619326	0.307651
697.820717	0.307735
698.022089	0.307997
698.223444	0.308295
698.424780	0.308382
698.626098	0.308555
698.827397	0.308838
699.028679	0.308541
699.229942	0.308549
699.431187	0.308728
699.632414	0.308826
699.833622	0.309055
700.034813	0.308910
700.235985	0.309068
700.437139	0.309244
700.638274	0.308826
700.839392	0.309234
701.040491	0.309156
701.241572	0.309043
701.442635	0.308885
701.643679	0.308833
701.844706	0.308848
702.045714	0.308830
702.246704	0.308996
702.447675	0.309148
702.648629	0.309063
702.849564	0.309257
703.050481	0.309532
703.251380	0.309944
703.452260	0.309960
703.653122	0.310225
703.853966	0.310371
704.054792	0.310480
704.255600	0.310865
704.456389	0.311024
704.657160	0.310851
704.857913	0.310823
705.058648	0.310846
705.259365	0.311007
705.460063	0.311000
705.660743	0.311076
705.861405	0.310449
706.062048	0.310642
706.262674	0.310641
706.463281	0.310725
706.663870	0.311026
706.864441	0.311004
707.064993	0.310879
707.265527	0.311061
707.466043	0.310840
707.666541	0.311391
707.867021	0.311477
708.067482	0.311414
708.267925	0.311458
708.468350	0.311301
708.668757	0.311127
708.869145	0.310961
709.069516	0.310807
709.269868	0.310821
709.470201	0.310624
709.670517	0.310448
709.870814	0.310526
710.071093	0.310324
710.271354	0.310211
710.471597	0.310358
710.671821	0.310577
710.872028	0.310644
711.072216	0.310943
711.272385	0.310979
711.472537	0.310748
711.672670	0.310575
711.872785	0.310822
712.072882	0.310965
712.272961	0.311251
712.473021	0.311218
712.673063	0.311009
712.873087	0.310805
713.073093	0.310969
713.273081	0.311107
713.473050	0.311176
713.673001	0.311370
713.872934	0.311287
714.072849	0.311075
714.272745	0.311277
714.472623	0.311481
714.672483	0.311428
714.872325	0.311267
715.072148	0.311089
715.271954	0.311020
715.471741	0.310692
715.671509	0.310635
715.871260	0.310630
716.070992	0.310017
716.270707	0.309687
716.470403	0.309417
716.670080	0.309316
716.869740	0.309246
717.069381	0.309308
717.269004	0.309217
717.468609	0.309128
717.668195	0.308886
717.867764	0.309019
718.067314	0.308953
718.266846	0.309162
718.466360	0.309121
718.665855	0.309155
718.865332	0.308772
719.064791	0.308466
719.264232	0.308328
719.463655	0.308135
719.663059	0.308321
719.862445	0.308487
720.061813	0.308289
720.261163	0.308264
720.460494	0.308116
720.659807	0.308168
720.859102	0.308605
721.058379	0.308707
721.257638	0.308579
721.456878	0.308308
721.656100	0.308258
721.855304	0.308286
722.054490	0.308114
722.253657	0.307847
722.452806	0.307763
722.651937	0.307247
722.851050	0.307039
723.050145	0.307119
723.249221	0.306846
723.448279	0.306550
723.647319	0.306222
723.846340	0.306042
724.045344	0.306068
724.244329	0.305984
724.443296	0.306130
724.642245	0.306114
724.841175	0.306143
725.040088	0.306171
725.238982	0.306131
725.437857	0.306043
725.636715	0.306119
725.835554	0.306190
726.034376	0.306041
726.233179	0.305894
726.431963	0.305638
726.630730	0.305528
726.829478	0.305434
727.028208	0.305058
727.226920	0.305106
727.425614	0.304925
727.624289	0.304742
727.822946	0.304476
728.021585	0.303930
728.220206	0.303786
728.418808	0.303394
728.617392	0.303383
728.815958	0.303490
729.014506	0.303248
729.213036	0.303064
729.411547	0.303009
729.610040	0.302827
729.808515	0.302943
730.006972	0.302630
730.205410	0.302458
730.403831	0.301992
730.602233	0.301846
730.800616	0.301581
730.998982	0.301125
731.197329	0.300832
731.395658	0.300895
731.593969	0.300812
731.792262	0.300705
731.990536	0.300610
732.188793	0.300458
732.387031	0.300441
732.585250	0.300316
732.783452	0.300217
732.981635	0.300021
733.179800	0.300007
733.377947	0.299798
733.576076	0.299451
733.774186	0.299339
733.972278	0.299266
734.170352	0.299165
734.368408	0.299058
734.566446	0.299208
734.764465	0.298904
734.962466	0.298770
735.160449	0.298554
735.358413	0.298608
735.556360	0.298543
735.754288	0.298397
735.952198	0.298101
736.150090	0.297665
736.347963	0.297446
736.545818	0.297432
736.743655	0.297192
736.941474	0.297061
737.139275	0.296726
737.337057	0.296190
737.534821	0.295856
737.732567	0.295424
737.930295	0.295719
738.128005	0.295604
738.325696	0.295106
738.523369	0.294639
738.721024	0.294381
738.918660	0.294118
739.116279	0.293974
739.313879	0.293938
739.511461	0.293796
739.709024	0.293090
739.906570	0.292984
740.104097	0.293080
740.301606	0.292759
740.499097	0.292590
740.696569	0.292668
740.894024	0.292823
741.091460	0.292297
741.288878	0.291978
741.486277	0.291920
741.683659	0.291483
741.881022	0.291444
742.078367	0.291384
742.275694	0.290967
742.473002	0.290238
742.670293	0.290012
742.867565	0.290095
743.064819	0.290205
743.262054	0.290187
743.459272	0.290232
743.656471	0.290008
743.853652	0.289913
744.050815	0.289749
744.247959	0.290126
744.445085	0.289851
744.642194	0.290021
744.839283	0.289647
745.036355	0.289496
745.233408	0.288710
745.430444	0.288291
745.627461	0.288163
745.824459	0.288315
746.021440	0.287758
746.218402	0.287316
746.415346	0.286812
746.612272	0.286539
746.809180	0.286279
747.006069	0.286549
747.202940	0.286155
747.399793	0.285895
747.596628	0.285392
747.793444	0.285607
747.990243	0.285668
748.187023	0.285630
748.383784	0.285776
748.580528	0.285274
748.777253	0.284802
748.973960	0.284995
749.170649	0.284863
749.367320	0.284581
749.563973	0.284142
749.760607	0.283726
749.957223	0.283306
750.153821	0.283000
750.350400	0.283319
750.546962	0.283272
750.743505	0.283129
750.940030	0.283390
751.136536	0.283663
751.333025	0.283526
751.529495	0.283492
751.725947	0.283473
751.922381	0.283324
752.118796	0.282916
752.315194	0.282444
752.511573	0.282188
752.707934	0.281624
752.904276	0.281423
753.100601	0.281180
753.296907	0.281142
753.493195	0.281100
753.689465	0.280757
753.885716	0.280416
754.081949	0.280879
754.278164	0.280820
754.474361	0.280618
754.670540	0.280016
754.866700	0.280115
755.062843	0.279835
755.258967	0.279599
755.455072	0.279730
755.651160	0.279926
755.847229	0.279392
756.043280	0.279391
756.239313	0.279445
756.435328	0.279350
756.631324	0.279262
756.827302	0.279033
757.023262	0.278755
757.219204	0.278376
757.415127	0.278323
757.611033	0.278184
757.806920	0.277850
758.002788	0.277725
758.198639	0.277951
758.394471	0.277861
758.590286	0.277960
758.786081	0.277855
758.981859	0.277737
759.177619	0.277300
759.373360	0.277549
759.569083	0.277215
759.764788	0.276858
759.960474	0.276773
760.156143	0.276562
760.351793	0.276273
760.547425	0.276058
760.743038	0.276215
760.938634	0.276035
761.134211	0.275506
761.329770	0.275550
761.525311	0.275452
761.720833	0.275234
761.916338	0.275024
762.111824	0.275100
762.307292	0.275029
762.502741	0.274812
762.698173	0.274784
762.893586	0.274692
763.088981	0.274693
763.284358	0.274811
763.479716	0.274677
763.675057	0.274529
763.870379	0.274349
764.065683	0.274307
764.260968	0.273918
764.456236	0.273765
764.651485	0.273755
764.846716	0.273714
765.041929	0.273196
765.237123	0.273291
765.432299	0.273350
765.627457	0.273447
765.822597	0.273423
766.017719	0.273395
766.212822	0.273580
766.407907	0.273642
766.602974	0.273285
766.798023	0.273509
766.993054	0.273312
767.188066	0.273576
767.383060	0.273149
767.578036	0.272850
767.772993	0.272835
767.967933	0.272540
768.162854	0.272207
768.357757	0.272215
768.552642	0.272075
768.747508	0.272113
768.942356	0.271353
769.137186	0.271173
769.331998	0.271121
769.526792	0.270988
769.721567	0.270895
769.916324	0.270935
770.111063	0.270808
770.305784	0.270597
770.500486	0.270416
770.695171	0.270733
770.889837	0.270792
771.084484	0.270732
771.279114	0.270641
771.473725	0.270814
771.668318	0.270718
771.862893	0.270793
772.057450	0.270864
772.251988	0.270844
772.446509	0.270266
772.641011	0.270411
772.835494	0.270240
773.029960	0.270675
773.224407	0.270409
773.418836	0.270231
773.613247	0.270117
773.807640	0.269839
774.002014	0.269461
774.196370	0.270058
774.390708	0.269760
774.585028	0.269970
774.779330	0.269379
774.973613	0.269294
775.167878	0.269476
775.362125	0.269558
775.556354	0.269660
775.750564	0.269941
775.944756	0.269344
776.138930	0.269264
776.333086	0.269339
776.527223	0.269171
776.721343	0.268808
776.915444	0.268882
777.109526	0.268666
777.303591	0.268670
777.497637	0.268756
777.691666	0.269099
777.885676	0.269296
778.079667	0.269079
778.273641	0.269469
778.467596	0.269829
778.661533	0.269598
778.855452	0.269410
779.049352	0.269543
779.243235	0.269393
779.437099	0.269284
779.630945	0.269206
779.824773	0.269044
780.018582	0.268817
780.212373	0.268935
780.406146	0.269016
780.599901	0.269250
780.793638	0.269335
780.987356	0.269333
781.181056	0.269090
781.374738	0.269227
781.568402	0.269508
781.762047	0.269433
781.955674	0.269591
782.149283	0.269587
782.342874	0.269610
782.536447	0.269403
782.730001	0.269475
782.923537	0.269781
783.117055	0.269898
783.310555	0.270039
783.504036	0.270067
783.697499	0.270103
783.890944	0.269974
784.084371	0.269990
784.277780	0.270089
784.471170	0.270260
784.664542	0.270432
784.857896	0.269983
785.051231	0.269874
785.244549	0.270063
785.437848	0.270038
785.631129	0.270110
785.824392	0.270138
786.017636	0.270224
786.210863	0.269898
786.404071	0.269848
786.597260	0.270163
786.790432	0.270299
786.983585	0.270634
787.176721	0.270881
787.369838	0.271057
787.562936	0.270893
787.756017	0.271054
787.949079	0.271199
788.142123	0.271058
788.335149	0.271180
788.528156	0.271362
788.721146	0.271487
788.914117	0.271423
789.107070	0.271364
789.300005	0.271802
789.492921	0.271668
789.685819	0.271900
789.878699	0.272205
790.071561	0.272436
790.264405	0.272490
790.457230	0.272403
790.650037	0.272204
790.842826	0.272343
791.035597	0.272329
791.228349	0.272818
791.421084	0.272928
791.613800	0.272914
791.806497	0.272815
791.999177	0.273012
792.191838	0.272956
792.384481	0.273064
792.577106	0.273416
792.769713	0.273307
792.962301	0.273319
793.154871	0.273174
793.347423	0.273593
793.539957	0.273747
793.732473	0.273847
793.924970	0.273932
794.117449	0.274345
794.309910	0.274331
794.502353	0.275061
794.694777	0.275031
794.887183	0.275367
795.079571	0.275393
795.271941	0.275345
795.464293	0.275264
795.656626	0.275465
795.848941	0.275593
796.041238	0.275863
796.233516	0.275952
796.425777	0.276412
796.618019	0.276827
796.810243	0.277027
797.002449	0.277066
797.194636	0.277376
797.386805	0.277861
797.578956	0.278021
797.771089	0.278057
797.963204	0.277958
798.155300	0.277963
798.347378	0.278227
798.539438	0.278475
798.731480	0.278908
798.923503	0.278961
799.115509	0.279037
799.307496	0.279224
799.499465	0.279702
799.691415	0.280177
799.883348	0.280497
800.075262	0.280662
800.267158	0.280699
800.459035	0.280883
800.650895	0.281119
800.842736	0.281032
801.034559	0.281155
801.226364	0.281198
801.418150	0.281014
801.609919	0.280602
801.801669	0.280547
801.993401	0.280696
802.185114	0.281261
802.376810	0.281278
802.568487	0.281721
802.760146	0.281981
802.951787	0.282158
803.143409	0.282817
803.335014	0.283767
803.526600	0.283949
803.718168	0.284290
803.909717	0.284293
804.101249	0.284812
804.292762	0.285218
804.484257	0.285451
804.675734	0.285820
804.867192	0.285675
805.058632	0.285618
805.250054	0.285747
805.441458	0.285931
805.632844	0.286048
805.824211	0.286269
806.015561	0.286518
806.206891	0.286692
806.398204	0.286740
806.589499	0.287213
806.780775	0.287423
806.972033	0.287752
807.163273	0.287986
807.354495	0.288345
807.545698	0.288328
807.736883	0.288567
807.928050	0.288822
808.119199	0.289138
808.310329	0.288990
808.501441	0.289337
808.692535	0.289316
808.883611	0.289500
809.074669	0.289582
809.265708	0.290249
809.456729	0.290031
809.647732	0.290008
809.838717	0.290395
810.029683	0.290724
810.220632	0.290879
810.411562	0.291516
810.602474	0.291531
810.793367	0.291797
810.984242	0.291636
811.175100	0.292155
811.365938	0.292706
811.556759	0.292776
811.747562	0.293004
811.938346	0.292987
812.129112	0.293028
812.319860	0.293966
812.510589	0.294701
812.701300	0.295302
812.891994	0.295644
813.082668	0.295898
813.273325	0.296293
813.463964	0.296757
813.654584	0.297266
813.845186	0.297842
814.035769	0.297804
814.226335	0.297885
814.416882	0.298145
814.607411	0.298192
814.797922	0.298533
814.988415	0.298763
815.178889	0.299060
815.369345	0.299502
815.559783	0.299663
815.750203	0.300027
815.940605	0.300404
816.130988	0.300586
816.321353	0.301281
816.511700	0.301660
816.702028	0.301862
816.892339	0.302023
817.082631	0.302122
817.272905	0.302411
817.463161	0.302734
817.653398	0.302670
817.843617	0.303260
818.033819	0.303478
818.224001	0.304195
818.414166	0.304521
818.604312	0.304706
818.794440	0.305264
818.984550	0.305791
819.174642	0.305948
819.364716	0.306491
819.554771	0.306744
819.744808	0.307059
819.934827	0.306926
820.124827	0.307106
820.314810	0.307742
820.504774	0.307922
820.694720	0.308120
820.884647	0.308183
821.074557	0.308588
821.264448	0.308824
821.454321	0.309465
821.644176	0.309783
821.834012	0.310615
822.023831	0.311018
822.213631	0.311211
822.403413	0.311426
822.593176	0.311957
822.782922	0.311937
822.972649	0.312238
823.162358	0.312152
823.352049	0.312577
823.541721	0.313018
823.731376	0.313518
823.921012	0.314173
824.110629	0.314344
824.300229	0.315096
824.489811	0.315917
824.679374	0.316315
824.868919	0.316635
825.058445	0.316722
825.247954	0.316489
825.437444	0.316361
825.626916	0.316453
825.816370	0.316966
826.005806	0.316939
826.195223	0.317013
826.384622	0.316942
826.574003	0.317394
826.763366	0.318003
826.952711	0.318607
827.142037	0.319556
827.331345	0.319976
827.520635	0.319988
827.709906	0.320128
827.899160	0.320691
828.088395	0.321228
828.277612	0.321705
828.466810	0.322116
828.655991	0.322312
828.845153	0.322387
829.034297	0.322801
829.223423	0.323669
829.412531	0.324806
829.601620	0.325401
829.790691	0.325844
829.979744	0.326218
830.168779	0.326332
830.357795	0.326852
830.546793	0.327527
830.735773	0.328293
830.924735	0.328937
831.113679	0.328839
831.302604	0.329108
831.491511	0.329540
831.680400	0.329650
831.869271	0.330385
832.058123	0.330935
832.246957	0.331036
832.435773	0.331395
832.624571	0.331675
832.813351	0.332272
833.002112	0.332612
833.190855	0.333172
833.379580	0.334033
833.568287	0.334465
833.756975	0.334772
833.945645	0.335555
834.134297	0.335974
834.322931	0.336130
834.511547	0.336482
834.700144	0.337026
834.888723	0.337530
835.077284	0.337609
835.265826	0.338018
835.454351	0.338743
835.642857	0.338651
835.831345	0.339106
836.019815	0.339805
836.208266	0.340149
836.396699	0.340453
836.585114	0.340995
836.773511	0.341576
836.961890	0.341679
837.150250	0.341693
837.338592	0.342326
837.526916	0.342245
837.715222	0.342717
837.903510	0.342951
838.091779	0.343792
838.280030	0.343923
838.468263	0.344389
838.656477	0.344805
838.844674	0.345324
839.032852	0.345946
839.221012	0.346381
839.409153	0.346536
839.597277	0.347435
839.785382	0.347269
839.973469	0.348024
840.161538	0.348285
840.349589	0.348903
840.537621	0.349183
840.725635	0.349304
840.913631	0.349635
841.101609	0.350325
841.289568	0.350346
841.477509	0.351018
841.665432	0.351006
841.853337	0.351288
842.041224	0.351930
842.229092	0.352867
842.416942	0.353261
842.604774	0.354704
842.792588	0.354730
842.980383	0.355209
843.168160	0.355562
843.355919	0.355948
843.543660	0.356603
843.731382	0.357003
843.919087	0.357202
844.106773	0.357741
844.294441	0.357375
844.482090	0.357684
844.669722	0.358327
844.857335	0.358857
845.044930	0.359498
845.232507	0.360057
845.420065	0.360399
845.607605	0.360801
845.795127	0.360969
845.982631	0.361484
846.170117	0.362015
846.357584	0.362389
846.545033	0.362411
846.732464	0.362948
846.919877	0.363116
847.107272	0.363437
847.294648	0.363962
847.482006	0.364797
847.669346	0.365342
847.856667	0.366015
848.043971	0.366649
848.231256	0.367481
848.418523	0.367724
848.605771	0.368054
848.793002	0.368843
848.980214	0.369644
849.167408	0.369796
849.354584	0.370248
849.541742	0.370923
849.728881	0.370803
849.916002	0.371100
850.103105	0.371763
850.290190	0.372293
850.477256	0.372521
850.664304	0.373008
850.851334	0.373920
851.038346	0.374425
851.225340	0.374903
851.412315	0.375414
851.599272	0.376172
851.786211	0.376963
851.973132	0.377279
852.160034	0.377749
852.346918	0.377608
852.533784	0.377691
852.720632	0.378076
852.907462	0.378428
853.094273	0.379374
853.281066	0.379845
853.467841	0.379967
853.654598	0.380775
853.841336	0.380999
854.028056	0.381374
854.214758	0.381853
854.401442	0.382152
854.588107	0.382847
854.774755	0.382741
854.961384	0.383096
855.147995	0.383426
855.334587	0.383960
855.521162	0.384877
855.707718	0.385348
855.894256	0.386175
856.080775	0.386350
856.267277	0.386167
856.453760	0.386847
856.640225	0.387080
856.826672	0.387593
857.013101	0.388332
857.199511	0.388818
857.385903	0.389698
857.572277	0.389708
857.758633	0.390736
857.944970	0.391213
858.131290	0.391605
858.317591	0.391501
858.503873	0.391948
858.690138	0.392049
858.876384	0.392075
859.062612	0.391863
859.248822	0.391722
859.435014	0.392250
859.621188	0.392941
859.807343	0.393778
859.993480	0.395111
860.179599	0.395792
860.365699	0.396542
860.551781	0.397150
860.737846	0.398188
860.923891	0.399513
861.109919	0.399537
861.295929	0.399756
861.481920	0.400053
861.667893	0.399869
861.853848	0.400145
862.039784	0.399863
862.225702	0.400135
862.411603	0.400400
862.597484	0.400919
862.783348	0.401495
862.969193	0.401959
863.155021	0.402035
863.340830	0.402701
863.526620	0.402275
863.712393	0.402943
863.898147	0.403079
864.083883	0.403438
864.269601	0.403490
864.455301	0.403541
864.640982	0.403952
864.826645	0.404647
865.012290	0.404698
865.197917	0.405495
865.383526	0.405650
865.569116	0.406201
865.754688	0.406541
865.940242	0.407126
866.125777	0.407544
866.311295	0.407992
866.496794	0.408136
866.682275	0.408936
866.867737	0.409547
867.053182	0.410381
867.238608	0.410830
867.424016	0.411193
867.609406	0.411370
867.794778	0.412037
867.980131	0.412212
868.165466	0.412794
868.350783	0.413027
868.536082	0.413105
868.721362	0.413204
868.906625	0.413312
869.091869	0.413449
869.277094	0.414082
869.462302	0.414101
869.647491	0.414990
869.832662	0.415132
870.017815	0.415549
870.202950	0.415952
870.388066	0.416156
870.573165	0.416731
870.758245	0.416882
870.943306	0.417020
871.128350	0.417539
871.313375	0.417304
871.498382	0.417815
871.683371	0.417895
871.868342	0.418396
872.053294	0.419149
872.238229	0.419643
872.423144	0.419997
872.608042	0.420263
872.792922	0.420118
872.977783	0.420421
873.162626	0.420324
873.347451	0.420384
873.532258	0.420204
873.717046	0.419855
873.901816	0.419873
874.086568	0.420176
874.271302	0.420274
874.456017	0.420996
874.640715	0.421782
874.825394	0.422151
875.010055	0.422742
875.194697	0.423740
875.379322	0.424287
875.563928	0.424692
875.748516	0.424836
875.933085	0.425075
876.117637	0.425562
876.302170	0.424982
876.486685	0.425608
876.671182	0.425816
876.855661	0.425962
877.040121	0.426494
877.224563	0.426745
877.408987	0.427465
877.593393	0.427506
877.777780	0.426963
877.962150	0.427413
878.146501	0.427228
878.330833	0.427468
878.515148	0.426928
878.699444	0.427278
878.883722	0.427143
879.067982	0.426855
879.252224	0.427073
879.436447	0.427219
879.620653	0.427522
879.804840	0.428514
879.989008	0.428746
880.173159	0.429915
880.357291	0.429368
880.541405	0.429824
880.725501	0.430409
880.909579	0.430876
881.093638	0.432110
881.277680	0.431735
881.461703	0.431358
881.645707	0.431397
881.829694	0.430863
882.013662	0.430816
882.197612	0.430173
882.381544	0.430135
882.565458	0.430219
882.749353	0.429630
882.933230	0.430959
883.117089	0.431279
883.300930	0.431264
883.484753	0.431245
883.668557	0.431486
883.852343	0.431840
884.036111	0.431948
884.219861	0.431726
884.403592	0.431802
884.587305	0.431622
884.771000	0.430954
884.954677	0.430910
885.138335	0.431265
885.321976	0.431553
885.505598	0.431894
885.689201	0.432128
885.872787	0.432449
886.056354	0.433132
886.239904	0.433131
886.423434	0.434118
886.606947	0.434209
886.790442	0.434296
886.973918	0.434129
887.157376	0.434430
887.340816	0.434237
887.524237	0.434778
887.707641	0.434397
887.891026	0.433994
888.074393	0.433864
888.257741	0.434052
888.441072	0.433811
888.624384	0.434290
888.807678	0.434007
888.990954	0.434484
889.174211	0.433969
889.357451	0.434427
889.540672	0.435090
889.723875	0.434693
889.907059	0.434485
890.090226	0.435261
890.273374	0.435037
890.456504	0.434948
890.639616	0.434753
890.822709	0.434942
891.005785	0.434475
891.188842	0.433281
891.371881	0.433420
891.554901	0.433880
891.737904	0.433315
891.920888	0.433606
892.103854	0.434285
892.286802	0.434270
892.469731	0.433996
892.652643	0.434083
892.835536	0.435258
893.018410	0.435497
893.201267	0.435440
893.384106	0.435748
893.566926	0.435328
893.749728	0.435150
893.932511	0.435385
894.115277	0.435142
894.298024	0.435873
894.480753	0.435086
894.663464	0.434368
894.846157	0.434231
895.028831	0.434229
895.211487	0.434150
895.394125	0.434000
895.576745	0.433454
895.759346	0.433563
895.941930	0.432630
896.124495	0.433194
896.307041	0.433528
896.489570	0.433252
896.672080	0.433057
896.854573	0.432920
897.037046	0.432964
897.219502	0.432553
897.401940	0.432307
897.584359	0.432140
897.766760	0.431040
897.949143	0.431078
898.131507	0.431123
898.313854	0.430320
898.496182	0.430394
898.678492	0.429296
898.860783	0.429411
899.043057	0.429123
899.225312	0.428501
899.407549	0.429067
899.589768	0.428889
899.771968	0.428656
899.954151	0.428526
900.136315	0.428251
900.318461	0.428457
900.500588	0.428140
900.682698	0.428573
900.864789	0.429021
901.046862	0.428372
901.228917	0.427610
901.410953	0.427480
901.592971	0.427761
901.774972	0.427585
901.956953	0.427998
902.138917	0.427955
902.320862	0.427830
902.502790	0.426708
902.684699	0.426374
902.866589	0.426186
903.048462	0.425857
903.230316	0.425290
903.412152	0.425362
903.593970	0.424267
903.775770	0.423566
903.957551	0.422519
904.139314	0.422901
904.321059	0.422459
904.502786	0.422366
904.684494	0.422293
904.866185	0.422639
905.047857	0.421816
905.229510	0.420839
905.411146	0.420905
905.592763	0.420640
905.774363	0.420049
905.955943	0.419824
906.137506	0.419448
906.319051	0.418474
906.500577	0.417451
906.682085	0.417331
906.863575	0.417554
907.045046	0.416934
907.226500	0.416769
907.407935	0.416275
907.589352	0.416183
907.770750	0.415077
907.952131	0.414833
908.133493	0.413856
908.314837	0.412956
908.496163	0.412427
908.677470	0.412166
908.858760	0.411491
909.040031	0.411523
909.221284	0.410524
909.402518	0.410982
909.583735	0.410450
909.764933	0.410773
909.946113	0.410245
910.127275	0.409900
910.308418	0.409045
910.489544	0.408843
910.670651	0.407657
910.851740	0.407365
911.032810	0.406414
911.213863	0.406270
911.394897	0.405713
911.575913	0.405701
911.756911	0.405684
911.937890	0.405160
912.118851	0.404598
912.299794	0.404361
912.480719	0.403478
912.661626	0.402849
912.842514	0.402639
913.023384	0.401890
913.204236	0.402386
913.385070	0.402115
913.565886	0.401912
913.746683	0.401455
913.927462	0.400703
914.108223	0.401097
914.288965	0.401184
914.469690	0.400020
914.650396	0.399575
914.831084	0.397733
915.011754	0.396417
915.192405	0.395889
915.373038	0.394672
915.553653	0.394124
915.734250	0.393645
915.914829	0.392111
916.095389	0.392068
916.275931	0.390823
916.456455	0.390610
916.636961	0.390172
916.817448	0.389391
916.997917	0.389440
917.178368	0.388854
917.358801	0.387339
917.539216	0.387690
917.719612	0.386212
917.899990	0.386097
918.080350	0.384906
918.260692	0.384280
918.441015	0.384042
918.621320	0.384371
918.801607	0.384322
918.981876	0.383446
919.162127	0.381933
919.342359	0.381357
919.522573	0.380487
919.702769	0.379168
919.882947	0.378581
920.063106	0.377952
920.243247	0.376569
920.423370	0.375951
920.603475	0.376240
920.783562	0.375896
920.963630	0.375505
921.143680	0.374264
921.323712	0.374065
921.503725	0.372858
921.683721	0.371700
921.863698	0.371404
922.043657	0.370629
922.223598	0.369444
922.403520	0.368618
922.583424	0.368719
922.763311	0.369040
922.943178	0.368729
923.123028	0.368270
923.302859	0.367698
923.482673	0.365974
923.662467	0.364592
923.842244	0.364350
924.022003	0.363545
924.201743	0.361745
924.381465	0.361229
924.561169	0.360544
924.740854	0.360360
924.920522	0.359461
925.100171	0.358083
925.279802	0.356913
925.459414	0.355827
925.639009	0.355302
925.818585	0.354573
925.998143	0.352978
926.177683	0.351897
926.357205	0.350534
926.536708	0.349330
926.716193	0.349121
926.895660	0.348791
927.075109	0.347240
927.254539	0.346207
927.433951	0.345332
927.613345	0.344050
927.792721	0.343717
927.972079	0.343120
928.151418	0.343038
928.330739	0.341944
928.510042	0.341150
928.689327	0.340721
928.868593	0.339051
929.047841	0.337444
929.227071	0.337521
929.406283	0.336222
929.585476	0.335482
929.764652	0.334650
929.943809	0.333176
930.122948	0.331424
930.302068	0.330788
930.481171	0.330743
930.660255	0.330686
930.839321	0.329102
931.018369	0.328505
931.197398	0.327019
931.376409	0.325118
931.555402	0.325191
931.734377	0.324443
931.913334	0.323115
932.092272	0.322031
932.271192	0.321436
932.450094	0.320674
932.628978	0.319658
932.807844	0.318188
932.986691	0.317043
933.165520	0.315573
933.344331	0.315028
933.523123	0.314169
933.701898	0.313475
933.880654	0.311360
934.059392	0.310498
934.238111	0.310109
934.416813	0.309636
934.595496	0.308935
934.774161	0.308541
934.952808	0.307565
935.131437	0.306792
935.310047	0.305991
935.488639	0.306046
935.667213	0.304490
935.845769	0.302485
936.024306	0.300971
936.202825	0.299538
936.381326	0.297716
936.559809	0.296613
936.738274	0.295788
936.916720	0.295458
937.095148	0.293778
937.273558	0.292960
937.451950	0.292001
937.630323	0.291699
937.808678	0.292558
937.987015	0.290799
938.165334	0.290517
938.343635	0.288809
938.521917	0.287517
938.700181	0.286959
938.878427	0.286510
939.056655	0.286427
939.234864	0.285612
939.413055	0.283847
939.591228	0.283817
939.769383	0.282240
939.947519	0.281309
940.125638	0.279143
940.303738	0.277463
940.481820	0.276768
940.659883	0.274383
940.837929	0.271091
941.015956	0.269686
941.193965	0.268517
941.371955	0.268571
941.549928	0.268144
941.727882	0.266622
941.905818	0.264910
942.083736	0.262966
942.261636	0.262597
942.439517	0.263913
942.617380	0.262811
942.795225	0.260720
942.973052	0.258882
943.150860	0.257311
943.328651	0.255691
943.506423	0.256476
943.684176	0.255521
943.861912	0.254173
944.039629	0.252547
944.217328	0.252314
944.395009	0.254625
944.572672	0.253490
944.750317	0.252178
944.927943	0.250936
945.105551	0.249575
945.283141	0.249468
945.460712	0.249263
945.638265	0.247595
945.815801	0.245481
945.993317	0.242881
946.170816	0.241032
946.348297	0.240629
946.525759	0.239772
946.703203	0.238144
946.880629	0.235566
947.058036	0.232688
947.235425	0.232814
947.412797	0.231950
947.590149	0.228788
947.767484	0.228701
947.944800	0.227818
948.122099	0.228968
948.299379	0.225734
948.476640	0.226417
948.653884	0.226364
948.831109	0.224424
949.008316	0.224661
949.185505	0.224759
949.362676	0.223834
949.539828	0.223047
949.716962	0.221343
949.894078	0.221829
950.071176	0.218284
950.248256	0.217042
950.425317	0.216782
950.602360	0.214546
950.779385	0.212582
950.956391	0.211488
951.133380	0.208328
951.310350	0.207227
951.487302	0.208353
951.664235	0.209347
951.841151	0.205685
952.018048	0.205559
952.194927	0.204852
952.371788	0.205374
952.548631	0.202701
952.725455	0.200894
952.902261	0.199157
953.079049	0.194804
953.255819	0.192502
953.432570	0.192970
953.609303	0.190615
953.786018	0.188975
953.962715	0.187365
954.139394	0.187780
954.316054	0.189939
954.492696	0.190369
954.669320	0.190030
954.845926	0.190359
955.022513	0.191489
955.199083	0.190325
955.375634	0.188786
955.552166	0.189415
955.728681	0.186980
955.905177	0.185273
956.081655	0.183614
956.258115	0.183548
956.434557	0.182278
956.610980	0.179987
956.787385	0.180032
956.963772	0.179783
957.140141	0.177279
957.316492	0.175051
957.492824	0.173647
957.669138	0.171415
957.845434	0.169720
958.021712	0.168715
958.197971	0.168541
958.374212	0.166278
958.550435	0.165465
958.726640	0.165806
958.902826	0.169105
959.078995	0.166784
959.255145	0.167712
959.431277	0.166980
959.607390	0.167362
959.783486	0.166203
959.959563	0.165743
960.135622	0.165172
960.311662	0.163562
960.487685	0.160389
960.663689	0.162451
960.839675	0.162698
961.015643	0.164307
961.191593	0.165955
961.367524	0.164498
961.543437	0.164305
961.719332	0.163320
961.895209	0.166022
962.071067	0.165711
962.246907	0.161872
962.422730	0.158659
962.598533	0.157746
962.774319	0.150648
962.950086	0.154413
963.125835	0.155218
963.301566	0.154065
963.477279	0.148938
963.652973	0.149150
963.828650	0.150522
964.004308	0.151395
964.179947	0.149105
964.355569	0.151038
964.531172	0.149547
964.706757	0.145818
964.882324	0.148440
965.057873	0.148117
965.233403	0.145755
965.408916	0.146419
965.584410	0.147796
965.759885	0.151449
965.935343	0.152306
966.110782	0.148233
966.286203	0.152318
966.461606	0.148891
966.636991	0.150948
966.812357	0.152509
966.987705	0.151853
967.163035	0.149459
967.338347	0.148888
967.513641	0.151261
967.688916	0.152816
967.864173	0.152080
968.039412	0.154120
968.214632	0.150682
968.389835	0.151149
968.565019	0.152152
968.740185	0.151587
968.915333	0.150906
969.090462	0.152329
969.265573	0.150961
969.440667	0.150330
969.615741	0.147881
969.790798	0.149470
969.965836	0.153351
970.140856	0.153910
970.315858	0.158538
970.490842	0.154295
970.665808	0.152277
970.840755	0.154853
971.015684	0.155084
971.190595	0.157901
971.365487	0.159847
971.540362	0.157409
971.715218	0.157459
971.890056	0.154138
972.064875	0.157768
972.239677	0.155874
972.414460	0.152488
972.589225	0.151248
972.763972	0.150656
972.938700	0.150681
973.113411	0.149819
973.288103	0.148481
973.462777	0.147185
973.637432	0.148753
973.812070	0.144130
973.986689	0.143013
974.161290	0.142857
974.335873	0.140553
974.510437	0.142250
974.684984	0.141105
974.859512	0.141818
975.034022	0.143040
975.208513	0.140268
975.382987	0.144390
975.557442	0.143144
975.731879	0.142327
975.906298	0.143150
976.080698	0.142360
976.255080	0.143119
976.429445	0.140949
976.603790	0.140693
976.778118	0.141109
976.952427	0.139578
977.126719	0.144006
977.300992	0.144130
977.475246	0.146176
977.649483	0.145639
977.823701	0.144842
977.997901	0.146137
978.172083	0.148144
978.346247	0.148061
978.520392	0.147458
978.694519	0.151447
978.868628	0.153601
979.042719	0.152735
979.216791	0.152013
979.390845	0.151213
979.564882	0.148464
979.738899	0.147403
979.912899	0.149492
980.086880	0.150655
980.260843	0.145895
980.434788	0.144629
980.608715	0.141189
980.782623	0.140745
980.956514	0.141176
981.130386	0.142054
981.304240	0.144276
981.478075	0.144486
981.651892	0.148054
981.825692	0.149537
981.999472	0.148918
982.173235	0.152941
982.346980	0.154402
982.520706	0.154712
982.694414	0.156185
982.868104	0.151243
983.041775	0.149497
983.215428	0.148429
983.389064	0.149516
983.562680	0.152404
983.736279	0.152061
983.909860	0.149025
984.083422	0.150646
984.256966	0.149643
984.430491	0.148258
984.603999	0.147927
984.777488	0.148923
984.950959	0.147643
985.124412	0.144875
985.297847	0.144465
985.471263	0.147315
985.644661	0.146458
985.818041	0.142870
985.991403	0.145768
986.164747	0.144462
986.338072	0.142598
986.511379	0.141806
986.684668	0.141858
986.857938	0.141543
987.031191	0.141161
987.204425	0.139428
987.377641	0.141573
987.550839	0.143981
987.724018	0.145199
987.897179	0.144272
988.070322	0.142598
988.243447	0.145825
988.416554	0.144699
988.589642	0.142213
988.762712	0.144641
988.935764	0.146742
989.108798	0.145979
989.281813	0.147125
989.454811	0.146937
989.627790	0.149750
989.800751	0.148710
989.973693	0.149774
990.146617	0.151687
990.319524	0.149554
990.492412	0.148938
990.665281	0.147822
990.838133	0.147275
991.010966	0.147989
991.183781	0.147579
991.356578	0.148374
991.529356	0.147672
991.702117	0.147537
991.874859	0.147932
992.047583	0.149477
992.220288	0.147132
992.392976	0.145971
992.565645	0.146840
992.738296	0.147141
992.910929	0.145735
993.083543	0.146110
993.256139	0.145510
993.428718	0.145786
993.601277	0.144012
993.773819	0.145826
993.946342	0.147536
994.118848	0.145700
994.291335	0.145046
994.463803	0.143057
994.636254	0.144022
994.808686	0.144302
994.981100	0.142971
995.153496	0.145556
995.325874	0.145408
995.498233	0.143360
995.670574	0.144999
995.842897	0.144273
996.015202	0.145366
996.187488	0.144782
996.359757	0.146528
996.532007	0.148197
996.704239	0.148172
996.876452	0.147931
997.048648	0.148566
997.220825	0.147123
997.392984	0.147467
997.565124	0.146417
997.737247	0.147190
997.909351	0.147163
998.081437	0.150502
998.253505	0.148684
998.425554	0.147760
998.597586	0.148065
998.769599	0.149653
998.941594	0.150622
999.113571	0.151782
999.285529	0.151056
999.457469	0.150847
999.629391	0.147552
999.801295	0.146906
999.973181	0.146396
1000.145048	0.146892
1000.316897	0.144584
1000.488728	0.143224
1000.660541	0.144328
1000.832335	0.144251
1001.004111	0.143469
1001.175869	0.144597
1001.347609	0.148224
1001.519331	0.148345
1001.691034	0.146571
1001.862719	0.149606
1002.034386	0.150022
1002.206035	0.149152
1002.377665	0.148657
1002.549277	0.149594
1002.720871	0.148339
1002.892447	0.144642
1003.064004	0.144660
1003.235544	0.146457
1003.407065	0.144420
1003.578568	0.143649
1003.750052	0.145271
1003.921519	0.145050
1004.092967	0.143595
1004.264397	0.141936
1004.435809	0.143060
1004.607202	0.143946
1004.778577	0.143778
1004.949934	0.142804
1005.121273	0.144513
1005.292594	0.144352
1005.463896	0.144340
1005.635180	0.145860
1005.806446	0.147864
1005.977694	0.146683
1006.148923	0.147808
1006.320135	0.146996
1006.491328	0.148598
1006.662503	0.147827
1006.833659	0.146387
1007.004798	0.148196
1007.175918	0.146973
1007.347020	0.147094
1007.518103	0.147638
1007.689169	0.147488
1007.860216	0.150049
1008.031245	0.149059
1008.202256	0.150763
1008.373248	0.152506
1008.544223	0.151892
1008.715179	0.152661
1008.886117	0.150708
1009.057036	0.151649
1009.227938	0.149549
1009.398821	0.149308
1009.569686	0.150920
1009.740533	0.150306
1009.911361	0.148271
1010.082172	0.147352
1010.252964	0.145536
1010.423738	0.150948
1010.594493	0.152736
1010.765231	0.154147
1010.935950	0.151454
1011.106651	0.150184
1011.277334	0.149101
1011.447998	0.147446
1011.618645	0.146601
1011.789273	0.146038
1011.959882	0.143259
1012.130474	0.141354
1012.301048	0.140696
1012.471603	0.141923
1012.642140	0.141162
1012.812658	0.140099
1012.983159	0.141092
1013.153641	0.144032
1013.324105	0.146695
1013.494551	0.146457
1013.664979	0.147404
1013.835388	0.149136
1014.005779	0.149265
1014.176152	0.150922
1014.346507	0.151779
1014.516843	0.153202
1014.687162	0.150360
1014.857462	0.147882
1015.027744	0.146872
1015.198007	0.146281
1015.368252	0.146817
1015.538480	0.145426
1015.708689	0.145732
1015.878879	0.143184
1016.049052	0.142262
1016.219206	0.142394
1016.389342	0.144351
1016.559460	0.144027
1016.729559	0.142910
1016.899641	0.142191
1017.069704	0.142753
1017.239749	0.144011
1017.409775	0.146627
1017.579784	0.147219
1017.749774	0.149448
1017.919746	0.150635
1018.089700	0.151850
1018.259635	0.152343
1018.429553	0.152727
1018.599452	0.152122
1018.769333	0.151860
1018.939195	0.153435
1019.109040	0.154437
1019.278866	0.153432
1019.448674	0.151144
1019.618464	0.150844
1019.788235	0.150978
1019.957989	0.149361
1020.127724	0.151535
1020.297441	0.153874
1020.467139	0.150071
1020.636820	0.148380
1020.806482	0.148830
1020.976126	0.146889
1021.145752	0.146449
1021.315359	0.145706
1021.484948	0.146067
1021.654519	0.145553
1021.824072	0.142082
1021.993607	0.145403
1022.163123	0.145119
1022.332621	0.144886
1022.502101	0.146552
1022.671563	0.145915
1022.841007	0.145282
1023.010432	0.145744
1023.179839	0.145133
1023.349228	0.142193
1023.518598	0.142253
1023.687951	0.142883
1023.857285	0.141567
1024.026601	0.142550
1024.195899	0.143800
1024.365178	0.144971
1024.534439	0.145744
1024.703682	0.145139
1024.872907	0.146985
1025.042114	0.147216
1025.211302	0.146157
1025.380472	0.145888
1025.549624	0.145449
1025.718758	0.145564
1025.887873	0.144737
1026.056970	0.145116
1026.226049	0.143499
1026.395110	0.143539
1026.564153	0.141903
1026.733177	0.142181
1026.902183	0.143687
1027.071171	0.145673
1027.240141	0.145049
1027.409092	0.145430
1027.578026	0.145085
1027.746940	0.150106
1027.915837	0.149185
1028.084716	0.147961
1028.253576	0.148128
1028.422418	0.146902
1028.591242	0.144688
1028.760048	0.144772
1028.928835	0.145057
1029.097604	0.142918
1029.266355	0.138825
1029.435088	0.140222
1029.603803	0.142408
1029.772499	0.143897
1029.941177	0.142401
1030.109837	0.142885
1030.278478	0.141202
1030.447102	0.140543
1030.615707	0.141678
1030.784294	0.141453
1030.952863	0.142072
1031.121413	0.142141
1031.289945	0.138896
1031.458460	0.139695
1031.626955	0.140069
1031.795433	0.140062
1031.963892	0.139340
1032.132334	0.140192
1032.300756	0.140929
1032.469161	0.139828
1032.637548	0.140238
1032.805916	0.142683
1032.974266	0.143561
1033.142598	0.143047
1033.310911	0.146213
1033.479207	0.145590
1033.647484	0.144219
1033.815743	0.144668
1033.983983	0.142889
1034.152206	0.141077
1034.320410	0.141518
1034.488596	0.139655
1034.656764	0.138310
1034.824914	0.136316
1034.993045	0.137940
1035.161158	0.138109
1035.329253	0.136234
1035.497330	0.139056
1035.665388	0.139891
1035.833428	0.138493
1036.001450	0.138919
1036.169454	0.141422
1036.337440	0.142485
1036.505407	0.142129
1036.673356	0.143550
1036.841287	0.145832
1037.009200	0.143872
1037.177094	0.143996
1037.344970	0.144641
1037.512828	0.145668
1037.680668	0.145762
1037.848489	0.144780
1038.016293	0.145395
1038.184078	0.145962
1038.351845	0.143192
1038.519593	0.144122
1038.687324	0.142736
1038.855036	0.141351
1039.022730	0.141041
1039.190406	0.139054
1039.358063	0.141256
1039.525702	0.140929
1039.693323	0.140151
1039.860926	0.141772
1040.028511	0.141779
1040.196077	0.142964
1040.363625	0.144530
1040.531155	0.146258
1040.698667	0.147099
1040.866161	0.145458
1041.033636	0.144573
1041.201093	0.142727
1041.368532	0.142639
1041.535952	0.142906
1041.703355	0.143111
1041.870739	0.142850
1042.038105	0.142458
1042.205452	0.143531
1042.372782	0.142709
1042.540093	0.143986
1042.707386	0.144622
1042.874661	0.147202
1043.041918	0.148548
1043.209156	0.149925
1043.376376	0.147924
1043.543578	0.148034
1043.710762	0.146067
1043.877927	0.144112
1044.045074	0.142501
1044.212203	0.141331
1044.379314	0.137487
1044.546407	0.137854
1044.713481	0.136252
1044.880537	0.137480
1045.047575	0.138497
1045.214595	0.137679
1045.381596	0.140901
1045.548579	0.141481
1045.715544	0.142839
1045.882491	0.144397
1046.049420	0.143410
1046.216330	0.143173
1046.383222	0.143840
1046.550096	0.142084
1046.716951	0.144703
1046.883789	0.143215
1047.050608	0.143063
1047.217409	0.142268
1047.384192	0.143955
1047.550956	0.142075
1047.717703	0.141685
1047.884431	0.143378
1048.051140	0.142398
1048.217832	0.142903
1048.384505	0.141791
1048.551161	0.143769
1048.717798	0.145693
1048.884416	0.144047
1049.051017	0.146375
1049.217599	0.146903
1049.384163	0.143799
1049.550709	0.144418
1049.717237	0.142662
1049.883746	0.145689
1050.050237	0.146794
1050.216710	0.145247
1050.383165	0.147050
1050.549601	0.147107
1050.716019	0.147768
1050.882420	0.146685
1051.048801	0.146583
1051.215165	0.146589
1051.381510	0.145975
1051.547837	0.142243
1051.714146	0.144975
1051.880437	0.144019
1052.046709	0.142301
1052.212964	0.140726
1052.379200	0.142199
1052.545417	0.144077
1052.711617	0.144521
1052.877798	0.146285
1053.043961	0.147817
1053.210106	0.146179
1053.376233	0.146938
1053.542341	0.146171
1053.708432	0.148047
1053.874504	0.148150
1054.040557	0.148604
1054.206593	0.149790
1054.372610	0.147361
1054.538609	0.147668
1054.704590	0.143128
1054.870553	0.142035
1055.036497	0.142539
1055.202424	0.141662
1055.368331	0.144667
1055.534221	0.146231
1055.700093	0.145074
1055.865946	0.144434
1056.031781	0.142483
1056.197598	0.147529
1056.363397	0.149015
1056.529177	0.148982
1056.694939	0.149536
1056.860683	0.147844
1057.026409	0.146441
1057.192116	0.146476
1057.357806	0.150064
1057.523477	0.151399
1057.689130	0.149670
1057.854764	0.148981
1058.020381	0.153456
1058.185979	0.153820
1058.351559	0.152673
1058.517120	0.150512
1058.682664	0.151524
1058.848189	0.145576
1059.013696	0.146820
1059.179185	0.146436
1059.344656	0.146164
1059.510108	0.142870
1059.675542	0.143673
1059.840958	0.144584
1060.006356	0.144140
1060.171735	0.140560
1060.337096	0.144066
1060.502439	0.142071
1060.667764	0.145748
1060.833071	0.146602
1060.998359	0.148730
1061.163629	0.145844
1061.328881	0.145486
1061.494115	0.147123
1061.659330	0.148146
1061.824527	0.148243
1061.989706	0.151599
1062.154867	0.149031
1062.320010	0.147372
1062.485134	0.145934
1062.650240	0.147831
1062.815328	0.149467
1062.980398	0.149095
1063.145449	0.149223
1063.310482	0.149930
1063.475497	0.151295
1063.640494	0.152452
1063.805473	0.150363
1063.970433	0.150135
1064.135375	0.150697
1064.300299	0.148854
1064.465204	0.149764
1064.630092	0.150038
1064.794961	0.147923
1064.959812	0.146284
1065.124645	0.146630
1065.289459	0.148263
1065.454256	0.146788
1065.619034	0.150476
1065.783793	0.151062
1065.948535	0.149885
1066.113258	0.149143
1066.277964	0.147808
1066.442651	0.148517
1066.607319	0.146395
1066.771970	0.147489
1066.936602	0.146602
1067.101216	0.142599
1067.265812	0.144764
1067.430389	0.143040
1067.594949	0.146282
1067.759490	0.150968
1067.924013	0.148276
1068.088518	0.149034
1068.253004	0.149132
1068.417472	0.154196
1068.581922	0.154003
1068.746354	0.150972
1068.910768	0.154928
1069.075163	0.152343
1069.239540	0.152510
1069.403899	0.153158
1069.568240	0.155996
1069.732562	0.156889
1069.896866	0.151260
1070.061152	0.151205
1070.225420	0.152051
1070.389670	0.151252
1070.553901	0.154414
1070.718114	0.151998
1070.882309	0.152335
1071.046486	0.152926
1071.210644	0.152102
1071.374784	0.153658
1071.538906	0.152253
1071.703010	0.151608
1071.867096	0.151458
1072.031163	0.149423
1072.195212	0.148572
1072.359243	0.148985
1072.523256	0.148771
1072.687250	0.148435
1072.851226	0.148586
1073.015184	0.149388
1073.179124	0.148182
1073.343045	0.146280
1073.506949	0.143472
1073.670834	0.143518
1073.834701	0.144447
1073.998549	0.143340
1074.162380	0.144987
1074.326192	0.149030
1074.489986	0.149517
1074.653761	0.153419
1074.817519	0.156996
1074.981258	0.161174
1075.144979	0.164212
1075.308682	0.162244
1075.472367	0.159977
1075.636033	0.157079
1075.799681	0.153041
1075.963311	0.152712
1076.126923	0.151191
1076.290516	0.149236
1076.454092	0.147169
1076.617649	0.145940
1076.781187	0.145042
1076.944708	0.146473
1077.108210	0.149621
1077.271695	0.148235
1077.435160	0.149147
1077.598608	0.152141
1077.762038	0.150869
1077.925449	0.156475
1078.088842	0.156466
1078.252217	0.157546
1078.415573	0.155999
1078.578912	0.156061
1078.742232	0.158933
1078.905534	0.158901
1079.068817	0.154822
1079.232083	0.155544
1079.395330	0.150432
1079.558559	0.152807
1079.721770	0.152297
1079.884962	0.151271
1080.048136	0.150018
1080.211293	0.150154
1080.374430	0.150248
1080.537550	0.153845
1080.700651	0.154221
1080.863735	0.156444
1081.026800	0.152751
1081.189846	0.157302
1081.352875	0.160241
1081.515885	0.158463
1081.678877	0.160544
1081.841851	0.156944
1082.004807	0.153691
1082.167744	0.152918
1082.330663	0.157271
1082.493564	0.158155
1082.656447	0.154824
1082.819312	0.155909
1082.982158	0.155495
1083.144986	0.152698
1083.307796	0.157269
1083.470587	0.156978
1083.633361	0.160717
1083.796116	0.156418
1083.958853	0.157784
1084.121571	0.157265
1084.284272	0.156894
1084.446954	0.160176
1084.609618	0.160581
1084.772264	0.161154
1084.934892	0.162520
1085.097501	0.160637
1085.260092	0.159506
1085.422665	0.158672
1085.585220	0.157478
1085.747756	0.154612
1085.910274	0.157386
1086.072774	0.157267
1086.235256	0.155769
1086.397720	0.157811
1086.560165	0.159151
1086.722592	0.157279
1086.885001	0.158409
1087.047392	0.163857
1087.209764	0.166371
1087.372119	0.165813
1087.534455	0.166081
1087.696772	0.165606
1087.859072	0.163928
1088.021353	0.162606
1088.183616	0.171153
1088.345861	0.171622
1088.508088	0.166017
1088.670296	0.162888
1088.832486	0.159223
1088.994658	0.160786
1089.156812	0.158963
1089.318948	0.160982
1089.481065	0.161067
1089.643164	0.155746
1089.805245	0.153933
1089.967308	0.157326
1090.129352	0.159926
1090.291378	0.159590
1090.453386	0.159852
1090.615376	0.164045
1090.777347	0.159131
1090.939301	0.157772
1091.101236	0.153365
1091.263153	0.154065
1091.425051	0.152505
1091.586932	0.149594
1091.748794	0.150704
1091.910638	0.152135
1092.072463	0.152438
1092.234271	0.157256
1092.396060	0.159426
1092.557831	0.162936
1092.719584	0.162543
1092.881319	0.162684
1093.043035	0.165268
1093.204733	0.167060
1093.366413	0.162377
1093.528075	0.161498
1093.689718	0.161947
1093.851343	0.165730
1094.012950	0.166505
1094.174539	0.166287
1094.336110	0.169073
1094.497662	0.173672
1094.659196	0.168813
1094.820712	0.169316
1094.982210	0.168927
1095.143689	0.166628
1095.305151	0.161716
1095.466594	0.161910
1095.628018	0.167674
1095.789425	0.165937
1095.950813	0.161116
1096.112183	0.163845
1096.273535	0.165182
1096.434869	0.165696
1096.596184	0.165370
1096.757482	0.166132
1096.918761	0.163134
1097.080021	0.160655
1097.241264	0.158063
1097.402488	0.159748
1097.563694	0.160117
1097.724882	0.162103
1097.886052	0.156435
1098.047203	0.158186
1098.208336	0.156609
1098.369451	0.158444
1098.530548	0.154956
1098.691627	0.160427
1098.852687	0.161209
1099.013729	0.163263
1099.174753	0.163272
1099.335758	0.166799
1099.496746	0.164549
1099.657715	0.163977
1099.818666	0.165494
1099.979599	0.168300
1100.140513	0.164969
1100.301409	0.161162
1100.462287	0.160781
1100.623147	0.161606
1100.783989	0.163188
1100.944812	0.165075
1101.105617	0.166353
1101.266404	0.164534
1101.427173	0.160735
1101.587923	0.160198
1101.748656	0.161698
1101.909370	0.159953
1102.070066	0.159031
1102.230743	0.165583
1102.391403	0.168202
1102.552044	0.166402
1102.712667	0.166473
1102.873271	0.168397
1103.033858	0.169386
1103.194426	0.174180
1103.354976	0.175033
1103.515508	0.174381
1103.676021	0.164976
1103.836517	0.164159
1103.996994	0.172345
1104.157453	0.174339
1104.317893	0.177146
1104.478316	0.181450
1104.638720	0.175581
1104.799106	0.174303
1104.959474	0.175261
1105.119823	0.174950
1105.280155	0.166959
1105.440468	0.162386
1105.600763	0.162621
1105.761039	0.163717
1105.921298	0.160371
1106.081538	0.157550
1106.241760	0.155829
1106.401964	0.158609
1106.562149	0.157480
1106.722316	0.161804
1106.882465	0.159130
1107.042596	0.163890
1107.202709	0.171117
1107.362803	0.171040
1107.522879	0.174738
1107.682937	0.183081
1107.842977	0.179525
1108.002999	0.185868
1108.163002	0.187992
1108.322987	0.192033
1108.482954	0.188348
1108.642902	0.173122
1108.802833	0.172129
1108.962745	0.171274
1109.122639	0.168404
1109.282515	0.170153
1109.442372	0.175669
1109.602211	0.175186
1109.762032	0.177546
1109.921835	0.179444
1110.081620	0.181125
1110.241386	0.183828
1110.401134	0.187085
1110.560864	0.185566
1110.720576	0.184776
1110.880269	0.182212
1111.039945	0.183878
1111.199602	0.181207
1111.359240	0.177169
1111.518861	0.178322
1111.678463	0.178727
1111.838047	0.181113
1111.997613	0.184640
1112.157161	0.181537
1112.316690	0.178539
1112.476202	0.173622
1112.635695	0.168069
1112.795169	0.167855
1112.954626	0.168772
1113.114064	0.164015
1113.273484	0.161477
1113.432886	0.165007
1113.592270	0.168457
1113.751635	0.175936
1113.910983	0.178223
1114.070312	0.190167
1114.229622	0.193533
1114.388915	0.197293
1114.548189	0.197582
1114.707445	0.197501
1114.866683	0.193731
1115.025903	0.194005
1115.185104	0.187594
1115.344287	0.188861
1115.503452	0.188459
1115.662599	0.185422
1115.821727	0.183910
1115.980838	0.184340
1116.139930	0.184846
1116.299004	0.178286
1116.458059	0.174066
1116.617097	0.173665
1116.776116	0.178778
1116.935117	0.172018
1117.094099	0.175344
1117.253064	0.175237
1117.412010	0.177873
1117.570938	0.186254
1117.729848	0.189462
1117.888740	0.193923
1118.047613	0.190946
1118.206468	0.183725
1118.365305	0.175903
1118.524124	0.176450
1118.682924	0.181050
1118.841707	0.184150
1119.000471	0.181474
1119.159216	0.181401
1119.317944	0.175109
1119.476653	0.180887
1119.635344	0.188033
1119.794017	0.198337
1119.952672	0.201554
1120.111308	0.203761
1120.269927	0.200904
1120.428527	0.203446
1120.587108	0.199769
1120.745672	0.203293
1120.904217	0.201966
1121.062744	0.202593
1121.221253	0.203982
1121.379744	0.200176
1121.538216	0.194370
1121.696671	0.193771
1121.855107	0.184111
1122.013524	0.191220
1122.171924	0.195767
1122.330305	0.194384
1122.488668	0.190290
1122.647013	0.187235
1122.805340	0.191476
1122.963648	0.188957
1123.121938	0.191394
1123.280210	0.198229
1123.438464	0.197455
1123.596700	0.194686
1123.754917	0.190665
1123.913116	0.188816
1124.071297	0.185935
1124.229459	0.178158
1124.387604	0.183300
1124.545730	0.175237
1124.703838	0.171662
1124.861928	0.179148
1125.019999	0.180176
1125.178052	0.185555
1125.336088	0.189015
1125.494104	0.194473
1125.652103	0.197267
1125.810083	0.192559
1125.968045	0.192009
1126.125989	0.189110
1126.283915	0.183795
1126.441823	0.182210
1126.599712	0.171805
1126.757583	0.169097
1126.915436	0.168154
1127.073270	0.169030
1127.231087	0.180646
1127.388885	0.193435
1127.546665	0.200122
1127.704426	0.201975
1127.862170	0.200948
1128.019895	0.212440
1128.177602	0.213406
1128.335291	0.212464
1128.492961	0.214741
1128.650614	0.200994
1128.808248	0.192817
1128.965864	0.196881
1129.123461	0.192820
1129.281041	0.200087
1129.438602	0.198954
1129.596145	0.199986
1129.753670	0.203136
1129.911176	0.197358
1130.068665	0.202368
1130.226135	0.202016
1130.383587	0.188258
1130.541020	0.193218
1130.698436	0.194144
1130.855833	0.190030
1131.013212	0.188118
1131.170573	0.183605
1131.327915	0.179574
1131.485239	0.172685
1131.642545	0.174353
1131.799833	0.177993
1131.957103	0.166913
1132.114354	0.160751
1132.271588	0.158740
1132.428803	0.159934
1132.585999	0.163791
1132.743178	0.172904
1132.900338	0.184967
1133.057480	0.191669
1133.214604	0.193986
1133.371710	0.197900
1133.528797	0.198063
1133.685866	0.207508
1133.842917	0.204271
1133.999950	0.194434
1134.156964	0.187198
1134.313960	0.174038
1134.470938	0.163883
1134.627898	0.161105
1134.784840	0.162051
1134.941763	0.154708
1135.098668	0.150384
1135.255555	0.147647
1135.412424	0.149378
1135.569274	0.155562
1135.726107	0.160339
1135.882921	0.167751
1136.039716	0.165958
1136.196494	0.167934
1136.353253	0.175473
1136.509995	0.170379
1136.666717	0.174610
1136.823422	0.183272
1136.980109	0.179194
1137.136777	0.178384
1137.293427	0.179100
1137.450059	0.199529
1137.606672	0.198590
1137.763267	0.204742
1137.919844	0.209497
1138.076403	0.213919
1138.232944	0.210469
1138.389466	0.219544
1138.545971	0.217974
1138.702457	0.213805
1138.858924	0.191609
1139.015374	0.195410
1139.171805	0.188052
1139.328218	0.188257
1139.484613	0.179656
1139.640990	0.170957
1139.797348	0.160434
1139.953688	0.161622
1140.110010	0.159662
1140.266314	0.164793
1140.422600	0.153294
1140.578867	0.155761
1140.735116	0.152793
1140.891347	0.158718
1141.047559	0.165044
1141.203754	0.176215
1141.359930	0.181251
1141.516088	0.176861
1141.672228	0.169856
1141.828349	0.179262
1141.984452	0.173512
1142.140537	0.180802
1142.296604	0.182878
1142.452653	0.181453
1142.608683	0.175444
1142.764695	0.182711
1142.920689	0.191924
1143.076665	0.199846
1143.232622	0.197051
1143.388562	0.202538
1143.544483	0.198907
1143.700385	0.194113
1143.856270	0.188384
1144.012136	0.180359
1144.167985	0.163033
1144.323814	0.166382
1144.479626	0.160574
1144.635420	0.165891
1144.791195	0.163411
1144.946952	0.161364
1145.102691	0.170211
1145.258411	0.178364
1145.414113	0.187808
1145.569798	0.194404
1145.725463	0.205006
1145.881111	0.199777
1146.036741	0.186954
1146.192352	0.184838
1146.347945	0.190845
1146.503519	0.184281
1146.659076	0.187762
1146.814614	0.186848
1146.970134	0.187419
1147.125636	0.164715
1147.281120	0.163321
1147.436585	0.176716
1147.592032	0.184858
1147.747461	0.192300
1147.902872	0.190822
1148.058265	0.187789
1148.213639	0.185081
1148.368995	0.182491
1148.524333	0.191835
1148.679653	0.197660
1148.834954	0.189416
1148.990237	0.192624
1149.145502	0.188554
1149.300749	0.182152
1149.455977	0.185417
1149.611188	0.175978
1149.766380	0.172355
1149.921553	0.170374
1150.076709	0.174462
1150.231846	0.175160
1150.386966	0.181962
1150.542066	0.180040
1150.697149	0.179341
1150.852214	0.175970
1151.007260	0.190511
1151.162288	0.191475
1151.317298	0.196627
1151.472289	0.190339
1151.627263	0.191107
1151.782218	0.177307
1151.937155	0.172673
1152.092073	0.175787
1152.246974	0.169284
1152.401856	0.160243
1152.556720	0.170486
1152.711566	0.173712
1152.866393	0.174924
1153.021203	0.178263
1153.175994	0.175876
1153.330767	0.174575
1153.485521	0.187674
1153.640258	0.196255
1153.794976	0.202683
1153.949676	0.196047
1154.104358	0.182808
1154.259021	0.197367
1154.413667	0.185912
1154.568294	0.179320
1154.722903	0.171894
1154.877493	0.164877
1155.032066	0.162364
1155.186620	0.160207
1155.341156	0.162669
1155.495674	0.175508
1155.650173	0.176540
1155.804654	0.187197
1155.959118	0.194186
1156.113562	0.197732
1156.267989	0.204757
1156.422397	0.204877
1156.576788	0.201488
1156.731160	0.197769
1156.885513	0.192484
1157.039849	0.172082
1157.194166	0.175413
1157.348465	0.183373
1157.502746	0.179027
1157.657009	0.164046
1157.811253	0.169021
1157.965479	0.181377
1158.119687	0.170431
1158.273877	0.163198
1158.428048	0.175545
1158.582201	0.167628
1158.736337	0.158295
1158.890453	0.158272
1159.044552	0.157322
1159.198632	0.151254
1159.352694	0.146139
1159.506738	0.171719
1159.660764	0.170796
1159.814771	0.156522
1159.968761	0.165685
1160.122732	0.171241
1160.276685	0.183513
1160.430619	0.188877
1160.584535	0.179693
1160.738434	0.182036
1160.892313	0.173640
1161.046175	0.179443
1161.200019	0.176539
1161.353844	0.175154
1161.507651	0.174840
1161.661440	0.169592
1161.815210	0.169736
1161.968962	0.166714
1162.122697	0.152649
1162.276412	0.141984
1162.430110	0.159037
1162.583789	0.163442
1162.737451	0.164257
1162.891094	0.163802
1163.044718	0.167799
1163.198325	0.175940
1163.351913	0.192201
1163.505483	0.198872
1163.659035	0.215129
1163.812569	0.201800
1163.966084	0.231186
1164.119581	0.216014
1164.273060	0.221393
1164.426521	0.211723
1164.579964	0.222917
1164.733388	0.207869
1164.886794	0.212566
1165.040182	0.194534
1165.193551	0.179172
1165.346903	0.162800
1165.500236	0.174606
1165.653551	0.171449
1165.806848	0.173823
1165.960126	0.159741
1166.113386	0.167642
1166.266628	0.184968
1166.419852	0.200308
1166.573058	0.197927
1166.726245	0.206664
1166.879414	0.196244
1167.032565	0.185146
1167.185698	0.200127
1167.338812	0.205678
1167.491909	0.199429
1167.644987	0.188767
1167.798046	0.171616
1167.951088	0.163872
1168.104111	0.151349
1168.257117	0.165804
1168.410103	0.189170
1168.563072	0.186992
1168.716023	0.178644
1168.868955	0.187767
1169.021869	0.177419
1169.174765	0.193931
1169.327642	0.222307
1169.480501	0.226533
1169.633343	0.207611
1169.786165	0.192681
1169.938970	0.168325
1170.091757	0.175153
1170.244525	0.187923
1170.397275	0.186595
1170.550007	0.188033
1170.702720	0.177478
1170.855415	0.176083
1171.008092	0.169613
1171.160751	0.155810
1171.313392	0.159073
1171.466014	0.143502
1171.618619	0.076364
1171.771205	0.076364
1171.923772	0.076364
