sample name	sample
index	996
start time	 04-14-2021  04:28:29 PM


Wavelength (nm)	Absorbance
494.344910	-0.369565
494.563924	-0.369565
494.782919	-0.369565
495.001897	-0.231753
495.220856	-0.150877
495.439797	-0.124983
495.658719	-0.062322
495.877624	-0.056245
496.096510	0.054242
496.315378	0.080141
496.534227	0.566223
496.753059	1.146435
496.971872	0.361154
497.190667	0.168908
497.409444	0.162248
497.628203	0.160015
497.846943	0.163989
498.065665	0.161365
498.284369	0.163021
498.503055	0.162913
498.721723	0.164173
498.940372	0.166200
499.159003	0.166675
499.377616	0.168594
499.596210	0.169564
499.814787	0.168574
500.033345	0.169797
500.251885	0.168388
500.470406	0.168444
500.688910	0.166923
500.907395	0.165256
501.125862	0.164171
501.344311	0.162979
501.562742	0.164441
501.781154	0.166245
501.999548	0.166501
502.217924	0.166615
502.436282	0.165589
502.654621	0.166215
502.872942	0.166371
503.091245	0.167658
503.309530	0.167876
503.527797	0.166903
503.746045	0.165523
503.964275	0.165386
504.182487	0.166215
504.400681	0.167137
504.618856	0.167757
504.837013	0.168392
505.055152	0.168880
505.273273	0.169697
505.491376	0.169981
505.709460	0.170185
505.927526	0.172131
506.145574	0.173895
506.363604	0.173766
506.581615	0.174430
506.799608	0.174448
507.017583	0.174434
507.235540	0.174534
507.453478	0.174710
507.671399	0.174355
507.889301	0.173487
508.107185	0.172355
508.325050	0.172959
508.542898	0.172687
508.760727	0.173436
508.978538	0.172998
509.196330	0.173148
509.414105	0.173927
509.631861	0.174740
509.849599	0.174920
510.067319	0.174297
510.285021	0.174549
510.502704	0.174232
510.720369	0.173874
510.938016	0.174638
511.155645	0.174688
511.373255	0.174399
511.590848	0.175267
511.808422	0.175322
512.025977	0.176694
512.243515	0.177367
512.461034	0.178025
512.678536	0.178239
512.896018	0.178796
513.113483	0.180262
513.330930	0.180266
513.548358	0.180637
513.765768	0.180796
513.983160	0.180726
514.200533	0.180374
514.417889	0.180278
514.635226	0.181013
514.852545	0.181263
515.069845	0.180539
515.287128	0.182028
515.504392	0.182246
515.721638	0.182647
515.938866	0.182244
516.156075	0.182380
516.373267	0.183544
516.590440	0.183715
516.807594	0.183584
517.024731	0.183723
517.241850	0.183617
517.458950	0.183144
517.676032	0.183127
517.893095	0.183959
518.110141	0.184395
518.327168	0.183919
518.544177	0.184418
518.761168	0.184426
518.978141	0.184797
519.195095	0.184323
519.412031	0.185113
519.628949	0.186407
519.845849	0.187400
520.062731	0.187256
520.279594	0.187491
520.496439	0.188225
520.713266	0.188985
520.930074	0.189476
521.146865	0.190213
521.363637	0.190095
521.580391	0.189559
521.797127	0.190037
522.013844	0.190771
522.230543	0.192173
522.447224	0.192529
522.663887	0.192715
522.880532	0.193133
523.097158	0.193251
523.313766	0.194085
523.530356	0.194766
523.746928	0.193889
523.963481	0.194159
524.180017	0.192866
524.396534	0.193211
524.613032	0.194547
524.829513	0.194894
525.045975	0.194975
525.262420	0.195034
525.478845	0.195170
525.695253	0.195699
525.911643	0.196071
526.128014	0.197965
526.344367	0.198331
526.560702	0.197524
526.777018	0.197235
526.993316	0.197823
527.209597	0.197927
527.425858	0.198180
527.642102	0.199237
527.858328	0.199836
528.074535	0.199144
528.290724	0.199558
528.506894	0.200458
528.723047	0.201288
528.939181	0.202160
529.155297	0.202866
529.371395	0.203341
529.587475	0.203752
529.803536	0.203649
530.019579	0.203884
530.235604	0.202929
530.451611	0.202734
530.667600	0.202598
530.883570	0.202609
531.099522	0.203155
531.315456	0.203435
531.531372	0.202633
531.747269	0.203269
531.963148	0.203911
532.179009	0.204923
532.394852	0.205946
532.610676	0.207039
532.826482	0.207268
533.042271	0.207350
533.258040	0.207111
533.473792	0.207774
533.689525	0.208267
533.905240	0.209091
534.120937	0.209486
534.336616	0.209812
534.552277	0.210086
534.767919	0.210593
534.983543	0.210888
535.199149	0.212493
535.414736	0.213664
535.630306	0.213799
535.845857	0.214183
536.061390	0.214555
536.276904	0.214336
536.492401	0.214958
536.707879	0.215370
536.923339	0.215929
537.138781	0.215495
537.354204	0.215655
537.569610	0.215954
537.784997	0.216328
538.000366	0.216795
538.215716	0.217567
538.431049	0.217987
538.646363	0.218155
538.861659	0.218574
539.076937	0.219367
539.292196	0.219402
539.507438	0.219835
539.722661	0.220084
539.937866	0.220289
540.153052	0.220799
540.368221	0.220221
540.583371	0.220656
540.798503	0.220426
541.013617	0.220801
541.228712	0.221357
541.443789	0.221507
541.658848	0.221415
541.873889	0.221414
542.088912	0.221367
542.303916	0.222043
542.518902	0.222455
542.733870	0.223220
542.948820	0.223745
543.163752	0.223894
543.378665	0.224872
543.593560	0.225702
543.808437	0.226159
544.023295	0.226261
544.238136	0.226709
544.452958	0.226705
544.667762	0.227338
544.882548	0.226491
545.097315	0.226910
545.312064	0.226844
545.526795	0.227015
545.741508	0.227798
545.956203	0.228464
546.170879	0.228659
546.385537	0.228745
546.600177	0.228504
546.814799	0.229446
547.029402	0.229315
547.243988	0.229398
547.458555	0.229530
547.673103	0.229311
547.887634	0.229726
548.102146	0.230372
548.316640	0.231149
548.531116	0.231930
548.745574	0.232313
548.960013	0.233439
549.174435	0.233944
549.388838	0.234448
549.603222	0.234372
549.817589	0.234694
550.031937	0.234537
550.246267	0.234897
550.460579	0.234839
550.674873	0.235026
550.889148	0.234924
551.103405	0.235197
551.317644	0.235627
551.531865	0.236443
551.746068	0.236656
551.960252	0.237019
552.174418	0.236312
552.388566	0.236991
552.602696	0.237329
552.816807	0.237585
553.030900	0.237682
553.244975	0.237680
553.459032	0.238153
553.673070	0.238296
553.887091	0.238193
554.101093	0.239003
554.315077	0.238201
554.529042	0.238303
554.742990	0.238709
554.956919	0.239253
555.170830	0.239010
555.384722	0.238850
555.598597	0.239312
555.812453	0.240285
556.026291	0.240894
556.240111	0.242149
556.453913	0.242532
556.667696	0.242203
556.881461	0.242092
557.095208	0.242743
557.308937	0.243383
557.522647	0.243093
557.736339	0.243029
557.950013	0.243207
558.163669	0.242900
558.377307	0.243173
558.590926	0.243698
558.804527	0.243847
559.018110	0.244235
559.231675	0.243930
559.445221	0.244215
559.658749	0.244595
559.872259	0.245151
560.085751	0.245898
560.299225	0.245831
560.512680	0.245867
560.726117	0.246212
560.939536	0.246758
561.152937	0.247207
561.366319	0.247395
561.579683	0.247795
561.793029	0.247526
562.006357	0.247082
562.219667	0.247236
562.432958	0.247310
562.646231	0.247629
562.859486	0.247567
563.072723	0.247809
563.285941	0.248114
563.499141	0.247694
563.712323	0.247798
563.925487	0.248286
564.138632	0.248849
564.351760	0.249207
564.564869	0.249695
564.777960	0.249607
564.991032	0.249678
565.204087	0.250293
565.417123	0.250908
565.630141	0.251503
565.843140	0.251459
566.056122	0.251334
566.269085	0.251715
566.482030	0.251397
566.694957	0.251736
566.907866	0.252251
567.120756	0.252053
567.333628	0.251939
567.546482	0.252197
567.759318	0.253021
567.972135	0.253555
568.184935	0.253303
568.397716	0.253310
568.610478	0.253434
568.823223	0.253135
569.035949	0.253473
569.248657	0.253582
569.461347	0.253371
569.674019	0.253179
569.886672	0.253204
570.099308	0.253882
570.311925	0.254454
570.524523	0.254631
570.737104	0.254904
570.949666	0.255087
571.162210	0.255625
571.374736	0.255581
571.587244	0.255273
571.799733	0.255421
572.012205	0.255561
572.224658	0.255521
572.437092	0.256097
572.649509	0.256455
572.861907	0.256885
573.074287	0.256898
573.286649	0.257103
573.498993	0.257463
573.711318	0.257662
573.923625	0.257696
574.135914	0.257793
574.348185	0.257736
574.560438	0.258098
574.772672	0.258078
574.984888	0.258268
575.197086	0.258677
575.409266	0.259064
575.621427	0.259558
575.833570	0.259432
576.045695	0.259976
576.257802	0.259802
576.469890	0.260179
576.681961	0.260293
576.894013	0.260331
577.106046	0.260223
577.318062	0.260565
577.530059	0.260359
577.742039	0.260647
577.954000	0.260308
578.165942	0.260936
578.377867	0.260511
578.589773	0.260687
578.801661	0.260698
579.013531	0.261216
579.225382	0.261393
579.437216	0.261765
579.649031	0.262281
579.860828	0.262471
580.072606	0.262675
580.284367	0.262767
580.496109	0.263223
580.707833	0.263610
580.919539	0.263500
581.131227	0.263300
581.342896	0.263126
581.554547	0.263019
581.766180	0.263413
581.977795	0.263447
582.189391	0.263602
582.400969	0.263174
582.612529	0.263447
582.824071	0.263939
583.035595	0.264251
583.247100	0.264425
583.458587	0.264611
583.670056	0.265126
583.881506	0.265005
584.092939	0.265641
584.304353	0.266173
584.515749	0.266008
584.727127	0.266103
584.938486	0.266638
585.149828	0.267046
585.361151	0.267422
585.572456	0.267528
585.783742	0.268205
585.995011	0.268515
586.206261	0.268833
586.417493	0.269393
586.628706	0.269830
586.839902	0.269802
587.051079	0.270138
587.262238	0.270340
587.473379	0.270477
587.684502	0.270480
587.895606	0.270205
588.106692	0.270170
588.317760	0.270566
588.528810	0.270753
588.739841	0.270882
588.950855	0.271011
589.161850	0.271378
589.372827	0.271634
589.583785	0.271883
589.794726	0.272446
590.005648	0.272552
590.216552	0.272371
590.427437	0.272484
590.638305	0.272917
590.849154	0.272946
591.059985	0.272997
591.270798	0.273100
591.481592	0.273451
591.692369	0.273668
591.903127	0.274092
592.113867	0.274397
592.324588	0.274393
592.535292	0.274537
592.745977	0.274834
592.956644	0.274974
593.167293	0.275299
593.377923	0.275299
593.588536	0.275820
593.799130	0.275854
594.009706	0.276156
594.220263	0.276256
594.430803	0.276573
594.641324	0.276820
594.851827	0.277026
595.062312	0.277260
595.272778	0.277273
595.483227	0.277194
595.693657	0.277517
595.904069	0.277422
596.114462	0.277869
596.324838	0.277799
596.535195	0.277981
596.745534	0.278080
596.955855	0.278389
597.166157	0.278549
597.376441	0.278288
597.586707	0.278085
597.796955	0.278628
598.007185	0.278488
598.217396	0.278937
598.427589	0.279233
598.637764	0.279546
598.847921	0.279558
599.058060	0.280091
599.268180	0.280492
599.478282	0.280569
599.688366	0.280992
599.898431	0.281749
600.108479	0.281740
600.318508	0.281816
600.528519	0.281769
600.738511	0.282023
600.948486	0.281739
601.158442	0.281724
601.368380	0.282199
601.578300	0.282276
601.788202	0.282310
601.998085	0.282584
602.207950	0.282273
602.417797	0.282821
602.627626	0.282801
602.837436	0.283038
603.047228	0.283435
603.257002	0.283784
603.466758	0.283574
603.676496	0.283920
603.886215	0.284017
604.095916	0.284489
604.305599	0.284325
604.515264	0.284435
604.724910	0.284852
604.934538	0.284876
605.144148	0.284903
605.353740	0.285101
605.563314	0.284591
605.772869	0.284741
605.982406	0.285169
606.191925	0.285739
606.401425	0.285821
606.610908	0.285977
606.820372	0.286160
607.029818	0.286718
607.239246	0.286849
607.448655	0.287245
607.658047	0.287376
607.867420	0.287519
608.076775	0.287417
608.286111	0.287465
608.495430	0.287579
608.704730	0.287836
608.914012	0.287611
609.123275	0.287814
609.332521	0.287980
609.541748	0.288076
609.750957	0.288225
609.960148	0.288476
610.169321	0.288820
610.378475	0.288869
610.587611	0.289119
610.796729	0.289582
611.005829	0.290027
611.214910	0.290246
611.423974	0.290428
611.633019	0.290526
611.842045	0.290671
612.051054	0.291189
612.260044	0.291581
612.469017	0.291789
612.677970	0.291660
612.886906	0.291330
613.095824	0.291765
613.304723	0.292046
613.513604	0.292376
613.722467	0.292326
613.931311	0.292120
614.140138	0.291913
614.348946	0.291843
614.557736	0.291940
614.766507	0.292711
614.975261	0.292761
615.183996	0.292758
615.392713	0.292366
615.601412	0.292570
615.810092	0.292893
616.018754	0.293333
616.227399	0.293731
616.436024	0.293842
616.644632	0.294236
616.853222	0.294495
617.061793	0.294713
617.270346	0.294821
617.478880	0.295097
617.687397	0.295063
617.895895	0.295096
618.104375	0.295197
618.312837	0.295800
618.521281	0.295455
618.729706	0.295394
618.938113	0.295849
619.146502	0.296428
619.354873	0.296623
619.563226	0.297022
619.771560	0.297338
619.979876	0.297217
620.188174	0.297112
620.396453	0.297320
620.604715	0.297621
620.812958	0.297569
621.021183	0.297795
621.229390	0.297941
621.437578	0.297719
621.645748	0.297682
621.853900	0.298214
622.062034	0.298581
622.270150	0.298759
622.478247	0.298996
622.686326	0.299535
622.894387	0.299665
623.102430	0.299768
623.310454	0.300608
623.518461	0.300926
623.726449	0.301157
623.934418	0.300755
624.142370	0.300793
624.350303	0.300672
624.558218	0.300153
624.766115	0.300182
624.973994	0.300309
625.181855	0.300482
625.389697	0.300611
625.597521	0.300662
625.805327	0.301506
626.013114	0.301611
626.220883	0.301900
626.428634	0.302402
626.636367	0.302785
626.844082	0.303121
627.051778	0.303030
627.259457	0.303149
627.467117	0.303285
627.674758	0.303063
627.882382	0.303225
628.089987	0.303349
628.297574	0.303656
628.505143	0.303949
628.712694	0.304216
628.920226	0.304042
629.127740	0.304242
629.335236	0.304514
629.542714	0.304910
629.750174	0.305284
629.957615	0.305679
630.165038	0.305766
630.372443	0.305704
630.579829	0.306049
630.787198	0.306636
630.994548	0.306993
631.201880	0.307139
631.409194	0.307015
631.616489	0.307300
631.823766	0.307600
632.031025	0.307878
632.238266	0.308303
632.445489	0.307902
632.652693	0.307726
632.859879	0.307949
633.067047	0.308194
633.274197	0.308616
633.481329	0.308508
633.688442	0.308430
633.895537	0.308506
634.102614	0.308462
634.309672	0.308791
634.516713	0.309023
634.723735	0.308858
634.930739	0.309030
635.137724	0.309116
635.344692	0.309302
635.551641	0.309371
635.758572	0.309316
635.965485	0.309555
636.172379	0.309602
636.379256	0.309836
636.586114	0.310098
636.792954	0.310226
636.999775	0.310265
637.206579	0.310543
637.413364	0.310738
637.620131	0.311132
637.826880	0.311148
638.033610	0.311732
638.240323	0.312077
638.447017	0.312348
638.653692	0.312109
638.860350	0.312289
639.066990	0.312637
639.273611	0.312914
639.480214	0.313320
639.686798	0.313712
639.893365	0.313715
640.099913	0.313939
640.306443	0.314286
640.512955	0.315025
640.719449	0.315267
640.925924	0.315501
641.132381	0.315360
641.338820	0.315167
641.545241	0.315140
641.751644	0.315497
641.958028	0.315156
642.164394	0.315255
642.370742	0.315148
642.577071	0.315606
642.783383	0.315480
642.989676	0.315835
643.195951	0.316167
643.402207	0.316391
643.608446	0.316265
643.814666	0.316601
644.020868	0.316915
644.227052	0.317017
644.433218	0.316768
644.639365	0.317262
644.845494	0.317419
645.051605	0.317509
645.257698	0.317718
645.463772	0.318076
645.669828	0.318447
645.875866	0.318043
646.081886	0.318328
646.287888	0.318801
646.493871	0.318767
646.699836	0.318966
646.905783	0.319307
647.111712	0.319493
647.317622	0.319694
647.523514	0.319814
647.729388	0.320517
647.935244	0.320920
648.141082	0.321153
648.346901	0.321254
648.552702	0.321612
648.758485	0.321883
648.964250	0.322139
649.169996	0.322676
649.375724	0.322875
649.581434	0.323004
649.787126	0.322985
649.992800	0.323027
650.198455	0.323582
650.404092	0.323490
650.609711	0.323659
650.815311	0.323745
651.020894	0.323506
651.226458	0.323835
651.432004	0.323773
651.637532	0.324025
651.843041	0.324336
652.048532	0.324515
652.254006	0.324936
652.459460	0.325065
652.664897	0.325508
652.870315	0.325927
653.075716	0.325993
653.281097	0.326524
653.486461	0.326790
653.691807	0.327053
653.897134	0.327086
654.102443	0.327632
654.307734	0.327551
654.513006	0.327910
654.718261	0.327942
654.923497	0.328344
655.128715	0.328757
655.333915	0.329026
655.539096	0.329155
655.744259	0.329516
655.949404	0.329710
656.154531	0.330294
656.359640	0.330609
656.564730	0.330973
656.769802	0.331235
656.974856	0.331296
657.179892	0.331364
657.384909	0.331605
657.589908	0.331717
657.794889	0.331932
657.999852	0.332381
658.204797	0.332317
658.409723	0.332668
658.614631	0.332959
658.819521	0.332972
659.024393	0.333064
659.229246	0.333009
659.434081	0.333023
659.638898	0.332969
659.843697	0.332958
660.048478	0.332999
660.253240	0.332866
660.457984	0.332928
660.662710	0.333223
660.867417	0.333671
661.072107	0.334451
661.276778	0.334872
661.481431	0.334986
661.686066	0.335258
661.890682	0.335874
662.095281	0.336280
662.299861	0.336592
662.504422	0.336987
662.708966	0.337506
662.913491	0.337639
663.117999	0.338003
663.322488	0.338467
663.526958	0.338777
663.731411	0.338870
663.935845	0.339385
664.140261	0.339975
664.344659	0.340049
664.549038	0.340054
664.753400	0.340274
664.957743	0.340472
665.162068	0.340932
665.366375	0.341134
665.570663	0.341400
665.774933	0.341448
665.979185	0.341462
666.183419	0.341485
666.387635	0.341536
666.591832	0.341750
666.796011	0.341854
667.000172	0.342161
667.204315	0.342141
667.408439	0.342159
667.612545	0.342472
667.816634	0.342706
668.020703	0.343348
668.224755	0.343712
668.428788	0.343809
668.632803	0.344431
668.836800	0.344339
669.040779	0.344784
669.244739	0.345284
669.448681	0.345326
669.652605	0.345344
669.856511	0.345428
670.060399	0.345571
670.264268	0.345955
670.468119	0.345703
670.671952	0.346153
670.875767	0.346444
671.079563	0.346476
671.283341	0.346686
671.487101	0.346892
671.690843	0.347328
671.894567	0.347887
672.098272	0.348291
672.301959	0.349001
672.505628	0.348924
672.709278	0.349034
672.912911	0.349406
673.116525	0.350083
673.320121	0.350384
673.523699	0.350391
673.727258	0.350487
673.930799	0.350650
674.134322	0.350605
674.337827	0.351367
674.541314	0.351904
674.744782	0.352097
674.948232	0.352330
675.151664	0.352906
675.355078	0.353194
675.558474	0.353573
675.761851	0.353800
675.965210	0.354074
676.168551	0.353991
676.371873	0.353998
676.575178	0.354484
676.778464	0.354607
676.981732	0.354670
677.184981	0.354780
677.388213	0.354788
677.591426	0.354825
677.794621	0.355390
677.997798	0.355571
678.200956	0.355746
678.404097	0.356106
678.607219	0.356393
678.810323	0.356627
679.013408	0.357136
679.216476	0.357534
679.419525	0.358048
679.622556	0.357941
679.825569	0.358241
680.028563	0.358697
680.231540	0.358905
680.434498	0.358994
680.637438	0.359201
680.840359	0.359418
681.043263	0.359677
681.246148	0.359891
681.449015	0.360239
681.651864	0.360213
681.854694	0.360401
682.057506	0.360204
682.260301	0.360437
682.463076	0.360731
682.665834	0.360859
682.868573	0.361067
683.071295	0.361078
683.273998	0.361539
683.476682	0.361980
683.679349	0.362321
683.881997	0.362772
684.084627	0.362973
684.287239	0.363230
684.489833	0.363532
684.692408	0.363586
684.894965	0.363970
685.097504	0.364073
685.300025	0.364380
685.502527	0.364427
685.705012	0.364481
685.907478	0.364742
686.109925	0.365016
686.312355	0.365137
686.514766	0.365535
686.717159	0.365635
686.919534	0.365412
687.121891	0.365512
687.324230	0.365734
687.526550	0.366145
687.728852	0.366361
687.931136	0.366411
688.133401	0.366898
688.335649	0.367138
688.537878	0.367393
688.740089	0.367901
688.942281	0.368276
689.144456	0.368381
689.346612	0.368440
689.548750	0.368482
689.750870	0.368711
689.952971	0.368726
690.155055	0.369056
690.357120	0.369249
690.559167	0.369818
690.761195	0.369935
690.963206	0.370496
691.165198	0.370784
691.367172	0.371271
691.569128	0.371462
691.771065	0.371956
691.972984	0.372032
692.174885	0.372033
692.376768	0.372101
692.578633	0.372419
692.780479	0.372469
692.982308	0.372567
693.184118	0.372668
693.385909	0.373360
693.587683	0.373533
693.789438	0.373960
693.991175	0.374329
694.192894	0.374345
694.394595	0.374302
694.596277	0.374451
694.797941	0.374441
694.999587	0.374543
695.201215	0.374196
695.402824	0.374027
695.604416	0.373823
695.805989	0.373996
696.007543	0.374100
696.209080	0.374267
696.410598	0.374193
696.612099	0.374379
696.813580	0.374504
697.015044	0.374883
697.216490	0.375082
697.417917	0.375378
697.619326	0.375556
697.820717	0.375669
698.022089	0.375914
698.223444	0.376287
698.424780	0.376751
698.626098	0.377137
698.827397	0.377112
699.028679	0.377188
699.229942	0.377609
699.431187	0.377750
699.632414	0.377831
699.833622	0.378009
700.034813	0.378152
700.235985	0.378241
700.437139	0.378168
700.638274	0.378368
700.839392	0.378541
701.040491	0.378395
701.241572	0.378518
701.442635	0.378459
701.643679	0.378383
701.844706	0.378378
702.045714	0.378344
702.246704	0.378560
702.447675	0.378790
702.648629	0.378997
702.849564	0.379251
703.050481	0.379258
703.251380	0.379836
703.452260	0.380219
703.653122	0.380473
703.853966	0.380675
704.054792	0.380582
704.255600	0.380506
704.456389	0.380519
704.657160	0.380492
704.857913	0.380634
705.058648	0.380487
705.259365	0.380408
705.460063	0.380274
705.660743	0.380246
705.861405	0.380509
706.062048	0.380690
706.262674	0.380844
706.463281	0.380752
706.663870	0.380869
706.864441	0.380833
707.064993	0.380962
707.265527	0.380868
707.466043	0.380970
707.666541	0.380685
707.867021	0.380652
708.067482	0.380868
708.267925	0.381030
708.468350	0.380998
708.668757	0.381023
708.869145	0.381216
709.069516	0.381544
709.269868	0.381839
709.470201	0.382310
709.670517	0.382313
709.870814	0.381939
710.071093	0.381983
710.271354	0.382068
710.471597	0.382116
710.671821	0.381757
710.872028	0.381745
711.072216	0.381653
711.272385	0.381375
711.472537	0.381505
711.672670	0.381645
711.872785	0.381724
712.072882	0.381663
712.272961	0.381451
712.473021	0.381660
712.673063	0.381417
712.873087	0.381033
713.073093	0.380984
713.273081	0.380808
713.473050	0.380749
713.673001	0.380336
713.872934	0.380553
714.072849	0.380757
714.272745	0.380707
714.472623	0.380886
714.672483	0.380800
714.872325	0.380869
715.072148	0.380761
715.271954	0.380777
715.471741	0.380821
715.671509	0.380192
715.871260	0.380311
716.070992	0.380057
716.270707	0.379585
716.470403	0.379910
716.670080	0.379834
716.869740	0.379614
717.069381	0.379266
717.269004	0.379311
717.468609	0.379406
717.668195	0.379160
717.867764	0.379208
718.067314	0.379554
718.266846	0.379471
718.466360	0.379507
718.665855	0.379747
718.865332	0.379763
719.064791	0.379568
719.264232	0.379699
719.463655	0.379340
719.663059	0.379298
719.862445	0.378976
720.061813	0.378705
720.261163	0.378718
720.460494	0.378599
720.659807	0.378718
720.859102	0.378637
721.058379	0.378409
721.257638	0.378456
721.456878	0.378484
721.656100	0.378759
721.855304	0.378786
722.054490	0.378283
722.253657	0.378228
722.452806	0.377984
722.651937	0.377814
722.851050	0.377885
723.050145	0.377594
723.249221	0.377497
723.448279	0.377022
723.647319	0.377023
723.846340	0.377154
724.045344	0.376829
724.244329	0.376703
724.443296	0.376513
724.642245	0.376091
724.841175	0.376325
725.040088	0.376000
725.238982	0.375897
725.437857	0.375406
725.636715	0.375050
725.835554	0.374925
726.034376	0.374843
726.233179	0.374983
726.431963	0.375021
726.630730	0.374871
726.829478	0.374863
727.028208	0.374747
727.226920	0.374666
727.425614	0.374537
727.624289	0.374396
727.822946	0.374245
728.021585	0.373957
728.220206	0.374080
728.418808	0.373937
728.617392	0.373498
728.815958	0.373529
729.014506	0.373513
729.213036	0.373198
729.411547	0.373036
729.610040	0.373095
729.808515	0.373063
730.006972	0.372761
730.205410	0.372477
730.403831	0.372426
730.602233	0.372080
730.800616	0.371674
730.998982	0.371774
731.197329	0.371612
731.395658	0.371340
731.593969	0.370994
731.792262	0.370749
731.990536	0.370681
732.188793	0.370171
732.387031	0.370077
732.585250	0.369868
732.783452	0.369413
732.981635	0.368976
733.179800	0.368600
733.377947	0.368446
733.576076	0.368320
733.774186	0.367851
733.972278	0.367956
734.170352	0.367926
734.368408	0.367913
734.566446	0.367801
734.764465	0.367478
734.962466	0.367367
735.160449	0.367011
735.358413	0.366452
735.556360	0.366507
735.754288	0.366579
735.952198	0.365800
736.150090	0.365487
736.347963	0.365574
736.545818	0.365629
736.743655	0.365196
736.941474	0.364980
737.139275	0.364851
737.337057	0.364426
737.534821	0.364004
737.732567	0.364214
737.930295	0.364048
738.128005	0.363810
738.325696	0.363644
738.523369	0.363694
738.721024	0.363351
738.918660	0.363083
739.116279	0.363143
739.313879	0.362863
739.511461	0.362465
739.709024	0.362192
739.906570	0.361603
740.104097	0.361242
740.301606	0.360592
740.499097	0.360715
740.696569	0.360521
740.894024	0.360070
741.091460	0.359635
741.288878	0.359327
741.486277	0.358845
741.683659	0.358606
741.881022	0.358552
742.078367	0.358518
742.275694	0.358214
742.473002	0.358142
742.670293	0.358013
742.867565	0.357974
743.064819	0.357901
743.262054	0.357678
743.459272	0.357597
743.656471	0.357268
743.853652	0.357042
744.050815	0.356669
744.247959	0.356327
744.445085	0.355948
744.642194	0.355751
744.839283	0.355372
745.036355	0.355461
745.233408	0.355252
745.430444	0.354644
745.627461	0.354411
745.824459	0.354195
746.021440	0.354035
746.218402	0.353591
746.415346	0.353285
746.612272	0.352667
746.809180	0.352224
747.006069	0.352012
747.202940	0.351982
747.399793	0.351735
747.596628	0.351326
747.793444	0.351075
747.990243	0.350814
748.187023	0.350440
748.383784	0.350606
748.580528	0.350520
748.777253	0.350072
748.973960	0.350091
749.170649	0.349742
749.367320	0.349750
749.563973	0.349528
749.760607	0.349468
749.957223	0.349057
750.153821	0.348926
750.350400	0.348542
750.546962	0.348473
750.743505	0.348252
750.940030	0.348040
751.136536	0.347674
751.333025	0.347400
751.529495	0.347261
751.725947	0.347111
751.922381	0.346753
752.118796	0.346628
752.315194	0.346494
752.511573	0.345975
752.707934	0.345899
752.904276	0.345874
753.100601	0.345473
753.296907	0.345195
753.493195	0.344848
753.689465	0.344708
753.885716	0.344646
754.081949	0.344401
754.278164	0.344612
754.474361	0.344191
754.670540	0.343807
754.866700	0.343623
755.062843	0.343427
755.258967	0.343717
755.455072	0.343533
755.651160	0.343140
755.847229	0.343049
756.043280	0.342414
756.239313	0.342186
756.435328	0.341909
756.631324	0.341758
756.827302	0.341453
757.023262	0.340700
757.219204	0.340353
757.415127	0.340104
757.611033	0.339709
757.806920	0.339443
758.002788	0.339583
758.198639	0.339512
758.394471	0.339408
758.590286	0.339243
758.786081	0.339508
758.981859	0.339572
759.177619	0.339573
759.373360	0.339309
759.569083	0.339441
759.764788	0.339154
759.960474	0.338919
760.156143	0.338505
760.351793	0.338188
760.547425	0.337958
760.743038	0.337732
760.938634	0.337381
761.134211	0.337289
761.329770	0.337132
761.525311	0.336835
761.720833	0.336581
761.916338	0.336304
762.111824	0.335991
762.307292	0.335930
762.502741	0.335451
762.698173	0.335388
762.893586	0.335044
763.088981	0.334704
763.284358	0.334849
763.479716	0.334698
763.675057	0.334838
763.870379	0.335166
764.065683	0.335036
764.260968	0.335115
764.456236	0.334982
764.651485	0.334927
764.846716	0.334747
765.041929	0.334248
765.237123	0.334060
765.432299	0.333912
765.627457	0.333795
765.822597	0.333422
766.017719	0.333094
766.212822	0.332555
766.407907	0.332496
766.602974	0.332359
766.798023	0.332431
766.993054	0.332535
767.188066	0.332441
767.383060	0.332212
767.578036	0.332144
767.772993	0.332081
767.967933	0.331921
768.162854	0.332019
768.357757	0.332050
768.552642	0.331944
768.747508	0.331681
768.942356	0.331216
769.137186	0.331107
769.331998	0.330983
769.526792	0.330928
769.721567	0.331068
769.916324	0.330864
770.111063	0.330690
770.305784	0.330724
770.500486	0.330939
770.695171	0.331306
770.889837	0.331069
771.084484	0.330901
771.279114	0.330565
771.473725	0.330788
771.668318	0.330560
771.862893	0.330412
772.057450	0.330188
772.251988	0.329753
772.446509	0.329558
772.641011	0.329632
772.835494	0.329888
773.029960	0.330062
773.224407	0.329940
773.418836	0.329730
773.613247	0.329727
773.807640	0.329933
774.002014	0.330140
774.196370	0.330168
774.390708	0.330036
774.585028	0.329911
774.779330	0.330079
774.973613	0.330124
775.167878	0.330378
775.362125	0.330531
775.556354	0.330274
775.750564	0.330121
775.944756	0.329946
776.138930	0.330091
776.333086	0.330056
776.527223	0.330193
776.721343	0.329949
776.915444	0.329874
777.109526	0.329666
777.303591	0.329626
777.497637	0.329771
777.691666	0.329748
777.885676	0.329591
778.079667	0.329288
778.273641	0.328764
778.467596	0.328836
778.661533	0.328550
778.855452	0.328387
779.049352	0.328062
779.243235	0.327867
779.437099	0.327845
779.630945	0.327735
779.824773	0.328042
780.018582	0.328380
780.212373	0.328364
780.406146	0.328636
780.599901	0.328841
780.793638	0.329150
780.987356	0.329348
781.181056	0.329379
781.374738	0.329658
781.568402	0.329690
781.762047	0.329853
781.955674	0.329839
782.149283	0.329861
782.342874	0.329684
782.536447	0.329239
782.730001	0.329348
782.923537	0.329545
783.117055	0.329428
783.310555	0.329043
783.504036	0.328826
783.697499	0.328854
783.890944	0.328974
784.084371	0.329067
784.277780	0.329518
784.471170	0.329460
784.664542	0.329558
784.857896	0.329777
785.051231	0.330060
785.244549	0.330084
785.437848	0.330306
785.631129	0.330082
785.824392	0.330388
786.017636	0.330607
786.210863	0.330530
786.404071	0.330517
786.597260	0.330475
786.790432	0.330739
786.983585	0.330933
787.176721	0.330843
787.369838	0.331313
787.562936	0.331246
787.756017	0.331185
787.949079	0.331492
788.142123	0.331768
788.335149	0.331949
788.528156	0.332035
788.721146	0.331946
788.914117	0.332313
789.107070	0.332271
789.300005	0.332638
789.492921	0.332833
789.685819	0.332906
789.878699	0.332954
790.071561	0.333061
790.264405	0.333245
790.457230	0.333677
790.650037	0.333649
790.842826	0.333861
791.035597	0.333989
791.228349	0.334070
791.421084	0.334084
791.613800	0.334342
791.806497	0.334534
791.999177	0.334720
792.191838	0.334694
792.384481	0.334741
792.577106	0.335003
792.769713	0.334994
792.962301	0.335279
793.154871	0.335449
793.347423	0.335376
793.539957	0.335561
793.732473	0.335852
793.924970	0.336117
794.117449	0.336528
794.309910	0.336396
794.502353	0.336734
794.694777	0.336767
794.887183	0.337026
795.079571	0.337185
795.271941	0.337633
795.464293	0.337683
795.656626	0.337897
795.848941	0.338114
796.041238	0.338283
796.233516	0.338658
796.425777	0.339163
796.618019	0.339668
796.810243	0.340007
797.002449	0.339748
797.194636	0.340055
797.386805	0.340241
797.578956	0.340528
797.771089	0.340874
797.963204	0.340981
798.155300	0.341256
798.347378	0.341310
798.539438	0.341398
798.731480	0.342045
798.923503	0.342405
799.115509	0.342808
799.307496	0.343209
799.499465	0.343450
799.691415	0.343899
799.883348	0.343857
800.075262	0.343985
800.267158	0.344734
800.459035	0.344794
800.650895	0.344880
800.842736	0.345213
801.034559	0.345187
801.226364	0.345607
801.418150	0.345789
801.609919	0.345940
801.801669	0.346295
801.993401	0.346172
802.185114	0.346520
802.376810	0.346677
802.568487	0.346804
802.760146	0.346910
802.951787	0.347117
803.143409	0.347476
803.335014	0.348051
803.526600	0.348351
803.718168	0.348627
803.909717	0.348925
804.101249	0.349084
804.292762	0.349467
804.484257	0.350219
804.675734	0.350771
804.867192	0.350911
805.058632	0.350984
805.250054	0.351434
805.441458	0.351871
805.632844	0.352088
805.824211	0.352473
806.015561	0.352443
806.206891	0.352612
806.398204	0.352636
806.589499	0.352797
806.780775	0.353467
806.972033	0.353625
807.163273	0.353809
807.354495	0.354222
807.545698	0.354724
807.736883	0.355251
807.928050	0.355629
808.119199	0.356190
808.310329	0.356904
808.501441	0.357249
808.692535	0.357701
808.883611	0.358351
809.074669	0.358768
809.265708	0.359214
809.456729	0.359605
809.647732	0.359837
809.838717	0.360081
810.029683	0.360250
810.220632	0.360319
810.411562	0.360554
810.602474	0.360545
810.793367	0.360741
810.984242	0.361144
811.175100	0.361860
811.365938	0.362190
811.556759	0.362683
811.747562	0.362820
811.938346	0.363680
812.129112	0.364063
812.319860	0.364852
812.510589	0.365391
812.701300	0.365579
812.891994	0.365534
813.082668	0.366310
813.273325	0.366582
813.463964	0.367164
813.654584	0.367335
813.845186	0.368012
814.035769	0.368256
814.226335	0.368447
814.416882	0.368819
814.607411	0.369198
814.797922	0.369124
814.988415	0.369447
815.178889	0.369503
815.369345	0.369818
815.559783	0.369853
815.750203	0.370209
815.940605	0.370965
816.130988	0.371387
816.321353	0.371901
816.511700	0.372569
816.702028	0.373199
816.892339	0.374313
817.082631	0.374877
817.272905	0.375480
817.463161	0.376047
817.653398	0.376752
817.843617	0.377293
818.033819	0.377982
818.224001	0.378572
818.414166	0.378896
818.604312	0.379360
818.794440	0.379808
818.984550	0.380181
819.174642	0.380504
819.364716	0.380381
819.554771	0.380471
819.744808	0.380754
819.934827	0.381243
820.124827	0.382026
820.314810	0.382434
820.504774	0.383006
820.694720	0.383668
820.884647	0.384354
821.074557	0.385122
821.264448	0.386141
821.454321	0.386658
821.644176	0.386934
821.834012	0.387265
822.023831	0.387751
822.213631	0.387901
822.403413	0.388370
822.593176	0.388812
822.782922	0.389289
822.972649	0.389653
823.162358	0.390500
823.352049	0.391027
823.541721	0.391566
823.731376	0.391724
823.921012	0.392529
824.110629	0.393226
824.300229	0.393827
824.489811	0.394462
824.679374	0.394999
824.868919	0.395186
825.058445	0.395611
825.247954	0.396164
825.437444	0.396726
825.626916	0.396852
825.816370	0.397383
826.005806	0.397864
826.195223	0.398081
826.384622	0.398829
826.574003	0.399335
826.763366	0.399989
826.952711	0.400368
827.142037	0.400972
827.331345	0.401902
827.520635	0.402408
827.709906	0.402701
827.899160	0.403280
828.088395	0.403733
828.277612	0.404333
828.466810	0.404892
828.655991	0.405716
828.845153	0.406321
829.034297	0.406790
829.223423	0.407437
829.412531	0.408023
829.601620	0.408913
829.790691	0.409274
829.979744	0.410080
830.168779	0.410308
830.357795	0.410180
830.546793	0.410512
830.735773	0.410915
830.924735	0.411605
831.113679	0.411810
831.302604	0.412368
831.491511	0.413110
831.680400	0.413317
831.869271	0.414101
832.058123	0.414681
832.246957	0.415178
832.435773	0.415852
832.624571	0.415861
832.813351	0.416607
833.002112	0.416603
833.190855	0.416936
833.379580	0.417743
833.568287	0.418570
833.756975	0.419643
833.945645	0.420204
834.134297	0.420721
834.322931	0.421213
834.511547	0.421843
834.700144	0.422586
834.888723	0.423193
835.077284	0.423613
835.265826	0.423656
835.454351	0.424215
835.642857	0.424800
835.831345	0.425137
836.019815	0.426237
836.208266	0.426805
836.396699	0.427529
836.585114	0.427855
836.773511	0.428547
836.961890	0.428868
837.150250	0.429251
837.338592	0.430366
837.526916	0.431134
837.715222	0.431498
837.903510	0.432262
838.091779	0.432892
838.280030	0.433580
838.468263	0.434088
838.656477	0.435186
838.844674	0.436241
839.032852	0.436561
839.221012	0.437082
839.409153	0.437381
839.597277	0.437719
839.785382	0.438168
839.973469	0.439100
840.161538	0.439509
840.349589	0.440127
840.537621	0.440421
840.725635	0.441188
840.913631	0.441976
841.101609	0.442871
841.289568	0.443680
841.477509	0.444160
841.665432	0.444808
841.853337	0.445871
842.041224	0.446672
842.229092	0.447110
842.416942	0.447664
842.604774	0.448308
842.792588	0.448955
842.980383	0.449928
843.168160	0.450762
843.355919	0.451097
843.543660	0.451510
843.731382	0.452102
843.919087	0.453308
844.106773	0.453893
844.294441	0.454790
844.482090	0.455234
844.669722	0.455656
844.857335	0.456307
845.044930	0.457148
845.232507	0.458002
845.420065	0.458897
845.607605	0.459080
845.795127	0.459379
845.982631	0.459487
846.170117	0.460182
846.357584	0.460555
846.545033	0.461062
846.732464	0.461682
846.919877	0.461954
847.107272	0.461838
847.294648	0.461962
847.482006	0.462977
847.669346	0.463328
847.856667	0.464060
848.043971	0.464971
848.231256	0.465343
848.418523	0.465653
848.605771	0.466472
848.793002	0.467290
848.980214	0.468016
849.167408	0.468575
849.354584	0.469514
849.541742	0.469508
849.728881	0.470151
849.916002	0.471048
850.103105	0.472056
850.290190	0.472150
850.477256	0.472892
850.664304	0.473995
850.851334	0.474418
851.038346	0.475264
851.225340	0.475972
851.412315	0.476269
851.599272	0.476869
851.786211	0.477293
851.973132	0.478109
852.160034	0.478704
852.346918	0.479130
852.533784	0.480094
852.720632	0.480098
852.907462	0.480883
853.094273	0.481557
853.281066	0.482135
853.467841	0.483076
853.654598	0.483949
853.841336	0.484412
854.028056	0.484942
854.214758	0.484961
854.401442	0.485992
854.588107	0.486438
854.774755	0.486766
854.961384	0.487414
855.147995	0.487639
855.334587	0.488345
855.521162	0.489413
855.707718	0.489930
855.894256	0.490386
856.080775	0.490771
856.267277	0.491231
856.453760	0.492044
856.640225	0.492607
856.826672	0.493234
857.013101	0.493233
857.199511	0.493756
857.385903	0.494243
857.572277	0.495051
857.758633	0.495531
857.944970	0.496337
858.131290	0.497136
858.317591	0.497429
858.503873	0.497873
858.690138	0.498574
858.876384	0.499101
859.062612	0.499850
859.248822	0.500628
859.435014	0.501932
859.621188	0.502727
859.807343	0.503326
859.993480	0.503582
860.179599	0.504142
860.365699	0.505083
860.551781	0.505522
860.737846	0.505623
860.923891	0.505797
861.109919	0.505948
861.295929	0.506547
861.481920	0.507290
861.667893	0.508408
861.853848	0.508948
862.039784	0.509306
862.225702	0.509537
862.411603	0.510340
862.597484	0.510521
862.783348	0.510863
862.969193	0.510964
863.155021	0.510589
863.340830	0.511212
863.526620	0.511795
863.712393	0.512202
863.898147	0.512280
864.083883	0.513073
864.269601	0.514266
864.455301	0.514742
864.640982	0.515508
864.826645	0.516285
865.012290	0.516744
865.197917	0.516897
865.383526	0.517394
865.569116	0.518496
865.754688	0.519384
865.940242	0.519357
866.125777	0.520057
866.311295	0.520195
866.496794	0.520665
866.682275	0.521087
866.867737	0.521326
867.053182	0.521827
867.238608	0.522577
867.424016	0.522546
867.609406	0.523356
867.794778	0.523876
867.980131	0.524893
868.165466	0.525143
868.350783	0.525115
868.536082	0.525955
868.721362	0.526421
868.906625	0.525962
869.091869	0.526351
869.277094	0.526480
869.462302	0.526730
869.647491	0.526932
869.832662	0.527565
870.017815	0.527814
870.202950	0.528475
870.388066	0.528886
870.573165	0.530329
870.758245	0.530934
870.943306	0.531274
871.128350	0.531988
871.313375	0.532509
871.498382	0.533312
871.683371	0.534090
871.868342	0.534022
872.053294	0.534271
872.238229	0.534065
872.423144	0.533867
872.608042	0.535212
872.792922	0.535730
872.977783	0.536217
873.162626	0.536256
873.347451	0.536418
873.532258	0.537021
873.717046	0.536868
873.901816	0.537270
874.086568	0.538194
874.271302	0.537851
874.456017	0.537858
874.640715	0.538206
874.825394	0.538213
875.010055	0.538768
875.194697	0.538708
875.379322	0.539334
875.563928	0.539589
875.748516	0.540054
875.933085	0.540280
876.117637	0.540445
876.302170	0.540066
876.486685	0.540299
876.671182	0.540345
876.855661	0.540813
877.040121	0.541162
877.224563	0.541562
877.408987	0.541048
877.593393	0.541462
877.777780	0.541595
877.962150	0.541479
878.146501	0.541908
878.330833	0.542382
878.515148	0.542794
878.699444	0.543053
878.883722	0.543035
879.067982	0.543282
879.252224	0.543650
879.436447	0.544244
879.620653	0.545497
879.804840	0.546079
879.989008	0.546491
880.173159	0.546461
880.357291	0.546726
880.541405	0.546887
880.725501	0.547714
880.909579	0.547320
881.093638	0.546734
881.277680	0.546345
881.461703	0.546594
881.645707	0.546497
881.829694	0.546379
882.013662	0.546760
882.197612	0.547166
882.381544	0.547042
882.565458	0.547279
882.749353	0.548019
882.933230	0.548243
883.117089	0.548148
883.300930	0.548309
883.484753	0.549135
883.668557	0.548703
883.852343	0.548213
884.036111	0.548583
884.219861	0.548959
884.403592	0.549127
884.587305	0.549366
884.771000	0.549944
884.954677	0.550038
885.138335	0.550095
885.321976	0.550336
885.505598	0.550723
885.689201	0.550687
885.872787	0.550310
886.056354	0.550249
886.239904	0.550191
886.423434	0.549757
886.606947	0.549467
886.790442	0.549159
886.973918	0.549417
887.157376	0.550202
887.340816	0.550010
887.524237	0.550757
887.707641	0.550689
887.891026	0.550502
888.074393	0.550678
888.257741	0.551035
888.441072	0.550874
888.624384	0.550942
888.807678	0.550517
888.990954	0.550455
889.174211	0.549881
889.357451	0.549532
889.540672	0.549735
889.723875	0.549923
889.907059	0.550362
890.090226	0.550336
890.273374	0.549862
890.456504	0.549241
890.639616	0.549192
890.822709	0.548812
891.005785	0.549312
891.188842	0.549895
891.371881	0.549835
891.554901	0.549228
891.737904	0.549586
891.920888	0.549793
892.103854	0.550042
892.286802	0.550617
892.469731	0.551208
892.652643	0.550800
892.835536	0.550307
893.018410	0.549649
893.201267	0.550028
893.384106	0.549990
893.566926	0.549539
893.749728	0.548946
893.932511	0.548160
894.115277	0.547412
894.298024	0.547583
894.480753	0.546703
894.663464	0.546174
894.846157	0.545057
895.028831	0.544450
895.211487	0.544275
895.394125	0.544726
895.576745	0.544310
895.759346	0.544676
895.941930	0.544362
896.124495	0.544702
896.307041	0.545013
896.489570	0.545541
896.672080	0.545694
896.854573	0.545794
897.037046	0.545369
897.219502	0.545136
897.401940	0.545037
897.584359	0.544375
897.766760	0.544124
897.949143	0.543535
898.131507	0.542766
898.313854	0.542287
898.496182	0.541874
898.678492	0.541765
898.860783	0.541016
899.043057	0.540032
899.225312	0.539417
899.407549	0.538575
899.589768	0.538462
899.771968	0.538648
899.954151	0.538687
900.136315	0.538585
900.318461	0.538120
900.500588	0.538106
900.682698	0.538026
900.864789	0.537952
901.046862	0.537953
901.228917	0.537848
901.410953	0.537037
901.592971	0.535809
901.774972	0.535099
901.956953	0.534273
902.138917	0.533994
902.320862	0.533826
902.502790	0.533261
902.684699	0.533478
902.866589	0.533694
903.048462	0.533045
903.230316	0.533397
903.412152	0.532580
903.593970	0.532982
903.775770	0.532441
903.957551	0.531805
904.139314	0.532043
904.321059	0.531171
904.502786	0.529319
904.684494	0.529930
904.866185	0.529195
905.047857	0.530091
905.229510	0.529362
905.411146	0.529532
905.592763	0.528848
905.774363	0.528461
905.955943	0.527346
906.137506	0.527943
906.319051	0.526703
906.500577	0.526563
906.682085	0.525222
906.863575	0.525006
907.045046	0.523505
907.226500	0.523839
907.407935	0.522960
907.589352	0.522939
907.770750	0.522717
907.952131	0.522323
908.133493	0.521012
908.314837	0.520698
908.496163	0.519818
908.677470	0.520024
908.858760	0.518766
909.040031	0.518661
909.221284	0.518339
909.402518	0.517333
909.583735	0.517306
909.764933	0.517294
909.946113	0.516275
910.127275	0.515099
910.308418	0.514814
910.489544	0.514425
910.670651	0.512978
910.851740	0.512229
911.032810	0.512203
911.213863	0.510700
911.394897	0.509373
911.575913	0.509025
911.756911	0.508982
911.937890	0.507353
912.118851	0.506714
912.299794	0.506459
912.480719	0.505841
912.661626	0.504728
912.842514	0.503997
913.023384	0.503686
913.204236	0.503002
913.385070	0.502173
913.565886	0.502179
913.746683	0.501594
913.927462	0.500648
914.108223	0.499241
914.288965	0.497339
914.469690	0.496985
914.650396	0.496692
914.831084	0.495478
915.011754	0.494702
915.192405	0.494193
915.373038	0.492843
915.553653	0.492426
915.734250	0.492093
915.914829	0.492721
916.095389	0.492113
916.275931	0.490977
916.456455	0.489852
916.636961	0.488831
916.817448	0.487513
916.997917	0.487304
917.178368	0.486267
917.358801	0.485457
917.539216	0.483790
917.719612	0.483262
917.899990	0.481977
918.080350	0.482141
918.260692	0.481471
918.441015	0.481336
918.621320	0.480431
918.801607	0.479250
918.981876	0.479288
919.162127	0.478329
919.342359	0.477042
919.522573	0.476562
919.702769	0.475651
919.882947	0.475195
920.063106	0.473665
920.243247	0.472377
920.423370	0.471216
920.603475	0.469943
920.783562	0.468143
920.963630	0.467189
921.143680	0.466024
921.323712	0.464247
921.503725	0.463406
921.683721	0.462882
921.863698	0.462843
922.043657	0.462400
922.223598	0.461234
922.403520	0.461161
922.583424	0.459637
922.763311	0.458789
922.943178	0.458345
923.123028	0.457029
923.302859	0.455698
923.482673	0.453838
923.662467	0.452858
923.842244	0.451489
924.022003	0.450609
924.201743	0.450264
924.381465	0.449847
924.561169	0.448782
924.740854	0.447280
924.920522	0.445926
925.100171	0.445358
925.279802	0.444291
925.459414	0.443192
925.639009	0.442351
925.818585	0.441575
925.998143	0.439464
926.177683	0.437697
926.357205	0.437966
926.536708	0.437158
926.716193	0.436037
926.895660	0.434814
927.075109	0.433481
927.254539	0.431627
927.433951	0.429855
927.613345	0.429940
927.792721	0.430003
927.972079	0.428031
928.151418	0.425748
928.330739	0.424411
928.510042	0.423009
928.689327	0.422418
928.868593	0.422132
929.047841	0.420002
929.227071	0.417629
929.406283	0.417077
929.585476	0.416065
929.764652	0.415846
929.943809	0.415395
930.122948	0.414686
930.302068	0.413079
930.481171	0.411384
930.660255	0.410067
930.839321	0.409077
931.018369	0.406987
931.197398	0.404335
931.376409	0.403444
931.555402	0.401796
931.734377	0.400569
931.913334	0.400157
932.092272	0.399084
932.271192	0.399492
932.450094	0.398129
932.628978	0.397117
932.807844	0.397056
932.986691	0.395164
933.165520	0.393276
933.344331	0.391429
933.523123	0.389864
933.701898	0.388906
933.880654	0.388028
934.059392	0.387890
934.238111	0.385692
934.416813	0.384896
934.595496	0.383898
934.774161	0.382393
934.952808	0.382318
935.131437	0.380030
935.310047	0.378000
935.488639	0.374704
935.667213	0.372908
935.845769	0.371825
936.024306	0.371106
936.202825	0.370705
936.381326	0.369908
936.559809	0.368726
936.738274	0.368531
936.916720	0.367681
937.095148	0.367406
937.273558	0.365240
937.451950	0.362651
937.630323	0.359780
937.808678	0.358505
937.987015	0.357440
938.165334	0.354824
938.343635	0.353968
938.521917	0.353046
938.700181	0.352047
938.878427	0.350456
939.056655	0.351512
939.234864	0.350332
939.413055	0.348294
939.591228	0.347196
939.769383	0.344991
939.947519	0.341979
940.125638	0.340644
940.303738	0.339128
940.481820	0.337802
940.659883	0.336130
940.837929	0.334642
941.015956	0.333133
941.193965	0.330693
941.371955	0.329827
941.549928	0.329105
941.727882	0.326470
941.905818	0.324998
942.083736	0.324202
942.261636	0.322045
942.439517	0.319811
942.617380	0.318845
942.795225	0.318543
942.973052	0.317108
943.150860	0.315338
943.328651	0.315160
943.506423	0.313014
943.684176	0.312125
943.861912	0.311646
944.039629	0.310767
944.217328	0.309298
944.395009	0.307724
944.572672	0.308107
944.750317	0.306038
944.927943	0.303331
945.105551	0.301558
945.283141	0.299787
945.460712	0.297665
945.638265	0.295548
945.815801	0.294392
945.993317	0.291704
946.170816	0.290661
946.348297	0.290448
946.525759	0.288060
946.703203	0.288629
946.880629	0.286607
947.058036	0.284964
947.235425	0.283643
947.412797	0.279686
947.590149	0.278405
947.767484	0.274834
947.944800	0.272685
948.122099	0.271761
948.299379	0.268954
948.476640	0.267779
948.653884	0.264466
948.831109	0.262894
949.008316	0.263552
949.185505	0.262465
949.362676	0.262364
949.539828	0.262217
949.716962	0.262201
949.894078	0.261335
950.071176	0.259369
950.248256	0.259647
950.425317	0.258753
950.602360	0.257097
950.779385	0.255137
950.956391	0.253339
951.133380	0.250171
951.310350	0.249126
951.487302	0.248321
951.664235	0.247470
951.841151	0.245253
952.018048	0.242342
952.194927	0.239714
952.371788	0.236831
952.548631	0.235297
952.725455	0.233144
952.902261	0.229902
953.079049	0.227930
953.255819	0.225362
953.432570	0.225632
953.609303	0.226246
953.786018	0.223092
953.962715	0.222830
954.139394	0.220171
954.316054	0.220022
954.492696	0.220267
954.669320	0.218474
954.845926	0.217680
955.022513	0.213118
955.199083	0.210678
955.375634	0.212447
955.552166	0.210650
955.728681	0.211478
955.905177	0.209437
956.081655	0.206760
956.258115	0.204766
956.434557	0.204931
956.610980	0.206966
956.787385	0.203261
956.963772	0.199712
957.140141	0.202255
957.316492	0.200992
957.492824	0.199958
957.669138	0.199342
957.845434	0.197965
958.021712	0.195860
958.197971	0.192818
958.374212	0.195348
958.550435	0.196866
958.726640	0.192125
958.902826	0.190064
959.078995	0.188001
959.255145	0.187639
959.431277	0.187209
959.607390	0.187950
959.783486	0.188346
959.959563	0.184778
960.135622	0.182841
960.311662	0.184828
960.487685	0.182193
960.663689	0.184441
960.839675	0.184859
961.015643	0.184897
961.191593	0.184141
961.367524	0.181943
961.543437	0.184040
961.719332	0.183827
961.895209	0.180127
962.071067	0.181428
962.246907	0.178301
962.422730	0.175110
962.598533	0.173363
962.774319	0.171347
962.950086	0.171252
963.125835	0.171808
963.301566	0.168538
963.477279	0.169698
963.652973	0.169542
963.828650	0.168347
964.004308	0.169963
964.179947	0.171376
964.355569	0.169690
964.531172	0.170198
964.706757	0.169504
964.882324	0.171407
965.057873	0.171529
965.233403	0.169429
965.408916	0.170801
965.584410	0.166165
965.759885	0.164057
965.935343	0.163845
966.110782	0.162344
966.286203	0.161857
966.461606	0.160076
966.636991	0.156536
966.812357	0.154646
966.987705	0.154854
967.163035	0.157587
967.338347	0.154942
967.513641	0.156380
967.688916	0.158228
967.864173	0.157161
968.039412	0.160233
968.214632	0.163072
968.389835	0.164938
968.565019	0.164149
968.740185	0.163787
968.915333	0.166425
969.090462	0.165830
969.265573	0.162440
969.440667	0.161357
969.615741	0.160462
969.790798	0.158574
969.965836	0.160324
970.140856	0.159658
970.315858	0.159425
970.490842	0.158507
970.665808	0.158564
970.840755	0.157709
971.015684	0.157685
971.190595	0.156242
971.365487	0.158278
971.540362	0.154466
971.715218	0.155513
971.890056	0.156527
972.064875	0.158120
972.239677	0.158506
972.414460	0.161822
972.589225	0.163407
972.763972	0.164855
972.938700	0.161947
973.113411	0.164495
973.288103	0.162177
973.462777	0.161241
973.637432	0.160328
973.812070	0.159785
973.986689	0.159712
974.161290	0.157935
974.335873	0.157299
974.510437	0.159190
974.684984	0.156772
974.859512	0.157856
975.034022	0.157013
975.208513	0.157956
975.382987	0.157639
975.557442	0.159104
975.731879	0.160492
975.906298	0.158587
976.080698	0.158237
976.255080	0.162526
976.429445	0.162338
976.603790	0.163443
976.778118	0.163920
976.952427	0.163696
977.126719	0.161256
977.300992	0.160292
977.475246	0.162073
977.649483	0.163572
977.823701	0.161697
977.997901	0.163463
978.172083	0.164641
978.346247	0.163192
978.520392	0.161688
978.694519	0.163772
978.868628	0.165074
979.042719	0.165527
979.216791	0.163200
979.390845	0.164367
979.564882	0.163890
979.738899	0.163125
979.912899	0.163408
980.086880	0.166025
980.260843	0.162639
980.434788	0.160966
980.608715	0.162029
980.782623	0.162278
980.956514	0.160178
981.130386	0.159856
981.304240	0.159757
981.478075	0.160936
981.651892	0.160340
981.825692	0.161999
981.999472	0.161688
982.173235	0.159526
982.346980	0.159583
982.520706	0.161401
982.694414	0.160211
982.868104	0.159372
983.041775	0.158049
983.215428	0.158009
983.389064	0.157670
983.562680	0.157439
983.736279	0.156634
983.909860	0.158474
984.083422	0.157066
984.256966	0.156424
984.430491	0.154971
984.603999	0.155034
984.777488	0.154962
984.950959	0.155402
985.124412	0.155895
985.297847	0.159046
985.471263	0.158821
985.644661	0.162078
985.818041	0.164130
985.991403	0.165621
986.164747	0.167728
986.338072	0.167757
986.511379	0.166741
986.684668	0.167606
986.857938	0.167020
987.031191	0.164108
987.204425	0.161008
987.377641	0.161253
987.550839	0.160246
987.724018	0.159890
987.897179	0.159463
988.070322	0.159341
988.243447	0.160066
988.416554	0.159185
988.589642	0.160969
988.762712	0.161454
988.935764	0.161448
989.108798	0.160947
989.281813	0.158266
989.454811	0.158521
989.627790	0.159935
989.800751	0.158966
989.973693	0.156662
990.146617	0.158294
990.319524	0.157003
990.492412	0.156245
990.665281	0.157294
990.838133	0.157970
991.010966	0.155628
991.183781	0.156475
991.356578	0.156113
991.529356	0.158423
991.702117	0.156965
991.874859	0.156663
992.047583	0.156184
992.220288	0.156102
992.392976	0.157759
992.565645	0.160245
992.738296	0.159820
992.910929	0.159900
993.083543	0.161009
993.256139	0.159066
993.428718	0.161032
993.601277	0.161275
993.773819	0.163096
993.946342	0.162829
994.118848	0.163594
994.291335	0.163764
994.463803	0.164505
994.636254	0.161991
994.808686	0.162730
994.981100	0.162974
995.153496	0.163570
995.325874	0.162978
995.498233	0.162125
995.670574	0.160993
995.842897	0.160719
996.015202	0.161149
996.187488	0.163075
996.359757	0.165415
996.532007	0.164579
996.704239	0.163856
996.876452	0.162421
997.048648	0.163000
997.220825	0.164330
997.392984	0.165497
997.565124	0.166677
997.737247	0.165759
997.909351	0.163667
998.081437	0.164239
998.253505	0.166658
998.425554	0.167155
998.597586	0.168213
998.769599	0.169068
998.941594	0.166933
999.113571	0.164032
999.285529	0.164260
999.457469	0.165751
999.629391	0.164128
999.801295	0.162353
999.973181	0.164329
1000.145048	0.162345
1000.316897	0.158535
1000.488728	0.158877
1000.660541	0.160491
1000.832335	0.160229
1001.004111	0.159764
1001.175869	0.161317
1001.347609	0.160503
1001.519331	0.157255
1001.691034	0.156803
1001.862719	0.159602
1002.034386	0.160280
1002.206035	0.160682
1002.377665	0.162211
1002.549277	0.161478
1002.720871	0.160186
1002.892447	0.161270
1003.064004	0.161904
1003.235544	0.163909
1003.407065	0.164112
1003.578568	0.163214
1003.750052	0.165092
1003.921519	0.162710
1004.092967	0.163354
1004.264397	0.164690
1004.435809	0.163683
1004.607202	0.166048
1004.778577	0.164732
1004.949934	0.162561
1005.121273	0.161340
1005.292594	0.157928
1005.463896	0.158392
1005.635180	0.158299
1005.806446	0.158340
1005.977694	0.159399
1006.148923	0.158436
1006.320135	0.158473
1006.491328	0.158036
1006.662503	0.157738
1006.833659	0.159426
1007.004798	0.161517
1007.175918	0.162237
1007.347020	0.163325
1007.518103	0.161953
1007.689169	0.160344
1007.860216	0.160909
1008.031245	0.161565
1008.202256	0.162875
1008.373248	0.162253
1008.544223	0.163305
1008.715179	0.164096
1008.886117	0.162914
1009.057036	0.163091
1009.227938	0.165145
1009.398821	0.164034
1009.569686	0.165561
1009.740533	0.165259
1009.911361	0.167068
1010.082172	0.164059
1010.252964	0.162608
1010.423738	0.163847
1010.594493	0.164848
1010.765231	0.163290
1010.935950	0.163674
1011.106651	0.162292
1011.277334	0.163136
1011.447998	0.160492
1011.618645	0.161276
1011.789273	0.160846
1011.959882	0.160258
1012.130474	0.159901
1012.301048	0.160388
1012.471603	0.159155
1012.642140	0.161459
1012.812658	0.159488
1012.983159	0.159876
1013.153641	0.160692
1013.324105	0.160955
1013.494551	0.159520
1013.664979	0.160469
1013.835388	0.160574
1014.005779	0.161997
1014.176152	0.161172
1014.346507	0.162854
1014.516843	0.162960
1014.687162	0.163244
1014.857462	0.164476
1015.027744	0.163200
1015.198007	0.163020
1015.368252	0.164452
1015.538480	0.165163
1015.708689	0.162914
1015.878879	0.164244
1016.049052	0.164884
1016.219206	0.163466
1016.389342	0.162345
1016.559460	0.163813
1016.729559	0.162212
1016.899641	0.161528
1017.069704	0.160651
1017.239749	0.160333
1017.409775	0.158442
1017.579784	0.158333
1017.749774	0.158125
1017.919746	0.158886
1018.089700	0.160357
1018.259635	0.160073
1018.429553	0.160455
1018.599452	0.160066
1018.769333	0.162382
1018.939195	0.163810
1019.109040	0.164487
1019.278866	0.164235
1019.448674	0.162736
1019.618464	0.162371
1019.788235	0.161627
1019.957989	0.160663
1020.127724	0.160127
1020.297441	0.157050
1020.467139	0.158053
1020.636820	0.156461
1020.806482	0.157750
1020.976126	0.157917
1021.145752	0.155891
1021.315359	0.156154
1021.484948	0.156352
1021.654519	0.158600
1021.824072	0.160844
1021.993607	0.160058
1022.163123	0.159775
1022.332621	0.161764
1022.502101	0.160820
1022.671563	0.162616
1022.841007	0.164574
1023.010432	0.164193
1023.179839	0.163132
1023.349228	0.164184
1023.518598	0.162087
1023.687951	0.162768
1023.857285	0.160568
1024.026601	0.162788
1024.195899	0.160800
1024.365178	0.161416
1024.534439	0.162168
1024.703682	0.161838
1024.872907	0.162916
1025.042114	0.162933
1025.211302	0.163340
1025.380472	0.164459
1025.549624	0.162479
1025.718758	0.165093
1025.887873	0.165219
1026.056970	0.164463
1026.226049	0.163992
1026.395110	0.163111
1026.564153	0.164966
1026.733177	0.165169
1026.902183	0.161622
1027.071171	0.162702
1027.240141	0.159660
1027.409092	0.157186
1027.578026	0.157881
1027.746940	0.158733
1027.915837	0.157336
1028.084716	0.156370
1028.253576	0.153918
1028.422418	0.156695
1028.591242	0.157731
1028.760048	0.158819
1028.928835	0.160429
1029.097604	0.161504
1029.266355	0.160275
1029.435088	0.161105
1029.603803	0.159157
1029.772499	0.161093
1029.941177	0.161119
1030.109837	0.159895
1030.278478	0.157646
1030.447102	0.156737
1030.615707	0.155161
1030.784294	0.155587
1030.952863	0.155490
1031.121413	0.158303
1031.289945	0.156950
1031.458460	0.156028
1031.626955	0.155370
1031.795433	0.159320
1031.963892	0.160121
1032.132334	0.162397
1032.300756	0.162778
1032.469161	0.161574
1032.637548	0.160505
1032.805916	0.161247
1032.974266	0.158720
1033.142598	0.159620
1033.310911	0.159511
1033.479207	0.158809
1033.647484	0.155492
1033.815743	0.155028
1033.983983	0.155365
1034.152206	0.156648
1034.320410	0.155100
1034.488596	0.157156
1034.656764	0.157105
1034.824914	0.155946
1034.993045	0.156290
1035.161158	0.158001
1035.329253	0.159092
1035.497330	0.159672
1035.665388	0.158032
1035.833428	0.159624
1036.001450	0.160431
1036.169454	0.158587
1036.337440	0.157673
1036.505407	0.158524
1036.673356	0.157483
1036.841287	0.159328
1037.009200	0.160918
1037.177094	0.162263
1037.344970	0.160534
1037.512828	0.159102
1037.680668	0.159799
1037.848489	0.161438
1038.016293	0.160630
1038.184078	0.161425
1038.351845	0.159432
1038.519593	0.156031
1038.687324	0.155781
1038.855036	0.156655
1039.022730	0.157838
1039.190406	0.158980
1039.358063	0.156899
1039.525702	0.155640
1039.693323	0.156398
1039.860926	0.155521
1040.028511	0.158483
1040.196077	0.158614
1040.363625	0.162465
1040.531155	0.160844
1040.698667	0.160255
1040.866161	0.163019
1041.033636	0.166093
1041.201093	0.164562
1041.368532	0.166821
1041.535952	0.165826
1041.703355	0.167318
1041.870739	0.164890
1042.038105	0.164828
1042.205452	0.164561
1042.372782	0.164589
1042.540093	0.163147
1042.707386	0.164059
1042.874661	0.162064
1043.041918	0.161989
1043.209156	0.159802
1043.376376	0.160277
1043.543578	0.162224
1043.710762	0.163966
1043.877927	0.164056
1044.045074	0.163404
1044.212203	0.163400
1044.379314	0.164561
1044.546407	0.164724
1044.713481	0.167072
1044.880537	0.168103
1045.047575	0.168285
1045.214595	0.166335
1045.381596	0.164389
1045.548579	0.165192
1045.715544	0.165398
1045.882491	0.163103
1046.049420	0.162082
1046.216330	0.156800
1046.383222	0.152576
1046.550096	0.150820
1046.716951	0.152213
1046.883789	0.153680
1047.050608	0.152686
1047.217409	0.152979
1047.384192	0.155178
1047.550956	0.155972
1047.717703	0.158674
1047.884431	0.162182
1048.051140	0.162853
1048.217832	0.163721
1048.384505	0.163704
1048.551161	0.161571
1048.717798	0.160809
1048.884416	0.162142
1049.051017	0.161184
1049.217599	0.162903
1049.384163	0.162881
1049.550709	0.163654
1049.717237	0.161933
1049.883746	0.161451
1050.050237	0.163947
1050.216710	0.163519
1050.383165	0.160942
1050.549601	0.162009
1050.716019	0.161983
1050.882420	0.161189
1051.048801	0.159583
1051.215165	0.159257
1051.381510	0.157919
1051.547837	0.156692
1051.714146	0.156057
1051.880437	0.156297
1052.046709	0.155639
1052.212964	0.156956
1052.379200	0.156992
1052.545417	0.158952
1052.711617	0.157899
1052.877798	0.159309
1053.043961	0.160576
1053.210106	0.162901
1053.376233	0.162816
1053.542341	0.163514
1053.708432	0.160687
1053.874504	0.161054
1054.040557	0.159888
1054.206593	0.161071
1054.372610	0.161873
1054.538609	0.161637
1054.704590	0.158219
1054.870553	0.157889
1055.036497	0.159149
1055.202424	0.161742
1055.368331	0.162244
1055.534221	0.163448
1055.700093	0.165894
1055.865946	0.164703
1056.031781	0.165769
1056.197598	0.166037
1056.363397	0.166700
1056.529177	0.164959
1056.694939	0.161696
1056.860683	0.161179
1057.026409	0.161277
1057.192116	0.158916
1057.357806	0.160206
1057.523477	0.160712
1057.689130	0.160852
1057.854764	0.161587
1058.020381	0.162849
1058.185979	0.163791
1058.351559	0.164592
1058.517120	0.163787
1058.682664	0.164404
1058.848189	0.161993
1059.013696	0.160734
1059.179185	0.162614
1059.344656	0.163445
1059.510108	0.163329
1059.675542	0.163240
1059.840958	0.164470
1060.006356	0.163378
1060.171735	0.164016
1060.337096	0.164780
1060.502439	0.165305
1060.667764	0.165463
1060.833071	0.164851
1060.998359	0.165333
1061.163629	0.166159
1061.328881	0.165125
1061.494115	0.167779
1061.659330	0.169336
1061.824527	0.171273
1061.989706	0.173569
1062.154867	0.173897
1062.320010	0.173868
1062.485134	0.173443
1062.650240	0.174029
1062.815328	0.172577
1062.980398	0.171594
1063.145449	0.170572
1063.310482	0.169380
1063.475497	0.169176
1063.640494	0.169643
1063.805473	0.168459
1063.970433	0.166429
1064.135375	0.165062
1064.300299	0.166472
1064.465204	0.165276
1064.630092	0.165348
1064.794961	0.166118
1064.959812	0.164978
1065.124645	0.164053
1065.289459	0.165278
1065.454256	0.165644
1065.619034	0.166667
1065.783793	0.166595
1065.948535	0.168591
1066.113258	0.169147
1066.277964	0.168106
1066.442651	0.168188
1066.607319	0.168940
1066.771970	0.168084
1066.936602	0.170193
1067.101216	0.168908
1067.265812	0.167555
1067.430389	0.165537
1067.594949	0.166520
1067.759490	0.167615
1067.924013	0.166639
1068.088518	0.167356
1068.253004	0.167646
1068.417472	0.166900
1068.581922	0.167516
1068.746354	0.170241
1068.910768	0.172073
1069.075163	0.172427
1069.239540	0.173418
1069.403899	0.174941
1069.568240	0.174012
1069.732562	0.176413
1069.896866	0.177706
1070.061152	0.178791
1070.225420	0.180381
1070.389670	0.181262
1070.553901	0.178486
1070.718114	0.177176
1070.882309	0.176288
1071.046486	0.178265
1071.210644	0.174936
1071.374784	0.171498
1071.538906	0.167961
1071.703010	0.162702
1071.867096	0.160557
1072.031163	0.162862
1072.195212	0.162141
1072.359243	0.162238
1072.523256	0.158862
1072.687250	0.160363
1072.851226	0.162054
1073.015184	0.167025
1073.179124	0.170248
1073.343045	0.171945
1073.506949	0.171033
1073.670834	0.173792
1073.834701	0.173406
1073.998549	0.178128
1074.162380	0.179380
1074.326192	0.179491
1074.489986	0.176999
1074.653761	0.177439
1074.817519	0.177275
1074.981258	0.176377
1075.144979	0.175117
1075.308682	0.176340
1075.472367	0.173384
1075.636033	0.172486
1075.799681	0.176298
1075.963311	0.174371
1076.126923	0.172462
1076.290516	0.171967
1076.454092	0.173288
1076.617649	0.173832
1076.781187	0.173223
1076.944708	0.174324
1077.108210	0.176104
1077.271695	0.174252
1077.435160	0.175620
1077.598608	0.175744
1077.762038	0.176555
1077.925449	0.176349
1078.088842	0.175033
1078.252217	0.177997
1078.415573	0.180665
1078.578912	0.178848
1078.742232	0.179526
1078.905534	0.182449
1079.068817	0.183169
1079.232083	0.184694
1079.395330	0.182811
1079.558559	0.184335
1079.721770	0.181640
1079.884962	0.178023
1080.048136	0.178150
1080.211293	0.176004
1080.374430	0.174965
1080.537550	0.174488
1080.700651	0.171108
1080.863735	0.174516
1081.026800	0.174032
1081.189846	0.172315
1081.352875	0.174315
1081.515885	0.173163
1081.678877	0.177235
1081.841851	0.175289
1082.004807	0.177910
1082.167744	0.179765
1082.330663	0.177245
1082.493564	0.178308
1082.656447	0.180640
1082.819312	0.179710
1082.982158	0.181590
1083.144986	0.178804
1083.307796	0.178741
1083.470587	0.172402
1083.633361	0.175979
1083.796116	0.177563
1083.958853	0.176059
1084.121571	0.173503
1084.284272	0.172728
1084.446954	0.174184
1084.609618	0.173727
1084.772264	0.176963
1084.934892	0.180964
1085.097501	0.179457
1085.260092	0.175471
1085.422665	0.178421
1085.585220	0.185158
1085.747756	0.182186
1085.910274	0.180000
1086.072774	0.182052
1086.235256	0.179648
1086.397720	0.182917
1086.560165	0.182998
1086.722592	0.186741
1086.885001	0.187299
1087.047392	0.183530
1087.209764	0.185449
1087.372119	0.189411
1087.534455	0.189482
1087.696772	0.192409
1087.859072	0.195273
1088.021353	0.194573
1088.183616	0.196489
1088.345861	0.196150
1088.508088	0.197076
1088.670296	0.199815
1088.832486	0.197562
1088.994658	0.198670
1089.156812	0.197792
1089.318948	0.192759
1089.481065	0.189913
1089.643164	0.183411
1089.805245	0.179728
1089.967308	0.179402
1090.129352	0.179863
1090.291378	0.181799
1090.453386	0.176148
1090.615376	0.177846
1090.777347	0.180709
1090.939301	0.181468
1091.101236	0.186574
1091.263153	0.187065
1091.425051	0.185913
1091.586932	0.182468
1091.748794	0.181389
1091.910638	0.182940
1092.072463	0.180663
1092.234271	0.176745
1092.396060	0.179048
1092.557831	0.176898
1092.719584	0.180354
1092.881319	0.179311
1093.043035	0.181834
1093.204733	0.177700
1093.366413	0.182654
1093.528075	0.183569
1093.689718	0.182918
1093.851343	0.184127
1094.012950	0.188313
1094.174539	0.182257
1094.336110	0.181571
1094.497662	0.177866
1094.659196	0.178788
1094.820712	0.175802
1094.982210	0.173956
1095.143689	0.179529
1095.305151	0.178873
1095.466594	0.179984
1095.628018	0.184250
1095.789425	0.192701
1095.950813	0.199211
1096.112183	0.206431
1096.273535	0.211042
1096.434869	0.216277
1096.596184	0.213102
1096.757482	0.213190
1096.918761	0.210294
1097.080021	0.212046
1097.241264	0.207546
1097.402488	0.206504
1097.563694	0.197179
1097.724882	0.197273
1097.886052	0.194499
1098.047203	0.194822
1098.208336	0.191871
1098.369451	0.191173
1098.530548	0.194778
1098.691627	0.193605
1098.852687	0.194099
1099.013729	0.200549
1099.174753	0.192340
1099.335758	0.187911
1099.496746	0.187470
1099.657715	0.190671
1099.818666	0.184328
1099.979599	0.180038
1100.140513	0.175432
1100.301409	0.176165
1100.462287	0.173594
1100.623147	0.181610
1100.783989	0.188115
1100.944812	0.190165
1101.105617	0.189701
1101.266404	0.196043
1101.427173	0.197037
1101.587923	0.206463
1101.748656	0.204421
1101.909370	0.211233
1102.070066	0.205441
1102.230743	0.203050
1102.391403	0.207740
1102.552044	0.207170
1102.712667	0.214057
1102.873271	0.210697
1103.033858	0.205529
1103.194426	0.202112
1103.354976	0.199010
1103.515508	0.204393
1103.676021	0.206371
1103.836517	0.199948
1103.996994	0.205031
1104.157453	0.197312
1104.317893	0.200189
1104.478316	0.199279
1104.638720	0.202558
1104.799106	0.196590
1104.959474	0.191347
1105.119823	0.189709
1105.280155	0.194248
1105.440468	0.189600
1105.600763	0.192514
1105.761039	0.192214
1105.921298	0.193775
1106.081538	0.199661
1106.241760	0.202296
1106.401964	0.209821
1106.562149	0.212759
1106.722316	0.204584
1106.882465	0.207153
1107.042596	0.206785
1107.202709	0.206332
1107.362803	0.204240
1107.522879	0.202666
1107.682937	0.204729
1107.842977	0.195276
1108.002999	0.190425
1108.163002	0.191415
1108.322987	0.186047
1108.482954	0.184724
1108.642902	0.188840
1108.802833	0.197596
1108.962745	0.194431
1109.122639	0.191729
1109.282515	0.193945
1109.442372	0.200204
1109.602211	0.206340
1109.762032	0.212524
1109.921835	0.209617
1110.081620	0.206325
1110.241386	0.205082
1110.401134	0.199666
1110.560864	0.205607
1110.720576	0.206221
1110.880269	0.206092
1111.039945	0.205359
1111.199602	0.203179
1111.359240	0.208603
1111.518861	0.210431
1111.678463	0.201552
1111.838047	0.210806
1111.997613	0.213350
1112.157161	0.215380
1112.316690	0.212167
1112.476202	0.207989
1112.635695	0.207568
1112.795169	0.209006
1112.954626	0.206702
1113.114064	0.213611
1113.273484	0.209960
1113.432886	0.201602
1113.592270	0.206777
1113.751635	0.206766
1113.910983	0.209940
1114.070312	0.214499
1114.229622	0.210195
1114.388915	0.206132
1114.548189	0.213025
1114.707445	0.219025
1114.866683	0.223038
1115.025903	0.223342
1115.185104	0.226497
1115.344287	0.227322
1115.503452	0.222837
1115.662599	0.226591
1115.821727	0.235847
1115.980838	0.229356
1116.139930	0.222290
1116.299004	0.217624
1116.458059	0.216883
1116.617097	0.213734
1116.776116	0.204526
1116.935117	0.207298
1117.094099	0.208478
1117.253064	0.202826
1117.412010	0.202277
1117.570938	0.209406
1117.729848	0.210954
1117.888740	0.209919
1118.047613	0.210057
1118.206468	0.219747
1118.365305	0.215355
1118.524124	0.215820
1118.682924	0.224168
1118.841707	0.223373
1119.000471	0.219369
1119.159216	0.219775
1119.317944	0.216352
1119.476653	0.227011
1119.635344	0.226383
1119.794017	0.228369
1119.952672	0.227688
1120.111308	0.223743
1120.269927	0.223794
1120.428527	0.230072
1120.587108	0.232364
1120.745672	0.232018
1120.904217	0.225071
1121.062744	0.225281
1121.221253	0.228207
1121.379744	0.224758
1121.538216	0.219339
1121.696671	0.224832
1121.855107	0.216400
1122.013524	0.215003
1122.171924	0.208108
1122.330305	0.201574
1122.488668	0.197335
1122.647013	0.194351
1122.805340	0.204369
1122.963648	0.213925
1123.121938	0.210567
1123.280210	0.212099
1123.438464	0.215169
1123.596700	0.227745
1123.754917	0.232355
1123.913116	0.239317
1124.071297	0.242106
1124.229459	0.233728
1124.387604	0.224201
1124.545730	0.226865
1124.703838	0.229524
1124.861928	0.225854
1125.019999	0.223926
1125.178052	0.227194
1125.336088	0.226364
1125.494104	0.227202
1125.652103	0.233088
1125.810083	0.242335
1125.968045	0.231758
1126.125989	0.228013
1126.283915	0.228453
1126.441823	0.222960
1126.599712	0.224202
1126.757583	0.219205
1126.915436	0.216844
1127.073270	0.218271
1127.231087	0.218253
1127.388885	0.225836
1127.546665	0.228010
1127.704426	0.225264
1127.862170	0.225646
1128.019895	0.218355
1128.177602	0.225116
1128.335291	0.231144
1128.492961	0.223702
1128.650614	0.220339
1128.808248	0.223441
1128.965864	0.228199
1129.123461	0.235911
1129.281041	0.235658
1129.438602	0.250233
1129.596145	0.252920
1129.753670	0.248547
1129.911176	0.251973
1130.068665	0.255038
1130.226135	0.248807
1130.383587	0.249702
1130.541020	0.251658
1130.698436	0.253407
1130.855833	0.248368
1131.013212	0.242305
1131.170573	0.254399
1131.327915	0.251046
1131.485239	0.251056
1131.642545	0.252392
1131.799833	0.242704
1131.957103	0.239608
1132.114354	0.241141
1132.271588	0.232174
1132.428803	0.234964
1132.585999	0.223908
1132.743178	0.226713
1132.900338	0.222445
1133.057480	0.223928
1133.214604	0.237551
1133.371710	0.245213
1133.528797	0.243965
1133.685866	0.247334
1133.842917	0.242671
1133.999950	0.243360
1134.156964	0.240065
1134.313960	0.244210
1134.470938	0.248336
1134.627898	0.244716
1134.784840	0.237881
1134.941763	0.243372
1135.098668	0.247611
1135.255555	0.251787
1135.412424	0.253453
1135.569274	0.259553
1135.726107	0.262966
1135.882921	0.261486
1136.039716	0.246172
1136.196494	0.244789
1136.353253	0.243377
1136.509995	0.241110
1136.666717	0.244915
1136.823422	0.239593
1136.980109	0.247418
1137.136777	0.236543
1137.293427	0.233255
1137.450059	0.240639
1137.606672	0.239510
1137.763267	0.251255
1137.919844	0.252664
1138.076403	0.252296
1138.232944	0.257614
1138.389466	0.238518
1138.545971	0.250297
1138.702457	0.256423
1138.858924	0.261243
1139.015374	0.273089
1139.171805	0.263146
1139.328218	0.267617
1139.484613	0.269942
1139.640990	0.259733
1139.797348	0.265130
1139.953688	0.253982
1140.110010	0.246909
1140.266314	0.251396
1140.422600	0.250440
1140.578867	0.245632
1140.735116	0.242313
1140.891347	0.237303
1141.047559	0.253721
1141.203754	0.263941
1141.359930	0.271472
1141.516088	0.270642
1141.672228	0.272003
1141.828349	0.261117
1141.984452	0.260492
1142.140537	0.257892
1142.296604	0.252844
1142.452653	0.236565
1142.608683	0.238109
1142.764695	0.233460
1142.920689	0.229805
1143.076665	0.211773
1143.232622	0.206300
1143.388562	0.215974
1143.544483	0.215622
1143.700385	0.217775
1143.856270	0.214011
1144.012136	0.220425
1144.167985	0.214912
1144.323814	0.219994
1144.479626	0.226805
1144.635420	0.236733
1144.791195	0.225884
1144.946952	0.235748
1145.102691	0.243055
1145.258411	0.260023
1145.414113	0.244101
1145.569798	0.252905
1145.725463	0.248988
1145.881111	0.255863
1146.036741	0.260796
1146.192352	0.269822
1146.347945	0.254223
1146.503519	0.238339
1146.659076	0.242911
1146.814614	0.245225
1146.970134	0.246606
1147.125636	0.259677
1147.281120	0.263415
1147.436585	0.261207
1147.592032	0.245841
1147.747461	0.254794
1147.902872	0.269223
1148.058265	0.263895
1148.213639	0.253784
1148.368995	0.247544
1148.524333	0.231073
1148.679653	0.220675
1148.834954	0.213099
1148.990237	0.227768
1149.145502	0.225725
1149.300749	0.233466
1149.455977	0.236154
1149.611188	0.236063
1149.766380	0.241412
1149.921553	0.256328
1150.076709	0.253686
1150.231846	0.258971
1150.386966	0.262833
1150.542066	0.264996
1150.697149	0.254210
1150.852214	0.257050
1151.007260	0.265103
1151.162288	0.259004
1151.317298	0.242571
1151.472289	0.249072
1151.627263	0.253934
1151.782218	0.242720
1151.937155	0.241101
1152.092073	0.244038
1152.246974	0.233263
1152.401856	0.239651
1152.556720	0.248052
1152.711566	0.260696
1152.866393	0.256014
1153.021203	0.239542
1153.175994	0.246704
1153.330767	0.236657
1153.485521	0.243766
1153.640258	0.255939
1153.794976	0.250037
1153.949676	0.236115
1154.104358	0.242647
1154.259021	0.242783
1154.413667	0.259856
1154.568294	0.261667
1154.722903	0.277469
1154.877493	0.258958
1155.032066	0.254099
1155.186620	0.263007
1155.341156	0.287217
1155.495674	0.261569
1155.650173	0.252915
1155.804654	0.252591
1155.959118	0.247117
1156.113562	0.254886
1156.267989	0.261852
1156.422397	0.260285
1156.576788	0.248865
1156.731160	0.226123
1156.885513	0.258026
1157.039849	0.261339
1157.194166	0.243944
1157.348465	0.247510
1157.502746	0.243507
1157.657009	0.239009
1157.811253	0.220470
1157.965479	0.222231
1158.119687	0.239963
1158.273877	0.231483
1158.428048	0.232382
1158.582201	0.246546
1158.736337	0.248243
1158.890453	0.230518
1159.044552	0.238834
1159.198632	0.251143
1159.352694	0.260967
1159.506738	0.251451
1159.660764	0.245162
1159.814771	0.265165
1159.968761	0.269473
1160.122732	0.265638
1160.276685	0.287851
1160.430619	0.267897
1160.584535	0.256987
1160.738434	0.245217
1160.892313	0.243700
1161.046175	0.238464
1161.200019	0.228190
1161.353844	0.223287
1161.507651	0.206412
1161.661440	0.201220
1161.815210	0.213062
1161.968962	0.212460
1162.122697	0.211876
1162.276412	0.219664
1162.430110	0.207839
1162.583789	0.215497
1162.737451	0.212424
1162.891094	0.220556
1163.044718	0.205515
1163.198325	0.211160
1163.351913	0.238926
1163.505483	0.262257
1163.659035	0.255633
1163.812569	0.252046
1163.966084	0.250232
1164.119581	0.238193
1164.273060	0.237665
1164.426521	0.255629
1164.579964	0.258029
1164.733388	0.260359
1164.886794	0.247617
1165.040182	0.244100
1165.193551	0.285729
1165.346903	0.272246
1165.500236	0.276868
1165.653551	0.289397
1165.806848	0.270913
1165.960126	0.252920
1166.113386	0.243420
1166.266628	0.243800
1166.419852	0.253762
1166.573058	0.229214
1166.726245	0.247501
1166.879414	0.239692
1167.032565	0.242283
1167.185698	0.239822
1167.338812	0.229796
1167.491909	0.209299
1167.644987	0.217441
1167.798046	0.208937
1167.951088	0.224713
1168.104111	0.217695
1168.257117	0.239748
1168.410103	0.231854
1168.563072	0.261633
1168.716023	0.283842
1168.868955	0.329664
1169.021869	0.272349
1169.174765	0.275694
1169.327642	0.264146
1169.480501	0.264298
1169.633343	0.255289
1169.786165	0.280751
1169.938970	0.279866
1170.091757	0.281808
1170.244525	0.246912
1170.397275	0.289711
1170.550007	0.314513
1170.702720	0.328981
1170.855415	0.319866
1171.008092	0.334898
1171.160751	0.315098
1171.313392	0.300203
1171.466014	0.226282
1171.618619	0.339156
1171.771205	0.339156
1171.923772	0.339156
