sample name	sample
index	335
start time	 03-01-2021  10:34:24 AM


Wavelength (nm)	Absorbance
494.344910	0.117146
494.563924	0.117146
494.782919	0.117146
495.001897	-0.178371
495.220856	-0.003574
495.439797	-0.016803
495.658719	-0.037017
495.877624	-0.055688
496.096510	-0.044874
496.315378	-0.050027
496.534227	-0.083287
496.753059	-0.071662
496.971872	-0.051296
497.190667	0.112058
497.409444	0.149131
497.628203	0.158284
497.846943	0.162707
498.065665	0.165302
498.284369	0.166891
498.503055	0.168505
498.721723	0.169016
498.940372	0.171430
499.159003	0.170881
499.377616	0.170872
499.596210	0.170601
499.814787	0.170676
500.033345	0.171402
500.251885	0.171502
500.470406	0.171979
500.688910	0.171776
500.907395	0.170487
501.125862	0.170885
501.344311	0.170719
501.562742	0.170665
501.781154	0.170143
501.999548	0.170158
502.217924	0.169280
502.436282	0.168939
502.654621	0.169517
502.872942	0.169213
503.091245	0.168280
503.309530	0.168000
503.527797	0.168499
503.746045	0.168882
503.964275	0.168083
504.182487	0.167912
504.400681	0.168198
504.618856	0.168502
504.837013	0.169165
505.055152	0.169149
505.273273	0.169263
505.491376	0.168848
505.709460	0.168762
505.927526	0.169073
506.145574	0.169996
506.363604	0.169959
506.581615	0.169268
506.799608	0.169115
507.017583	0.169724
507.235540	0.170075
507.453478	0.170360
507.671399	0.170407
507.889301	0.170848
508.107185	0.171182
508.325050	0.170794
508.542898	0.170209
508.760727	0.170288
508.978538	0.169871
509.196330	0.169945
509.414105	0.169957
509.631861	0.169788
509.849599	0.169017
510.067319	0.168066
510.285021	0.167531
510.502704	0.168443
510.720369	0.167927
510.938016	0.169145
511.155645	0.169073
511.373255	0.169169
511.590848	0.169154
511.808422	0.169930
512.025977	0.170205
512.243515	0.170702
512.461034	0.171473
512.678536	0.171663
512.896018	0.170398
513.113483	0.169695
513.330930	0.170550
513.548358	0.170888
513.765768	0.170068
513.983160	0.170096
514.200533	0.170479
514.417889	0.170316
514.635226	0.171340
514.852545	0.172089
515.069845	0.172307
515.287128	0.171790
515.504392	0.172439
515.721638	0.173141
515.938866	0.172689
516.156075	0.172741
516.373267	0.172561
516.590440	0.171481
516.807594	0.170720
517.024731	0.170680
517.241850	0.171454
517.458950	0.171029
517.676032	0.171343
517.893095	0.173076
518.110141	0.172611
518.327168	0.172568
518.544177	0.173580
518.761168	0.173965
518.978141	0.174225
519.195095	0.173455
519.412031	0.173395
519.628949	0.173106
519.845849	0.172760
520.062731	0.173700
520.279594	0.174004
520.496439	0.172432
520.713266	0.172453
520.930074	0.173150
521.146865	0.173052
521.363637	0.172887
521.580391	0.173044
521.797127	0.172834
522.013844	0.172298
522.230543	0.172457
522.447224	0.173959
522.663887	0.174334
522.880532	0.173909
523.097158	0.174262
523.313766	0.174984
523.530356	0.174593
523.746928	0.174663
523.963481	0.174681
524.180017	0.174769
524.396534	0.175331
524.613032	0.175945
524.829513	0.176030
525.045975	0.175666
525.262420	0.175895
525.478845	0.177032
525.695253	0.177671
525.911643	0.177754
526.128014	0.177454
526.344367	0.176814
526.560702	0.176473
526.777018	0.176560
526.993316	0.177354
527.209597	0.177314
527.425858	0.177338
527.642102	0.176764
527.858328	0.177631
528.074535	0.178393
528.290724	0.179066
528.506894	0.179556
528.723047	0.180489
528.939181	0.180605
529.155297	0.180653
529.371395	0.180909
529.587475	0.181952
529.803536	0.181811
530.019579	0.181842
530.235604	0.181868
530.451611	0.182001
530.667600	0.181895
530.883570	0.182805
531.099522	0.183519
531.315456	0.183845
531.531372	0.183484
531.747269	0.184265
531.963148	0.184251
532.179009	0.184556
532.394852	0.184615
532.610676	0.184999
532.826482	0.183751
533.042271	0.183511
533.258040	0.183763
533.473792	0.184391
533.689525	0.184224
533.905240	0.184768
534.120937	0.184935
534.336616	0.184890
534.552277	0.184669
534.767919	0.185531
534.983543	0.185796
535.199149	0.185879
535.414736	0.186373
535.630306	0.186587
535.845857	0.186650
536.061390	0.186867
536.276904	0.187547
536.492401	0.188830
536.707879	0.189076
536.923339	0.189784
537.138781	0.189858
537.354204	0.189965
537.569610	0.190323
537.784997	0.190071
538.000366	0.190584
538.215716	0.191101
538.431049	0.191108
538.646363	0.191566
538.861659	0.191581
539.076937	0.191858
539.292196	0.191892
539.507438	0.191790
539.722661	0.192490
539.937866	0.192745
540.153052	0.192467
540.368221	0.192320
540.583371	0.192913
540.798503	0.192975
541.013617	0.193130
541.228712	0.193316
541.443789	0.193404
541.658848	0.193881
541.873889	0.193593
542.088912	0.194161
542.303916	0.194556
542.518902	0.194563
542.733870	0.194976
542.948820	0.195041
543.163752	0.195449
543.378665	0.196188
543.593560	0.196372
543.808437	0.197078
544.023295	0.197484
544.238136	0.197573
544.452958	0.197603
544.667762	0.198136
544.882548	0.198869
545.097315	0.199331
545.312064	0.199245
545.526795	0.199099
545.741508	0.199043
545.956203	0.199252
546.170879	0.199272
546.385537	0.199726
546.600177	0.198907
546.814799	0.198963
547.029402	0.198934
547.243988	0.199220
547.458555	0.199800
547.673103	0.200217
547.887634	0.200736
548.102146	0.201085
548.316640	0.201333
548.531116	0.202490
548.745574	0.202403
548.960013	0.202134
549.174435	0.202113
549.388838	0.202273
549.603222	0.202134
549.817589	0.201526
550.031937	0.201629
550.246267	0.201705
550.460579	0.202009
550.674873	0.201985
550.889148	0.202672
551.103405	0.203393
551.317644	0.203509
551.531865	0.203635
551.746068	0.204081
551.960252	0.204102
552.174418	0.204203
552.388566	0.203981
552.602696	0.204327
552.816807	0.204146
553.030900	0.204093
553.244975	0.203880
553.459032	0.203885
553.673070	0.203822
553.887091	0.204028
554.101093	0.204181
554.315077	0.204797
554.529042	0.205447
554.742990	0.205941
554.956919	0.205943
555.170830	0.205961
555.384722	0.206940
555.598597	0.207474
555.812453	0.207889
556.026291	0.208314
556.240111	0.208313
556.453913	0.208308
556.667696	0.208513
556.881461	0.209015
557.095208	0.209999
557.308937	0.209603
557.522647	0.209795
557.736339	0.209952
557.950013	0.209841
558.163669	0.209929
558.377307	0.209942
558.590926	0.209947
558.804527	0.210042
559.018110	0.209838
559.231675	0.210195
559.445221	0.210518
559.658749	0.210886
559.872259	0.210863
560.085751	0.210848
560.299225	0.211536
560.512680	0.211947
560.726117	0.212303
560.939536	0.212922
561.152937	0.213168
561.366319	0.212814
561.579683	0.212885
561.793029	0.213769
562.006357	0.213975
562.219667	0.213899
562.432958	0.213648
562.646231	0.213193
562.859486	0.213156
563.072723	0.213269
563.285941	0.213871
563.499141	0.213830
563.712323	0.213510
563.925487	0.213618
564.138632	0.213969
564.351760	0.214908
564.564869	0.215480
564.777960	0.215227
564.991032	0.215616
565.204087	0.215730
565.417123	0.216013
565.630141	0.216257
565.843140	0.216717
566.056122	0.216690
566.269085	0.216400
566.482030	0.216503
566.694957	0.216688
566.907866	0.216683
567.120756	0.216707
567.333628	0.217100
567.546482	0.217223
567.759318	0.217470
567.972135	0.217653
568.184935	0.218071
568.397716	0.218421
568.610478	0.218818
568.823223	0.219064
569.035949	0.219406
569.248657	0.219328
569.461347	0.219717
569.674019	0.219642
569.886672	0.219482
570.099308	0.219538
570.311925	0.219640
570.524523	0.220103
570.737104	0.220073
570.949666	0.220149
571.162210	0.219970
571.374736	0.220120
571.587244	0.220734
571.799733	0.220815
572.012205	0.221112
572.224658	0.221635
572.437092	0.221420
572.649509	0.221763
572.861907	0.221843
573.074287	0.222492
573.286649	0.222717
573.498993	0.222275
573.711318	0.222951
573.923625	0.222597
574.135914	0.222338
574.348185	0.222711
574.560438	0.223006
574.772672	0.223165
574.984888	0.222954
575.197086	0.222757
575.409266	0.223290
575.621427	0.223436
575.833570	0.223641
576.045695	0.223927
576.257802	0.224026
576.469890	0.223772
576.681961	0.223967
576.894013	0.224546
577.106046	0.224705
577.318062	0.224666
577.530059	0.224593
577.742039	0.224544
577.954000	0.224656
578.165942	0.225091
578.377867	0.225309
578.589773	0.225372
578.801661	0.225376
579.013531	0.225751
579.225382	0.225947
579.437216	0.226085
579.649031	0.226275
579.860828	0.226077
580.072606	0.226078
580.284367	0.226624
580.496109	0.227095
580.707833	0.226786
580.919539	0.226997
581.131227	0.226929
581.342896	0.227152
581.554547	0.227224
581.766180	0.227579
581.977795	0.228089
582.189391	0.228347
582.400969	0.228298
582.612529	0.228996
582.824071	0.229255
583.035595	0.229596
583.247100	0.229626
583.458587	0.230104
583.670056	0.230412
583.881506	0.230276
584.092939	0.230185
584.304353	0.230088
584.515749	0.230297
584.727127	0.230414
584.938486	0.230348
585.149828	0.231054
585.361151	0.231211
585.572456	0.231279
585.783742	0.231131
585.995011	0.231013
586.206261	0.231106
586.417493	0.231332
586.628706	0.231688
586.839902	0.231818
587.051079	0.231584
587.262238	0.231821
587.473379	0.231957
587.684502	0.232149
587.895606	0.232484
588.106692	0.233184
588.317760	0.233191
588.528810	0.233079
588.739841	0.233514
588.950855	0.233567
589.161850	0.233816
589.372827	0.234099
589.583785	0.234354
589.794726	0.234401
590.005648	0.234637
590.216552	0.235031
590.427437	0.235140
590.638305	0.235402
590.849154	0.235397
591.059985	0.235254
591.270798	0.235448
591.481592	0.235865
591.692369	0.236175
591.903127	0.236444
592.113867	0.236201
592.324588	0.236375
592.535292	0.236520
592.745977	0.236758
592.956644	0.237168
593.167293	0.237225
593.377923	0.237224
593.588536	0.237669
593.799130	0.237553
594.009706	0.237740
594.220263	0.237838
594.430803	0.237991
594.641324	0.238278
594.851827	0.238276
595.062312	0.238543
595.272778	0.238710
595.483227	0.238519
595.693657	0.238404
595.904069	0.238440
596.114462	0.238702
596.324838	0.238738
596.535195	0.238896
596.745534	0.239227
596.955855	0.239287
597.166157	0.239478
597.376441	0.239844
597.586707	0.240359
597.796955	0.241075
598.007185	0.241098
598.217396	0.241304
598.427589	0.241782
598.637764	0.242217
598.847921	0.242225
599.058060	0.242145
599.268180	0.242304
599.478282	0.242281
599.688366	0.241893
599.898431	0.242014
600.108479	0.242212
600.318508	0.242174
600.528519	0.242148
600.738511	0.242268
600.948486	0.242206
601.158442	0.242390
601.368380	0.242458
601.578300	0.242760
601.788202	0.243120
601.998085	0.243325
602.207950	0.243312
602.417797	0.243544
602.627626	0.244176
602.837436	0.244611
603.047228	0.244554
603.257002	0.244543
603.466758	0.244439
603.676496	0.244241
603.886215	0.243984
604.095916	0.244256
604.305599	0.244258
604.515264	0.244232
604.724910	0.244480
604.934538	0.244516
605.144148	0.244994
605.353740	0.245305
605.563314	0.245660
605.772869	0.245977
605.982406	0.246003
606.191925	0.246199
606.401425	0.246273
606.610908	0.246238
606.820372	0.246405
607.029818	0.246396
607.239246	0.246710
607.448655	0.246791
607.658047	0.247143
607.867420	0.247396
608.076775	0.247291
608.286111	0.247113
608.495430	0.247586
608.704730	0.247573
608.914012	0.247860
609.123275	0.247838
609.332521	0.248009
609.541748	0.247980
609.750957	0.248448
609.960148	0.248722
610.169321	0.249256
610.378475	0.249211
610.587611	0.249442
610.796729	0.249569
611.005829	0.249792
611.214910	0.249864
611.423974	0.249984
611.633019	0.249950
611.842045	0.250034
612.051054	0.250442
612.260044	0.250286
612.469017	0.250258
612.677970	0.250251
612.886906	0.250279
613.095824	0.250750
613.304723	0.250901
613.513604	0.250650
613.722467	0.250758
613.931311	0.250762
614.140138	0.251310
614.348946	0.251785
614.557736	0.251973
614.766507	0.252121
614.975261	0.252048
615.183996	0.252376
615.392713	0.252728
615.601412	0.252662
615.810092	0.252629
616.018754	0.252693
616.227399	0.253282
616.436024	0.253574
616.644632	0.253942
616.853222	0.254174
617.061793	0.254222
617.270346	0.254358
617.478880	0.254839
617.687397	0.255071
617.895895	0.255253
618.104375	0.254772
618.312837	0.254672
618.521281	0.254321
618.729706	0.254470
618.938113	0.254281
619.146502	0.254401
619.354873	0.254465
619.563226	0.254442
619.771560	0.254221
619.979876	0.254425
620.188174	0.254709
620.396453	0.255316
620.604715	0.255127
620.812958	0.255577
621.021183	0.255771
621.229390	0.256158
621.437578	0.256208
621.645748	0.256867
621.853900	0.257138
622.062034	0.257026
622.270150	0.257117
622.478247	0.257818
622.686326	0.257730
622.894387	0.257548
623.102430	0.257471
623.310454	0.257479
623.518461	0.257168
623.726449	0.257394
623.934418	0.257820
624.142370	0.257713
624.350303	0.257611
624.558218	0.258052
624.766115	0.258266
624.973994	0.258583
625.181855	0.259044
625.389697	0.259371
625.597521	0.259184
625.805327	0.259093
626.013114	0.259369
626.220883	0.259346
626.428634	0.259413
626.636367	0.259654
626.844082	0.259861
627.051778	0.259955
627.259457	0.259918
627.467117	0.260082
627.674758	0.260163
627.882382	0.260238
628.089987	0.260556
628.297574	0.260646
628.505143	0.260807
628.712694	0.260635
628.920226	0.260360
629.127740	0.260422
629.335236	0.260715
629.542714	0.260967
629.750174	0.261195
629.957615	0.261138
630.165038	0.261414
630.372443	0.261647
630.579829	0.261943
630.787198	0.262364
630.994548	0.262855
631.201880	0.262992
631.409194	0.263145
631.616489	0.263445
631.823766	0.263541
632.031025	0.263644
632.238266	0.263914
632.445489	0.264246
632.652693	0.264506
632.859879	0.264678
633.067047	0.264778
633.274197	0.265057
633.481329	0.265098
633.688442	0.265504
633.895537	0.265644
634.102614	0.265791
634.309672	0.265814
634.516713	0.265913
634.723735	0.265760
634.930739	0.266173
635.137724	0.266397
635.344692	0.266491
635.551641	0.266503
635.758572	0.266696
635.965485	0.266899
636.172379	0.267024
636.379256	0.267602
636.586114	0.268137
636.792954	0.268184
636.999775	0.268087
637.206579	0.268307
637.413364	0.268651
637.620131	0.268935
637.826880	0.269196
638.033610	0.269424
638.240323	0.269212
638.447017	0.269260
638.653692	0.269561
638.860350	0.269810
639.066990	0.270158
639.273611	0.270198
639.480214	0.270292
639.686798	0.270252
639.893365	0.270277
640.099913	0.270358
640.306443	0.270335
640.512955	0.270357
640.719449	0.270779
640.925924	0.270661
641.132381	0.270643
641.338820	0.270836
641.545241	0.271110
641.751644	0.271242
641.958028	0.271582
642.164394	0.271858
642.370742	0.271987
642.577071	0.271886
642.783383	0.272114
642.989676	0.272575
643.195951	0.272515
643.402207	0.272589
643.608446	0.272745
643.814666	0.272852
644.020868	0.272981
644.227052	0.273067
644.433218	0.273278
644.639365	0.273449
644.845494	0.273543
645.051605	0.273849
645.257698	0.273861
645.463772	0.273898
645.669828	0.274090
645.875866	0.274390
646.081886	0.274746
646.287888	0.274913
646.493871	0.275143
646.699836	0.275189
646.905783	0.275185
647.111712	0.275334
647.317622	0.275668
647.523514	0.275735
647.729388	0.275767
647.935244	0.275880
648.141082	0.276103
648.346901	0.276283
648.552702	0.276614
648.758485	0.276912
648.964250	0.277329
649.169996	0.277365
649.375724	0.277519
649.581434	0.277733
649.787126	0.277873
649.992800	0.278038
650.198455	0.278194
650.404092	0.278533
650.609711	0.278837
650.815311	0.278719
651.020894	0.279112
651.226458	0.279458
651.432004	0.279610
651.637532	0.279699
651.843041	0.279790
652.048532	0.279829
652.254006	0.279518
652.459460	0.279352
652.664897	0.279777
652.870315	0.279751
653.075716	0.279848
653.281097	0.280056
653.486461	0.280111
653.691807	0.280450
653.897134	0.280798
654.102443	0.281141
654.307734	0.281377
654.513006	0.281500
654.718261	0.281767
654.923497	0.282029
655.128715	0.282135
655.333915	0.282666
655.539096	0.282606
655.744259	0.282727
655.949404	0.283046
656.154531	0.283288
656.359640	0.283435
656.564730	0.284012
656.769802	0.284312
656.974856	0.284690
657.179892	0.284704
657.384909	0.284980
657.589908	0.284829
657.794889	0.285174
657.999852	0.285427
658.204797	0.285781
658.409723	0.285561
658.614631	0.285572
658.819521	0.285833
659.024393	0.286222
659.229246	0.286427
659.434081	0.286973
659.638898	0.286992
659.843697	0.287164
660.048478	0.287179
660.253240	0.287559
660.457984	0.287694
660.662710	0.287721
660.867417	0.287825
661.072107	0.288086
661.276778	0.288274
661.481431	0.288314
661.686066	0.288421
661.890682	0.288632
662.095281	0.288817
662.299861	0.289152
662.504422	0.289310
662.708966	0.289194
662.913491	0.289595
663.117999	0.289743
663.322488	0.289865
663.526958	0.290057
663.731411	0.290188
663.935845	0.290244
664.140261	0.290230
664.344659	0.290721
664.549038	0.291078
664.753400	0.290965
664.957743	0.291344
665.162068	0.291696
665.366375	0.292097
665.570663	0.292434
665.774933	0.292648
665.979185	0.293069
666.183419	0.293175
666.387635	0.293443
666.591832	0.293667
666.796011	0.293854
667.000172	0.294096
667.204315	0.294212
667.408439	0.294450
667.612545	0.294532
667.816634	0.294785
668.020703	0.294885
668.224755	0.295222
668.428788	0.295536
668.632803	0.295735
668.836800	0.296095
669.040779	0.296496
669.244739	0.296698
669.448681	0.297095
669.652605	0.297086
669.856511	0.297231
670.060399	0.297371
670.264268	0.297606
670.468119	0.297766
670.671952	0.297908
670.875767	0.298067
671.079563	0.298113
671.283341	0.298237
671.487101	0.298444
671.690843	0.298733
671.894567	0.298791
672.098272	0.298915
672.301959	0.299015
672.505628	0.299020
672.709278	0.299030
672.912911	0.299203
673.116525	0.299157
673.320121	0.299213
673.523699	0.299283
673.727258	0.299539
673.930799	0.299798
674.134322	0.300107
674.337827	0.300250
674.541314	0.300630
674.744782	0.300881
674.948232	0.301305
675.151664	0.301690
675.355078	0.301658
675.558474	0.301698
675.761851	0.301801
675.965210	0.301965
676.168551	0.302014
676.371873	0.302168
676.575178	0.302382
676.778464	0.302521
676.981732	0.302727
677.184981	0.303123
677.388213	0.303398
677.591426	0.303652
677.794621	0.303963
677.997798	0.304608
678.200956	0.304891
678.404097	0.305116
678.607219	0.305408
678.810323	0.305705
679.013408	0.305862
679.216476	0.306142
679.419525	0.306264
679.622556	0.306071
679.825569	0.306188
680.028563	0.306001
680.231540	0.306208
680.434498	0.306273
680.637438	0.306164
680.840359	0.306449
681.043263	0.306596
681.246148	0.306815
681.449015	0.307273
681.651864	0.307487
681.854694	0.308050
682.057506	0.308203
682.260301	0.308432
682.463076	0.308609
682.665834	0.308684
682.868573	0.308963
683.071295	0.309049
683.273998	0.309188
683.476682	0.309145
683.679349	0.309088
683.881997	0.309068
684.084627	0.309192
684.287239	0.309387
684.489833	0.309323
684.692408	0.309416
684.894965	0.309407
685.097504	0.309758
685.300025	0.310057
685.502527	0.310239
685.705012	0.310420
685.907478	0.310584
686.109925	0.310666
686.312355	0.310943
686.514766	0.311015
686.717159	0.311462
686.919534	0.311391
687.121891	0.311328
687.324230	0.311544
687.526550	0.311653
687.728852	0.311839
687.931136	0.312080
688.133401	0.312504
688.335649	0.312905
688.537878	0.313056
688.740089	0.313303
688.942281	0.313593
689.144456	0.313730
689.346612	0.314044
689.548750	0.314187
689.750870	0.314510
689.952971	0.314563
690.155055	0.314751
690.357120	0.314887
690.559167	0.315204
690.761195	0.315387
690.963206	0.315566
691.165198	0.315595
691.367172	0.315799
691.569128	0.315678
691.771065	0.316130
691.972984	0.316060
692.174885	0.316367
692.376768	0.316189
692.578633	0.316231
692.780479	0.316351
692.982308	0.316606
693.184118	0.316779
693.385909	0.317095
693.587683	0.316981
693.789438	0.316962
693.991175	0.316773
694.192894	0.317028
694.394595	0.317270
694.596277	0.317126
694.797941	0.317240
694.999587	0.317519
695.201215	0.317598
695.402824	0.317540
695.604416	0.317959
695.805989	0.318079
696.007543	0.318056
696.209080	0.318297
696.410598	0.318481
696.612099	0.318471
696.813580	0.318295
697.015044	0.318370
697.216490	0.318633
697.417917	0.318696
697.619326	0.319094
697.820717	0.319325
698.022089	0.319296
698.223444	0.319789
698.424780	0.320231
698.626098	0.320379
698.827397	0.320945
699.028679	0.321031
699.229942	0.320975
699.431187	0.320992
699.632414	0.321043
699.833622	0.321298
700.034813	0.321401
700.235985	0.321407
700.437139	0.321789
700.638274	0.321726
700.839392	0.322204
701.040491	0.322796
701.241572	0.322950
701.442635	0.323465
701.643679	0.323508
701.844706	0.323482
702.045714	0.323533
702.246704	0.323504
702.447675	0.323790
702.648629	0.323461
702.849564	0.323226
703.050481	0.323456
703.251380	0.323146
703.452260	0.323202
703.653122	0.323028
703.853966	0.323094
704.054792	0.323123
704.255600	0.322967
704.456389	0.323201
704.657160	0.323160
704.857913	0.322786
705.058648	0.322948
705.259365	0.322769
705.460063	0.322888
705.660743	0.322879
705.861405	0.322810
706.062048	0.322600
706.262674	0.322604
706.463281	0.322587
706.663870	0.322862
706.864441	0.322813
707.064993	0.322901
707.265527	0.322913
707.466043	0.323070
707.666541	0.323170
707.867021	0.323571
708.067482	0.323541
708.267925	0.323688
708.468350	0.323737
708.668757	0.323918
708.869145	0.324243
709.069516	0.324540
709.269868	0.324617
709.470201	0.324807
709.670517	0.324638
709.870814	0.324557
710.071093	0.324549
710.271354	0.324653
710.471597	0.324487
710.671821	0.324450
710.872028	0.324317
711.072216	0.324385
711.272385	0.324240
711.472537	0.324380
711.672670	0.324521
711.872785	0.324534
712.072882	0.324518
712.272961	0.324413
712.473021	0.324273
712.673063	0.324290
712.873087	0.323999
713.073093	0.324096
713.273081	0.324046
713.473050	0.323926
713.673001	0.323785
713.872934	0.323571
714.072849	0.324003
714.272745	0.324196
714.472623	0.324369
714.672483	0.324264
714.872325	0.324162
715.072148	0.324016
715.271954	0.324225
715.471741	0.324214
715.671509	0.324114
715.871260	0.323766
716.070992	0.323507
716.270707	0.323368
716.470403	0.323650
716.670080	0.323578
716.869740	0.323469
717.069381	0.323438
717.269004	0.323437
717.468609	0.323718
717.668195	0.323602
717.867764	0.323555
718.067314	0.323290
718.266846	0.323174
718.466360	0.323083
718.665855	0.323182
718.865332	0.323055
719.064791	0.323034
719.264232	0.322876
719.463655	0.322915
719.663059	0.322874
719.862445	0.322966
720.061813	0.322810
720.261163	0.322879
720.460494	0.322950
720.659807	0.322864
720.859102	0.323060
721.058379	0.323289
721.257638	0.323151
721.456878	0.323263
721.656100	0.323437
721.855304	0.323596
722.054490	0.323572
722.253657	0.323476
722.452806	0.323544
722.651937	0.323290
722.851050	0.322999
723.050145	0.322915
723.249221	0.322862
723.448279	0.322681
723.647319	0.322609
723.846340	0.322290
724.045344	0.321854
724.244329	0.321565
724.443296	0.321469
724.642245	0.321474
724.841175	0.321643
725.040088	0.321511
725.238982	0.321343
725.437857	0.321060
725.636715	0.320950
725.835554	0.321148
726.034376	0.321235
726.233179	0.321542
726.431963	0.321244
726.630730	0.321218
726.829478	0.320894
727.028208	0.321027
727.226920	0.320940
727.425614	0.321162
727.624289	0.320976
727.822946	0.320939
728.021585	0.320672
728.220206	0.320602
728.418808	0.320256
728.617392	0.320460
728.815958	0.320205
729.014506	0.320276
729.213036	0.320286
729.411547	0.320357
729.610040	0.320483
729.808515	0.320252
730.006972	0.320432
730.205410	0.320397
730.403831	0.320335
730.602233	0.320259
730.800616	0.320185
730.998982	0.319959
731.197329	0.319717
731.395658	0.319346
731.593969	0.319218
731.792262	0.318896
731.990536	0.318720
732.188793	0.318371
732.387031	0.318005
732.585250	0.317731
732.783452	0.317384
732.981635	0.317461
733.179800	0.317121
733.377947	0.316721
733.576076	0.316584
733.774186	0.316701
733.972278	0.316520
734.170352	0.316568
734.368408	0.316268
734.566446	0.316130
734.764465	0.315732
734.962466	0.315733
735.160449	0.315736
735.358413	0.315524
735.556360	0.315031
735.754288	0.315024
735.952198	0.314816
736.150090	0.314913
736.347963	0.314841
736.545818	0.314635
736.743655	0.314483
736.941474	0.314353
737.139275	0.314220
737.337057	0.314168
737.534821	0.314212
737.732567	0.314230
737.930295	0.314285
738.128005	0.314308
738.325696	0.314229
738.523369	0.314268
738.721024	0.314082
738.918660	0.313998
739.116279	0.314039
739.313879	0.313577
739.511461	0.313434
739.709024	0.313056
739.906570	0.313007
740.104097	0.312865
740.301606	0.312173
740.499097	0.312120
740.696569	0.312026
740.894024	0.311998
741.091460	0.312003
741.288878	0.311824
741.486277	0.311548
741.683659	0.311305
741.881022	0.311187
742.078367	0.311366
742.275694	0.311528
742.473002	0.311314
742.670293	0.311075
742.867565	0.310752
743.064819	0.310536
743.262054	0.310764
743.459272	0.310645
743.656471	0.310474
743.853652	0.310378
744.050815	0.309704
744.247959	0.309306
744.445085	0.308909
744.642194	0.308847
744.839283	0.308508
745.036355	0.307846
745.233408	0.307586
745.430444	0.307295
745.627461	0.306905
745.824459	0.306996
746.021440	0.307229
746.218402	0.307132
746.415346	0.306903
746.612272	0.306684
746.809180	0.306788
747.006069	0.306497
747.202940	0.306379
747.399793	0.306497
747.596628	0.306312
747.793444	0.305957
747.990243	0.305840
748.187023	0.305711
748.383784	0.305704
748.580528	0.305266
748.777253	0.305236
748.973960	0.304926
749.170649	0.304612
749.367320	0.304294
749.563973	0.304127
749.760607	0.303782
749.957223	0.303593
750.153821	0.303244
750.350400	0.303211
750.546962	0.302907
750.743505	0.302737
750.940030	0.302649
751.136536	0.302310
751.333025	0.302074
751.529495	0.301859
751.725947	0.301879
751.922381	0.301718
752.118796	0.301714
752.315194	0.301514
752.511573	0.301658
752.707934	0.301446
752.904276	0.301468
753.100601	0.301326
753.296907	0.301167
753.493195	0.301055
753.689465	0.301170
753.885716	0.300775
754.081949	0.300807
754.278164	0.300719
754.474361	0.300569
754.670540	0.300559
754.866700	0.300352
755.062843	0.300479
755.258967	0.300349
755.455072	0.300182
755.651160	0.299973
755.847229	0.299709
756.043280	0.299319
756.239313	0.298869
756.435328	0.298579
756.631324	0.298519
756.827302	0.298273
757.023262	0.297856
757.219204	0.297437
757.415127	0.297307
757.611033	0.297349
757.806920	0.297357
758.002788	0.297421
758.198639	0.297585
758.394471	0.297397
758.590286	0.297363
758.786081	0.297181
758.981859	0.297250
759.177619	0.297333
759.373360	0.297170
759.569083	0.297108
759.764788	0.297025
759.960474	0.296763
760.156143	0.296882
760.351793	0.296707
760.547425	0.296543
760.743038	0.296516
760.938634	0.296347
761.134211	0.295963
761.329770	0.295891
761.525311	0.295904
761.720833	0.295689
761.916338	0.295246
762.111824	0.295278
762.307292	0.295345
762.502741	0.295195
762.698173	0.295013
762.893586	0.295151
763.088981	0.294977
763.284358	0.294719
763.479716	0.294600
763.675057	0.294599
763.870379	0.294200
764.065683	0.294103
764.260968	0.293944
764.456236	0.293955
764.651485	0.293765
764.846716	0.293635
765.041929	0.293539
765.237123	0.293516
765.432299	0.293389
765.627457	0.293525
765.822597	0.293371
766.017719	0.293491
766.212822	0.293326
766.407907	0.293245
766.602974	0.293140
766.798023	0.293183
766.993054	0.292942
767.188066	0.292984
767.383060	0.292740
767.578036	0.292757
767.772993	0.292407
767.967933	0.292375
768.162854	0.292333
768.357757	0.292409
768.552642	0.292128
768.747508	0.291970
768.942356	0.291714
769.137186	0.291523
769.331998	0.291680
769.526792	0.291648
769.721567	0.291574
769.916324	0.291460
770.111063	0.291238
770.305784	0.291218
770.500486	0.291374
770.695171	0.291202
770.889837	0.291364
771.084484	0.291138
771.279114	0.290924
771.473725	0.290832
771.668318	0.290627
771.862893	0.290599
772.057450	0.290550
772.251988	0.290361
772.446509	0.290697
772.641011	0.290644
772.835494	0.290296
773.029960	0.290523
773.224407	0.290371
773.418836	0.290393
773.613247	0.290278
773.807640	0.290432
774.002014	0.290467
774.196370	0.290191
774.390708	0.289945
774.585028	0.289825
774.779330	0.289672
774.973613	0.289712
775.167878	0.289664
775.362125	0.289563
775.556354	0.289437
775.750564	0.289497
775.944756	0.289403
776.138930	0.289358
776.333086	0.289466
776.527223	0.289087
776.721343	0.289117
776.915444	0.289200
777.109526	0.289076
777.303591	0.289064
777.497637	0.288979
777.691666	0.288940
777.885676	0.288970
778.079667	0.288818
778.273641	0.288948
778.467596	0.288930
778.661533	0.288750
778.855452	0.288637
779.049352	0.288468
779.243235	0.288341
779.437099	0.288507
779.630945	0.288481
779.824773	0.288663
780.018582	0.288852
780.212373	0.288829
780.406146	0.289198
780.599901	0.289325
780.793638	0.289269
780.987356	0.289486
781.181056	0.289426
781.374738	0.289594
781.568402	0.289622
781.762047	0.289475
781.955674	0.289501
782.149283	0.289308
782.342874	0.289816
782.536447	0.290061
782.730001	0.289803
782.923537	0.289996
783.117055	0.289927
783.310555	0.289791
783.504036	0.290092
783.697499	0.289932
783.890944	0.289759
784.084371	0.289128
784.277780	0.289052
784.471170	0.289386
784.664542	0.289203
784.857896	0.289298
785.051231	0.289625
785.244549	0.289662
785.437848	0.290089
785.631129	0.290494
785.824392	0.290849
786.017636	0.290938
786.210863	0.290878
786.404071	0.291038
786.597260	0.291276
786.790432	0.291295
786.983585	0.291371
787.176721	0.291156
787.369838	0.291037
787.562936	0.291229
787.756017	0.291161
787.949079	0.291224
788.142123	0.291310
788.335149	0.291026
788.528156	0.291178
788.721146	0.291031
788.914117	0.291306
789.107070	0.291230
789.300005	0.291361
789.492921	0.291802
789.685819	0.291821
789.878699	0.291937
790.071561	0.292271
790.264405	0.292331
790.457230	0.292420
790.650037	0.292580
790.842826	0.292880
791.035597	0.292602
791.228349	0.292448
791.421084	0.292617
791.613800	0.292713
791.806497	0.292597
791.999177	0.292585
792.191838	0.292926
792.384481	0.292750
792.577106	0.292684
792.769713	0.292900
792.962301	0.292927
793.154871	0.292947
793.347423	0.292845
793.539957	0.293130
793.732473	0.293046
793.924970	0.293042
794.117449	0.293162
794.309910	0.293418
794.502353	0.293346
794.694777	0.293290
794.887183	0.293349
795.079571	0.293320
795.271941	0.293421
795.464293	0.293814
795.656626	0.294090
795.848941	0.294115
796.041238	0.294203
796.233516	0.294729
796.425777	0.295011
796.618019	0.295307
796.810243	0.295859
797.002449	0.295848
797.194636	0.295924
797.386805	0.295742
797.578956	0.296165
797.771089	0.296416
797.963204	0.296596
798.155300	0.296704
798.347378	0.296575
798.539438	0.296508
798.731480	0.296692
798.923503	0.296680
799.115509	0.296751
799.307496	0.296651
799.499465	0.296691
799.691415	0.296626
799.883348	0.296980
800.075262	0.297213
800.267158	0.297341
800.459035	0.297490
800.650895	0.297612
800.842736	0.297793
801.034559	0.298090
801.226364	0.298402
801.418150	0.298687
801.609919	0.298741
801.801669	0.298941
801.993401	0.299071
802.185114	0.299165
802.376810	0.299399
802.568487	0.299840
802.760146	0.299963
802.951787	0.300151
803.143409	0.300255
803.335014	0.300536
803.526600	0.301043
803.718168	0.301202
803.909717	0.301449
804.101249	0.301897
804.292762	0.302060
804.484257	0.302558
804.675734	0.302649
804.867192	0.302858
805.058632	0.303149
805.250054	0.303285
805.441458	0.303892
805.632844	0.304249
805.824211	0.304410
806.015561	0.304602
806.206891	0.304761
806.398204	0.304954
806.589499	0.305312
806.780775	0.305475
806.972033	0.305902
807.163273	0.305830
807.354495	0.305820
807.545698	0.306095
807.736883	0.306399
807.928050	0.306455
808.119199	0.306630
808.310329	0.306589
808.501441	0.306719
808.692535	0.306741
808.883611	0.307072
809.074669	0.307593
809.265708	0.307673
809.456729	0.307692
809.647732	0.308204
809.838717	0.308324
810.029683	0.308422
810.220632	0.308651
810.411562	0.308543
810.602474	0.308785
810.793367	0.308687
810.984242	0.309001
811.175100	0.309512
811.365938	0.309472
811.556759	0.309932
811.747562	0.310537
811.938346	0.310915
812.129112	0.311220
812.319860	0.311475
812.510589	0.311722
812.701300	0.311710
812.891994	0.311824
813.082668	0.312257
813.273325	0.312368
813.463964	0.312367
813.654584	0.312563
813.845186	0.313031
814.035769	0.313185
814.226335	0.313672
814.416882	0.313940
814.607411	0.314116
814.797922	0.314391
814.988415	0.314779
815.178889	0.315158
815.369345	0.315469
815.559783	0.315655
815.750203	0.315938
815.940605	0.316111
816.130988	0.316692
816.321353	0.316921
816.511700	0.317066
816.702028	0.317529
816.892339	0.317812
817.082631	0.318115
817.272905	0.318491
817.463161	0.318719
817.653398	0.319201
817.843617	0.319366
818.033819	0.319755
818.224001	0.320207
818.414166	0.320290
818.604312	0.320612
818.794440	0.320711
818.984550	0.321045
819.174642	0.321415
819.364716	0.321636
819.554771	0.322056
819.744808	0.322580
819.934827	0.322651
820.124827	0.323000
820.314810	0.323113
820.504774	0.323462
820.694720	0.323268
820.884647	0.323337
821.074557	0.323496
821.264448	0.323717
821.454321	0.323843
821.644176	0.323972
821.834012	0.324044
822.023831	0.324468
822.213631	0.324987
822.403413	0.325662
822.593176	0.326141
822.782922	0.326476
822.972649	0.326853
823.162358	0.326933
823.352049	0.327402
823.541721	0.327836
823.731376	0.328012
823.921012	0.328157
824.110629	0.328509
824.300229	0.328963
824.489811	0.329364
824.679374	0.329602
824.868919	0.330251
825.058445	0.330676
825.247954	0.331057
825.437444	0.331857
825.626916	0.331932
825.816370	0.332234
826.005806	0.332648
826.195223	0.333086
826.384622	0.333512
826.574003	0.333632
826.763366	0.334167
826.952711	0.334567
827.142037	0.334932
827.331345	0.335755
827.520635	0.336281
827.709906	0.336716
827.899160	0.337045
828.088395	0.337429
828.277612	0.338043
828.466810	0.338174
828.655991	0.338219
828.845153	0.338216
829.034297	0.338370
829.223423	0.338674
829.412531	0.338945
829.601620	0.339273
829.790691	0.339479
829.979744	0.339578
830.168779	0.339759
830.357795	0.340187
830.546793	0.340737
830.735773	0.340869
830.924735	0.341140
831.113679	0.341265
831.302604	0.341501
831.491511	0.341785
831.680400	0.342253
831.869271	0.342748
832.058123	0.343598
832.246957	0.343640
832.435773	0.344251
832.624571	0.344612
832.813351	0.345144
833.002112	0.345568
833.190855	0.345994
833.379580	0.346393
833.568287	0.346662
833.756975	0.346850
833.945645	0.347229
834.134297	0.347494
834.322931	0.347681
834.511547	0.348039
834.700144	0.348569
834.888723	0.348958
835.077284	0.349256
835.265826	0.349598
835.454351	0.349892
835.642857	0.350364
835.831345	0.350960
836.019815	0.351545
836.208266	0.351996
836.396699	0.352385
836.585114	0.352989
836.773511	0.353509
836.961890	0.354297
837.150250	0.354308
837.338592	0.354788
837.526916	0.355228
837.715222	0.355827
837.903510	0.356061
838.091779	0.356376
838.280030	0.356689
838.468263	0.357306
838.656477	0.357692
838.844674	0.358487
839.032852	0.358956
839.221012	0.359189
839.409153	0.359539
839.597277	0.359698
839.785382	0.360164
839.973469	0.360560
840.161538	0.360664
840.349589	0.360756
840.537621	0.361062
840.725635	0.361295
840.913631	0.361967
841.101609	0.362202
841.289568	0.362736
841.477509	0.363131
841.665432	0.363405
841.853337	0.363757
842.041224	0.364053
842.229092	0.364375
842.416942	0.364794
842.604774	0.365062
842.792588	0.365500
842.980383	0.366336
843.168160	0.366511
843.355919	0.367065
843.543660	0.367620
843.731382	0.368215
843.919087	0.368749
844.106773	0.369404
844.294441	0.369482
844.482090	0.369801
844.669722	0.369985
844.857335	0.370480
845.044930	0.370856
845.232507	0.370938
845.420065	0.371428
845.607605	0.371808
845.795127	0.372065
845.982631	0.372523
846.170117	0.373126
846.357584	0.373221
846.545033	0.373797
846.732464	0.374173
846.919877	0.375184
847.107272	0.375602
847.294648	0.376039
847.482006	0.376569
847.669346	0.377243
847.856667	0.377537
848.043971	0.378374
848.231256	0.378620
848.418523	0.378944
848.605771	0.378976
848.793002	0.379318
848.980214	0.379689
849.167408	0.379948
849.354584	0.380227
849.541742	0.380699
849.728881	0.381119
849.916002	0.381559
850.103105	0.381940
850.290190	0.382707
850.477256	0.383087
850.664304	0.383549
850.851334	0.383678
851.038346	0.384132
851.225340	0.384170
851.412315	0.384446
851.599272	0.384821
851.786211	0.385215
851.973132	0.385313
852.160034	0.385939
852.346918	0.386609
852.533784	0.387694
852.720632	0.388259
852.907462	0.388856
853.094273	0.389447
853.281066	0.389825
853.467841	0.390512
853.654598	0.391039
853.841336	0.391275
854.028056	0.391798
854.214758	0.391770
854.401442	0.392229
854.588107	0.392714
854.774755	0.393025
854.961384	0.393559
855.147995	0.393887
855.334587	0.394107
855.521162	0.394317
855.707718	0.394587
855.894256	0.394976
856.080775	0.395190
856.267277	0.395729
856.453760	0.395972
856.640225	0.396483
856.826672	0.396768
857.013101	0.397281
857.199511	0.398017
857.385903	0.397778
857.572277	0.398075
857.758633	0.398264
857.944970	0.398353
858.131290	0.398522
858.317591	0.398630
858.503873	0.398985
858.690138	0.399031
858.876384	0.398878
859.062612	0.399399
859.248822	0.399796
859.435014	0.400350
859.621188	0.400798
859.807343	0.401433
859.993480	0.401215
860.179599	0.401180
860.365699	0.401443
860.551781	0.402044
860.737846	0.402508
860.923891	0.402807
861.109919	0.402595
861.295929	0.402823
861.481920	0.403061
861.667893	0.403799
861.853848	0.404491
862.039784	0.404960
862.225702	0.405179
862.411603	0.405492
862.597484	0.405720
862.783348	0.406616
862.969193	0.407004
863.155021	0.407136
863.340830	0.407904
863.526620	0.408137
863.712393	0.408677
863.898147	0.409244
864.083883	0.409880
864.269601	0.410335
864.455301	0.410470
864.640982	0.410620
864.826645	0.411090
865.012290	0.411305
865.197917	0.411631
865.383526	0.411776
865.569116	0.411921
865.754688	0.411697
865.940242	0.411875
866.125777	0.412320
866.311295	0.412928
866.496794	0.413258
866.682275	0.413449
866.867737	0.413169
867.053182	0.413598
867.238608	0.413653
867.424016	0.414168
867.609406	0.414440
867.794778	0.414525
867.980131	0.414700
868.165466	0.414937
868.350783	0.415201
868.536082	0.415843
868.721362	0.415662
868.906625	0.415828
869.091869	0.415746
869.277094	0.416174
869.462302	0.416327
869.647491	0.416123
869.832662	0.416204
870.017815	0.416105
870.202950	0.416159
870.388066	0.416493
870.573165	0.417050
870.758245	0.417493
870.943306	0.417638
871.128350	0.418002
871.313375	0.418799
871.498382	0.419448
871.683371	0.420211
871.868342	0.420353
872.053294	0.421109
872.238229	0.421332
872.423144	0.422046
872.608042	0.422535
872.792922	0.422920
872.977783	0.422987
873.162626	0.423182
873.347451	0.423356
873.532258	0.424097
873.717046	0.424244
873.901816	0.424325
874.086568	0.424222
874.271302	0.424522
874.456017	0.424563
874.640715	0.424943
874.825394	0.425120
875.010055	0.424924
875.194697	0.425261
875.379322	0.425101
875.563928	0.425472
875.748516	0.425551
875.933085	0.425535
876.117637	0.425690
876.302170	0.425975
876.486685	0.425953
876.671182	0.426462
876.855661	0.426858
877.040121	0.427127
877.224563	0.427530
877.408987	0.427744
877.593393	0.428009
877.777780	0.428498
877.962150	0.428468
878.146501	0.428946
878.330833	0.428943
878.515148	0.428701
878.699444	0.428955
878.883722	0.429066
879.067982	0.429136
879.252224	0.429352
879.436447	0.429267
879.620653	0.429278
879.804840	0.429138
879.989008	0.429556
880.173159	0.429814
880.357291	0.429365
880.541405	0.429618
880.725501	0.429983
880.909579	0.430215
881.093638	0.430343
881.277680	0.430954
881.461703	0.431506
881.645707	0.431268
881.829694	0.431246
882.013662	0.431915
882.197612	0.431511
882.381544	0.431852
882.565458	0.431588
882.749353	0.431705
882.933230	0.431159
883.117089	0.430986
883.300930	0.431049
883.484753	0.431211
883.668557	0.431350
883.852343	0.431492
884.036111	0.431385
884.219861	0.431639
884.403592	0.431753
884.587305	0.432279
884.771000	0.432488
884.954677	0.432792
885.138335	0.433186
885.321976	0.433377
885.505598	0.433813
885.689201	0.433577
885.872787	0.433810
886.056354	0.434028
886.239904	0.433818
886.423434	0.433800
886.606947	0.433699
886.790442	0.433253
886.973918	0.432663
887.157376	0.432734
887.340816	0.432992
887.524237	0.432706
887.707641	0.432439
887.891026	0.432603
888.074393	0.432352
888.257741	0.432941
888.441072	0.433319
888.624384	0.434190
888.807678	0.433862
888.990954	0.433969
889.174211	0.434449
889.357451	0.434659
889.540672	0.434284
889.723875	0.434191
889.907059	0.433885
890.090226	0.434070
890.273374	0.433836
890.456504	0.433538
890.639616	0.433426
890.822709	0.433189
891.005785	0.433517
891.188842	0.433626
891.371881	0.433765
891.554901	0.433468
891.737904	0.433174
891.920888	0.432975
892.103854	0.433499
892.286802	0.433597
892.469731	0.432975
892.652643	0.432459
892.835536	0.432569
893.018410	0.432829
893.201267	0.432964
893.384106	0.432473
893.566926	0.432558
893.749728	0.432447
893.932511	0.432440
894.115277	0.432358
894.298024	0.432280
894.480753	0.432082
894.663464	0.431722
894.846157	0.431299
895.028831	0.431859
895.211487	0.431677
895.394125	0.431538
895.576745	0.430656
895.759346	0.431079
895.941930	0.430887
896.124495	0.430460
896.307041	0.430428
896.489570	0.430160
896.672080	0.429374
896.854573	0.428933
897.037046	0.428336
897.219502	0.428662
897.401940	0.427758
897.584359	0.428109
897.766760	0.427899
897.949143	0.427791
898.131507	0.427921
898.313854	0.427565
898.496182	0.427999
898.678492	0.427371
898.860783	0.426955
899.043057	0.427330
899.225312	0.426541
899.407549	0.427099
899.589768	0.426791
899.771968	0.426465
899.954151	0.426668
900.136315	0.425339
900.318461	0.425259
900.500588	0.425074
900.682698	0.424734
900.864789	0.424966
901.046862	0.424454
901.228917	0.423862
901.410953	0.423855
901.592971	0.423119
901.774972	0.422982
901.956953	0.422803
902.138917	0.422684
902.320862	0.422120
902.502790	0.421415
902.684699	0.421114
902.866589	0.420970
903.048462	0.420109
903.230316	0.419974
903.412152	0.419995
903.593970	0.420069
903.775770	0.419397
903.957551	0.419133
904.139314	0.418868
904.321059	0.418226
904.502786	0.417910
904.684494	0.418288
904.866185	0.418386
905.047857	0.418158
905.229510	0.418608
905.411146	0.418911
905.592763	0.418466
905.774363	0.418335
905.955943	0.418666
906.137506	0.418696
906.319051	0.418115
906.500577	0.417197
906.682085	0.417078
906.863575	0.416270
907.045046	0.415410
907.226500	0.415189
907.407935	0.414232
907.589352	0.413597
907.770750	0.412729
907.952131	0.412022
908.133493	0.411915
908.314837	0.411702
908.496163	0.411078
908.677470	0.410668
908.858760	0.410315
909.040031	0.410180
909.221284	0.409008
909.402518	0.408758
909.583735	0.408335
909.764933	0.408087
909.946113	0.407259
910.127275	0.406474
910.308418	0.405799
910.489544	0.405678
910.670651	0.404982
910.851740	0.405096
911.032810	0.404213
911.213863	0.403727
911.394897	0.402776
911.575913	0.402297
911.756911	0.402217
911.937890	0.402174
912.118851	0.401587
912.299794	0.401068
912.480719	0.400483
912.661626	0.399905
912.842514	0.399060
913.023384	0.398350
913.204236	0.397366
913.385070	0.396224
913.565886	0.395111
913.746683	0.394122
913.927462	0.393569
914.108223	0.392547
914.288965	0.392080
914.469690	0.391766
914.650396	0.391371
914.831084	0.390463
915.011754	0.390235
915.192405	0.389942
915.373038	0.389530
915.553653	0.389297
915.734250	0.388744
915.914829	0.388061
916.095389	0.387683
916.275931	0.387091
916.456455	0.386866
916.636961	0.385918
916.817448	0.385322
916.997917	0.384631
917.178368	0.382956
917.358801	0.382425
917.539216	0.382040
917.719612	0.381658
917.899990	0.380987
918.080350	0.380892
918.260692	0.380591
918.441015	0.379909
918.621320	0.378860
918.801607	0.379176
918.981876	0.378320
919.162127	0.377595
919.342359	0.376513
919.522573	0.376421
919.702769	0.375428
919.882947	0.374962
920.063106	0.374120
920.243247	0.374632
920.423370	0.374161
920.603475	0.374181
920.783562	0.373832
920.963630	0.373095
921.143680	0.371658
921.323712	0.371024
921.503725	0.369869
921.683721	0.369642
921.863698	0.367830
922.043657	0.367222
922.223598	0.366553
922.403520	0.365384
922.583424	0.364380
922.763311	0.363741
922.943178	0.362566
923.123028	0.362041
923.302859	0.361036
923.482673	0.360879
923.662467	0.359578
923.842244	0.358238
924.022003	0.357197
924.201743	0.356555
924.381465	0.355827
924.561169	0.355509
924.740854	0.354794
924.920522	0.354179
925.100171	0.353476
925.279802	0.352611
925.459414	0.352076
925.639009	0.351603
925.818585	0.351296
925.998143	0.350057
926.177683	0.348105
926.357205	0.347152
926.536708	0.346411
926.716193	0.345250
926.895660	0.344128
927.075109	0.343277
927.254539	0.342378
927.433951	0.341699
927.613345	0.341842
927.792721	0.342460
927.972079	0.341014
928.151418	0.339862
928.330739	0.338891
928.510042	0.337510
928.689327	0.335840
928.868593	0.335140
929.047841	0.334142
929.227071	0.333149
929.406283	0.331924
929.585476	0.331491
929.764652	0.331015
929.943809	0.330058
930.122948	0.329822
930.302068	0.329980
930.481171	0.329338
930.660255	0.327887
930.839321	0.327023
931.018369	0.325587
931.197398	0.325334
931.376409	0.324311
931.555402	0.323626
931.734377	0.323482
931.913334	0.322117
932.092272	0.320563
932.271192	0.320282
932.450094	0.318761
932.628978	0.318898
932.807844	0.317931
932.986691	0.316227
933.165520	0.316223
933.344331	0.315282
933.523123	0.314750
933.701898	0.314281
933.880654	0.313016
934.059392	0.312010
934.238111	0.309870
934.416813	0.309048
934.595496	0.308033
934.774161	0.305942
934.952808	0.304239
935.131437	0.303725
935.310047	0.302036
935.488639	0.301450
935.667213	0.301294
935.845769	0.300973
936.024306	0.299459
936.202825	0.298970
936.381326	0.298479
936.559809	0.297700
936.738274	0.295883
936.916720	0.295403
937.095148	0.294247
937.273558	0.293128
937.451950	0.292104
937.630323	0.290811
937.808678	0.290079
937.987015	0.288163
938.165334	0.287068
938.343635	0.286762
938.521917	0.285455
938.700181	0.284648
938.878427	0.282825
939.056655	0.280626
939.234864	0.280411
939.413055	0.278635
939.591228	0.278383
939.769383	0.277063
939.947519	0.276237
940.125638	0.275657
940.303738	0.274364
940.481820	0.274170
940.659883	0.274406
940.837929	0.272316
941.015956	0.272475
941.193965	0.271584
941.371955	0.270268
941.549928	0.267494
941.727882	0.267373
941.905818	0.266774
942.083736	0.265640
942.261636	0.264960
942.439517	0.264901
942.617380	0.262528
942.795225	0.260952
942.973052	0.259647
943.150860	0.260159
943.328651	0.258433
943.506423	0.256188
943.684176	0.255623
943.861912	0.253619
944.039629	0.252246
944.217328	0.252806
944.395009	0.252297
944.572672	0.252443
944.750317	0.251734
944.927943	0.251258
945.105551	0.251083
945.283141	0.249405
945.460712	0.249544
945.638265	0.248033
945.815801	0.246255
945.993317	0.245186
946.170816	0.243755
946.348297	0.241141
946.525759	0.239568
946.703203	0.238628
946.880629	0.237790
947.058036	0.236865
947.235425	0.236939
947.412797	0.236656
947.590149	0.235275
947.767484	0.234806
947.944800	0.234956
948.122099	0.234442
948.299379	0.233368
948.476640	0.232302
948.653884	0.231494
948.831109	0.230718
949.008316	0.228456
949.185505	0.229161
949.362676	0.228529
949.539828	0.227791
949.716962	0.227523
949.894078	0.228398
950.071176	0.228867
950.248256	0.228741
950.425317	0.227154
950.602360	0.227164
950.779385	0.225648
950.956391	0.224703
951.133380	0.223993
951.310350	0.222491
951.487302	0.219100
951.664235	0.217141
951.841151	0.215236
952.018048	0.214378
952.194927	0.213996
952.371788	0.212195
952.548631	0.210956
952.725455	0.210210
952.902261	0.210103
953.079049	0.209240
953.255819	0.208652
953.432570	0.207742
953.609303	0.207232
953.786018	0.206689
953.962715	0.207942
954.139394	0.208705
954.316054	0.208045
954.492696	0.204519
954.669320	0.203421
954.845926	0.202726
955.022513	0.201965
955.199083	0.202277
955.375634	0.201600
955.552166	0.199867
955.728681	0.198222
955.905177	0.196106
956.081655	0.196693
956.258115	0.194830
956.434557	0.194823
956.610980	0.194574
956.787385	0.194699
956.963772	0.195067
957.140141	0.196263
957.316492	0.196847
957.492824	0.197369
957.669138	0.196975
957.845434	0.199616
958.021712	0.200349
958.197971	0.197984
958.374212	0.195473
958.550435	0.192220
958.726640	0.188060
958.902826	0.186613
959.078995	0.186118
959.255145	0.185396
959.431277	0.185220
959.607390	0.183305
959.783486	0.186581
959.959563	0.186879
960.135622	0.187480
960.311662	0.188456
960.487685	0.187278
960.663689	0.187391
960.839675	0.188798
961.015643	0.189179
961.191593	0.187687
961.367524	0.186183
961.543437	0.185579
961.719332	0.185495
961.895209	0.186084
962.071067	0.185724
962.246907	0.186826
962.422730	0.187245
962.598533	0.187262
962.774319	0.187827
962.950086	0.186975
963.125835	0.186454
963.301566	0.184737
963.477279	0.183742
963.652973	0.185758
963.828650	0.182917
964.004308	0.181050
964.179947	0.179373
964.355569	0.180349
964.531172	0.181391
964.706757	0.179870
964.882324	0.182006
965.057873	0.182311
965.233403	0.179970
965.408916	0.182589
965.584410	0.184519
965.759885	0.184910
965.935343	0.183743
966.110782	0.181152
966.286203	0.181920
966.461606	0.181819
966.636991	0.181674
966.812357	0.181511
966.987705	0.179810
967.163035	0.176880
967.338347	0.177267
967.513641	0.174943
967.688916	0.176248
967.864173	0.176907
968.039412	0.175498
968.214632	0.174681
968.389835	0.175702
968.565019	0.175155
968.740185	0.174620
968.915333	0.173289
969.090462	0.174082
969.265573	0.173463
969.440667	0.171418
969.615741	0.170176
969.790798	0.169739
969.965836	0.169385
970.140856	0.168730
970.315858	0.170451
970.490842	0.171042
970.665808	0.171910
970.840755	0.171872
971.015684	0.170726
971.190595	0.173329
971.365487	0.173387
971.540362	0.172533
971.715218	0.171815
971.890056	0.171669
972.064875	0.171030
972.239677	0.171394
972.414460	0.171260
972.589225	0.175103
972.763972	0.174140
972.938700	0.175438
973.113411	0.175938
973.288103	0.177024
973.462777	0.174825
973.637432	0.175424
973.812070	0.178003
973.986689	0.175859
974.161290	0.172440
974.335873	0.171653
974.510437	0.171349
974.684984	0.172115
974.859512	0.171653
975.034022	0.174424
975.208513	0.175078
975.382987	0.170873
975.557442	0.171961
975.731879	0.172839
975.906298	0.173395
976.080698	0.170166
976.255080	0.167684
976.429445	0.168408
976.603790	0.166931
976.778118	0.163268
976.952427	0.164863
977.126719	0.166950
977.300992	0.166623
977.475246	0.165070
977.649483	0.169160
977.823701	0.171764
977.997901	0.172595
978.172083	0.170197
978.346247	0.173146
978.520392	0.172879
978.694519	0.171930
978.868628	0.171998
979.042719	0.173024
979.216791	0.172611
979.390845	0.170152
979.564882	0.168252
979.738899	0.170198
979.912899	0.168988
980.086880	0.169588
980.260843	0.167127
980.434788	0.167697
980.608715	0.166225
980.782623	0.164169
980.956514	0.164932
981.130386	0.164742
981.304240	0.164171
981.478075	0.165517
981.651892	0.166142
981.825692	0.169036
981.999472	0.168746
982.173235	0.169060
982.346980	0.170716
982.520706	0.172273
982.694414	0.172917
982.868104	0.171234
983.041775	0.169744
983.215428	0.169697
983.389064	0.169999
983.562680	0.170441
983.736279	0.171363
983.909860	0.171449
984.083422	0.169793
984.256966	0.169810
984.430491	0.172338
984.603999	0.172768
984.777488	0.170180
984.950959	0.169219
985.124412	0.168137
985.297847	0.169910
985.471263	0.168682
985.644661	0.170216
985.818041	0.171657
985.991403	0.170893
986.164747	0.170808
986.338072	0.171114
986.511379	0.168967
986.684668	0.170135
986.857938	0.166642
987.031191	0.165025
987.204425	0.164890
987.377641	0.163675
987.550839	0.163922
987.724018	0.163505
987.897179	0.163380
988.070322	0.165627
988.243447	0.167413
988.416554	0.167787
988.589642	0.169193
988.762712	0.167567
988.935764	0.166840
989.108798	0.166545
989.281813	0.167274
989.454811	0.168309
989.627790	0.167355
989.800751	0.165446
989.973693	0.166561
990.146617	0.166433
990.319524	0.168083
990.492412	0.166766
990.665281	0.166190
990.838133	0.165496
991.010966	0.167332
991.183781	0.166303
991.356578	0.163718
991.529356	0.163891
991.702117	0.162303
991.874859	0.160950
992.047583	0.161822
992.220288	0.161803
992.392976	0.162132
992.565645	0.158448
992.738296	0.160739
992.910929	0.161627
993.083543	0.159010
993.256139	0.160815
993.428718	0.161474
993.601277	0.162011
993.773819	0.163914
993.946342	0.162215
994.118848	0.162896
994.291335	0.161608
994.463803	0.162869
994.636254	0.163284
994.808686	0.163377
994.981100	0.163960
995.153496	0.162348
995.325874	0.162333
995.498233	0.164500
995.670574	0.162474
995.842897	0.163511
996.015202	0.161584
996.187488	0.164044
996.359757	0.164794
996.532007	0.163346
996.704239	0.164374
996.876452	0.163094
997.048648	0.160842
997.220825	0.163482
997.392984	0.161591
997.565124	0.164122
997.737247	0.162925
997.909351	0.160721
998.081437	0.159032
998.253505	0.159251
998.425554	0.158955
998.597586	0.160361
998.769599	0.159481
998.941594	0.158054
999.113571	0.157157
999.285529	0.157705
999.457469	0.159256
999.629391	0.159692
999.801295	0.159396
999.973181	0.159147
1000.145048	0.158673
1000.316897	0.159285
1000.488728	0.161009
1000.660541	0.161831
1000.832335	0.160732
1001.004111	0.159138
1001.175869	0.158840
1001.347609	0.160217
1001.519331	0.160344
1001.691034	0.158127
1001.862719	0.157672
1002.034386	0.158306
1002.206035	0.156157
1002.377665	0.157598
1002.549277	0.158211
1002.720871	0.160604
1002.892447	0.159157
1003.064004	0.159135
1003.235544	0.161824
1003.407065	0.161851
1003.578568	0.160080
1003.750052	0.159196
1003.921519	0.158676
1004.092967	0.159399
1004.264397	0.156179
1004.435809	0.157322
1004.607202	0.156646
1004.778577	0.155798
1004.949934	0.154989
1005.121273	0.156014
1005.292594	0.156621
1005.463896	0.156323
1005.635180	0.156026
1005.806446	0.158292
1005.977694	0.156438
1006.148923	0.154522
1006.320135	0.155495
1006.491328	0.156001
1006.662503	0.156671
1006.833659	0.158922
1007.004798	0.157096
1007.175918	0.158773
1007.347020	0.158068
1007.518103	0.158184
1007.689169	0.158778
1007.860216	0.157723
1008.031245	0.157191
1008.202256	0.155495
1008.373248	0.154946
1008.544223	0.156556
1008.715179	0.154410
1008.886117	0.154133
1009.057036	0.154975
1009.227938	0.156194
1009.398821	0.154514
1009.569686	0.153872
1009.740533	0.153263
1009.911361	0.151030
1010.082172	0.150650
1010.252964	0.151026
1010.423738	0.150484
1010.594493	0.150382
1010.765231	0.149558
1010.935950	0.152866
1011.106651	0.152491
1011.277334	0.154967
1011.447998	0.156126
1011.618645	0.157671
1011.789273	0.158118
1011.959882	0.158426
1012.130474	0.158666
1012.301048	0.157581
1012.471603	0.155620
1012.642140	0.154287
1012.812658	0.151959
1012.983159	0.152188
1013.153641	0.150037
1013.324105	0.148562
1013.494551	0.149961
1013.664979	0.148675
1013.835388	0.150453
1014.005779	0.150225
1014.176152	0.152358
1014.346507	0.153412
1014.516843	0.151322
1014.687162	0.150796
1014.857462	0.150157
1015.027744	0.149320
1015.198007	0.149180
1015.368252	0.148633
1015.538480	0.149615
1015.708689	0.149709
1015.878879	0.149865
1016.049052	0.153331
1016.219206	0.154587
1016.389342	0.154767
1016.559460	0.154954
1016.729559	0.155342
1016.899641	0.153545
1017.069704	0.153100
1017.239749	0.153596
1017.409775	0.152794
1017.579784	0.151140
1017.749774	0.150744
1017.919746	0.151323
1018.089700	0.149955
1018.259635	0.149801
1018.429553	0.152235
1018.599452	0.152341
1018.769333	0.151523
1018.939195	0.152498
1019.109040	0.151631
1019.278866	0.151744
1019.448674	0.150713
1019.618464	0.150797
1019.788235	0.149341
1019.957989	0.149023
1020.127724	0.147526
1020.297441	0.145882
1020.467139	0.145192
1020.636820	0.146314
1020.806482	0.145912
1020.976126	0.145666
1021.145752	0.147267
1021.315359	0.149036
1021.484948	0.148194
1021.654519	0.148008
1021.824072	0.147823
1021.993607	0.147129
1022.163123	0.146601
1022.332621	0.147418
1022.502101	0.147293
1022.671563	0.146538
1022.841007	0.143376
1023.010432	0.143083
1023.179839	0.141773
1023.349228	0.143404
1023.518598	0.143124
1023.687951	0.142239
1023.857285	0.140096
1024.026601	0.141434
1024.195899	0.140833
1024.365178	0.142636
1024.534439	0.144586
1024.703682	0.146341
1024.872907	0.144967
1025.042114	0.144977
1025.211302	0.145225
1025.380472	0.144877
1025.549624	0.144521
1025.718758	0.145534
1025.887873	0.146532
1026.056970	0.144958
1026.226049	0.144889
1026.395110	0.145964
1026.564153	0.145808
1026.733177	0.145967
1026.902183	0.147134
1027.071171	0.147587
1027.240141	0.145707
1027.409092	0.144650
1027.578026	0.145015
1027.746940	0.144669
1027.915837	0.144994
1028.084716	0.147616
1028.253576	0.145664
1028.422418	0.145937
1028.591242	0.145036
1028.760048	0.145381
1028.928835	0.146807
1029.097604	0.146949
1029.266355	0.147572
1029.435088	0.147750
1029.603803	0.146695
1029.772499	0.148809
1029.941177	0.149351
1030.109837	0.149003
1030.278478	0.148085
1030.447102	0.146181
1030.615707	0.146223
1030.784294	0.145923
1030.952863	0.144624
1031.121413	0.144714
1031.289945	0.144863
1031.458460	0.143647
1031.626955	0.143619
1031.795433	0.144226
1031.963892	0.143827
1032.132334	0.143947
1032.300756	0.143462
1032.469161	0.144866
1032.637548	0.142464
1032.805916	0.141247
1032.974266	0.143605
1033.142598	0.143067
1033.310911	0.145004
1033.479207	0.144352
1033.647484	0.144662
1033.815743	0.144245
1033.983983	0.144545
1034.152206	0.143891
1034.320410	0.144601
1034.488596	0.143355
1034.656764	0.144296
1034.824914	0.142685
1034.993045	0.142932
1035.161158	0.142107
1035.329253	0.141706
1035.497330	0.140892
1035.665388	0.143243
1035.833428	0.143233
1036.001450	0.142824
1036.169454	0.143834
1036.337440	0.143265
1036.505407	0.145321
1036.673356	0.144513
1036.841287	0.145408
1037.009200	0.145444
1037.177094	0.143329
1037.344970	0.144432
1037.512828	0.144618
1037.680668	0.142179
1037.848489	0.143140
1038.016293	0.144068
1038.184078	0.145161
1038.351845	0.145048
1038.519593	0.145176
1038.687324	0.146848
1038.855036	0.144127
1039.022730	0.144095
1039.190406	0.144874
1039.358063	0.143691
1039.525702	0.141259
1039.693323	0.139094
1039.860926	0.137530
1040.028511	0.139029
1040.196077	0.137020
1040.363625	0.137626
1040.531155	0.136144
1040.698667	0.136863
1040.866161	0.137993
1041.033636	0.137974
1041.201093	0.138630
1041.368532	0.139561
1041.535952	0.139237
1041.703355	0.142685
1041.870739	0.141721
1042.038105	0.143359
1042.205452	0.141349
1042.372782	0.140838
1042.540093	0.142328
1042.707386	0.142353
1042.874661	0.142932
1043.041918	0.142365
1043.209156	0.140153
1043.376376	0.142133
1043.543578	0.140789
1043.710762	0.142348
1043.877927	0.141315
1044.045074	0.140264
1044.212203	0.142102
1044.379314	0.142269
1044.546407	0.139273
1044.713481	0.139370
1044.880537	0.138926
1045.047575	0.138763
1045.214595	0.137490
1045.381596	0.137820
1045.548579	0.138435
1045.715544	0.136777
1045.882491	0.135978
1046.049420	0.137435
1046.216330	0.137982
1046.383222	0.137718
1046.550096	0.137756
1046.716951	0.138869
1046.883789	0.138509
1047.050608	0.137949
1047.217409	0.137301
1047.384192	0.139431
1047.550956	0.139879
1047.717703	0.138838
1047.884431	0.139416
1048.051140	0.140487
1048.217832	0.140377
1048.384505	0.140809
1048.551161	0.140145
1048.717798	0.141238
1048.884416	0.137928
1049.051017	0.138258
1049.217599	0.137395
1049.384163	0.137773
1049.550709	0.137578
1049.717237	0.137645
1049.883746	0.138465
1050.050237	0.139911
1050.216710	0.139589
1050.383165	0.140955
1050.549601	0.139217
1050.716019	0.141358
1050.882420	0.140042
1051.048801	0.140656
1051.215165	0.141873
1051.381510	0.142368
1051.547837	0.141628
1051.714146	0.142331
1051.880437	0.141981
1052.046709	0.142781
1052.212964	0.142834
1052.379200	0.143626
1052.545417	0.142821
1052.711617	0.141503
1052.877798	0.140294
1053.043961	0.140121
1053.210106	0.139019
1053.376233	0.139496
1053.542341	0.138991
1053.708432	0.137917
1053.874504	0.137621
1054.040557	0.136844
1054.206593	0.137349
1054.372610	0.135928
1054.538609	0.135744
1054.704590	0.135787
1054.870553	0.136396
1055.036497	0.137626
1055.202424	0.139254
1055.368331	0.139877
1055.534221	0.140320
1055.700093	0.140146
1055.865946	0.141294
1056.031781	0.140625
1056.197598	0.140840
1056.363397	0.141036
1056.529177	0.141073
1056.694939	0.140049
1056.860683	0.139661
1057.026409	0.141134
1057.192116	0.139862
1057.357806	0.140063
1057.523477	0.140677
1057.689130	0.141851
1057.854764	0.140712
1058.020381	0.139124
1058.185979	0.138787
1058.351559	0.138586
1058.517120	0.136068
1058.682664	0.137794
1058.848189	0.137072
1059.013696	0.139283
1059.179185	0.137493
1059.344656	0.137571
1059.510108	0.139766
1059.675542	0.138748
1059.840958	0.139615
1060.006356	0.139298
1060.171735	0.138156
1060.337096	0.140253
1060.502439	0.137728
1060.667764	0.139054
1060.833071	0.140049
1060.998359	0.139342
1061.163629	0.141729
1061.328881	0.140566
1061.494115	0.141432
1061.659330	0.141799
1061.824527	0.142221
1061.989706	0.143110
1062.154867	0.142264
1062.320010	0.142721
1062.485134	0.141411
1062.650240	0.140100
1062.815328	0.140663
1062.980398	0.141574
1063.145449	0.140679
1063.310482	0.139350
1063.475497	0.140122
1063.640494	0.139975
1063.805473	0.138733
1063.970433	0.137987
1064.135375	0.138156
1064.300299	0.136640
1064.465204	0.134503
1064.630092	0.136106
1064.794961	0.134667
1064.959812	0.134542
1065.124645	0.134404
1065.289459	0.135756
1065.454256	0.136357
1065.619034	0.135770
1065.783793	0.136445
1065.948535	0.138474
1066.113258	0.139353
1066.277964	0.139270
1066.442651	0.138673
1066.607319	0.137199
1066.771970	0.133749
1066.936602	0.136345
1067.101216	0.137326
1067.265812	0.138785
1067.430389	0.138415
1067.594949	0.135278
1067.759490	0.138690
1067.924013	0.136064
1068.088518	0.138581
1068.253004	0.140198
1068.417472	0.138241
1068.581922	0.138427
1068.746354	0.138526
1068.910768	0.139955
1069.075163	0.141658
1069.239540	0.142302
1069.403899	0.144804
1069.568240	0.144152
1069.732562	0.143503
1069.896866	0.143543
1070.061152	0.142546
1070.225420	0.141196
1070.389670	0.139881
1070.553901	0.140268
1070.718114	0.137920
1070.882309	0.140009
1071.046486	0.141667
1071.210644	0.141768
1071.374784	0.142043
1071.538906	0.142531
1071.703010	0.143483
1071.867096	0.145239
1072.031163	0.142300
1072.195212	0.143178
1072.359243	0.141819
1072.523256	0.141664
1072.687250	0.143142
1072.851226	0.144136
1073.015184	0.143287
1073.179124	0.143022
1073.343045	0.142724
1073.506949	0.148183
1073.670834	0.148136
1073.834701	0.148607
1073.998549	0.148602
1074.162380	0.148167
1074.326192	0.148894
1074.489986	0.150725
1074.653761	0.150082
1074.817519	0.149579
1074.981258	0.144618
1075.144979	0.145588
1075.308682	0.144718
1075.472367	0.144946
1075.636033	0.145923
1075.799681	0.144581
1075.963311	0.143102
1076.126923	0.144253
1076.290516	0.142977
1076.454092	0.145312
1076.617649	0.143572
1076.781187	0.144408
1076.944708	0.142350
1077.108210	0.142764
1077.271695	0.143660
1077.435160	0.145240
1077.598608	0.144683
1077.762038	0.145729
1077.925449	0.145473
1078.088842	0.145489
1078.252217	0.145364
1078.415573	0.146406
1078.578912	0.147817
1078.742232	0.146131
1078.905534	0.145629
1079.068817	0.144471
1079.232083	0.146146
1079.395330	0.144212
1079.558559	0.144067
1079.721770	0.141960
1079.884962	0.142235
1080.048136	0.139212
1080.211293	0.140238
1080.374430	0.139283
1080.537550	0.139184
1080.700651	0.137437
1080.863735	0.138252
1081.026800	0.140197
1081.189846	0.141452
1081.352875	0.141401
1081.515885	0.143332
1081.678877	0.142503
1081.841851	0.143393
1082.004807	0.144247
1082.167744	0.145892
1082.330663	0.147854
1082.493564	0.146823
1082.656447	0.145736
1082.819312	0.144331
1082.982158	0.143165
1083.144986	0.144756
1083.307796	0.146685
1083.470587	0.146179
1083.633361	0.145090
1083.796116	0.145093
1083.958853	0.143491
1084.121571	0.144510
1084.284272	0.142459
1084.446954	0.142516
1084.609618	0.142720
1084.772264	0.139991
1084.934892	0.142092
1085.097501	0.139410
1085.260092	0.138188
1085.422665	0.136759
1085.585220	0.138751
1085.747756	0.144373
1085.910274	0.145012
1086.072774	0.144992
1086.235256	0.145186
1086.397720	0.146099
1086.560165	0.148899
1086.722592	0.149244
1086.885001	0.151942
1087.047392	0.149830
1087.209764	0.146074
1087.372119	0.145453
1087.534455	0.145612
1087.696772	0.147104
1087.859072	0.145427
1088.021353	0.143669
1088.183616	0.145060
1088.345861	0.144762
1088.508088	0.145939
1088.670296	0.147721
1088.832486	0.145645
1088.994658	0.145575
1089.156812	0.144575
1089.318948	0.145646
1089.481065	0.148078
1089.643164	0.147061
1089.805245	0.146746
1089.967308	0.146473
1090.129352	0.147116
1090.291378	0.148563
1090.453386	0.146155
1090.615376	0.146264
1090.777347	0.144866
1090.939301	0.145383
1091.101236	0.144467
1091.263153	0.143469
1091.425051	0.144944
1091.586932	0.142958
1091.748794	0.141949
1091.910638	0.144588
1092.072463	0.145665
1092.234271	0.145216
1092.396060	0.144123
1092.557831	0.146839
1092.719584	0.149404
1092.881319	0.146262
1093.043035	0.149431
1093.204733	0.151447
1093.366413	0.151453
1093.528075	0.150282
1093.689718	0.149557
1093.851343	0.149425
1094.012950	0.148072
1094.174539	0.146845
1094.336110	0.147105
1094.497662	0.145641
1094.659196	0.145386
1094.820712	0.144887
1094.982210	0.143722
1095.143689	0.147113
1095.305151	0.144578
1095.466594	0.145690
1095.628018	0.144004
1095.789425	0.143464
1095.950813	0.141113
1096.112183	0.142011
1096.273535	0.139432
1096.434869	0.140713
1096.596184	0.138151
1096.757482	0.140596
1096.918761	0.138842
1097.080021	0.140725
1097.241264	0.140806
1097.402488	0.142692
1097.563694	0.143146
1097.724882	0.142797
1097.886052	0.143718
1098.047203	0.142812
1098.208336	0.141547
1098.369451	0.140912
1098.530548	0.141676
1098.691627	0.143171
1098.852687	0.143532
1099.013729	0.141897
1099.174753	0.143337
1099.335758	0.143118
1099.496746	0.146523
1099.657715	0.149422
1099.818666	0.151659
1099.979599	0.152453
1100.140513	0.153614
1100.301409	0.154298
1100.462287	0.152068
1100.623147	0.154763
1100.783989	0.154922
1100.944812	0.152950
1101.105617	0.151990
1101.266404	0.150965
1101.427173	0.150417
1101.587923	0.150776
1101.748656	0.145486
1101.909370	0.149681
1102.070066	0.145909
1102.230743	0.146002
1102.391403	0.147099
1102.552044	0.145158
1102.712667	0.144726
1102.873271	0.144453
1103.033858	0.145648
1103.194426	0.149989
1103.354976	0.148464
1103.515508	0.147554
1103.676021	0.145430
1103.836517	0.142667
1103.996994	0.144900
1104.157453	0.145240
1104.317893	0.145197
1104.478316	0.141367
1104.638720	0.140301
1104.799106	0.138689
1104.959474	0.142298
1105.119823	0.143041
1105.280155	0.145365
1105.440468	0.145354
1105.600763	0.142796
1105.761039	0.139742
1105.921298	0.142811
1106.081538	0.144439
1106.241760	0.148047
1106.401964	0.149577
1106.562149	0.148216
1106.722316	0.147258
1106.882465	0.144992
1107.042596	0.144413
1107.202709	0.144746
1107.362803	0.140320
1107.522879	0.139668
1107.682937	0.139476
1107.842977	0.136371
1108.002999	0.136610
1108.163002	0.139342
1108.322987	0.141226
1108.482954	0.148041
1108.642902	0.149413
1108.802833	0.149174
1108.962745	0.150859
1109.122639	0.149674
1109.282515	0.148443
1109.442372	0.152782
1109.602211	0.152951
1109.762032	0.150646
1109.921835	0.147531
1110.081620	0.148980
1110.241386	0.154289
1110.401134	0.155615
1110.560864	0.153294
1110.720576	0.157257
1110.880269	0.152189
1111.039945	0.149843
1111.199602	0.149262
1111.359240	0.152798
1111.518861	0.155338
1111.678463	0.153639
1111.838047	0.154870
1111.997613	0.158414
1112.157161	0.157790
1112.316690	0.159278
1112.476202	0.161049
1112.635695	0.163788
1112.795169	0.158656
1112.954626	0.152898
1113.114064	0.151138
1113.273484	0.150307
1113.432886	0.152161
1113.592270	0.153691
1113.751635	0.153383
1113.910983	0.150702
1114.070312	0.151170
1114.229622	0.153746
1114.388915	0.156486
1114.548189	0.156750
1114.707445	0.154948
1114.866683	0.157109
1115.025903	0.154143
1115.185104	0.153453
1115.344287	0.155271
1115.503452	0.154796
1115.662599	0.152570
1115.821727	0.154451
1115.980838	0.155344
1116.139930	0.151585
1116.299004	0.145447
1116.458059	0.147242
1116.617097	0.146823
1116.776116	0.145069
1116.935117	0.146880
1117.094099	0.146255
1117.253064	0.139572
1117.412010	0.144216
1117.570938	0.142020
1117.729848	0.140078
1117.888740	0.139553
1118.047613	0.142284
1118.206468	0.143458
1118.365305	0.143553
1118.524124	0.147577
1118.682924	0.153777
1118.841707	0.144637
1119.000471	0.148093
1119.159216	0.149703
1119.317944	0.150676
1119.476653	0.151875
1119.635344	0.157085
1119.794017	0.156563
1119.952672	0.156321
1120.111308	0.156983
1120.269927	0.163176
1120.428527	0.163780
1120.587108	0.168603
1120.745672	0.163453
1120.904217	0.162162
1121.062744	0.159410
1121.221253	0.158342
1121.379744	0.158217
1121.538216	0.154929
1121.696671	0.157270
1121.855107	0.154521
1122.013524	0.152325
1122.171924	0.159653
1122.330305	0.159935
1122.488668	0.158274
1122.647013	0.155272
1122.805340	0.153836
1122.963648	0.154436
1123.121938	0.154302
1123.280210	0.160231
1123.438464	0.161023
1123.596700	0.155745
1123.754917	0.156771
1123.913116	0.152505
1124.071297	0.156437
1124.229459	0.153680
1124.387604	0.156666
1124.545730	0.155911
1124.703838	0.157406
1124.861928	0.156388
1125.019999	0.163427
1125.178052	0.164353
1125.336088	0.164314
1125.494104	0.169797
1125.652103	0.177230
1125.810083	0.174580
1125.968045	0.174704
1126.125989	0.169431
1126.283915	0.166983
1126.441823	0.160148
1126.599712	0.161702
1126.757583	0.163873
1126.915436	0.160325
1127.073270	0.156683
1127.231087	0.160388
1127.388885	0.163781
1127.546665	0.162778
1127.704426	0.167569
1127.862170	0.165895
1128.019895	0.161090
1128.177602	0.160461
1128.335291	0.159004
1128.492961	0.154221
1128.650614	0.154692
1128.808248	0.147154
1128.965864	0.147989
1129.123461	0.143995
1129.281041	0.145451
1129.438602	0.141545
1129.596145	0.145642
1129.753670	0.147042
1129.911176	0.149092
1130.068665	0.143337
1130.226135	0.147561
1130.383587	0.144533
1130.541020	0.141240
1130.698436	0.140809
1130.855833	0.149796
1131.013212	0.149974
1131.170573	0.143927
1131.327915	0.146370
1131.485239	0.152193
1131.642545	0.147607
1131.799833	0.154821
1131.957103	0.160371
1132.114354	0.162897
1132.271588	0.164428
1132.428803	0.163016
1132.585999	0.161937
1132.743178	0.162530
1132.900338	0.158415
1133.057480	0.156069
1133.214604	0.155072
1133.371710	0.149422
1133.528797	0.148093
1133.685866	0.141373
1133.842917	0.143329
1133.999950	0.148790
1134.156964	0.148435
1134.313960	0.150702
1134.470938	0.152668
1134.627898	0.153170
1134.784840	0.156689
1134.941763	0.157021
1135.098668	0.157843
1135.255555	0.151599
1135.412424	0.153415
1135.569274	0.155586
1135.726107	0.158933
1135.882921	0.159062
1136.039716	0.152687
1136.196494	0.154627
1136.353253	0.158712
1136.509995	0.158744
1136.666717	0.163239
1136.823422	0.159261
1136.980109	0.155838
1137.136777	0.154283
1137.293427	0.162085
1137.450059	0.162944
1137.606672	0.163637
1137.763267	0.163790
1137.919844	0.163568
1138.076403	0.166506
1138.232944	0.167469
1138.389466	0.165917
1138.545971	0.164899
1138.702457	0.162612
1138.858924	0.170135
1139.015374	0.166202
1139.171805	0.158521
1139.328218	0.156573
1139.484613	0.151250
1139.640990	0.150110
1139.797348	0.156022
1139.953688	0.151754
1140.110010	0.147465
1140.266314	0.148450
1140.422600	0.151729
1140.578867	0.153929
1140.735116	0.157364
1140.891347	0.161548
1141.047559	0.165976
1141.203754	0.166587
1141.359930	0.165109
1141.516088	0.168973
1141.672228	0.164210
1141.828349	0.162721
1141.984452	0.172911
1142.140537	0.168608
1142.296604	0.168699
1142.452653	0.162478
1142.608683	0.153543
1142.764695	0.151062
1142.920689	0.147883
1143.076665	0.148052
1143.232622	0.147257
1143.388562	0.132679
1143.544483	0.135144
1143.700385	0.130298
1143.856270	0.134729
1144.012136	0.140959
1144.167985	0.149001
1144.323814	0.152184
1144.479626	0.158930
1144.635420	0.155772
1144.791195	0.157175
1144.946952	0.156439
1145.102691	0.157867
1145.258411	0.150816
1145.414113	0.147884
1145.569798	0.144838
1145.725463	0.148131
1145.881111	0.141337
1146.036741	0.148902
1146.192352	0.154965
1146.347945	0.156119
1146.503519	0.156064
1146.659076	0.158052
1146.814614	0.158070
1146.970134	0.162185
1147.125636	0.156764
1147.281120	0.156533
1147.436585	0.151696
1147.592032	0.155323
1147.747461	0.158216
1147.902872	0.159207
1148.058265	0.162118
1148.213639	0.162191
1148.368995	0.162315
1148.524333	0.159707
1148.679653	0.160943
1148.834954	0.170554
1148.990237	0.170765
1149.145502	0.161709
1149.300749	0.160788
1149.455977	0.160120
1149.611188	0.166226
1149.766380	0.164112
1149.921553	0.159914
1150.076709	0.153713
1150.231846	0.144639
1150.386966	0.144480
1150.542066	0.152078
1150.697149	0.150617
1150.852214	0.152271
1151.007260	0.143904
1151.162288	0.137255
1151.317298	0.139672
1151.472289	0.137266
1151.627263	0.136441
1151.782218	0.140378
1151.937155	0.143000
1152.092073	0.142810
1152.246974	0.137414
1152.401856	0.143937
1152.556720	0.147156
1152.711566	0.147746
1152.866393	0.157858
1153.021203	0.157826
1153.175994	0.153890
1153.330767	0.151431
1153.485521	0.150777
1153.640258	0.156777
1153.794976	0.153336
1153.949676	0.159462
1154.104358	0.161692
1154.259021	0.158213
1154.413667	0.154201
1154.568294	0.147923
1154.722903	0.141858
1154.877493	0.139214
1155.032066	0.133335
1155.186620	0.130796
1155.341156	0.120242
1155.495674	0.122437
1155.650173	0.123883
1155.804654	0.133437
1155.959118	0.124305
1156.113562	0.123682
1156.267989	0.125798
1156.422397	0.135169
1156.576788	0.138637
1156.731160	0.138725
1156.885513	0.133323
1157.039849	0.138204
1157.194166	0.133629
1157.348465	0.143271
1157.502746	0.149718
1157.657009	0.148768
1157.811253	0.151683
1157.965479	0.156417
1158.119687	0.157161
1158.273877	0.162078
1158.428048	0.152992
1158.582201	0.150665
1158.736337	0.154170
1158.890453	0.146298
1159.044552	0.152055
1159.198632	0.145744
1159.352694	0.136473
1159.506738	0.144905
1159.660764	0.137754
1159.814771	0.134361
1159.968761	0.137780
1160.122732	0.133030
1160.276685	0.140102
1160.430619	0.139358
1160.584535	0.136252
1160.738434	0.131768
1160.892313	0.132874
1161.046175	0.133439
1161.200019	0.145843
1161.353844	0.144248
1161.507651	0.150618
1161.661440	0.151142
1161.815210	0.157506
1161.968962	0.154331
1162.122697	0.153600
1162.276412	0.148120
1162.430110	0.152286
1162.583789	0.152179
1162.737451	0.148508
1162.891094	0.141374
1163.044718	0.147146
1163.198325	0.134804
1163.351913	0.134142
1163.505483	0.137558
1163.659035	0.136462
1163.812569	0.138369
1163.966084	0.129493
1164.119581	0.132066
1164.273060	0.138832
1164.426521	0.129201
1164.579964	0.130087
1164.733388	0.130987
1164.886794	0.137371
1165.040182	0.141374
1165.193551	0.145168
1165.346903	0.148178
1165.500236	0.149135
1165.653551	0.147194
1165.806848	0.157601
1165.960126	0.153829
1166.113386	0.159971
1166.266628	0.149857
1166.419852	0.144843
1166.573058	0.144575
1166.726245	0.132266
1166.879414	0.133501
1167.032565	0.138187
1167.185698	0.128811
1167.338812	0.136331
1167.491909	0.136666
1167.644987	0.145081
1167.798046	0.150399
1167.951088	0.145881
1168.104111	0.149573
1168.257117	0.145630
1168.410103	0.127961
1168.563072	0.126304
1168.716023	0.119553
1168.868955	0.118232
1169.021869	0.121568
1169.174765	0.119398
1169.327642	0.112818
1169.480501	0.123879
1169.633343	0.125188
1169.786165	0.137833
1169.938970	0.137563
1170.091757	0.136912
1170.244525	0.130441
1170.397275	0.116618
1170.550007	0.113739
1170.702720	0.112664
1170.855415	0.118735
1171.008092	0.128872
1171.160751	0.135478
1171.313392	0.146901
1171.466014	0.262911
1171.618619	0.223158
1171.771205	0.223158
1171.923772	0.223158
