sample name	sample
index	234
start time	 02-22-2021  11:11:26 AM


Wavelength (nm)	Absorbance
494.344910	0.164523
494.563924	0.164523
494.782919	0.164523
495.001897	-0.162280
495.220856	0.071544
495.439797	0.039056
495.658719	0.000120
495.877624	-0.006688
496.096510	0.013453
496.315378	0.068785
496.534227	0.105168
496.753059	0.122223
496.971872	0.052083
497.190667	0.072870
497.409444	0.074692
497.628203	0.072876
497.846943	0.071800
498.065665	0.072706
498.284369	0.072108
498.503055	0.072274
498.721723	0.071751
498.940372	0.071483
499.159003	0.071329
499.377616	0.069986
499.596210	0.070312
499.814787	0.070921
500.033345	0.069863
500.251885	0.069072
500.470406	0.067896
500.688910	0.067984
500.907395	0.067803
501.125862	0.067775
501.344311	0.068952
501.562742	0.068996
501.781154	0.067365
501.999548	0.067538
502.217924	0.067712
502.436282	0.068612
502.654621	0.069222
502.872942	0.069016
503.091245	0.069028
503.309530	0.068351
503.527797	0.069638
503.746045	0.070957
503.964275	0.071252
504.182487	0.071898
504.400681	0.071656
504.618856	0.071401
504.837013	0.072287
505.055152	0.072836
505.273273	0.073817
505.491376	0.072363
505.709460	0.072284
505.927526	0.072427
506.145574	0.072274
506.363604	0.071688
506.581615	0.071583
506.799608	0.071023
507.017583	0.071181
507.235540	0.070664
507.453478	0.071507
507.671399	0.071431
507.889301	0.071645
508.107185	0.071869
508.325050	0.072571
508.542898	0.072910
508.760727	0.073554
508.978538	0.073243
509.196330	0.073059
509.414105	0.072400
509.631861	0.072712
509.849599	0.073585
510.067319	0.073224
510.285021	0.072842
510.502704	0.072299
510.720369	0.072399
510.938016	0.071464
511.155645	0.072623
511.373255	0.073054
511.590848	0.073450
511.808422	0.072882
512.025977	0.073512
512.243515	0.074727
512.461034	0.075209
512.678536	0.074492
512.896018	0.075271
513.113483	0.074901
513.330930	0.074954
513.548358	0.073908
513.765768	0.074177
513.983160	0.074427
514.200533	0.074122
514.417889	0.073530
514.635226	0.074713
514.852545	0.074808
515.069845	0.075149
515.287128	0.074670
515.504392	0.075308
515.721638	0.075508
515.938866	0.074802
516.156075	0.074871
516.373267	0.075606
516.590440	0.075536
516.807594	0.075849
517.024731	0.075438
517.241850	0.076654
517.458950	0.076863
517.676032	0.076249
517.893095	0.077266
518.110141	0.076460
518.327168	0.076687
518.544177	0.076895
518.761168	0.077123
518.978141	0.077681
519.195095	0.077086
519.412031	0.077325
519.628949	0.078163
519.845849	0.077886
520.062731	0.078911
520.279594	0.078665
520.496439	0.078924
520.713266	0.078642
520.930074	0.078411
521.146865	0.078905
521.363637	0.079501
521.580391	0.078788
521.797127	0.078476
522.013844	0.078320
522.230543	0.078817
522.447224	0.077967
522.663887	0.077885
522.880532	0.078238
523.097158	0.078380
523.313766	0.077633
523.530356	0.078208
523.746928	0.078547
523.963481	0.078858
524.180017	0.078722
524.396534	0.079465
524.613032	0.079933
524.829513	0.080300
525.045975	0.079892
525.262420	0.080457
525.478845	0.081282
525.695253	0.081378
525.911643	0.081922
526.128014	0.081870
526.344367	0.082058
526.560702	0.082337
526.777018	0.081822
526.993316	0.082242
527.209597	0.082005
527.425858	0.081838
527.642102	0.082749
527.858328	0.083265
528.074535	0.083925
528.290724	0.084135
528.506894	0.084324
528.723047	0.084818
528.939181	0.085203
529.155297	0.085935
529.371395	0.085989
529.587475	0.085380
529.803536	0.085049
530.019579	0.084473
530.235604	0.084551
530.451611	0.084802
530.667600	0.084776
530.883570	0.084799
531.099522	0.084862
531.315456	0.084546
531.531372	0.084983
531.747269	0.085391
531.963148	0.086208
532.179009	0.086339
532.394852	0.086145
532.610676	0.086397
532.826482	0.086476
533.042271	0.086574
533.258040	0.087063
533.473792	0.086752
533.689525	0.085978
533.905240	0.085982
534.120937	0.086095
534.336616	0.086146
534.552277	0.086236
534.767919	0.086392
534.983543	0.086193
535.199149	0.085994
535.414736	0.085889
535.630306	0.086546
535.845857	0.086315
536.061390	0.086108
536.276904	0.086501
536.492401	0.086969
536.707879	0.086669
536.923339	0.086730
537.138781	0.086934
537.354204	0.087500
537.569610	0.087571
537.784997	0.087736
538.000366	0.088577
538.215716	0.089042
538.431049	0.089148
538.646363	0.089529
538.861659	0.089775
539.076937	0.090101
539.292196	0.090676
539.507438	0.090748
539.722661	0.090770
539.937866	0.090516
540.153052	0.090197
540.368221	0.090342
540.583371	0.090428
540.798503	0.090703
541.013617	0.090744
541.228712	0.090236
541.443789	0.090232
541.658848	0.090877
541.873889	0.090985
542.088912	0.091150
542.303916	0.091176
542.518902	0.091618
542.733870	0.091691
542.948820	0.091914
543.163752	0.092435
543.378665	0.092638
543.593560	0.092543
543.808437	0.092748
544.023295	0.092396
544.238136	0.092367
544.452958	0.092441
544.667762	0.092495
544.882548	0.092627
545.097315	0.092898
545.312064	0.093329
545.526795	0.093947
545.741508	0.094116
545.956203	0.094735
546.170879	0.094514
546.385537	0.094837
546.600177	0.094528
546.814799	0.094800
547.029402	0.094443
547.243988	0.094208
547.458555	0.093973
547.673103	0.094085
547.887634	0.094177
548.102146	0.094653
548.316640	0.094912
548.531116	0.095455
548.745574	0.095453
548.960013	0.095845
549.174435	0.096424
549.388838	0.096418
549.603222	0.096385
549.817589	0.096710
550.031937	0.096810
550.246267	0.096664
550.460579	0.097010
550.674873	0.096918
550.889148	0.097026
551.103405	0.096554
551.317644	0.096834
551.531865	0.096990
551.746068	0.096761
551.960252	0.096383
552.174418	0.096329
552.388566	0.096713
552.602696	0.097045
552.816807	0.097312
553.030900	0.097814
553.244975	0.097775
553.459032	0.097847
553.673070	0.097550
553.887091	0.097926
554.101093	0.098229
554.315077	0.097905
554.529042	0.097900
554.742990	0.097757
554.956919	0.097602
555.170830	0.097537
555.384722	0.097542
555.598597	0.098421
555.812453	0.098501
556.026291	0.098545
556.240111	0.098775
556.453913	0.099015
556.667696	0.099194
556.881461	0.099467
557.095208	0.099625
557.308937	0.099975
557.522647	0.099733
557.736339	0.099603
557.950013	0.099786
558.163669	0.100371
558.377307	0.100491
558.590926	0.100679
558.804527	0.100722
559.018110	0.100929
559.231675	0.100953
559.445221	0.101145
559.658749	0.101803
559.872259	0.101799
560.085751	0.101456
560.299225	0.101640
560.512680	0.101719
560.726117	0.101702
560.939536	0.101806
561.152937	0.101590
561.366319	0.101810
561.579683	0.101735
561.793029	0.101708
562.006357	0.101866
562.219667	0.101841
562.432958	0.101815
562.646231	0.102374
562.859486	0.102686
563.072723	0.102815
563.285941	0.103092
563.499141	0.103132
563.712323	0.103453
563.925487	0.103130
564.138632	0.103280
564.351760	0.103506
564.564869	0.103099
564.777960	0.102906
564.991032	0.103000
565.204087	0.102911
565.417123	0.103373
565.630141	0.103314
565.843140	0.103991
566.056122	0.104044
566.269085	0.104335
566.482030	0.104626
566.694957	0.104838
566.907866	0.105125
567.120756	0.104826
567.333628	0.104795
567.546482	0.105060
567.759318	0.104766
567.972135	0.104582
568.184935	0.104377
568.397716	0.104178
568.610478	0.104284
568.823223	0.104491
569.035949	0.104653
569.248657	0.104697
569.461347	0.104223
569.674019	0.103881
569.886672	0.104031
570.099308	0.103889
570.311925	0.103815
570.524523	0.103811
570.737104	0.103787
570.949666	0.103971
571.162210	0.104056
571.374736	0.104539
571.587244	0.105094
571.799733	0.104939
572.012205	0.105346
572.224658	0.105779
572.437092	0.105921
572.649509	0.105830
572.861907	0.106239
573.074287	0.106171
573.286649	0.106301
573.498993	0.106539
573.711318	0.107012
573.923625	0.107069
574.135914	0.107234
574.348185	0.107278
574.560438	0.107537
574.772672	0.107479
574.984888	0.107628
575.197086	0.107564
575.409266	0.107608
575.621427	0.107693
575.833570	0.107690
576.045695	0.107780
576.257802	0.108036
576.469890	0.108289
576.681961	0.108089
576.894013	0.107964
577.106046	0.108031
577.318062	0.108043
577.530059	0.108144
577.742039	0.108336
577.954000	0.108087
578.165942	0.107955
578.377867	0.107979
578.589773	0.108073
578.801661	0.108671
579.013531	0.108804
579.225382	0.109004
579.437216	0.109154
579.649031	0.109495
579.860828	0.109905
580.072606	0.110008
580.284367	0.110115
580.496109	0.110487
580.707833	0.110038
580.919539	0.110141
581.131227	0.110209
581.342896	0.109851
581.554547	0.109608
581.766180	0.109783
581.977795	0.109905
582.189391	0.109976
582.400969	0.109638
582.612529	0.110302
582.824071	0.110327
583.035595	0.110659
583.247100	0.110888
583.458587	0.111080
583.670056	0.111059
583.881506	0.111138
584.092939	0.111285
584.304353	0.112018
584.515749	0.111662
584.727127	0.112192
584.938486	0.112064
585.149828	0.112421
585.361151	0.112816
585.572456	0.112956
585.783742	0.112861
585.995011	0.112842
586.206261	0.112352
586.417493	0.112484
586.628706	0.112194
586.839902	0.112108
587.051079	0.112176
587.262238	0.112200
587.473379	0.112285
587.684502	0.112711
587.895606	0.112747
588.106692	0.113430
588.317760	0.113625
588.528810	0.113732
588.739841	0.113744
588.950855	0.113849
589.161850	0.113822
589.372827	0.113804
589.583785	0.113660
589.794726	0.113678
590.005648	0.113557
590.216552	0.113546
590.427437	0.113663
590.638305	0.113577
590.849154	0.113580
591.059985	0.113322
591.270798	0.113431
591.481592	0.113531
591.692369	0.113929
591.903127	0.114051
592.113867	0.114362
592.324588	0.114478
592.535292	0.114889
592.745977	0.115181
592.956644	0.115073
593.167293	0.115349
593.377923	0.115827
593.588536	0.116080
593.799130	0.115893
594.009706	0.115672
594.220263	0.115752
594.430803	0.115822
594.641324	0.115780
594.851827	0.116428
595.062312	0.116454
595.272778	0.116136
595.483227	0.116117
595.693657	0.116374
595.904069	0.116540
596.114462	0.116854
596.324838	0.117110
596.535195	0.117318
596.745534	0.117403
596.955855	0.117246
597.166157	0.117509
597.376441	0.117522
597.586707	0.117827
597.796955	0.117720
598.007185	0.117771
598.217396	0.117597
598.427589	0.117764
598.637764	0.117664
598.847921	0.118014
599.058060	0.118118
599.268180	0.117975
599.478282	0.117960
599.688366	0.118164
599.898431	0.118546
600.108479	0.118732
600.318508	0.118678
600.528519	0.118607
600.738511	0.118415
600.948486	0.118619
601.158442	0.118846
601.368380	0.118987
601.578300	0.118988
601.788202	0.118604
601.998085	0.118711
602.207950	0.118476
602.417797	0.118754
602.627626	0.118964
602.837436	0.118938
603.047228	0.119082
603.257002	0.119186
603.466758	0.119389
603.676496	0.119517
603.886215	0.119536
604.095916	0.119873
604.305599	0.119886
604.515264	0.119915
604.724910	0.119982
604.934538	0.119705
605.144148	0.119526
605.353740	0.119767
605.563314	0.119899
605.772869	0.119961
605.982406	0.120013
606.191925	0.120456
606.401425	0.120602
606.610908	0.120406
606.820372	0.120531
607.029818	0.120790
607.239246	0.120884
607.448655	0.121048
607.658047	0.121070
607.867420	0.121177
608.076775	0.120809
608.286111	0.120874
608.495430	0.121260
608.704730	0.121471
608.914012	0.121455
609.123275	0.121580
609.332521	0.121567
609.541748	0.121746
609.750957	0.121760
609.960148	0.122138
610.169321	0.122037
610.378475	0.122011
610.587611	0.122208
610.796729	0.122371
611.005829	0.122419
611.214910	0.122415
611.423974	0.122164
611.633019	0.122272
611.842045	0.122015
612.051054	0.122289
612.260044	0.122094
612.469017	0.122030
612.677970	0.121896
612.886906	0.121912
613.095824	0.121894
613.304723	0.122286
613.513604	0.122252
613.722467	0.122456
613.931311	0.122543
614.140138	0.122849
614.348946	0.122662
614.557736	0.122854
614.766507	0.122700
614.975261	0.122906
615.183996	0.122650
615.392713	0.122708
615.601412	0.122793
615.810092	0.122870
616.018754	0.123008
616.227399	0.123232
616.436024	0.123180
616.644632	0.123409
616.853222	0.123336
617.061793	0.123615
617.270346	0.123728
617.478880	0.124013
617.687397	0.124071
617.895895	0.124120
618.104375	0.124320
618.312837	0.124340
618.521281	0.124280
618.729706	0.124526
618.938113	0.124611
619.146502	0.124517
619.354873	0.124337
619.563226	0.124386
619.771560	0.124607
619.979876	0.124620
620.188174	0.124721
620.396453	0.124884
620.604715	0.124841
620.812958	0.124830
621.021183	0.125283
621.229390	0.125380
621.437578	0.125334
621.645748	0.125148
621.853900	0.125328
622.062034	0.125631
622.270150	0.125607
622.478247	0.125878
622.686326	0.126089
622.894387	0.126002
623.102430	0.126139
623.310454	0.126330
623.518461	0.126389
623.726449	0.126461
623.934418	0.126264
624.142370	0.126414
624.350303	0.126291
624.558218	0.126203
624.766115	0.126162
624.973994	0.126047
625.181855	0.126062
625.389697	0.126375
625.597521	0.126195
625.805327	0.126333
626.013114	0.126421
626.220883	0.126620
626.428634	0.126738
626.636367	0.127007
626.844082	0.127123
627.051778	0.127386
627.259457	0.127244
627.467117	0.127607
627.674758	0.127841
627.882382	0.127847
628.089987	0.127617
628.297574	0.127488
628.505143	0.127512
628.712694	0.127390
628.920226	0.127412
629.127740	0.127440
629.335236	0.127262
629.542714	0.127236
629.750174	0.127186
629.957615	0.127722
630.165038	0.128060
630.372443	0.128027
630.579829	0.128313
630.787198	0.128115
630.994548	0.128426
631.201880	0.128702
631.409194	0.128874
631.616489	0.129163
631.823766	0.128930
632.031025	0.129173
632.238266	0.129498
632.445489	0.129663
632.652693	0.129911
632.859879	0.129836
633.067047	0.130023
633.274197	0.130112
633.481329	0.130159
633.688442	0.130233
633.895537	0.130018
634.102614	0.129792
634.309672	0.129602
634.516713	0.129647
634.723735	0.129616
634.930739	0.129707
635.137724	0.129718
635.344692	0.129720
635.551641	0.129835
635.758572	0.129971
635.965485	0.130254
636.172379	0.130479
636.379256	0.130651
636.586114	0.130695
636.792954	0.130551
636.999775	0.130537
637.206579	0.130695
637.413364	0.130789
637.620131	0.130995
637.826880	0.131185
638.033610	0.131533
638.240323	0.131575
638.447017	0.131756
638.653692	0.132119
638.860350	0.132205
639.066990	0.132417
639.273611	0.132284
639.480214	0.132349
639.686798	0.132043
639.893365	0.132010
640.099913	0.132098
640.306443	0.132104
640.512955	0.131867
640.719449	0.132058
640.925924	0.131959
641.132381	0.132219
641.338820	0.132025
641.545241	0.132029
641.751644	0.132013
641.958028	0.132227
642.164394	0.132235
642.370742	0.132383
642.577071	0.132465
642.783383	0.132472
642.989676	0.132358
643.195951	0.132741
643.402207	0.132945
643.608446	0.132937
643.814666	0.132819
644.020868	0.132891
644.227052	0.132735
644.433218	0.132658
644.639365	0.132970
644.845494	0.132989
645.051605	0.132988
645.257698	0.133380
645.463772	0.133453
645.669828	0.133627
645.875866	0.133678
646.081886	0.133906
646.287888	0.134007
646.493871	0.133911
646.699836	0.134176
646.905783	0.134098
647.111712	0.133958
647.317622	0.134028
647.523514	0.133805
647.729388	0.133995
647.935244	0.134183
648.141082	0.134352
648.346901	0.134485
648.552702	0.134694
648.758485	0.134960
648.964250	0.135176
649.169996	0.135362
649.375724	0.135600
649.581434	0.135728
649.787126	0.135855
649.992800	0.135969
650.198455	0.136054
650.404092	0.136038
650.609711	0.135951
650.815311	0.135694
651.020894	0.135747
651.226458	0.135878
651.432004	0.135993
651.637532	0.135975
651.843041	0.135750
652.048532	0.135742
652.254006	0.135649
652.459460	0.135826
652.664897	0.135939
652.870315	0.135968
653.075716	0.135807
653.281097	0.135909
653.486461	0.135916
653.691807	0.135986
653.897134	0.135934
654.102443	0.136234
654.307734	0.136250
654.513006	0.136355
654.718261	0.136310
654.923497	0.136738
655.128715	0.136751
655.333915	0.137029
655.539096	0.137357
655.744259	0.137854
655.949404	0.137978
656.154531	0.138216
656.359640	0.138382
656.564730	0.138650
656.769802	0.138386
656.974856	0.138599
657.179892	0.138503
657.384909	0.138572
657.589908	0.138464
657.794889	0.138638
657.999852	0.138682
658.204797	0.138934
658.409723	0.139071
658.614631	0.139490
658.819521	0.139631
659.024393	0.139688
659.229246	0.140164
659.434081	0.140431
659.638898	0.140375
659.843697	0.140267
660.048478	0.140328
660.253240	0.140371
660.457984	0.140539
660.662710	0.140568
660.867417	0.140825
661.072107	0.140543
661.276778	0.140518
661.481431	0.140493
661.686066	0.140728
661.890682	0.140778
662.095281	0.140854
662.299861	0.140863
662.504422	0.140860
662.708966	0.140944
662.913491	0.141217
663.117999	0.141216
663.322488	0.141295
663.526958	0.141481
663.731411	0.141465
663.935845	0.141352
664.140261	0.141388
664.344659	0.141496
664.549038	0.141597
664.753400	0.141419
664.957743	0.141579
665.162068	0.141901
665.366375	0.141748
665.570663	0.141983
665.774933	0.142382
665.979185	0.142473
666.183419	0.142484
666.387635	0.142417
666.591832	0.142557
666.796011	0.142475
667.000172	0.142496
667.204315	0.142627
667.408439	0.142522
667.612545	0.142462
667.816634	0.142374
668.020703	0.142481
668.224755	0.142775
668.428788	0.142914
668.632803	0.143109
668.836800	0.143253
669.040779	0.143438
669.244739	0.143645
669.448681	0.143708
669.652605	0.143952
669.856511	0.144140
670.060399	0.144158
670.264268	0.144164
670.468119	0.144270
670.671952	0.144196
670.875767	0.144328
671.079563	0.144428
671.283341	0.144514
671.487101	0.144847
671.690843	0.145042
671.894567	0.145210
672.098272	0.145497
672.301959	0.145714
672.505628	0.145873
672.709278	0.146157
672.912911	0.146276
673.116525	0.146644
673.320121	0.146376
673.523699	0.146423
673.727258	0.146382
673.930799	0.146382
674.134322	0.146435
674.337827	0.146521
674.541314	0.146405
674.744782	0.146362
674.948232	0.146022
675.151664	0.146217
675.355078	0.146196
675.558474	0.146300
675.761851	0.146450
675.965210	0.146511
676.168551	0.146736
676.371873	0.146844
676.575178	0.146990
676.778464	0.147389
676.981732	0.147425
677.184981	0.147345
677.388213	0.147364
677.591426	0.147547
677.794621	0.147594
677.997798	0.147664
678.200956	0.147758
678.404097	0.147989
678.607219	0.148108
678.810323	0.148521
679.013408	0.148727
679.216476	0.149028
679.419525	0.148977
679.622556	0.148964
679.825569	0.148951
680.028563	0.148937
680.231540	0.148924
680.434498	0.148911
680.637438	0.148983
680.840359	0.149039
681.043263	0.149192
681.246148	0.149208
681.449015	0.149303
681.651864	0.149401
681.854694	0.149686
682.057506	0.149946
682.260301	0.150206
682.463076	0.150039
682.665834	0.150428
682.868573	0.150545
683.071295	0.150660
683.273998	0.150873
683.476682	0.151142
683.679349	0.151112
683.881997	0.151204
684.084627	0.151093
684.287239	0.151278
684.489833	0.151270
684.692408	0.151075
684.894965	0.150996
685.097504	0.151014
685.300025	0.150932
685.502527	0.151126
685.705012	0.150971
685.907478	0.151208
686.109925	0.151256
686.312355	0.151463
686.514766	0.151779
686.717159	0.151988
686.919534	0.151970
687.121891	0.151851
687.324230	0.151872
687.526550	0.152045
687.728852	0.152019
687.931136	0.152049
688.133401	0.151919
688.335649	0.151785
688.537878	0.151843
688.740089	0.151943
688.942281	0.152416
689.144456	0.152412
689.346612	0.152503
689.548750	0.152372
689.750870	0.152540
689.952971	0.152545
690.155055	0.152669
690.357120	0.152819
690.559167	0.153049
690.761195	0.153000
690.963206	0.153030
691.165198	0.153109
691.367172	0.153448
691.569128	0.153243
691.771065	0.153500
691.972984	0.153513
692.174885	0.153672
692.376768	0.153822
692.578633	0.153886
692.780479	0.154072
692.982308	0.154274
693.184118	0.154445
693.385909	0.154775
693.587683	0.154680
693.789438	0.154965
693.991175	0.154937
694.192894	0.155034
694.394595	0.155038
694.596277	0.155031
694.797941	0.155067
694.999587	0.154984
695.201215	0.154997
695.402824	0.155031
695.604416	0.155057
695.805989	0.155028
696.007543	0.154894
696.209080	0.155044
696.410598	0.155277
696.612099	0.155306
696.813580	0.155314
697.015044	0.155432
697.216490	0.155616
697.417917	0.155632
697.619326	0.155711
697.820717	0.155983
698.022089	0.156045
698.223444	0.156037
698.424780	0.156040
698.626098	0.156084
698.827397	0.156217
699.028679	0.156319
699.229942	0.156151
699.431187	0.156318
699.632414	0.156409
699.833622	0.156309
700.034813	0.156458
700.235985	0.156489
700.437139	0.156661
700.638274	0.156794
700.839392	0.157065
701.040491	0.157541
701.241572	0.157560
701.442635	0.157541
701.643679	0.157747
701.844706	0.157891
702.045714	0.157838
702.246704	0.157859
702.447675	0.157654
702.648629	0.157439
702.849564	0.157157
703.050481	0.157436
703.251380	0.157547
703.452260	0.157527
703.653122	0.157370
703.853966	0.157518
704.054792	0.157671
704.255600	0.157736
704.456389	0.157725
704.657160	0.157827
704.857913	0.157579
705.058648	0.157399
705.259365	0.157213
705.460063	0.157261
705.660743	0.157270
705.861405	0.156968
706.062048	0.157157
706.262674	0.157312
706.463281	0.157266
706.663870	0.157427
706.864441	0.157567
707.064993	0.157666
707.265527	0.157476
707.466043	0.157399
707.666541	0.157519
707.867021	0.157498
708.067482	0.157427
708.267925	0.157619
708.468350	0.157738
708.668757	0.157701
708.869145	0.157882
709.069516	0.158052
709.269868	0.158144
709.470201	0.158254
709.670517	0.158302
709.870814	0.158395
710.071093	0.158438
710.271354	0.158407
710.471597	0.158630
710.671821	0.158694
710.872028	0.158745
711.072216	0.158883
711.272385	0.158996
711.472537	0.158786
711.672670	0.158830
711.872785	0.158772
712.072882	0.158520
712.272961	0.158301
712.473021	0.158388
712.673063	0.158224
712.873087	0.158130
713.073093	0.158107
713.273081	0.158328
713.473050	0.158164
713.673001	0.158034
713.872934	0.158209
714.072849	0.158394
714.272745	0.158192
714.472623	0.158621
714.672483	0.158693
714.872325	0.158704
715.072148	0.158750
715.271954	0.158790
715.471741	0.159000
715.671509	0.158993
715.871260	0.158803
716.070992	0.158869
716.270707	0.158694
716.470403	0.158750
716.670080	0.158665
716.869740	0.158519
717.069381	0.158598
717.269004	0.158538
717.468609	0.158525
717.668195	0.158486
717.867764	0.158369
718.067314	0.158114
718.266846	0.157995
718.466360	0.158082
718.665855	0.157999
718.865332	0.157845
719.064791	0.157747
719.264232	0.157448
719.463655	0.157478
719.663059	0.157422
719.862445	0.157598
720.061813	0.157408
720.261163	0.157151
720.460494	0.157096
720.659807	0.157029
720.859102	0.156894
721.058379	0.157194
721.257638	0.157154
721.456878	0.157444
721.656100	0.157546
721.855304	0.157679
722.054490	0.157895
722.253657	0.158002
722.452806	0.158249
722.651937	0.158490
722.851050	0.158467
723.050145	0.158570
723.249221	0.158200
723.448279	0.158109
723.647319	0.158076
723.846340	0.157960
724.045344	0.157963
724.244329	0.157720
724.443296	0.157407
724.642245	0.157382
724.841175	0.157255
725.040088	0.157496
725.238982	0.157335
725.437857	0.157350
725.636715	0.157177
725.835554	0.156977
726.034376	0.156873
726.233179	0.157018
726.431963	0.156892
726.630730	0.156839
726.829478	0.156624
727.028208	0.156528
727.226920	0.156395
727.425614	0.156339
727.624289	0.156368
727.822946	0.156390
728.021585	0.156257
728.220206	0.156049
728.418808	0.155942
728.617392	0.155837
728.815958	0.155950
729.014506	0.156062
729.213036	0.156055
729.411547	0.156050
729.610040	0.156062
729.808515	0.156204
730.006972	0.156410
730.205410	0.156291
730.403831	0.156255
730.602233	0.156014
730.800616	0.155757
730.998982	0.155936
731.197329	0.155681
731.395658	0.155782
731.593969	0.155524
731.792262	0.155196
731.990536	0.155350
732.188793	0.155444
732.387031	0.155573
732.585250	0.155594
732.783452	0.155338
732.981635	0.155340
733.179800	0.155097
733.377947	0.155044
733.576076	0.155082
733.774186	0.155176
733.972278	0.154967
734.170352	0.154870
734.368408	0.155035
734.566446	0.155052
734.764465	0.155073
734.962466	0.154966
735.160449	0.154845
735.358413	0.154947
735.556360	0.154660
735.754288	0.154899
735.952198	0.154789
736.150090	0.154524
736.347963	0.154406
736.545818	0.154342
736.743655	0.154275
736.941474	0.154252
737.139275	0.154236
737.337057	0.154200
737.534821	0.153902
737.732567	0.153865
737.930295	0.153732
738.128005	0.153668
738.325696	0.153688
738.523369	0.153723
738.721024	0.153733
738.918660	0.153529
739.116279	0.153384
739.313879	0.153232
739.511461	0.153153
739.709024	0.153059
739.906570	0.153141
740.104097	0.153025
740.301606	0.152913
740.499097	0.153007
740.696569	0.152909
740.894024	0.152714
741.091460	0.152583
741.288878	0.152513
741.486277	0.152555
741.683659	0.152147
741.881022	0.152112
742.078367	0.152024
742.275694	0.151824
742.473002	0.151585
742.670293	0.151592
742.867565	0.151620
743.064819	0.151282
743.262054	0.151286
743.459272	0.151194
743.656471	0.151093
743.853652	0.150968
744.050815	0.150938
744.247959	0.151112
744.445085	0.151150
744.642194	0.151315
744.839283	0.151649
745.036355	0.151698
745.233408	0.151890
745.430444	0.151926
745.627461	0.151921
745.824459	0.151741
746.021440	0.151694
746.218402	0.151607
746.415346	0.151204
746.612272	0.151009
746.809180	0.150750
747.006069	0.150663
747.202940	0.150449
747.399793	0.150452
747.596628	0.150297
747.793444	0.150022
747.990243	0.149759
748.187023	0.149700
748.383784	0.149461
748.580528	0.149291
748.777253	0.149081
748.973960	0.148944
749.170649	0.148572
749.367320	0.148484
749.563973	0.148391
749.760607	0.148231
749.957223	0.148304
750.153821	0.148293
750.350400	0.148244
750.546962	0.148067
750.743505	0.147950
750.940030	0.148041
751.136536	0.148002
751.333025	0.147859
751.529495	0.147862
751.725947	0.147603
751.922381	0.147448
752.118796	0.147293
752.315194	0.147518
752.511573	0.147460
752.707934	0.147307
752.904276	0.147215
753.100601	0.147335
753.296907	0.147443
753.493195	0.147410
753.689465	0.147393
753.885716	0.147513
754.081949	0.147423
754.278164	0.147313
754.474361	0.147489
754.670540	0.147289
754.866700	0.147380
755.062843	0.147247
755.258967	0.147290
755.455072	0.147158
755.651160	0.146971
755.847229	0.146669
756.043280	0.146703
756.239313	0.146503
756.435328	0.146629
756.631324	0.146226
756.827302	0.146119
757.023262	0.145943
757.219204	0.146098
757.415127	0.145966
757.611033	0.146034
757.806920	0.145912
758.002788	0.145886
758.198639	0.145770
758.394471	0.145692
758.590286	0.145621
758.786081	0.145546
758.981859	0.145311
759.177619	0.145025
759.373360	0.144995
759.569083	0.145096
759.764788	0.145105
759.960474	0.145014
760.156143	0.145047
760.351793	0.145200
760.547425	0.145226
760.743038	0.145249
760.938634	0.145404
761.134211	0.145568
761.329770	0.145249
761.525311	0.145046
761.720833	0.145066
761.916338	0.144947
762.111824	0.144540
762.307292	0.144482
762.502741	0.144237
762.698173	0.144119
762.893586	0.143770
763.088981	0.143796
763.284358	0.143737
763.479716	0.143523
763.675057	0.143437
763.870379	0.143688
764.065683	0.143676
764.260968	0.143881
764.456236	0.143687
764.651485	0.143654
764.846716	0.143633
765.041929	0.143630
765.237123	0.143581
765.432299	0.143634
765.627457	0.143438
765.822597	0.143143
766.017719	0.142898
766.212822	0.142961
766.407907	0.142848
766.602974	0.142744
766.798023	0.142339
766.993054	0.142343
767.188066	0.142442
767.383060	0.142479
767.578036	0.142659
767.772993	0.142569
767.967933	0.142838
768.162854	0.142916
768.357757	0.142688
768.552642	0.142724
768.747508	0.142681
768.942356	0.142412
769.137186	0.142190
769.331998	0.142055
769.526792	0.142210
769.721567	0.141885
769.916324	0.141530
770.111063	0.141607
770.305784	0.141790
770.500486	0.141422
770.695171	0.141506
770.889837	0.141460
771.084484	0.141392
771.279114	0.141122
771.473725	0.141075
771.668318	0.141180
771.862893	0.141177
772.057450	0.140897
772.251988	0.141163
772.446509	0.141027
772.641011	0.140921
772.835494	0.140957
773.029960	0.141103
773.224407	0.140928
773.418836	0.141000
773.613247	0.140844
773.807640	0.140861
774.002014	0.140732
774.196370	0.140609
774.390708	0.140657
774.585028	0.140512
774.779330	0.140135
774.973613	0.140106
775.167878	0.139979
775.362125	0.140012
775.556354	0.139944
775.750564	0.139937
775.944756	0.139915
776.138930	0.139785
776.333086	0.139760
776.527223	0.139966
776.721343	0.139865
776.915444	0.139835
777.109526	0.139900
777.303591	0.139834
777.497637	0.139873
777.691666	0.139796
777.885676	0.139719
778.079667	0.139665
778.273641	0.139621
778.467596	0.139929
778.661533	0.140127
778.855452	0.140085
779.049352	0.140255
779.243235	0.140353
779.437099	0.140345
779.630945	0.140652
779.824773	0.140550
780.018582	0.140543
780.212373	0.140363
780.406146	0.140153
780.599901	0.140194
780.793638	0.140174
780.987356	0.140050
781.181056	0.140295
781.374738	0.140018
781.568402	0.140254
781.762047	0.140167
781.955674	0.140459
782.149283	0.140526
782.342874	0.140630
782.536447	0.140665
782.730001	0.140700
782.923537	0.140575
783.117055	0.140747
783.310555	0.140497
783.504036	0.140563
783.697499	0.140257
783.890944	0.139979
784.084371	0.139892
784.277780	0.140033
784.471170	0.139924
784.664542	0.139837
784.857896	0.139830
785.051231	0.140180
785.244549	0.140251
785.437848	0.140250
785.631129	0.140391
785.824392	0.140476
786.017636	0.140492
786.210863	0.140664
786.404071	0.140862
786.597260	0.140855
786.790432	0.140559
786.983585	0.140787
787.176721	0.140858
787.369838	0.140991
787.562936	0.140913
787.756017	0.140811
787.949079	0.140618
788.142123	0.140662
788.335149	0.140460
788.528156	0.140562
788.721146	0.140292
788.914117	0.140267
789.107070	0.140095
789.300005	0.140065
789.492921	0.140035
789.685819	0.140195
789.878699	0.139968
790.071561	0.140295
790.264405	0.140362
790.457230	0.140446
790.650037	0.140425
790.842826	0.140715
791.035597	0.140837
791.228349	0.140801
791.421084	0.140747
791.613800	0.140900
791.806497	0.140976
791.999177	0.141032
792.191838	0.140921
792.384481	0.141167
792.577106	0.140963
792.769713	0.140960
792.962301	0.141089
793.154871	0.141305
793.347423	0.141296
793.539957	0.141119
793.732473	0.140887
793.924970	0.140872
794.117449	0.140746
794.309910	0.140887
794.502353	0.140930
794.694777	0.140930
794.887183	0.140840
795.079571	0.140928
795.271941	0.140894
795.464293	0.141122
795.656626	0.141383
795.848941	0.141609
796.041238	0.141788
796.233516	0.141786
796.425777	0.141947
796.618019	0.142189
796.810243	0.142216
797.002449	0.142503
797.194636	0.142829
797.386805	0.143056
797.578956	0.143179
797.771089	0.143405
797.963204	0.143685
798.155300	0.143801
798.347378	0.143814
798.539438	0.144114
798.731480	0.144210
798.923503	0.144133
799.115509	0.143897
799.307496	0.144012
799.499465	0.143875
799.691415	0.143824
799.883348	0.143651
800.075262	0.143504
800.267158	0.143398
800.459035	0.143449
800.650895	0.143515
800.842736	0.143547
801.034559	0.143499
801.226364	0.143477
801.418150	0.143572
801.609919	0.143841
801.801669	0.144143
801.993401	0.144286
802.185114	0.144358
802.376810	0.144361
802.568487	0.144498
802.760146	0.144415
802.951787	0.144543
803.143409	0.144459
803.335014	0.144597
803.526600	0.144736
803.718168	0.144696
803.909717	0.144657
804.101249	0.144873
804.292762	0.144969
804.484257	0.145309
804.675734	0.145541
804.867192	0.145841
805.058632	0.145502
805.250054	0.145538
805.441458	0.145637
805.632844	0.145669
805.824211	0.145781
806.015561	0.145912
806.206891	0.145829
806.398204	0.145666
806.589499	0.145617
806.780775	0.146164
806.972033	0.146318
807.163273	0.146437
807.354495	0.146568
807.545698	0.146489
807.736883	0.146628
807.928050	0.146758
808.119199	0.147186
808.310329	0.147213
808.501441	0.147244
808.692535	0.147234
808.883611	0.147311
809.074669	0.147632
809.265708	0.147783
809.456729	0.147894
809.647732	0.148191
809.838717	0.148150
810.029683	0.148473
810.220632	0.148736
810.411562	0.148804
810.602474	0.149135
810.793367	0.149181
810.984242	0.149594
811.175100	0.149922
811.365938	0.149805
811.556759	0.150042
811.747562	0.150072
811.938346	0.150053
812.129112	0.150264
812.319860	0.150302
812.510589	0.150505
812.701300	0.150514
812.891994	0.150532
813.082668	0.151065
813.273325	0.151099
813.463964	0.151174
813.654584	0.151241
813.845186	0.151287
814.035769	0.151452
814.226335	0.151528
814.416882	0.151757
814.607411	0.151966
814.797922	0.151857
814.988415	0.152176
815.178889	0.152406
815.369345	0.152604
815.559783	0.153002
815.750203	0.153081
815.940605	0.153462
816.130988	0.153453
816.321353	0.153503
816.511700	0.153734
816.702028	0.153748
816.892339	0.154023
817.082631	0.154374
817.272905	0.154408
817.463161	0.154757
817.653398	0.154783
817.843617	0.154936
818.033819	0.155136
818.224001	0.155124
818.414166	0.155225
818.604312	0.155189
818.794440	0.155005
818.984550	0.155235
819.174642	0.155328
819.364716	0.155350
819.554771	0.155401
819.744808	0.155303
819.934827	0.155360
820.124827	0.155466
820.314810	0.155589
820.504774	0.155854
820.694720	0.155826
820.884647	0.155924
821.074557	0.156096
821.264448	0.156120
821.454321	0.156510
821.644176	0.156992
821.834012	0.157099
822.023831	0.157292
822.213631	0.157561
822.403413	0.157781
822.593176	0.158090
822.782922	0.158262
822.972649	0.158530
823.162358	0.158744
823.352049	0.158907
823.541721	0.159005
823.731376	0.159100
823.921012	0.159255
824.110629	0.159395
824.300229	0.159353
824.489811	0.159641
824.679374	0.159832
824.868919	0.159889
825.058445	0.159754
825.247954	0.159968
825.437444	0.160220
825.626916	0.160340
825.816370	0.160440
826.005806	0.160547
826.195223	0.160487
826.384622	0.160588
826.574003	0.160910
826.763366	0.161177
826.952711	0.161559
827.142037	0.161575
827.331345	0.161485
827.520635	0.161734
827.709906	0.162113
827.899160	0.162579
828.088395	0.162806
828.277612	0.162724
828.466810	0.162996
828.655991	0.163158
828.845153	0.163388
829.034297	0.163710
829.223423	0.163815
829.412531	0.163989
829.601620	0.163941
829.790691	0.164400
829.979744	0.164707
830.168779	0.165018
830.357795	0.165397
830.546793	0.165614
830.735773	0.165668
830.924735	0.166003
831.113679	0.166209
831.302604	0.166508
831.491511	0.166555
831.680400	0.166771
831.869271	0.166666
832.058123	0.166636
832.246957	0.167113
832.435773	0.167748
832.624571	0.167968
832.813351	0.168145
833.002112	0.168202
833.190855	0.168625
833.379580	0.168934
833.568287	0.169251
833.756975	0.169379
833.945645	0.169437
834.134297	0.169586
834.322931	0.169797
834.511547	0.169947
834.700144	0.170311
834.888723	0.170435
835.077284	0.170475
835.265826	0.170838
835.454351	0.171176
835.642857	0.171353
835.831345	0.171171
836.019815	0.171412
836.208266	0.171480
836.396699	0.171589
836.585114	0.171686
836.773511	0.171865
836.961890	0.171808
837.150250	0.171881
837.338592	0.172071
837.526916	0.172432
837.715222	0.172274
837.903510	0.172453
838.091779	0.172824
838.280030	0.173172
838.468263	0.173625
838.656477	0.173997
838.844674	0.174335
839.032852	0.174702
839.221012	0.175130
839.409153	0.175819
839.597277	0.176087
839.785382	0.176273
839.973469	0.176360
840.161538	0.176549
840.349589	0.176708
840.537621	0.176687
840.725635	0.176779
840.913631	0.176639
841.101609	0.176437
841.289568	0.176941
841.477509	0.177193
841.665432	0.177384
841.853337	0.177386
842.041224	0.177646
842.229092	0.177926
842.416942	0.178241
842.604774	0.178814
842.792588	0.179262
842.980383	0.179326
843.168160	0.179274
843.355919	0.179357
843.543660	0.179954
843.731382	0.180093
843.919087	0.180337
844.106773	0.180578
844.294441	0.180487
844.482090	0.180561
844.669722	0.180629
844.857335	0.181133
845.044930	0.181624
845.232507	0.181765
845.420065	0.182024
845.607605	0.182438
845.795127	0.182400
845.982631	0.182834
846.170117	0.183292
846.357584	0.183631
846.545033	0.183563
846.732464	0.183675
846.919877	0.183581
847.107272	0.183667
847.294648	0.183634
847.482006	0.183789
847.669346	0.184046
847.856667	0.184138
848.043971	0.184432
848.231256	0.184876
848.418523	0.184955
848.605771	0.185411
848.793002	0.185771
848.980214	0.186159
849.167408	0.186898
849.354584	0.187142
849.541742	0.187103
849.728881	0.187233
849.916002	0.187295
850.103105	0.187680
850.290190	0.187759
850.477256	0.187997
850.664304	0.187955
850.851334	0.188035
851.038346	0.188401
851.225340	0.188881
851.412315	0.189256
851.599272	0.189527
851.786211	0.189671
851.973132	0.189942
852.160034	0.190395
852.346918	0.190850
852.533784	0.190898
852.720632	0.190812
852.907462	0.191128
853.094273	0.191460
853.281066	0.191565
853.467841	0.191859
853.654598	0.192386
853.841336	0.192464
854.028056	0.192698
854.214758	0.192841
854.401442	0.193406
854.588107	0.193490
854.774755	0.193530
854.961384	0.193883
855.147995	0.194187
855.334587	0.194167
855.521162	0.194457
855.707718	0.194766
855.894256	0.195028
856.080775	0.195251
856.267277	0.195689
856.453760	0.196076
856.640225	0.196466
856.826672	0.196799
857.013101	0.197168
857.199511	0.197298
857.385903	0.197550
857.572277	0.198041
857.758633	0.198328
857.944970	0.198603
858.131290	0.198678
858.317591	0.198785
858.503873	0.198792
858.690138	0.198923
858.876384	0.199048
859.062612	0.199676
859.248822	0.199831
859.435014	0.199939
859.621188	0.199993
859.807343	0.200267
859.993480	0.200735
860.179599	0.201047
860.365699	0.201415
860.551781	0.201746
860.737846	0.201682
860.923891	0.201632
861.109919	0.201670
861.295929	0.201758
861.481920	0.201860
861.667893	0.201540
861.853848	0.201481
862.039784	0.201575
862.225702	0.201634
862.411603	0.201410
862.597484	0.201592
862.783348	0.201670
862.969193	0.201743
863.155021	0.202180
863.340830	0.202672
863.526620	0.203059
863.712393	0.203357
863.898147	0.203711
864.083883	0.204079
864.269601	0.204259
864.455301	0.204687
864.640982	0.205265
864.826645	0.205194
865.012290	0.205024
865.197917	0.205158
865.383526	0.205261
865.569116	0.205585
865.754688	0.205646
865.940242	0.205934
866.125777	0.206207
866.311295	0.206327
866.496794	0.206576
866.682275	0.207269
866.867737	0.207572
867.053182	0.207753
867.238608	0.207872
867.424016	0.208366
867.609406	0.208802
867.794778	0.208652
867.980131	0.208873
868.165466	0.209138
868.350783	0.209203
868.536082	0.209086
868.721362	0.209007
868.906625	0.209224
869.091869	0.209413
869.277094	0.209554
869.462302	0.209745
869.647491	0.209899
869.832662	0.210119
870.017815	0.210027
870.202950	0.210553
870.388066	0.210541
870.573165	0.210309
870.758245	0.210241
870.943306	0.210498
871.128350	0.210786
871.313375	0.211019
871.498382	0.210886
871.683371	0.211014
871.868342	0.210860
872.053294	0.211065
872.238229	0.211322
872.423144	0.211395
872.608042	0.211295
872.792922	0.211213
872.977783	0.211185
873.162626	0.211416
873.347451	0.211912
873.532258	0.212228
873.717046	0.212358
873.901816	0.212604
874.086568	0.213012
874.271302	0.213288
874.456017	0.213409
874.640715	0.213255
874.825394	0.213176
875.010055	0.213014
875.194697	0.212932
875.379322	0.213333
875.563928	0.213658
875.748516	0.213824
875.933085	0.213892
876.117637	0.214285
876.302170	0.214891
876.486685	0.215269
876.671182	0.215455
876.855661	0.215745
877.040121	0.215592
877.224563	0.215242
877.408987	0.214898
877.593393	0.214750
877.777780	0.214809
877.962150	0.214603
878.146501	0.214786
878.330833	0.214892
878.515148	0.214967
878.699444	0.215581
878.883722	0.215843
879.067982	0.216215
879.252224	0.216373
879.436447	0.216344
879.620653	0.216479
879.804840	0.216381
879.989008	0.216419
880.173159	0.216816
880.357291	0.216464
880.541405	0.216474
880.725501	0.216273
880.909579	0.216279
881.093638	0.216467
881.277680	0.216249
881.461703	0.216636
881.645707	0.216715
881.829694	0.216291
882.013662	0.216464
882.197612	0.216448
882.381544	0.216782
882.565458	0.216700
882.749353	0.216491
882.933230	0.216861
883.117089	0.216763
883.300930	0.216784
883.484753	0.216903
883.668557	0.216834
883.852343	0.217206
884.036111	0.217236
884.219861	0.217597
884.403592	0.217783
884.587305	0.217762
884.771000	0.217862
884.954677	0.218041
885.138335	0.218006
885.321976	0.217932
885.505598	0.217858
885.689201	0.217896
885.872787	0.218259
886.056354	0.218365
886.239904	0.218492
886.423434	0.218574
886.606947	0.218374
886.790442	0.219032
886.973918	0.219485
887.157376	0.219786
887.340816	0.219890
887.524237	0.219641
887.707641	0.219504
887.891026	0.219203
888.074393	0.218951
888.257741	0.219191
888.441072	0.218640
888.624384	0.218683
888.807678	0.218566
888.990954	0.218427
889.174211	0.218552
889.357451	0.218780
889.540672	0.219572
889.723875	0.219244
889.907059	0.219296
890.090226	0.219795
890.273374	0.219676
890.456504	0.219867
890.639616	0.219712
890.822709	0.219190
891.005785	0.219065
891.188842	0.218235
891.371881	0.218417
891.554901	0.217890
891.737904	0.217344
891.920888	0.216794
892.103854	0.216208
892.286802	0.216121
892.469731	0.216233
892.652643	0.216072
892.835536	0.216180
893.018410	0.216220
893.201267	0.216284
893.384106	0.216104
893.566926	0.216345
893.749728	0.216751
893.932511	0.217090
894.115277	0.217491
894.298024	0.217724
894.480753	0.217700
894.663464	0.217391
894.846157	0.218012
895.028831	0.218247
895.211487	0.218332
895.394125	0.218050
895.576745	0.218111
895.759346	0.217714
895.941930	0.217515
896.124495	0.217486
896.307041	0.217373
896.489570	0.216915
896.672080	0.217035
896.854573	0.216948
897.037046	0.216986
897.219502	0.216737
897.401940	0.216717
897.584359	0.216690
897.766760	0.216778
897.949143	0.216885
898.131507	0.217169
898.313854	0.216855
898.496182	0.216710
898.678492	0.216422
898.860783	0.216557
899.043057	0.216567
899.225312	0.216205
899.407549	0.216365
899.589768	0.216259
899.771968	0.216105
899.954151	0.216061
900.136315	0.216104
900.318461	0.215546
900.500588	0.215201
900.682698	0.214572
900.864789	0.214643
901.046862	0.214145
901.228917	0.213815
901.410953	0.213149
901.592971	0.212866
901.774972	0.212507
901.956953	0.212970
902.138917	0.213015
902.320862	0.213642
902.502790	0.213344
902.684699	0.213031
902.866589	0.213138
903.048462	0.213284
903.230316	0.212965
903.412152	0.213184
903.593970	0.212837
903.775770	0.212126
903.957551	0.211568
904.139314	0.211335
904.321059	0.211223
904.502786	0.211670
904.684494	0.211455
904.866185	0.211429
905.047857	0.210850
905.229510	0.210725
905.411146	0.211145
905.592763	0.211419
905.774363	0.211803
905.955943	0.211661
906.137506	0.210689
906.319051	0.210566
906.500577	0.210617
906.682085	0.210618
906.863575	0.210529
907.045046	0.210042
907.226500	0.208961
907.407935	0.208334
907.589352	0.208183
907.770750	0.208152
907.952131	0.207614
908.133493	0.206959
908.314837	0.206861
908.496163	0.206352
908.677470	0.205932
908.858760	0.205797
909.040031	0.205855
909.221284	0.205321
909.402518	0.204875
909.583735	0.204861
909.764933	0.204495
909.946113	0.203841
910.127275	0.203607
910.308418	0.203465
910.489544	0.203825
910.670651	0.203251
910.851740	0.203116
911.032810	0.203284
911.213863	0.203157
911.394897	0.202921
911.575913	0.202869
911.756911	0.202821
911.937890	0.202976
912.118851	0.202294
912.299794	0.202284
912.480719	0.202131
912.661626	0.201561
912.842514	0.201409
913.023384	0.201433
913.204236	0.201143
913.385070	0.200615
913.565886	0.199957
913.746683	0.199871
913.927462	0.199303
914.108223	0.198875
914.288965	0.198880
914.469690	0.198642
914.650396	0.198399
914.831084	0.198248
915.011754	0.198313
915.192405	0.198259
915.373038	0.197532
915.553653	0.197498
915.734250	0.197083
915.914829	0.196823
916.095389	0.196059
916.275931	0.195670
916.456455	0.195225
916.636961	0.194546
916.817448	0.193617
916.997917	0.193650
917.178368	0.192454
917.358801	0.192143
917.539216	0.191423
917.719612	0.191206
917.899990	0.191015
918.080350	0.190441
918.260692	0.190309
918.441015	0.189917
918.621320	0.189053
918.801607	0.188755
918.981876	0.188690
919.162127	0.188408
919.342359	0.187822
919.522573	0.187566
919.702769	0.187093
919.882947	0.186203
920.063106	0.186526
920.243247	0.186425
920.423370	0.186757
920.603475	0.186077
920.783562	0.185664
920.963630	0.185366
921.143680	0.184986
921.323712	0.184894
921.503725	0.184747
921.683721	0.184012
921.863698	0.183407
922.043657	0.182824
922.223598	0.182581
922.403520	0.181898
922.583424	0.181452
922.763311	0.180331
922.943178	0.179618
923.123028	0.179171
923.302859	0.178764
923.482673	0.178886
923.662467	0.178753
923.842244	0.178347
924.022003	0.178103
924.201743	0.177862
924.381465	0.177606
924.561169	0.177592
924.740854	0.176670
924.920522	0.176062
925.100171	0.175561
925.279802	0.175282
925.459414	0.174736
925.639009	0.174378
925.818585	0.173716
925.998143	0.173160
926.177683	0.172979
926.357205	0.173194
926.536708	0.172697
926.716193	0.171785
926.895660	0.170858
927.075109	0.170121
927.254539	0.169938
927.433951	0.169617
927.613345	0.169816
927.792721	0.169044
927.972079	0.168976
928.151418	0.167885
928.330739	0.167917
928.510042	0.167230
928.689327	0.166816
928.868593	0.165778
929.047841	0.165103
929.227071	0.164320
929.406283	0.163116
929.585476	0.162386
929.764652	0.162536
929.943809	0.160800
930.122948	0.160037
930.302068	0.159745
930.481171	0.159187
930.660255	0.158668
930.839321	0.158020
931.018369	0.157762
931.197398	0.156986
931.376409	0.156583
931.555402	0.156975
931.734377	0.156698
931.913334	0.156092
932.092272	0.156131
932.271192	0.156045
932.450094	0.155760
932.628978	0.155806
932.807844	0.155064
932.986691	0.154519
933.165520	0.154350
933.344331	0.153747
933.523123	0.152556
933.701898	0.151666
933.880654	0.150733
934.059392	0.149219
934.238111	0.148416
934.416813	0.147485
934.595496	0.147167
934.774161	0.146287
934.952808	0.146512
935.131437	0.146308
935.310047	0.145994
935.488639	0.145105
935.667213	0.145273
935.845769	0.144873
936.024306	0.145138
936.202825	0.143758
936.381326	0.143218
936.559809	0.142116
936.738274	0.142905
936.916720	0.141821
937.095148	0.141703
937.273558	0.141234
937.451950	0.140527
937.630323	0.139472
937.808678	0.139053
937.987015	0.139167
938.165334	0.138441
938.343635	0.137385
938.521917	0.137241
938.700181	0.136336
938.878427	0.136014
939.056655	0.135322
939.234864	0.134567
939.413055	0.134601
939.591228	0.132738
939.769383	0.131996
939.947519	0.130912
940.125638	0.131148
940.303738	0.130486
940.481820	0.130248
940.659883	0.129540
940.837929	0.128754
941.015956	0.127796
941.193965	0.127499
941.371955	0.127479
941.549928	0.126705
941.727882	0.125243
941.905818	0.124259
942.083736	0.122665
942.261636	0.122050
942.439517	0.121923
942.617380	0.121339
942.795225	0.120729
942.973052	0.120047
943.150860	0.119372
943.328651	0.118647
943.506423	0.117620
943.684176	0.117549
943.861912	0.117243
944.039629	0.117076
944.217328	0.116818
944.395009	0.116572
944.572672	0.115113
944.750317	0.114891
944.927943	0.114203
945.105551	0.114760
945.283141	0.114071
945.460712	0.113175
945.638265	0.112055
945.815801	0.111279
945.993317	0.110011
946.170816	0.109831
946.348297	0.109217
946.525759	0.107763
946.703203	0.107158
946.880629	0.105879
947.058036	0.106455
947.235425	0.105188
947.412797	0.104567
947.590149	0.105700
947.767484	0.105786
947.944800	0.104108
948.122099	0.103875
948.299379	0.103796
948.476640	0.103090
948.653884	0.099943
948.831109	0.100477
949.008316	0.100941
949.185505	0.098703
949.362676	0.097574
949.539828	0.097689
949.716962	0.097709
949.894078	0.097035
950.071176	0.097076
950.248256	0.097203
950.425317	0.095794
950.602360	0.092616
950.779385	0.092123
950.956391	0.091220
951.133380	0.091467
951.310350	0.091442
951.487302	0.090196
951.664235	0.088339
951.841151	0.086489
952.018048	0.086414
952.194927	0.087042
952.371788	0.086836
952.548631	0.087968
952.725455	0.086249
952.902261	0.085349
953.079049	0.085082
953.255819	0.084665
953.432570	0.085751
953.609303	0.084970
953.786018	0.084205
953.962715	0.084452
954.139394	0.082953
954.316054	0.083301
954.492696	0.081140
954.669320	0.080920
954.845926	0.080422
955.022513	0.081575
955.199083	0.081183
955.375634	0.081194
955.552166	0.079406
955.728681	0.079032
955.905177	0.078393
956.081655	0.080628
956.258115	0.078596
956.434557	0.078109
956.610980	0.074273
956.787385	0.074171
956.963772	0.073915
957.140141	0.073552
957.316492	0.073661
957.492824	0.071686
957.669138	0.069902
957.845434	0.070627
958.021712	0.070374
958.197971	0.073368
958.374212	0.073402
958.550435	0.071920
958.726640	0.072169
958.902826	0.071106
959.078995	0.072382
959.255145	0.072034
959.431277	0.071814
959.607390	0.073049
959.783486	0.072604
959.959563	0.071379
960.135622	0.071693
960.311662	0.071256
960.487685	0.070060
960.663689	0.068515
960.839675	0.069026
961.015643	0.069107
961.191593	0.068129
961.367524	0.066255
961.543437	0.067747
961.719332	0.067818
961.895209	0.067778
962.071067	0.066866
962.246907	0.068157
962.422730	0.067486
962.598533	0.066598
962.774319	0.066688
962.950086	0.067899
963.125835	0.066683
963.301566	0.065127
963.477279	0.063961
963.652973	0.065437
963.828650	0.066860
964.004308	0.068576
964.179947	0.069202
964.355569	0.069874
964.531172	0.068895
964.706757	0.068542
964.882324	0.071021
965.057873	0.072731
965.233403	0.073634
965.408916	0.073255
965.584410	0.071381
965.759885	0.069855
965.935343	0.069945
966.110782	0.069585
966.286203	0.067869
966.461606	0.067176
966.636991	0.066201
966.812357	0.064328
966.987705	0.063716
967.163035	0.064262
967.338347	0.065088
967.513641	0.064572
967.688916	0.064028
967.864173	0.067563
968.039412	0.067323
968.214632	0.068111
968.389835	0.067713
968.565019	0.067103
968.740185	0.065006
968.915333	0.066158
969.090462	0.065368
969.265573	0.066295
969.440667	0.065204
969.615741	0.065389
969.790798	0.063779
969.965836	0.064827
970.140856	0.063677
970.315858	0.065581
970.490842	0.065589
970.665808	0.067228
970.840755	0.067603
971.015684	0.066253
971.190595	0.065671
971.365487	0.066206
971.540362	0.067555
971.715218	0.068814
971.890056	0.067802
972.064875	0.067700
972.239677	0.066997
972.414460	0.065842
972.589225	0.063896
972.763972	0.064091
972.938700	0.062764
973.113411	0.061573
973.288103	0.060426
973.462777	0.059555
973.637432	0.059063
973.812070	0.059148
973.986689	0.058405
974.161290	0.061052
974.335873	0.058968
974.510437	0.059669
974.684984	0.060036
974.859512	0.062052
975.034022	0.062522
975.208513	0.062270
975.382987	0.061838
975.557442	0.062148
975.731879	0.060498
975.906298	0.061562
976.080698	0.062130
976.255080	0.060926
976.429445	0.059040
976.603790	0.059440
976.778118	0.061587
976.952427	0.061305
977.126719	0.062565
977.300992	0.064440
977.475246	0.065702
977.649483	0.066251
977.823701	0.066797
977.997901	0.067816
978.172083	0.068974
978.346247	0.068979
978.520392	0.068892
978.694519	0.069186
978.868628	0.068256
979.042719	0.067830
979.216791	0.066906
979.390845	0.066096
979.564882	0.064539
979.738899	0.064059
979.912899	0.061318
980.086880	0.061275
980.260843	0.060390
980.434788	0.059301
980.608715	0.060038
980.782623	0.060054
980.956514	0.060462
981.130386	0.061538
981.304240	0.060024
981.478075	0.061320
981.651892	0.062103
981.825692	0.061419
981.999472	0.062557
982.173235	0.062392
982.346980	0.062228
982.520706	0.062455
982.694414	0.063643
982.868104	0.063296
983.041775	0.061857
983.215428	0.061398
983.389064	0.060785
983.562680	0.061013
983.736279	0.060968
983.909860	0.059909
984.083422	0.059467
984.256966	0.057847
984.430491	0.058699
984.603999	0.059858
984.777488	0.059070
984.950959	0.060307
985.124412	0.060535
985.297847	0.059774
985.471263	0.062259
985.644661	0.062762
985.818041	0.062569
985.991403	0.061593
986.164747	0.061800
986.338072	0.062066
986.511379	0.060306
986.684668	0.058798
986.857938	0.058749
987.031191	0.058588
987.204425	0.057653
987.377641	0.057391
987.550839	0.059471
987.724018	0.057204
987.897179	0.057896
988.070322	0.059896
988.243447	0.062674
988.416554	0.063119
988.589642	0.061627
988.762712	0.062595
988.935764	0.064030
989.108798	0.064347
989.281813	0.065181
989.454811	0.065266
989.627790	0.065909
989.800751	0.063430
989.973693	0.063229
990.146617	0.063897
990.319524	0.064893
990.492412	0.066048
990.665281	0.065301
990.838133	0.065820
991.010966	0.065124
991.183781	0.065379
991.356578	0.065873
991.529356	0.066015
991.702117	0.067559
991.874859	0.067785
992.047583	0.067500
992.220288	0.067392
992.392976	0.067787
992.565645	0.066368
992.738296	0.066615
992.910929	0.067484
993.083543	0.066723
993.256139	0.066339
993.428718	0.064361
993.601277	0.063607
993.773819	0.064416
993.946342	0.064563
994.118848	0.066980
994.291335	0.065909
994.463803	0.066274
994.636254	0.067105
994.808686	0.065303
994.981100	0.065920
995.153496	0.064998
995.325874	0.064233
995.498233	0.065192
995.670574	0.065096
995.842897	0.065460
996.015202	0.065351
996.187488	0.063897
996.359757	0.064641
996.532007	0.064304
996.704239	0.063986
996.876452	0.063909
997.048648	0.062386
997.220825	0.062331
997.392984	0.060585
997.565124	0.060174
997.737247	0.061542
997.909351	0.060249
998.081437	0.060402
998.253505	0.060871
998.425554	0.061145
998.597586	0.061487
998.769599	0.060671
998.941594	0.062316
999.113571	0.062297
999.285529	0.063577
999.457469	0.065798
999.629391	0.066701
999.801295	0.067205
999.973181	0.067055
1000.145048	0.067463
1000.316897	0.067255
1000.488728	0.067777
1000.660541	0.066276
1000.832335	0.064266
1001.004111	0.062799
1001.175869	0.063838
1001.347609	0.063948
1001.519331	0.063623
1001.691034	0.063544
1001.862719	0.065109
1002.034386	0.064539
1002.206035	0.066807
1002.377665	0.068342
1002.549277	0.068898
1002.720871	0.066850
1002.892447	0.067382
1003.064004	0.067639
1003.235544	0.067428
1003.407065	0.066711
1003.578568	0.066825
1003.750052	0.064582
1003.921519	0.063137
1004.092967	0.064217
1004.264397	0.065630
1004.435809	0.063053
1004.607202	0.062695
1004.778577	0.061155
1004.949934	0.059801
1005.121273	0.060513
1005.292594	0.061542
1005.463896	0.061831
1005.635180	0.061689
1005.806446	0.060462
1005.977694	0.062623
1006.148923	0.064026
1006.320135	0.066233
1006.491328	0.067696
1006.662503	0.066991
1006.833659	0.067809
1007.004798	0.068388
1007.175918	0.066991
1007.347020	0.066523
1007.518103	0.066801
1007.689169	0.064590
1007.860216	0.065022
1008.031245	0.064787
1008.202256	0.065139
1008.373248	0.064871
1008.544223	0.063122
1008.715179	0.064473
1008.886117	0.065695
1009.057036	0.064385
1009.227938	0.065288
1009.398821	0.064839
1009.569686	0.063833
1009.740533	0.062131
1009.911361	0.063273
1010.082172	0.063960
1010.252964	0.063401
1010.423738	0.062309
1010.594493	0.064782
1010.765231	0.064127
1010.935950	0.063664
1011.106651	0.065630
1011.277334	0.066281
1011.447998	0.064005
1011.618645	0.063376
1011.789273	0.064716
1011.959882	0.064478
1012.130474	0.062124
1012.301048	0.062143
1012.471603	0.062719
1012.642140	0.061049
1012.812658	0.060908
1012.983159	0.061284
1013.153641	0.061796
1013.324105	0.060153
1013.494551	0.061955
1013.664979	0.064008
1013.835388	0.064510
1014.005779	0.064693
1014.176152	0.065946
1014.346507	0.066264
1014.516843	0.067159
1014.687162	0.067958
1014.857462	0.067546
1015.027744	0.067008
1015.198007	0.066148
1015.368252	0.065822
1015.538480	0.063768
1015.708689	0.062218
1015.878879	0.062378
1016.049052	0.063548
1016.219206	0.064363
1016.389342	0.065137
1016.559460	0.064355
1016.729559	0.062709
1016.899641	0.064261
1017.069704	0.065100
1017.239749	0.066126
1017.409775	0.065443
1017.579784	0.065646
1017.749774	0.064448
1017.919746	0.063688
1018.089700	0.064799
1018.259635	0.065626
1018.429553	0.065840
1018.599452	0.065917
1018.769333	0.065595
1018.939195	0.066061
1019.109040	0.067180
1019.278866	0.067533
1019.448674	0.068536
1019.618464	0.066472
1019.788235	0.066227
1019.957989	0.065277
1020.127724	0.065889
1020.297441	0.067302
1020.467139	0.066130
1020.636820	0.064481
1020.806482	0.065562
1020.976126	0.065644
1021.145752	0.067047
1021.315359	0.066798
1021.484948	0.068868
1021.654519	0.068622
1021.824072	0.067085
1021.993607	0.068497
1022.163123	0.067498
1022.332621	0.064872
1022.502101	0.064363
1022.671563	0.064349
1022.841007	0.062939
1023.010432	0.059607
1023.179839	0.059952
1023.349228	0.060654
1023.518598	0.060148
1023.687951	0.060857
1023.857285	0.063375
1024.026601	0.063169
1024.195899	0.061387
1024.365178	0.062616
1024.534439	0.062061
1024.703682	0.062669
1024.872907	0.061905
1025.042114	0.062085
1025.211302	0.060829
1025.380472	0.060167
1025.549624	0.060526
1025.718758	0.062011
1025.887873	0.062375
1026.056970	0.063087
1026.226049	0.062289
1026.395110	0.062397
1026.564153	0.063789
1026.733177	0.063725
1026.902183	0.063422
1027.071171	0.064838
1027.240141	0.066239
1027.409092	0.067324
1027.578026	0.068084
1027.746940	0.066368
1027.915837	0.066441
1028.084716	0.066005
1028.253576	0.065161
1028.422418	0.065557
1028.591242	0.064161
1028.760048	0.062268
1028.928835	0.061418
1029.097604	0.061866
1029.266355	0.062289
1029.435088	0.062403
1029.603803	0.061277
1029.772499	0.063183
1029.941177	0.061491
1030.109837	0.059704
1030.278478	0.059729
1030.447102	0.059400
1030.615707	0.059529
1030.784294	0.060570
1030.952863	0.061317
1031.121413	0.061073
1031.289945	0.060133
1031.458460	0.061796
1031.626955	0.062563
1031.795433	0.062508
1031.963892	0.063208
1032.132334	0.061881
1032.300756	0.061450
1032.469161	0.060218
1032.637548	0.060974
1032.805916	0.061268
1032.974266	0.059773
1033.142598	0.060066
1033.310911	0.061395
1033.479207	0.061440
1033.647484	0.061912
1033.815743	0.062491
1033.983983	0.063356
1034.152206	0.064248
1034.320410	0.063907
1034.488596	0.064360
1034.656764	0.064299
1034.824914	0.063766
1034.993045	0.064867
1035.161158	0.064420
1035.329253	0.064270
1035.497330	0.062930
1035.665388	0.062609
1035.833428	0.063486
1036.001450	0.063837
1036.169454	0.065127
1036.337440	0.064031
1036.505407	0.061532
1036.673356	0.063079
1036.841287	0.062328
1037.009200	0.064924
1037.177094	0.064261
1037.344970	0.063900
1037.512828	0.061507
1037.680668	0.060039
1037.848489	0.062098
1038.016293	0.063230
1038.184078	0.061459
1038.351845	0.060285
1038.519593	0.058757
1038.687324	0.058943
1038.855036	0.059834
1039.022730	0.061612
1039.190406	0.062876
1039.358063	0.061757
1039.525702	0.062067
1039.693323	0.063211
1039.860926	0.065028
1040.028511	0.064975
1040.196077	0.063899
1040.363625	0.061153
1040.531155	0.062660
1040.698667	0.062698
1040.866161	0.063979
1041.033636	0.064452
1041.201093	0.064792
1041.368532	0.063817
1041.535952	0.063685
1041.703355	0.065152
1041.870739	0.066735
1042.038105	0.066777
1042.205452	0.065456
1042.372782	0.063916
1042.540093	0.061455
1042.707386	0.060943
1042.874661	0.059961
1043.041918	0.059491
1043.209156	0.060043
1043.376376	0.058633
1043.543578	0.057621
1043.710762	0.058152
1043.877927	0.058462
1044.045074	0.059887
1044.212203	0.058662
1044.379314	0.061213
1044.546407	0.062345
1044.713481	0.063063
1044.880537	0.063469
1045.047575	0.063692
1045.214595	0.063839
1045.381596	0.064323
1045.548579	0.064300
1045.715544	0.066851
1045.882491	0.067299
1046.049420	0.066770
1046.216330	0.065528
1046.383222	0.065861
1046.550096	0.068119
1046.716951	0.068086
1046.883789	0.068371
1047.050608	0.067018
1047.217409	0.065700
1047.384192	0.066429
1047.550956	0.067259
1047.717703	0.068262
1047.884431	0.069373
1048.051140	0.068327
1048.217832	0.068564
1048.384505	0.068130
1048.551161	0.070447
1048.717798	0.069257
1048.884416	0.067381
1049.051017	0.065870
1049.217599	0.063745
1049.384163	0.063998
1049.550709	0.063915
1049.717237	0.061955
1049.883746	0.062196
1050.050237	0.061139
1050.216710	0.064016
1050.383165	0.063417
1050.549601	0.063164
1050.716019	0.062905
1050.882420	0.059837
1051.048801	0.058835
1051.215165	0.060049
1051.381510	0.058165
1051.547837	0.059876
1051.714146	0.057768
1051.880437	0.057026
1052.046709	0.057829
1052.212964	0.056641
1052.379200	0.058855
1052.545417	0.058271
1052.711617	0.059640
1052.877798	0.060154
1053.043961	0.058928
1053.210106	0.059850
1053.376233	0.062433
1053.542341	0.063204
1053.708432	0.064456
1053.874504	0.065504
1054.040557	0.066926
1054.206593	0.066130
1054.372610	0.066883
1054.538609	0.067652
1054.704590	0.067713
1054.870553	0.066794
1055.036497	0.065340
1055.202424	0.066087
1055.368331	0.065454
1055.534221	0.064148
1055.700093	0.062168
1055.865946	0.063504
1056.031781	0.064394
1056.197598	0.064647
1056.363397	0.063183
1056.529177	0.063731
1056.694939	0.063060
1056.860683	0.061119
1057.026409	0.061396
1057.192116	0.064400
1057.357806	0.063351
1057.523477	0.061789
1057.689130	0.061565
1057.854764	0.061237
1058.020381	0.061578
1058.185979	0.062331
1058.351559	0.064398
1058.517120	0.064631
1058.682664	0.063605
1058.848189	0.062742
1059.013696	0.062058
1059.179185	0.061461
1059.344656	0.062028
1059.510108	0.061606
1059.675542	0.061141
1059.840958	0.063023
1060.006356	0.062294
1060.171735	0.062811
1060.337096	0.063260
1060.502439	0.064637
1060.667764	0.065685
1060.833071	0.066897
1060.998359	0.067072
1061.163629	0.068979
1061.328881	0.066497
1061.494115	0.066809
1061.659330	0.067960
1061.824527	0.066432
1061.989706	0.065490
1062.154867	0.063024
1062.320010	0.062870
1062.485134	0.063691
1062.650240	0.061799
1062.815328	0.061403
1062.980398	0.061440
1063.145449	0.058603
1063.310482	0.060541
1063.475497	0.061031
1063.640494	0.061141
1063.805473	0.061546
1063.970433	0.062632
1064.135375	0.063146
1064.300299	0.064883
1064.465204	0.066511
1064.630092	0.068562
1064.794961	0.068479
1064.959812	0.067795
1065.124645	0.070608
1065.289459	0.068884
1065.454256	0.067703
1065.619034	0.067723
1065.783793	0.066816
1065.948535	0.064653
1066.113258	0.063151
1066.277964	0.063912
1066.442651	0.065713
1066.607319	0.064063
1066.771970	0.067400
1066.936602	0.066549
1067.101216	0.067572
1067.265812	0.067876
1067.430389	0.067505
1067.594949	0.066866
1067.759490	0.065091
1067.924013	0.063381
1068.088518	0.064175
1068.253004	0.061475
1068.417472	0.062038
1068.581922	0.061739
1068.746354	0.060928
1068.910768	0.062463
1069.075163	0.065290
1069.239540	0.066354
1069.403899	0.066528
1069.568240	0.065139
1069.732562	0.066084
1069.896866	0.066336
1070.061152	0.065894
1070.225420	0.066706
1070.389670	0.067095
1070.553901	0.065947
1070.718114	0.066747
1070.882309	0.066003
1071.046486	0.068489
1071.210644	0.067107
1071.374784	0.068372
1071.538906	0.068015
1071.703010	0.067937
1071.867096	0.068368
1072.031163	0.067875
1072.195212	0.066619
1072.359243	0.070148
1072.523256	0.069927
1072.687250	0.072593
1072.851226	0.072230
1073.015184	0.072342
1073.179124	0.072228
1073.343045	0.071924
1073.506949	0.071275
1073.670834	0.072151
1073.834701	0.069995
1073.998549	0.069376
1074.162380	0.068455
1074.326192	0.067259
1074.489986	0.066292
1074.653761	0.067625
1074.817519	0.067857
1074.981258	0.069032
1075.144979	0.068279
1075.308682	0.067567
1075.472367	0.067968
1075.636033	0.067289
1075.799681	0.066378
1075.963311	0.066194
1076.126923	0.066481
1076.290516	0.064874
1076.454092	0.061646
1076.617649	0.062217
1076.781187	0.061145
1076.944708	0.059545
1077.108210	0.059684
1077.271695	0.060372
1077.435160	0.061931
1077.598608	0.058373
1077.762038	0.060441
1077.925449	0.063093
1078.088842	0.062845
1078.252217	0.063741
1078.415573	0.066227
1078.578912	0.067433
1078.742232	0.067627
1078.905534	0.069820
1079.068817	0.072009
1079.232083	0.072615
1079.395330	0.073101
1079.558559	0.073777
1079.721770	0.071334
1079.884962	0.070404
1080.048136	0.069154
1080.211293	0.069957
1080.374430	0.067834
1080.537550	0.066848
1080.700651	0.064973
1080.863735	0.064497
1081.026800	0.062744
1081.189846	0.065393
1081.352875	0.066605
1081.515885	0.067324
1081.678877	0.066957
1081.841851	0.066824
1082.004807	0.067607
1082.167744	0.068448
1082.330663	0.069985
1082.493564	0.071656
1082.656447	0.073160
1082.819312	0.070498
1082.982158	0.069979
1083.144986	0.069830
1083.307796	0.072090
1083.470587	0.070388
1083.633361	0.069615
1083.796116	0.069839
1083.958853	0.068769
1084.121571	0.068426
1084.284272	0.067941
1084.446954	0.067784
1084.609618	0.067991
1084.772264	0.066299
1084.934892	0.067623
1085.097501	0.069154
1085.260092	0.068779
1085.422665	0.068900
1085.585220	0.067131
1085.747756	0.069790
1085.910274	0.069527
1086.072774	0.068096
1086.235256	0.067456
1086.397720	0.068871
1086.560165	0.067296
1086.722592	0.064803
1086.885001	0.064419
1087.047392	0.064950
1087.209764	0.063371
1087.372119	0.065252
1087.534455	0.069294
1087.696772	0.071018
1087.859072	0.071308
1088.021353	0.072627
1088.183616	0.076539
1088.345861	0.076283
1088.508088	0.078275
1088.670296	0.078833
1088.832486	0.077749
1088.994658	0.075472
1089.156812	0.072408
1089.318948	0.071499
1089.481065	0.071031
1089.643164	0.069568
1089.805245	0.071659
1089.967308	0.066972
1090.129352	0.067503
1090.291378	0.069582
1090.453386	0.069865
1090.615376	0.071314
1090.777347	0.069049
1090.939301	0.066812
1091.101236	0.066479
1091.263153	0.065368
1091.425051	0.067280
1091.586932	0.065961
1091.748794	0.062595
1091.910638	0.062347
1092.072463	0.062389
1092.234271	0.064152
1092.396060	0.064850
1092.557831	0.065161
1092.719584	0.065735
1092.881319	0.069254
1093.043035	0.069071
1093.204733	0.071042
1093.366413	0.070544
1093.528075	0.071671
1093.689718	0.074391
1093.851343	0.076534
1094.012950	0.075840
1094.174539	0.077531
1094.336110	0.075779
1094.497662	0.080052
1094.659196	0.079900
1094.820712	0.078060
1094.982210	0.079356
1095.143689	0.080514
1095.305151	0.078743
1095.466594	0.078995
1095.628018	0.078671
1095.789425	0.079068
1095.950813	0.075601
1096.112183	0.074128
1096.273535	0.074397
1096.434869	0.071116
1096.596184	0.065253
1096.757482	0.066140
1096.918761	0.068872
1097.080021	0.070054
1097.241264	0.071556
1097.402488	0.071459
1097.563694	0.070815
1097.724882	0.072212
1097.886052	0.074088
1098.047203	0.075876
1098.208336	0.076985
1098.369451	0.072128
1098.530548	0.069196
1098.691627	0.065632
1098.852687	0.063953
1099.013729	0.065907
1099.174753	0.067209
1099.335758	0.065703
1099.496746	0.068063
1099.657715	0.062950
1099.818666	0.064776
1099.979599	0.063134
1100.140513	0.062604
1100.301409	0.064602
1100.462287	0.063727
1100.623147	0.063294
1100.783989	0.067121
1100.944812	0.067869
1101.105617	0.073694
1101.266404	0.072580
1101.427173	0.073449
1101.587923	0.074937
1101.748656	0.072239
1101.909370	0.073134
1102.070066	0.073162
1102.230743	0.068386
1102.391403	0.063443
1102.552044	0.060625
1102.712667	0.062280
1102.873271	0.063592
1103.033858	0.066007
1103.194426	0.068838
1103.354976	0.067939
1103.515508	0.066648
1103.676021	0.070312
1103.836517	0.075235
1103.996994	0.076507
1104.157453	0.078164
1104.317893	0.076793
1104.478316	0.077076
1104.638720	0.075044
1104.799106	0.077907
1104.959474	0.078427
1105.119823	0.076242
1105.280155	0.076392
1105.440468	0.076061
1105.600763	0.075043
1105.761039	0.076143
1105.921298	0.072664
1106.081538	0.075011
1106.241760	0.071526
1106.401964	0.069783
1106.562149	0.067668
1106.722316	0.065912
1106.882465	0.064634
1107.042596	0.065236
1107.202709	0.065585
1107.362803	0.067146
1107.522879	0.067192
1107.682937	0.069012
1107.842977	0.072153
1108.002999	0.073385
1108.163002	0.073551
1108.322987	0.077943
1108.482954	0.076904
1108.642902	0.076444
1108.802833	0.071527
1108.962745	0.070088
1109.122639	0.070016
1109.282515	0.068705
1109.442372	0.071369
1109.602211	0.073087
1109.762032	0.071819
1109.921835	0.073692
1110.081620	0.074264
1110.241386	0.081136
1110.401134	0.081835
1110.560864	0.084676
1110.720576	0.082856
1110.880269	0.078800
1111.039945	0.078764
1111.199602	0.075748
1111.359240	0.070699
1111.518861	0.071921
1111.678463	0.067182
1111.838047	0.066717
1111.997613	0.064897
1112.157161	0.066862
1112.316690	0.071663
1112.476202	0.067576
1112.635695	0.070126
1112.795169	0.072827
1112.954626	0.070830
1113.114064	0.078645
1113.273484	0.080693
1113.432886	0.073285
1113.592270	0.073241
1113.751635	0.074664
1113.910983	0.073373
1114.070312	0.074160
1114.229622	0.076789
1114.388915	0.074819
1114.548189	0.070673
1114.707445	0.072706
1114.866683	0.075513
1115.025903	0.075170
1115.185104	0.071161
1115.344287	0.076456
1115.503452	0.074421
1115.662599	0.072318
1115.821727	0.074222
1115.980838	0.076452
1116.139930	0.073393
1116.299004	0.073405
1116.458059	0.075085
1116.617097	0.078412
1116.776116	0.077749
1116.935117	0.077618
1117.094099	0.078617
1117.253064	0.079211
1117.412010	0.076405
1117.570938	0.076866
1117.729848	0.080591
1117.888740	0.078929
1118.047613	0.075476
1118.206468	0.079287
1118.365305	0.078618
1118.524124	0.077454
1118.682924	0.079109
1118.841707	0.080317
1119.000471	0.083474
1119.159216	0.086482
1119.317944	0.085540
1119.476653	0.081302
1119.635344	0.075559
1119.794017	0.078466
1119.952672	0.076945
1120.111308	0.074710
1120.269927	0.076544
1120.428527	0.074540
1120.587108	0.073857
1120.745672	0.074616
1120.904217	0.078303
1121.062744	0.079114
1121.221253	0.078612
1121.379744	0.081186
1121.538216	0.082453
1121.696671	0.079941
1121.855107	0.078963
1122.013524	0.075645
1122.171924	0.075355
1122.330305	0.076523
1122.488668	0.074851
1122.647013	0.073440
1122.805340	0.071563
1122.963648	0.072658
1123.121938	0.073939
1123.280210	0.073712
1123.438464	0.074060
1123.596700	0.078284
1123.754917	0.076074
1123.913116	0.076288
1124.071297	0.076490
1124.229459	0.076577
1124.387604	0.077457
1124.545730	0.077087
1124.703838	0.076666
1124.861928	0.077152
1125.019999	0.075327
1125.178052	0.075266
1125.336088	0.080034
1125.494104	0.081069
1125.652103	0.083382
1125.810083	0.082160
1125.968045	0.082304
1126.125989	0.083357
1126.283915	0.086937
1126.441823	0.083217
1126.599712	0.086368
1126.757583	0.083325
1126.915436	0.083395
1127.073270	0.083323
1127.231087	0.084871
1127.388885	0.086667
1127.546665	0.082988
1127.704426	0.081994
1127.862170	0.087794
1128.019895	0.084365
1128.177602	0.082135
1128.335291	0.080874
1128.492961	0.076075
1128.650614	0.075086
1128.808248	0.073527
1128.965864	0.074318
1129.123461	0.074532
1129.281041	0.068448
1129.438602	0.072492
1129.596145	0.072101
1129.753670	0.070909
1129.911176	0.074462
1130.068665	0.069405
1130.226135	0.072347
1130.383587	0.074758
1130.541020	0.071072
1130.698436	0.073015
1130.855833	0.074851
1131.013212	0.077787
1131.170573	0.078290
1131.327915	0.080331
1131.485239	0.085708
1131.642545	0.084073
1131.799833	0.081431
1131.957103	0.084001
1132.114354	0.083731
1132.271588	0.078265
1132.428803	0.081138
1132.585999	0.084224
1132.743178	0.085744
1132.900338	0.085783
1133.057480	0.087061
1133.214604	0.091015
1133.371710	0.092596
1133.528797	0.092490
1133.685866	0.094264
1133.842917	0.090040
1133.999950	0.090798
1134.156964	0.084925
1134.313960	0.087691
1134.470938	0.081998
1134.627898	0.080333
1134.784840	0.078438
1134.941763	0.074978
1135.098668	0.075791
1135.255555	0.074775
1135.412424	0.071589
1135.569274	0.066122
1135.726107	0.064034
1135.882921	0.063357
1136.039716	0.059149
1136.196494	0.058062
1136.353253	0.060924
1136.509995	0.053288
1136.666717	0.052367
1136.823422	0.060649
1136.980109	0.066111
1137.136777	0.065955
1137.293427	0.065546
1137.450059	0.066006
1137.606672	0.065373
1137.763267	0.066044
1137.919844	0.078500
1138.076403	0.081128
1138.232944	0.076049
1138.389466	0.078380
1138.545971	0.077741
1138.702457	0.080032
1138.858924	0.083211
1139.015374	0.084504
1139.171805	0.088677
1139.328218	0.084791
1139.484613	0.088867
1139.640990	0.088551
1139.797348	0.095457
1139.953688	0.094707
1140.110010	0.096017
1140.266314	0.098209
1140.422600	0.094786
1140.578867	0.091514
1140.735116	0.093959
1140.891347	0.089344
1141.047559	0.077904
1141.203754	0.074695
1141.359930	0.073259
1141.516088	0.074094
1141.672228	0.073207
1141.828349	0.076835
1141.984452	0.078692
1142.140537	0.077384
1142.296604	0.078559
1142.452653	0.084722
1142.608683	0.076932
1142.764695	0.077914
1142.920689	0.075914
1143.076665	0.080749
1143.232622	0.077841
1143.388562	0.072597
1143.544483	0.071120
1143.700385	0.071911
1143.856270	0.075196
1144.012136	0.079628
1144.167985	0.083960
1144.323814	0.080683
1144.479626	0.076302
1144.635420	0.076497
1144.791195	0.083310
1144.946952	0.081315
1145.102691	0.077186
1145.258411	0.077228
1145.414113	0.076319
1145.569798	0.073549
1145.725463	0.071861
1145.881111	0.074202
1146.036741	0.075397
1146.192352	0.074510
1146.347945	0.077592
1146.503519	0.074931
1146.659076	0.074777
1146.814614	0.069418
1146.970134	0.070859
1147.125636	0.072001
1147.281120	0.072339
1147.436585	0.075612
1147.592032	0.072262
1147.747461	0.074375
1147.902872	0.076120
1148.058265	0.076777
1148.213639	0.083159
1148.368995	0.069957
1148.524333	0.077168
1148.679653	0.075832
1148.834954	0.076951
1148.990237	0.077939
1149.145502	0.074663
1149.300749	0.075993
1149.455977	0.070388
1149.611188	0.068640
1149.766380	0.077678
1149.921553	0.072785
1150.076709	0.070837
1150.231846	0.064894
1150.386966	0.054387
1150.542066	0.054738
1150.697149	0.060534
1150.852214	0.060841
1151.007260	0.067700
1151.162288	0.067966
1151.317298	0.068380
1151.472289	0.065915
1151.627263	0.069123
1151.782218	0.079490
1151.937155	0.080432
1152.092073	0.077850
1152.246974	0.079651
1152.401856	0.075441
1152.556720	0.075023
1152.711566	0.070401
1152.866393	0.067753
1153.021203	0.065788
1153.175994	0.057284
1153.330767	0.052866
1153.485521	0.049055
1153.640258	0.048234
1153.794976	0.051055
1153.949676	0.051191
1154.104358	0.056632
1154.259021	0.063681
1154.413667	0.061771
1154.568294	0.071257
1154.722903	0.076056
1154.877493	0.078177
1155.032066	0.076793
1155.186620	0.069931
1155.341156	0.071436
1155.495674	0.070992
1155.650173	0.069681
1155.804654	0.071717
1155.959118	0.072273
1156.113562	0.072536
1156.267989	0.073878
1156.422397	0.085257
1156.576788	0.096187
1156.731160	0.090191
1156.885513	0.101676
1157.039849	0.113412
1157.194166	0.113796
1157.348465	0.118857
1157.502746	0.118201
1157.657009	0.118964
1157.811253	0.112496
1157.965479	0.107309
1158.119687	0.114670
1158.273877	0.105065
1158.428048	0.092411
1158.582201	0.092440
1158.736337	0.087902
1158.890453	0.082904
1159.044552	0.072105
1159.198632	0.075106
1159.352694	0.073480
1159.506738	0.070129
1159.660764	0.072974
1159.814771	0.072482
1159.968761	0.074572
1160.122732	0.078806
1160.276685	0.075817
1160.430619	0.082552
1160.584535	0.084929
1160.738434	0.087978
1160.892313	0.099005
1161.046175	0.094015
1161.200019	0.088544
1161.353844	0.086124
1161.507651	0.086557
1161.661440	0.092407
1161.815210	0.098748
1161.968962	0.089870
1162.122697	0.090203
1162.276412	0.084031
1162.430110	0.081869
1162.583789	0.085048
1162.737451	0.082969
1162.891094	0.078863
1163.044718	0.081840
1163.198325	0.076815
1163.351913	0.080655
1163.505483	0.066771
1163.659035	0.058070
1163.812569	0.049985
1163.966084	0.051068
1164.119581	0.054420
1164.273060	0.047728
1164.426521	0.042453
1164.579964	0.047588
1164.733388	0.043293
1164.886794	0.046457
1165.040182	0.053289
1165.193551	0.058289
1165.346903	0.061336
1165.500236	0.067827
1165.653551	0.077662
1165.806848	0.084110
1165.960126	0.076282
1166.113386	0.074768
1166.266628	0.074150
1166.419852	0.069323
1166.573058	0.068396
1166.726245	0.064223
1166.879414	0.057976
1167.032565	0.055421
1167.185698	0.057033
1167.338812	0.069322
1167.491909	0.072597
1167.644987	0.077563
1167.798046	0.087173
1167.951088	0.097816
1168.104111	0.106342
1168.257117	0.095957
1168.410103	0.090372
1168.563072	0.072502
1168.716023	0.062971
1168.868955	0.069061
1169.021869	0.076714
1169.174765	0.063908
1169.327642	0.057060
1169.480501	0.048442
1169.633343	0.067342
1169.786165	0.069423
1169.938970	0.083772
1170.091757	0.089673
1170.244525	0.081809
1170.397275	0.067451
1170.550007	0.074173
1170.702720	0.073190
1170.855415	0.081235
1171.008092	0.078697
1171.160751	0.088271
1171.313392	0.094986
1171.466014	0.120947
1171.618619	0.163419
1171.771205	0.163419
1171.923772	0.163419
