sample name	sample
index	168
start time	 02-18-2021  10:19:12 AM


Wavelength (nm)	Absorbance
494.344910	0.109212
494.563924	0.109212
494.782919	0.109212
495.001897	0.095417
495.220856	0.071977
495.439797	0.032817
495.658719	0.014752
495.877624	0.023485
496.096510	0.000438
496.315378	-0.011881
496.534227	0.006268
496.753059	-0.004270
496.971872	0.017626
497.190667	0.110630
497.409444	0.136472
497.628203	0.144497
497.846943	0.146730
498.065665	0.151001
498.284369	0.151664
498.503055	0.151606
498.721723	0.151837
498.940372	0.152754
499.159003	0.152602
499.377616	0.153313
499.596210	0.152880
499.814787	0.152075
500.033345	0.151355
500.251885	0.152152
500.470406	0.152599
500.688910	0.153270
500.907395	0.151836
501.125862	0.151897
501.344311	0.152004
501.562742	0.153430
501.781154	0.154276
501.999548	0.153397
502.217924	0.154100
502.436282	0.153892
502.654621	0.153188
502.872942	0.153551
503.091245	0.154764
503.309530	0.154511
503.527797	0.153793
503.746045	0.155165
503.964275	0.156141
504.182487	0.156021
504.400681	0.156504
504.618856	0.156337
504.837013	0.156757
505.055152	0.156194
505.273273	0.156967
505.491376	0.157096
505.709460	0.155055
505.927526	0.154588
506.145574	0.153710
506.363604	0.153821
506.581615	0.153694
506.799608	0.154856
507.017583	0.155239
507.235540	0.154866
507.453478	0.154844
507.671399	0.155930
507.889301	0.157212
508.107185	0.157805
508.325050	0.157181
508.542898	0.157991
508.760727	0.157785
508.978538	0.157314
509.196330	0.157991
509.414105	0.157252
509.631861	0.156957
509.849599	0.157591
510.067319	0.158060
510.285021	0.158638
510.502704	0.158948
510.720369	0.158923
510.938016	0.159854
511.155645	0.159818
511.373255	0.160748
511.590848	0.161472
511.808422	0.161319
512.025977	0.161519
512.243515	0.162015
512.461034	0.161951
512.678536	0.161547
512.896018	0.162253
513.113483	0.162228
513.330930	0.162076
513.548358	0.160918
513.765768	0.160483
513.983160	0.159701
514.200533	0.160018
514.417889	0.160265
514.635226	0.160403
514.852545	0.159919
515.069845	0.159970
515.287128	0.160138
515.504392	0.161162
515.721638	0.162072
515.938866	0.162915
516.156075	0.163142
516.373267	0.163679
516.590440	0.163989
516.807594	0.164388
517.024731	0.164773
517.241850	0.165304
517.458950	0.165835
517.676032	0.165688
517.893095	0.165139
518.110141	0.164976
518.327168	0.165372
518.544177	0.165978
518.761168	0.164955
518.978141	0.164861
519.195095	0.165328
519.412031	0.165034
519.628949	0.164747
519.845849	0.165772
520.062731	0.165693
520.279594	0.165214
520.496439	0.165053
520.713266	0.166138
520.930074	0.166877
521.146865	0.166573
521.363637	0.166752
521.580391	0.167236
521.797127	0.167415
522.013844	0.167227
522.230543	0.167194
522.447224	0.166822
522.663887	0.167075
522.880532	0.167267
523.097158	0.167978
523.313766	0.168743
523.530356	0.168411
523.746928	0.168244
523.963481	0.169239
524.180017	0.169959
524.396534	0.170388
524.613032	0.170029
524.829513	0.169736
525.045975	0.170064
525.262420	0.169673
525.478845	0.170627
525.695253	0.170936
525.911643	0.170201
526.128014	0.170647
526.344367	0.171710
526.560702	0.172423
526.777018	0.173382
526.993316	0.172817
527.209597	0.173840
527.425858	0.174019
527.642102	0.174587
527.858328	0.175758
528.074535	0.175895
528.290724	0.175900
528.506894	0.175566
528.723047	0.175264
528.939181	0.176771
529.155297	0.176411
529.371395	0.176873
529.587475	0.177205
529.803536	0.177310
530.019579	0.177161
530.235604	0.176622
530.451611	0.177294
530.667600	0.177557
530.883570	0.177302
531.099522	0.178195
531.315456	0.177974
531.531372	0.177841
531.747269	0.177738
531.963148	0.178462
532.179009	0.179003
532.394852	0.179784
532.610676	0.180179
532.826482	0.180401
533.042271	0.179824
533.258040	0.180507
533.473792	0.180570
533.689525	0.180967
533.905240	0.181319
534.120937	0.181790
534.336616	0.181748
534.552277	0.182332
534.767919	0.182413
534.983543	0.183120
535.199149	0.183097
535.414736	0.183502
535.630306	0.183989
535.845857	0.184653
536.061390	0.184756
536.276904	0.185228
536.492401	0.185282
536.707879	0.185165
536.923339	0.185819
537.138781	0.186054
537.354204	0.186510
537.569610	0.186417
537.784997	0.185942
538.000366	0.186491
538.215716	0.186213
538.431049	0.186323
538.646363	0.187479
538.861659	0.187112
539.076937	0.187706
539.292196	0.187653
539.507438	0.187781
539.722661	0.188308
539.937866	0.188587
540.153052	0.188931
540.368221	0.189334
540.583371	0.188933
540.798503	0.188856
541.013617	0.188867
541.228712	0.189483
541.443789	0.190385
541.658848	0.190255
541.873889	0.190319
542.088912	0.190453
542.303916	0.190633
542.518902	0.191267
542.733870	0.192116
542.948820	0.192472
543.163752	0.192850
543.378665	0.193175
543.593560	0.193587
543.808437	0.194073
544.023295	0.194405
544.238136	0.194566
544.452958	0.194597
544.667762	0.194875
544.882548	0.194739
545.097315	0.195100
545.312064	0.195158
545.526795	0.195335
545.741508	0.195551
545.956203	0.195724
546.170879	0.195876
546.385537	0.196337
546.600177	0.196440
546.814799	0.197149
547.029402	0.197272
547.243988	0.197407
547.458555	0.197443
547.673103	0.197794
547.887634	0.198180
548.102146	0.198656
548.316640	0.198780
548.531116	0.198878
548.745574	0.198497
548.960013	0.198325
549.174435	0.198618
549.388838	0.199014
549.603222	0.199029
549.817589	0.199173
550.031937	0.198950
550.246267	0.198882
550.460579	0.199334
550.674873	0.200027
550.889148	0.200613
551.103405	0.200577
551.317644	0.200802
551.531865	0.200848
551.746068	0.200946
551.960252	0.201441
552.174418	0.202104
552.388566	0.202084
552.602696	0.202037
552.816807	0.202357
553.030900	0.202480
553.244975	0.202374
553.459032	0.202428
553.673070	0.202768
553.887091	0.202598
554.101093	0.202595
554.315077	0.203050
554.529042	0.203118
554.742990	0.202519
554.956919	0.202936
555.170830	0.203697
555.384722	0.203721
555.598597	0.203765
555.812453	0.204597
556.026291	0.204507
556.240111	0.204106
556.453913	0.204575
556.667696	0.205126
556.881461	0.204992
557.095208	0.204799
557.308937	0.205523
557.522647	0.205940
557.736339	0.205913
557.950013	0.206123
558.163669	0.206388
558.377307	0.206441
558.590926	0.206737
558.804527	0.207481
559.018110	0.207584
559.231675	0.207667
559.445221	0.208056
559.658749	0.208065
559.872259	0.208414
560.085751	0.208938
560.299225	0.208961
560.512680	0.209190
560.726117	0.209277
560.939536	0.209865
561.152937	0.210151
561.366319	0.210225
561.579683	0.210629
561.793029	0.210718
562.006357	0.210888
562.219667	0.211008
562.432958	0.211483
562.646231	0.211665
562.859486	0.212031
563.072723	0.211920
563.285941	0.211597
563.499141	0.211339
563.712323	0.211617
563.925487	0.211870
564.138632	0.212044
564.351760	0.211817
564.564869	0.211707
564.777960	0.211610
564.991032	0.211701
565.204087	0.211955
565.417123	0.212484
565.630141	0.212739
565.843140	0.212691
566.056122	0.212976
566.269085	0.212870
566.482030	0.213109
566.694957	0.213516
566.907866	0.214079
567.120756	0.214648
567.333628	0.214835
567.546482	0.214955
567.759318	0.214908
567.972135	0.215651
568.184935	0.216024
568.397716	0.215944
568.610478	0.215678
568.823223	0.215799
569.035949	0.216137
569.248657	0.215847
569.461347	0.215994
569.674019	0.216379
569.886672	0.216232
570.099308	0.216477
570.311925	0.217150
570.524523	0.217755
570.737104	0.217846
570.949666	0.217720
571.162210	0.218388
571.374736	0.218637
571.587244	0.218711
571.799733	0.219080
572.012205	0.219401
572.224658	0.219248
572.437092	0.219086
572.649509	0.219167
572.861907	0.219503
573.074287	0.219516
573.286649	0.219619
573.498993	0.220162
573.711318	0.219447
573.923625	0.219588
574.135914	0.220150
574.348185	0.220444
574.560438	0.220738
574.772672	0.220493
574.984888	0.221033
575.197086	0.221058
575.409266	0.221176
575.621427	0.221971
575.833570	0.221860
576.045695	0.222214
576.257802	0.222196
576.469890	0.222229
576.681961	0.222940
576.894013	0.223039
577.106046	0.223260
577.318062	0.223115
577.530059	0.223119
577.742039	0.223781
577.954000	0.223612
578.165942	0.223672
578.377867	0.224160
578.589773	0.223932
578.801661	0.223676
579.013531	0.224007
579.225382	0.224552
579.437216	0.224890
579.649031	0.224720
579.860828	0.224515
580.072606	0.224679
580.284367	0.224494
580.496109	0.224495
580.707833	0.225024
580.919539	0.225172
581.131227	0.225121
581.342896	0.225063
581.554547	0.225264
581.766180	0.225908
581.977795	0.226177
582.189391	0.226219
582.400969	0.226768
582.612529	0.226684
582.824071	0.226694
583.035595	0.227248
583.247100	0.227494
583.458587	0.227498
583.670056	0.227341
583.881506	0.227807
584.092939	0.228166
584.304353	0.228430
584.515749	0.228589
584.727127	0.228719
584.938486	0.228421
585.149828	0.228391
585.361151	0.228987
585.572456	0.229624
585.783742	0.229773
585.995011	0.230078
586.206261	0.229974
586.417493	0.230161
586.628706	0.230571
586.839902	0.230852
587.051079	0.230676
587.262238	0.230480
587.473379	0.229860
587.684502	0.229591
587.895606	0.229580
588.106692	0.229803
588.317760	0.229740
588.528810	0.229794
588.739841	0.229992
588.950855	0.230869
589.161850	0.230992
589.372827	0.231600
589.583785	0.231564
589.794726	0.231829
590.005648	0.232031
590.216552	0.232902
590.427437	0.233207
590.638305	0.233735
590.849154	0.233790
591.059985	0.234204
591.270798	0.234738
591.481592	0.235522
591.692369	0.235677
591.903127	0.235794
592.113867	0.235712
592.324588	0.235814
592.535292	0.235571
592.745977	0.235960
592.956644	0.236387
593.167293	0.236096
593.377923	0.236070
593.588536	0.235961
593.799130	0.236197
594.009706	0.236324
594.220263	0.236576
594.430803	0.236669
594.641324	0.236586
594.851827	0.236350
595.062312	0.236759
595.272778	0.236928
595.483227	0.237186
595.693657	0.237062
595.904069	0.237008
596.114462	0.236948
596.324838	0.237299
596.535195	0.237583
596.745534	0.237780
596.955855	0.237972
597.166157	0.238071
597.376441	0.238638
597.586707	0.238918
597.796955	0.239182
598.007185	0.239502
598.217396	0.239575
598.427589	0.239644
598.637764	0.239617
598.847921	0.239540
599.058060	0.239519
599.268180	0.239549
599.478282	0.239733
599.688366	0.239963
599.898431	0.239863
600.108479	0.239757
600.318508	0.239681
600.528519	0.239909
600.738511	0.240336
600.948486	0.240568
601.158442	0.240779
601.368380	0.240655
601.578300	0.240737
601.788202	0.240822
601.998085	0.241411
602.207950	0.241561
602.417797	0.241779
602.627626	0.242126
602.837436	0.242167
603.047228	0.242153
603.257002	0.242876
603.466758	0.242886
603.676496	0.243044
603.886215	0.243008
604.095916	0.243140
604.305599	0.243149
604.515264	0.242469
604.724910	0.242910
604.934538	0.242987
605.144148	0.242650
605.353740	0.242724
605.563314	0.243127
605.772869	0.243212
605.982406	0.243390
606.191925	0.243841
606.401425	0.244350
606.610908	0.244636
606.820372	0.245103
607.029818	0.245287
607.239246	0.245697
607.448655	0.245500
607.658047	0.245761
607.867420	0.246255
608.076775	0.246620
608.286111	0.246675
608.495430	0.246727
608.704730	0.246524
608.914012	0.246769
609.123275	0.246635
609.332521	0.246805
609.541748	0.246936
609.750957	0.247017
609.960148	0.246915
610.169321	0.247213
610.378475	0.247100
610.587611	0.247281
610.796729	0.247319
611.005829	0.247659
611.214910	0.247997
611.423974	0.248128
611.633019	0.248185
611.842045	0.248218
612.051054	0.248351
612.260044	0.248668
612.469017	0.248737
612.677970	0.249432
612.886906	0.249592
613.095824	0.249704
613.304723	0.249965
613.513604	0.250044
613.722467	0.250102
613.931311	0.250311
614.140138	0.250430
614.348946	0.250784
614.557736	0.250463
614.766507	0.250589
614.975261	0.250936
615.183996	0.250852
615.392713	0.250981
615.601412	0.251235
615.810092	0.251340
616.018754	0.251386
616.227399	0.251411
616.436024	0.251601
616.644632	0.251640
616.853222	0.251836
617.061793	0.251920
617.270346	0.251921
617.478880	0.252037
617.687397	0.251808
617.895895	0.252007
618.104375	0.251966
618.312837	0.252009
618.521281	0.252171
618.729706	0.252239
618.938113	0.252475
619.146502	0.253043
619.354873	0.253124
619.563226	0.253441
619.771560	0.253723
619.979876	0.254000
620.188174	0.254243
620.396453	0.254145
620.604715	0.253937
620.812958	0.253972
621.021183	0.253840
621.229390	0.254120
621.437578	0.254356
621.645748	0.254445
621.853900	0.254642
622.062034	0.254977
622.270150	0.255383
622.478247	0.255706
622.686326	0.255955
622.894387	0.256279
623.102430	0.256171
623.310454	0.256175
623.518461	0.256223
623.726449	0.256185
623.934418	0.256435
624.142370	0.256428
624.350303	0.256522
624.558218	0.256490
624.766115	0.256515
624.973994	0.256729
625.181855	0.256855
625.389697	0.257134
625.597521	0.257425
625.805327	0.257311
626.013114	0.257643
626.220883	0.257989
626.428634	0.258073
626.636367	0.258156
626.844082	0.258479
627.051778	0.258795
627.259457	0.258773
627.467117	0.258909
627.674758	0.259029
627.882382	0.258964
628.089987	0.258903
628.297574	0.259252
628.505143	0.259309
628.712694	0.259447
628.920226	0.259212
629.127740	0.259472
629.335236	0.259576
629.542714	0.259750
629.750174	0.259837
629.957615	0.259875
630.165038	0.259935
630.372443	0.260205
630.579829	0.260229
630.787198	0.260764
630.994548	0.260808
631.201880	0.260874
631.409194	0.261054
631.616489	0.261383
631.823766	0.261599
632.031025	0.261909
632.238266	0.261934
632.445489	0.262034
632.652693	0.261951
632.859879	0.262110
633.067047	0.262557
633.274197	0.262773
633.481329	0.262888
633.688442	0.263093
633.895537	0.263183
634.102614	0.263330
634.309672	0.263259
634.516713	0.263606
634.723735	0.263585
634.930739	0.263721
635.137724	0.263723
635.344692	0.263549
635.551641	0.263635
635.758572	0.263734
635.965485	0.263962
636.172379	0.264364
636.379256	0.264569
636.586114	0.264557
636.792954	0.264390
636.999775	0.264245
637.206579	0.264690
637.413364	0.265104
637.620131	0.265101
637.826880	0.265164
638.033610	0.265441
638.240323	0.265529
638.447017	0.265971
638.653692	0.266345
638.860350	0.266782
639.066990	0.267190
639.273611	0.267099
639.480214	0.267373
639.686798	0.267484
639.893365	0.267561
640.099913	0.267842
640.306443	0.268011
640.512955	0.268116
640.719449	0.267986
640.925924	0.267828
641.132381	0.268174
641.338820	0.268294
641.545241	0.268497
641.751644	0.268872
641.958028	0.268944
642.164394	0.269117
642.370742	0.269345
642.577071	0.269647
642.783383	0.269880
642.989676	0.269932
643.195951	0.270073
643.402207	0.270129
643.608446	0.270156
643.814666	0.270203
644.020868	0.270336
644.227052	0.270134
644.433218	0.270257
644.639365	0.270587
644.845494	0.270644
645.051605	0.270934
645.257698	0.271325
645.463772	0.271545
645.669828	0.271721
645.875866	0.271853
646.081886	0.272183
646.287888	0.272516
646.493871	0.272755
646.699836	0.273001
646.905783	0.273310
647.111712	0.273342
647.317622	0.273414
647.523514	0.273358
647.729388	0.273494
647.935244	0.273927
648.141082	0.273816
648.346901	0.273947
648.552702	0.274224
648.758485	0.274125
648.964250	0.274257
649.169996	0.274239
649.375724	0.274610
649.581434	0.274837
649.787126	0.274639
649.992800	0.275321
650.198455	0.275419
650.404092	0.275395
650.609711	0.275494
650.815311	0.275604
651.020894	0.275886
651.226458	0.276092
651.432004	0.276267
651.637532	0.276586
651.843041	0.276611
652.048532	0.276473
652.254006	0.276437
652.459460	0.276896
652.664897	0.277219
652.870315	0.277552
653.075716	0.277666
653.281097	0.277722
653.486461	0.278053
653.691807	0.278098
653.897134	0.278452
654.102443	0.279002
654.307734	0.278868
654.513006	0.279281
654.718261	0.279216
654.923497	0.279204
655.128715	0.279515
655.333915	0.279696
655.539096	0.279777
655.744259	0.280165
655.949404	0.280405
656.154531	0.280454
656.359640	0.280206
656.564730	0.280196
656.769802	0.280464
656.974856	0.280441
657.179892	0.280737
657.384909	0.280920
657.589908	0.280818
657.794889	0.280973
657.999852	0.281368
658.204797	0.281572
658.409723	0.281947
658.614631	0.282223
658.819521	0.282709
659.024393	0.282404
659.229246	0.282846
659.434081	0.282989
659.638898	0.283141
659.843697	0.283366
660.048478	0.283816
660.253240	0.283921
660.457984	0.284271
660.662710	0.284335
660.867417	0.284752
661.072107	0.284906
661.276778	0.285261
661.481431	0.285399
661.686066	0.285605
661.890682	0.285996
662.095281	0.286014
662.299861	0.286061
662.504422	0.286407
662.708966	0.286584
662.913491	0.286842
663.117999	0.287047
663.322488	0.287374
663.526958	0.287574
663.731411	0.287352
663.935845	0.287732
664.140261	0.287944
664.344659	0.287949
664.549038	0.288044
664.753400	0.287981
664.957743	0.288251
665.162068	0.288091
665.366375	0.288445
665.570663	0.288698
665.774933	0.289103
665.979185	0.289456
666.183419	0.289913
666.387635	0.289895
666.591832	0.290070
666.796011	0.290259
667.000172	0.290420
667.204315	0.290575
667.408439	0.290760
667.612545	0.290898
667.816634	0.290823
668.020703	0.290978
668.224755	0.291406
668.428788	0.291804
668.632803	0.291983
668.836800	0.292323
669.040779	0.292338
669.244739	0.292527
669.448681	0.292690
669.652605	0.292921
669.856511	0.292702
670.060399	0.293020
670.264268	0.293019
670.468119	0.293019
670.671952	0.293295
670.875767	0.293511
671.079563	0.293826
671.283341	0.294122
671.487101	0.294633
671.690843	0.295010
671.894567	0.295118
672.098272	0.295262
672.301959	0.295570
672.505628	0.295760
672.709278	0.296017
672.912911	0.296207
673.116525	0.296114
673.320121	0.296030
673.523699	0.296562
673.727258	0.296771
673.930799	0.297272
674.134322	0.297399
674.337827	0.297481
674.541314	0.297578
674.744782	0.297894
674.948232	0.298476
675.151664	0.298981
675.355078	0.299043
675.558474	0.299246
675.761851	0.299083
675.965210	0.299264
676.168551	0.299350
676.371873	0.299631
676.575178	0.299725
676.778464	0.299592
676.981732	0.299505
677.184981	0.299347
677.388213	0.299460
677.591426	0.299934
677.794621	0.300334
677.997798	0.300631
678.200956	0.300802
678.404097	0.301049
678.607219	0.301343
678.810323	0.301664
679.013408	0.302070
679.216476	0.302401
679.419525	0.302637
679.622556	0.302756
679.825569	0.302913
680.028563	0.303104
680.231540	0.303371
680.434498	0.303700
680.637438	0.303922
680.840359	0.304049
681.043263	0.304254
681.246148	0.304261
681.449015	0.304160
681.651864	0.304380
681.854694	0.304483
682.057506	0.304337
682.260301	0.304470
682.463076	0.304394
682.665834	0.304691
682.868573	0.305021
683.071295	0.305351
683.273998	0.305873
683.476682	0.306189
683.679349	0.306519
683.881997	0.306878
684.084627	0.306956
684.287239	0.307186
684.489833	0.307086
684.692408	0.307065
684.894965	0.307005
685.097504	0.307192
685.300025	0.307429
685.502527	0.307480
685.705012	0.307506
685.907478	0.307742
686.109925	0.307926
686.312355	0.308211
686.514766	0.308397
686.717159	0.308834
686.919534	0.308817
687.121891	0.308890
687.324230	0.309093
687.526550	0.309362
687.728852	0.309386
687.931136	0.309683
688.133401	0.309879
688.335649	0.309856
688.537878	0.309815
688.740089	0.310126
688.942281	0.310457
689.144456	0.310521
689.346612	0.310597
689.548750	0.310920
689.750870	0.311046
689.952971	0.311199
690.155055	0.311393
690.357120	0.311760
690.559167	0.311816
690.761195	0.311875
690.963206	0.312172
691.165198	0.312464
691.367172	0.312666
691.569128	0.312678
691.771065	0.312889
691.972984	0.313139
692.174885	0.313306
692.376768	0.313470
692.578633	0.313521
692.780479	0.313741
692.982308	0.313831
693.184118	0.314135
693.385909	0.314360
693.587683	0.314471
693.789438	0.314607
693.991175	0.314512
694.192894	0.314801
694.394595	0.315067
694.596277	0.315025
694.797941	0.315041
694.999587	0.315032
695.201215	0.314912
695.402824	0.315130
695.604416	0.315314
695.805989	0.315442
696.007543	0.315393
696.209080	0.315285
696.410598	0.315508
696.612099	0.315743
696.813580	0.315733
697.015044	0.316099
697.216490	0.316221
697.417917	0.316457
697.619326	0.316645
697.820717	0.316749
698.022089	0.316983
698.223444	0.317160
698.424780	0.317524
698.626098	0.317740
698.827397	0.317784
699.028679	0.318020
699.229942	0.318048
699.431187	0.318126
699.632414	0.318403
699.833622	0.318545
700.034813	0.318654
700.235985	0.318578
700.437139	0.318719
700.638274	0.318957
700.839392	0.319124
701.040491	0.319570
701.241572	0.319783
701.442635	0.319659
701.643679	0.319934
701.844706	0.320210
702.045714	0.320533
702.246704	0.320676
702.447675	0.320817
702.648629	0.320689
702.849564	0.320526
703.050481	0.320773
703.251380	0.321099
703.452260	0.321198
703.653122	0.321165
703.853966	0.320985
704.054792	0.320950
704.255600	0.320684
704.456389	0.320836
704.657160	0.320731
704.857913	0.320672
705.058648	0.320481
705.259365	0.320388
705.460063	0.320149
705.660743	0.319947
705.861405	0.320007
706.062048	0.320300
706.262674	0.320403
706.463281	0.320718
706.663870	0.320635
706.864441	0.320786
707.064993	0.320722
707.265527	0.321100
707.466043	0.321524
707.666541	0.321440
707.867021	0.321651
708.067482	0.321503
708.267925	0.321229
708.468350	0.321313
708.668757	0.321244
708.869145	0.321325
709.069516	0.321198
709.269868	0.320971
709.470201	0.321172
709.670517	0.321123
709.870814	0.321159
710.071093	0.321517
710.271354	0.321822
710.471597	0.321927
710.671821	0.322133
710.872028	0.322154
711.072216	0.322436
711.272385	0.322598
711.472537	0.322327
711.672670	0.322376
711.872785	0.322227
712.072882	0.322072
712.272961	0.322048
712.473021	0.322096
712.673063	0.322391
712.873087	0.322360
713.073093	0.322172
713.273081	0.322306
713.473050	0.322306
713.673001	0.322324
713.872934	0.322320
714.072849	0.322454
714.272745	0.322242
714.472623	0.322033
714.672483	0.321983
714.872325	0.322076
715.072148	0.322074
715.271954	0.322051
715.471741	0.322384
715.671509	0.322169
715.871260	0.321996
716.070992	0.322103
716.270707	0.321791
716.470403	0.321936
716.670080	0.321729
716.869740	0.321775
717.069381	0.322082
717.269004	0.321736
717.468609	0.322021
717.668195	0.322188
717.867764	0.321992
718.067314	0.322231
718.266846	0.322029
718.466360	0.322101
718.665855	0.322359
718.865332	0.322133
719.064791	0.321969
719.264232	0.321636
719.463655	0.321399
719.663059	0.321324
719.862445	0.321054
720.061813	0.321147
720.261163	0.320891
720.460494	0.320873
720.659807	0.320485
720.859102	0.320605
721.058379	0.320618
721.257638	0.320902
721.456878	0.320818
721.656100	0.321056
721.855304	0.321002
722.054490	0.321077
722.253657	0.320887
722.452806	0.321126
722.651937	0.320931
722.851050	0.320686
723.050145	0.320419
723.249221	0.320531
723.448279	0.320470
723.647319	0.320088
723.846340	0.319962
724.045344	0.319709
724.244329	0.319460
724.443296	0.319449
724.642245	0.319727
724.841175	0.319636
725.040088	0.319629
725.238982	0.319448
725.437857	0.319516
725.636715	0.319465
725.835554	0.319570
726.034376	0.319557
726.233179	0.319408
726.431963	0.319121
726.630730	0.319235
726.829478	0.319075
727.028208	0.319198
727.226920	0.319105
727.425614	0.319102
727.624289	0.318944
727.822946	0.318962
728.021585	0.319197
728.220206	0.319112
728.418808	0.318724
728.617392	0.318534
728.815958	0.318489
729.014506	0.318329
729.213036	0.318287
729.411547	0.318118
729.610040	0.317804
729.808515	0.317454
730.006972	0.317393
730.205410	0.317320
730.403831	0.317165
730.602233	0.316932
730.800616	0.316834
730.998982	0.316721
731.197329	0.316579
731.395658	0.316476
731.593969	0.316188
731.792262	0.316222
731.990536	0.316162
732.188793	0.316197
732.387031	0.315948
732.585250	0.316075
732.783452	0.315751
732.981635	0.315571
733.179800	0.315225
733.377947	0.315137
733.576076	0.314848
733.774186	0.314579
733.972278	0.314302
734.170352	0.314254
734.368408	0.313923
734.566446	0.313580
734.764465	0.313486
734.962466	0.313611
735.160449	0.313444
735.358413	0.313474
735.556360	0.313398
735.754288	0.313181
735.952198	0.312867
736.150090	0.312918
736.347963	0.312951
736.545818	0.312905
736.743655	0.312703
736.941474	0.312456
737.139275	0.312357
737.337057	0.312299
737.534821	0.312252
737.732567	0.312014
737.930295	0.311563
738.128005	0.311490
738.325696	0.311139
738.523369	0.311168
738.721024	0.311103
738.918660	0.310789
739.116279	0.310489
739.313879	0.310391
739.511461	0.310578
739.709024	0.310626
739.906570	0.310671
740.104097	0.310501
740.301606	0.310374
740.499097	0.310159
740.696569	0.309935
740.894024	0.309986
741.091460	0.309938
741.288878	0.309287
741.486277	0.308897
741.683659	0.308571
741.881022	0.308590
742.078367	0.308298
742.275694	0.308106
742.473002	0.307976
742.670293	0.307531
742.867565	0.307481
743.064819	0.307451
743.262054	0.307465
743.459272	0.307617
743.656471	0.307233
743.853652	0.307083
744.050815	0.307148
744.247959	0.307033
744.445085	0.306896
744.642194	0.306401
744.839283	0.306035
745.036355	0.305778
745.233408	0.305414
745.430444	0.305361
745.627461	0.305359
745.824459	0.305266
746.021440	0.304850
746.218402	0.304674
746.415346	0.304581
746.612272	0.304719
746.809180	0.304270
747.006069	0.304098
747.202940	0.304218
747.399793	0.303854
747.596628	0.303316
747.793444	0.303298
747.990243	0.303269
748.187023	0.303143
748.383784	0.303002
748.580528	0.302825
748.777253	0.302514
748.973960	0.302334
749.170649	0.302021
749.367320	0.302110
749.563973	0.301945
749.760607	0.301856
749.957223	0.301226
750.153821	0.300845
750.350400	0.300988
750.546962	0.300839
750.743505	0.300376
750.940030	0.300319
751.136536	0.300051
751.333025	0.299997
751.529495	0.299394
751.725947	0.299673
751.922381	0.299676
752.118796	0.299384
752.315194	0.299282
752.511573	0.299238
752.707934	0.299094
752.904276	0.299000
753.100601	0.298919
753.296907	0.298868
753.493195	0.298899
753.689465	0.299013
753.885716	0.298935
754.081949	0.299010
754.278164	0.298887
754.474361	0.298805
754.670540	0.298499
754.866700	0.297992
755.062843	0.297889
755.258967	0.297544
755.455072	0.297339
755.651160	0.297204
755.847229	0.296869
756.043280	0.296597
756.239313	0.296484
756.435328	0.296489
756.631324	0.296571
756.827302	0.296524
757.023262	0.296343
757.219204	0.295988
757.415127	0.295767
757.611033	0.295496
757.806920	0.295429
758.002788	0.295084
758.198639	0.294967
758.394471	0.294818
758.590286	0.294673
758.786081	0.294332
758.981859	0.294284
759.177619	0.293946
759.373360	0.293882
759.569083	0.293492
759.764788	0.293635
759.960474	0.293276
760.156143	0.292930
760.351793	0.292756
760.547425	0.292653
760.743038	0.292315
760.938634	0.292359
761.134211	0.291845
761.329770	0.291646
761.525311	0.291249
761.720833	0.291323
761.916338	0.291159
762.111824	0.291160
762.307292	0.291177
762.502741	0.291245
762.698173	0.291229
762.893586	0.291362
763.088981	0.291446
763.284358	0.291514
763.479716	0.291336
763.675057	0.291435
763.870379	0.291387
764.065683	0.291263
764.260968	0.291143
764.456236	0.291120
764.651485	0.291340
764.846716	0.291345
765.041929	0.290998
765.237123	0.290978
765.432299	0.290925
765.627457	0.290529
765.822597	0.290575
766.017719	0.290312
766.212822	0.290080
766.407907	0.289683
766.602974	0.289616
766.798023	0.289766
766.993054	0.289605
767.188066	0.289564
767.383060	0.289684
767.578036	0.289384
767.772993	0.289435
767.967933	0.289491
768.162854	0.289425
768.357757	0.289210
768.552642	0.289207
768.747508	0.288855
768.942356	0.288647
769.137186	0.288790
769.331998	0.288712
769.526792	0.288797
769.721567	0.288432
769.916324	0.288350
770.111063	0.288324
770.305784	0.287735
770.500486	0.287785
770.695171	0.287538
770.889837	0.287211
771.084484	0.287052
771.279114	0.287053
771.473725	0.287209
771.668318	0.287132
771.862893	0.287020
772.057450	0.287227
772.251988	0.287208
772.446509	0.287457
772.641011	0.287494
772.835494	0.287701
773.029960	0.287396
773.224407	0.287274
773.418836	0.287287
773.613247	0.287248
773.807640	0.287340
774.002014	0.287337
774.196370	0.286924
774.390708	0.286561
774.585028	0.286367
774.779330	0.285987
774.973613	0.286211
775.167878	0.286196
775.362125	0.286070
775.556354	0.285777
775.750564	0.285578
775.944756	0.285658
776.138930	0.285880
776.333086	0.286037
776.527223	0.286183
776.721343	0.285845
776.915444	0.285811
777.109526	0.285866
777.303591	0.286062
777.497637	0.286164
777.691666	0.286474
777.885676	0.286549
778.079667	0.286271
778.273641	0.286484
778.467596	0.286544
778.661533	0.286361
778.855452	0.286229
779.049352	0.286086
779.243235	0.285996
779.437099	0.285735
779.630945	0.285405
779.824773	0.285280
780.018582	0.285012
780.212373	0.284850
780.406146	0.284935
780.599901	0.284996
780.793638	0.285235
780.987356	0.285431
781.181056	0.285547
781.374738	0.285833
781.568402	0.286274
781.762047	0.286258
781.955674	0.286298
782.149283	0.286300
782.342874	0.286215
782.536447	0.285952
782.730001	0.285922
782.923537	0.285908
783.117055	0.285767
783.310555	0.285463
783.504036	0.285634
783.697499	0.285585
783.890944	0.285573
784.084371	0.285695
784.277780	0.285810
784.471170	0.285908
784.664542	0.285770
784.857896	0.285936
785.051231	0.285746
785.244549	0.285874
785.437848	0.286194
785.631129	0.286344
785.824392	0.286346
786.017636	0.286326
786.210863	0.286372
786.404071	0.286517
786.597260	0.286435
786.790432	0.286779
786.983585	0.286710
787.176721	0.286578
787.369838	0.286764
787.562936	0.286667
787.756017	0.286991
787.949079	0.286872
788.142123	0.287209
788.335149	0.287465
788.528156	0.287677
788.721146	0.287650
788.914117	0.287768
789.107070	0.287523
789.300005	0.287879
789.492921	0.287744
789.685819	0.287914
789.878699	0.287696
790.071561	0.287662
790.264405	0.287593
790.457230	0.287686
790.650037	0.287711
790.842826	0.287907
791.035597	0.287878
791.228349	0.287897
791.421084	0.287938
791.613800	0.287959
791.806497	0.287931
791.999177	0.287756
792.191838	0.287746
792.384481	0.287943
792.577106	0.288129
792.769713	0.288257
792.962301	0.288415
793.154871	0.288405
793.347423	0.288459
793.539957	0.288546
793.732473	0.288862
793.924970	0.289051
794.117449	0.288833
794.309910	0.288573
794.502353	0.288646
794.694777	0.288563
794.887183	0.288727
795.079571	0.288801
795.271941	0.288854
795.464293	0.288846
795.656626	0.288914
795.848941	0.289261
796.041238	0.289426
796.233516	0.289669
796.425777	0.289887
796.618019	0.289847
796.810243	0.289758
797.002449	0.289987
797.194636	0.290184
797.386805	0.290120
797.578956	0.290110
797.771089	0.290349
797.963204	0.289985
798.155300	0.290025
798.347378	0.290279
798.539438	0.290530
798.731480	0.290814
798.923503	0.291044
799.115509	0.291403
799.307496	0.291705
799.499465	0.291581
799.691415	0.292039
799.883348	0.292118
800.075262	0.292258
800.267158	0.292595
800.459035	0.292568
800.650895	0.292769
800.842736	0.292899
801.034559	0.292909
801.226364	0.293136
801.418150	0.293504
801.609919	0.293744
801.801669	0.293951
801.993401	0.293919
802.185114	0.294392
802.376810	0.294218
802.568487	0.294564
802.760146	0.294861
802.951787	0.295145
803.143409	0.295206
803.335014	0.295560
803.526600	0.295859
803.718168	0.296114
803.909717	0.295811
804.101249	0.296095
804.292762	0.296602
804.484257	0.296828
804.675734	0.297224
804.867192	0.297115
805.058632	0.297201
805.250054	0.297559
805.441458	0.297950
805.632844	0.298383
805.824211	0.298864
806.015561	0.298681
806.206891	0.299117
806.398204	0.299098
806.589499	0.299551
806.780775	0.299686
806.972033	0.299769
807.163273	0.299929
807.354495	0.299988
807.545698	0.300102
807.736883	0.300170
807.928050	0.300147
808.119199	0.300392
808.310329	0.300518
808.501441	0.300992
808.692535	0.301062
808.883611	0.301229
809.074669	0.301633
809.265708	0.301579
809.456729	0.301764
809.647732	0.301937
809.838717	0.302180
810.029683	0.302521
810.220632	0.302903
810.411562	0.303085
810.602474	0.303451
810.793367	0.303591
810.984242	0.303884
811.175100	0.304134
811.365938	0.304408
811.556759	0.304714
811.747562	0.304837
811.938346	0.304741
812.129112	0.305132
812.319860	0.305442
812.510589	0.305638
812.701300	0.306012
812.891994	0.306505
813.082668	0.306783
813.273325	0.306919
813.463964	0.307212
813.654584	0.307452
813.845186	0.307595
814.035769	0.307674
814.226335	0.308098
814.416882	0.308223
814.607411	0.308641
814.797922	0.308736
814.988415	0.309145
815.178889	0.309652
815.369345	0.310338
815.559783	0.310389
815.750203	0.310690
815.940605	0.311006
816.130988	0.311435
816.321353	0.311534
816.511700	0.311873
816.702028	0.312134
816.892339	0.311930
817.082631	0.311945
817.272905	0.312417
817.463161	0.312579
817.653398	0.312792
817.843617	0.313147
818.033819	0.313217
818.224001	0.313352
818.414166	0.313389
818.604312	0.313841
818.794440	0.313990
818.984550	0.314121
819.174642	0.314493
819.364716	0.314672
819.554771	0.314748
819.744808	0.315223
819.934827	0.315436
820.124827	0.315670
820.314810	0.316123
820.504774	0.316356
820.694720	0.316938
820.884647	0.317188
821.074557	0.317560
821.264448	0.318234
821.454321	0.318451
821.644176	0.318826
821.834012	0.319290
822.023831	0.319423
822.213631	0.319975
822.403413	0.320105
822.593176	0.320438
822.782922	0.320550
822.972649	0.320479
823.162358	0.320788
823.352049	0.321170
823.541721	0.321432
823.731376	0.321616
823.921012	0.321649
824.110629	0.322166
824.300229	0.322711
824.489811	0.323129
824.679374	0.323682
824.868919	0.324138
825.058445	0.324701
825.247954	0.325056
825.437444	0.325923
825.626916	0.326040
825.816370	0.326251
826.005806	0.326104
826.195223	0.326462
826.384622	0.326784
826.574003	0.327067
826.763366	0.327061
826.952711	0.327264
827.142037	0.327346
827.331345	0.327962
827.520635	0.328171
827.709906	0.328437
827.899160	0.328731
828.088395	0.329021
828.277612	0.329442
828.466810	0.329827
828.655991	0.330579
828.845153	0.331100
829.034297	0.331732
829.223423	0.331984
829.412531	0.332523
829.601620	0.332968
829.790691	0.333134
829.979744	0.333019
830.168779	0.333221
830.357795	0.333499
830.546793	0.333538
830.735773	0.333696
830.924735	0.334309
831.113679	0.334758
831.302604	0.334877
831.491511	0.335403
831.680400	0.335958
831.869271	0.336476
832.058123	0.336632
832.246957	0.336928
832.435773	0.337296
832.624571	0.337376
832.813351	0.337826
833.002112	0.338273
833.190855	0.338719
833.379580	0.339152
833.568287	0.339840
833.756975	0.340279
833.945645	0.340921
834.134297	0.341066
834.322931	0.341591
834.511547	0.341606
834.700144	0.342252
834.888723	0.342423
835.077284	0.342595
835.265826	0.342923
835.454351	0.343586
835.642857	0.343891
835.831345	0.344197
836.019815	0.344385
836.208266	0.345177
836.396699	0.345256
836.585114	0.345967
836.773511	0.346852
836.961890	0.347208
837.150250	0.347356
837.338592	0.347889
837.526916	0.348268
837.715222	0.348846
837.903510	0.349079
838.091779	0.349355
838.280030	0.349356
838.468263	0.349586
838.656477	0.349512
838.844674	0.349707
839.032852	0.350147
839.221012	0.350654
839.409153	0.351037
839.597277	0.351485
839.785382	0.352271
839.973469	0.352858
840.161538	0.353150
840.349589	0.354245
840.537621	0.354792
840.725635	0.355104
840.913631	0.356002
841.101609	0.356554
841.289568	0.357000
841.477509	0.357229
841.665432	0.357342
841.853337	0.357828
842.041224	0.357788
842.229092	0.358409
842.416942	0.358502
842.604774	0.358643
842.792588	0.358597
842.980383	0.358940
843.168160	0.359185
843.355919	0.359794
843.543660	0.360271
843.731382	0.360845
843.919087	0.360902
844.106773	0.361223
844.294441	0.361392
844.482090	0.361948
844.669722	0.362374
844.857335	0.363035
845.044930	0.363210
845.232507	0.363323
845.420065	0.364046
845.607605	0.364793
845.795127	0.365549
845.982631	0.366054
846.170117	0.366791
846.357584	0.367247
846.545033	0.367624
846.732464	0.368184
846.919877	0.368929
847.107272	0.369084
847.294648	0.369230
847.482006	0.369629
847.669346	0.370103
847.856667	0.370085
848.043971	0.370362
848.231256	0.370831
848.418523	0.371361
848.605771	0.371817
848.793002	0.372109
848.980214	0.372845
849.167408	0.373158
849.354584	0.373343
849.541742	0.373992
849.728881	0.374373
849.916002	0.374475
850.103105	0.375133
850.290190	0.375358
850.477256	0.375691
850.664304	0.375918
850.851334	0.375912
851.038346	0.376469
851.225340	0.377220
851.412315	0.377432
851.599272	0.378133
851.786211	0.378260
851.973132	0.378472
852.160034	0.378709
852.346918	0.379161
852.533784	0.379629
852.720632	0.380011
852.907462	0.380180
853.094273	0.380397
853.281066	0.380590
853.467841	0.380867
853.654598	0.381222
853.841336	0.381359
854.028056	0.381308
854.214758	0.382100
854.401442	0.382753
854.588107	0.383382
854.774755	0.383791
854.961384	0.384320
855.147995	0.384583
855.334587	0.385204
855.521162	0.385949
855.707718	0.386617
855.894256	0.386790
856.080775	0.387060
856.267277	0.386977
856.453760	0.387412
856.640225	0.387378
856.826672	0.388017
857.013101	0.388324
857.199511	0.388658
857.385903	0.389220
857.572277	0.389640
857.758633	0.389807
857.944970	0.390248
858.131290	0.391057
858.317591	0.391920
858.503873	0.392182
858.690138	0.392647
858.876384	0.392943
859.062612	0.393207
859.248822	0.393575
859.435014	0.393884
859.621188	0.394512
859.807343	0.394789
859.993480	0.394868
860.179599	0.395439
860.365699	0.396098
860.551781	0.396565
860.737846	0.396676
860.923891	0.396856
861.109919	0.397238
861.295929	0.397513
861.481920	0.397896
861.667893	0.398698
861.853848	0.398893
862.039784	0.399022
862.225702	0.399597
862.411603	0.399781
862.597484	0.400351
862.783348	0.400905
862.969193	0.401017
863.155021	0.401243
863.340830	0.401263
863.526620	0.401720
863.712393	0.402207
863.898147	0.402608
864.083883	0.403101
864.269601	0.403288
864.455301	0.403452
864.640982	0.403721
864.826645	0.404160
865.012290	0.404554
865.197917	0.405131
865.383526	0.405315
865.569116	0.405184
865.754688	0.405629
865.940242	0.406263
866.125777	0.406396
866.311295	0.406674
866.496794	0.406966
866.682275	0.407313
866.867737	0.407322
867.053182	0.407297
867.238608	0.407615
867.424016	0.408054
867.609406	0.408467
867.794778	0.408841
867.980131	0.409252
868.165466	0.409461
868.350783	0.409366
868.536082	0.409304
868.721362	0.409879
868.906625	0.410241
869.091869	0.410438
869.277094	0.410473
869.462302	0.410746
869.647491	0.410985
869.832662	0.411441
870.017815	0.411880
870.202950	0.412528
870.388066	0.412180
870.573165	0.412522
870.758245	0.413071
870.943306	0.412896
871.128350	0.413073
871.313375	0.413488
871.498382	0.413689
871.683371	0.414332
871.868342	0.414504
872.053294	0.415462
872.238229	0.415679
872.423144	0.415905
872.608042	0.416147
872.792922	0.416576
872.977783	0.416705
873.162626	0.417108
873.347451	0.416818
873.532258	0.417125
873.717046	0.417140
873.901816	0.417416
874.086568	0.417308
874.271302	0.417677
874.456017	0.417776
874.640715	0.418460
874.825394	0.418357
875.010055	0.419138
875.194697	0.418947
875.379322	0.419136
875.563928	0.419433
875.748516	0.419794
875.933085	0.420286
876.117637	0.420999
876.302170	0.420912
876.486685	0.421174
876.671182	0.420867
876.855661	0.421540
877.040121	0.421765
877.224563	0.421915
877.408987	0.422258
877.593393	0.422418
877.777780	0.422838
877.962150	0.422655
878.146501	0.422555
878.330833	0.422790
878.515148	0.422725
878.699444	0.422499
878.883722	0.423113
879.067982	0.423252
879.252224	0.423554
879.436447	0.423321
879.620653	0.423769
879.804840	0.424321
879.989008	0.424498
880.173159	0.424811
880.357291	0.425346
880.541405	0.425169
880.725501	0.424875
880.909579	0.425135
881.093638	0.425443
881.277680	0.425191
881.461703	0.425398
881.645707	0.425400
881.829694	0.425175
882.013662	0.425321
882.197612	0.424754
882.381544	0.424923
882.565458	0.424546
882.749353	0.424066
882.933230	0.424402
883.117089	0.424490
883.300930	0.424957
883.484753	0.425062
883.668557	0.425060
883.852343	0.425812
884.036111	0.426302
884.219861	0.426417
884.403592	0.427096
884.587305	0.426936
884.771000	0.427390
884.954677	0.427561
885.138335	0.427911
885.321976	0.427806
885.505598	0.427653
885.689201	0.427766
885.872787	0.427957
886.056354	0.428085
886.239904	0.428403
886.423434	0.428141
886.606947	0.427931
886.790442	0.427960
886.973918	0.428235
887.157376	0.428315
887.340816	0.427792
887.524237	0.427493
887.707641	0.427104
887.891026	0.426873
888.074393	0.426773
888.257741	0.426825
888.441072	0.426937
888.624384	0.426535
888.807678	0.426585
888.990954	0.426677
889.174211	0.426957
889.357451	0.426918
889.540672	0.427247
889.723875	0.427193
889.907059	0.427253
890.090226	0.427250
890.273374	0.426904
890.456504	0.427112
890.639616	0.427037
890.822709	0.427583
891.005785	0.428031
891.188842	0.427846
891.371881	0.427603
891.554901	0.427471
891.737904	0.426856
891.920888	0.427442
892.103854	0.427366
892.286802	0.427335
892.469731	0.426586
892.652643	0.426055
892.835536	0.426059
893.018410	0.426338
893.201267	0.426392
893.384106	0.426789
893.566926	0.426342
893.749728	0.425887
893.932511	0.425697
894.115277	0.425602
894.298024	0.425405
894.480753	0.425504
894.663464	0.424838
894.846157	0.424625
895.028831	0.424359
895.211487	0.424571
895.394125	0.424358
895.576745	0.424239
895.759346	0.423683
895.941930	0.423640
896.124495	0.423855
896.307041	0.423901
896.489570	0.423509
896.672080	0.423114
896.854573	0.422630
897.037046	0.422467
897.219502	0.422264
897.401940	0.422851
897.584359	0.422801
897.766760	0.421954
897.949143	0.421591
898.131507	0.421318
898.313854	0.420622
898.496182	0.420323
898.678492	0.420254
898.860783	0.419782
899.043057	0.419343
899.225312	0.418836
899.407549	0.418685
899.589768	0.418524
899.771968	0.418009
899.954151	0.418111
900.136315	0.418338
900.318461	0.417457
900.500588	0.417940
900.682698	0.417612
900.864789	0.417887
901.046862	0.417415
901.228917	0.417524
901.410953	0.417334
901.592971	0.417265
901.774972	0.416981
901.956953	0.417559
902.138917	0.417129
902.320862	0.417067
902.502790	0.415961
902.684699	0.415901
902.866589	0.415506
903.048462	0.415644
903.230316	0.415174
903.412152	0.414539
903.593970	0.413982
903.775770	0.413117
903.957551	0.412833
904.139314	0.412883
904.321059	0.412748
904.502786	0.412205
904.684494	0.411142
904.866185	0.411189
905.047857	0.410526
905.229510	0.410292
905.411146	0.410098
905.592763	0.409116
905.774363	0.408702
905.955943	0.408451
906.137506	0.407661
906.319051	0.407218
906.500577	0.406759
906.682085	0.406640
906.863575	0.406190
907.045046	0.405884
907.226500	0.405432
907.407935	0.405662
907.589352	0.405305
907.770750	0.404480
907.952131	0.404519
908.133493	0.404403
908.314837	0.404209
908.496163	0.403450
908.677470	0.403386
908.858760	0.403268
909.040031	0.402178
909.221284	0.400925
909.402518	0.401313
909.583735	0.400887
909.764933	0.400603
909.946113	0.399986
910.127275	0.399303
910.308418	0.398793
910.489544	0.398741
910.670651	0.398389
910.851740	0.398950
911.032810	0.398320
911.213863	0.398265
911.394897	0.397155
911.575913	0.397348
911.756911	0.396746
911.937890	0.396199
912.118851	0.395007
912.299794	0.394404
912.480719	0.393139
912.661626	0.392787
912.842514	0.392642
913.023384	0.392428
913.204236	0.391138
913.385070	0.390935
913.565886	0.390388
913.746683	0.390155
913.927462	0.389661
914.108223	0.389502
914.288965	0.388410
914.469690	0.387763
914.650396	0.387215
914.831084	0.386837
915.011754	0.386634
915.192405	0.386022
915.373038	0.385762
915.553653	0.384812
915.734250	0.383927
915.914829	0.383317
916.095389	0.382133
916.275931	0.381730
916.456455	0.380785
916.636961	0.379942
916.817448	0.379086
916.997917	0.378580
917.178368	0.378108
917.358801	0.376715
917.539216	0.376801
917.719612	0.375848
917.899990	0.374462
918.080350	0.374668
918.260692	0.374499
918.441015	0.374001
918.621320	0.373107
918.801607	0.372739
918.981876	0.372899
919.162127	0.371912
919.342359	0.371493
919.522573	0.371237
919.702769	0.369745
919.882947	0.368605
920.063106	0.368024
920.243247	0.366983
920.423370	0.366134
920.603475	0.365666
920.783562	0.366163
920.963630	0.366192
921.143680	0.365162
921.323712	0.365385
921.503725	0.365348
921.683721	0.364379
921.863698	0.363550
922.043657	0.362837
922.223598	0.362044
922.403520	0.359709
922.583424	0.358182
922.763311	0.358340
922.943178	0.357357
923.123028	0.356658
923.302859	0.355736
923.482673	0.354864
923.662467	0.354169
923.842244	0.353513
924.022003	0.352988
924.201743	0.352446
924.381465	0.351947
924.561169	0.351519
924.740854	0.349708
924.920522	0.348890
925.100171	0.348416
925.279802	0.347996
925.459414	0.347456
925.639009	0.347547
925.818585	0.346481
925.998143	0.345546
926.177683	0.343749
926.357205	0.343564
926.536708	0.343043
926.716193	0.341918
926.895660	0.340518
927.075109	0.338672
927.254539	0.337919
927.433951	0.337301
927.613345	0.335708
927.792721	0.334909
927.972079	0.334121
928.151418	0.333805
928.330739	0.333966
928.510042	0.333683
928.689327	0.333311
928.868593	0.332196
929.047841	0.330665
929.227071	0.330121
929.406283	0.329785
929.585476	0.328555
929.764652	0.326844
929.943809	0.326143
930.122948	0.325085
930.302068	0.324669
930.481171	0.323157
930.660255	0.322602
930.839321	0.320546
931.018369	0.320186
931.197398	0.319354
931.376409	0.319177
931.555402	0.317999
931.734377	0.316560
931.913334	0.314902
932.092272	0.313154
932.271192	0.312458
932.450094	0.312486
932.628978	0.310805
932.807844	0.310327
932.986691	0.309528
933.165520	0.308098
933.344331	0.307563
933.523123	0.307730
933.701898	0.307826
933.880654	0.306787
934.059392	0.305552
934.238111	0.305057
934.416813	0.303496
934.595496	0.302043
934.774161	0.301386
934.952808	0.300443
935.131437	0.297835
935.310047	0.297474
935.488639	0.297522
935.667213	0.296921
935.845769	0.295688
936.024306	0.295362
936.202825	0.294508
936.381326	0.293166
936.559809	0.292504
936.738274	0.292333
936.916720	0.291527
937.095148	0.289675
937.273558	0.289538
937.451950	0.288864
937.630323	0.287247
937.808678	0.286434
937.987015	0.285975
938.165334	0.284693
938.343635	0.284042
938.521917	0.283134
938.700181	0.283044
938.878427	0.280739
939.056655	0.278652
939.234864	0.278670
939.413055	0.277754
939.591228	0.276981
939.769383	0.276933
939.947519	0.274370
940.125638	0.272876
940.303738	0.272394
940.481820	0.272073
940.659883	0.271150
940.837929	0.268657
941.015956	0.268074
941.193965	0.266883
941.371955	0.263858
941.549928	0.264034
941.727882	0.263604
941.905818	0.260891
942.083736	0.258881
942.261636	0.258810
942.439517	0.259923
942.617380	0.258255
942.795225	0.256316
942.973052	0.256832
943.150860	0.256267
943.328651	0.254647
943.506423	0.254237
943.684176	0.254585
943.861912	0.252798
944.039629	0.250581
944.217328	0.250057
944.395009	0.248019
944.572672	0.246421
944.750317	0.245210
944.927943	0.244477
945.105551	0.243535
945.283141	0.242464
945.460712	0.241432
945.638265	0.239088
945.815801	0.237518
945.993317	0.237138
946.170816	0.235230
946.348297	0.234166
946.525759	0.232093
946.703203	0.230002
946.880629	0.228546
947.058036	0.227812
947.235425	0.227410
947.412797	0.226608
947.590149	0.225602
947.767484	0.226992
947.944800	0.225826
948.122099	0.225572
948.299379	0.226087
948.476640	0.224896
948.653884	0.223453
948.831109	0.223944
949.008316	0.222208
949.185505	0.221378
949.362676	0.218081
949.539828	0.215802
949.716962	0.213720
949.894078	0.211022
950.071176	0.209090
950.248256	0.208418
950.425317	0.205651
950.602360	0.204622
950.779385	0.204037
950.956391	0.204293
951.133380	0.203410
951.310350	0.203286
951.487302	0.201202
951.664235	0.199930
951.841151	0.198122
952.018048	0.197595
952.194927	0.197923
952.371788	0.196774
952.548631	0.193322
952.725455	0.191354
952.902261	0.189900
953.079049	0.189764
953.255819	0.187858
953.432570	0.189071
953.609303	0.188116
953.786018	0.185085
953.962715	0.183403
954.139394	0.183353
954.316054	0.185012
954.492696	0.183983
954.669320	0.183242
954.845926	0.185122
955.022513	0.181800
955.199083	0.179122
955.375634	0.179745
955.552166	0.181750
955.728681	0.181635
955.905177	0.180631
956.081655	0.180033
956.258115	0.179512
956.434557	0.176576
956.610980	0.176750
956.787385	0.177443
956.963772	0.175449
957.140141	0.174313
957.316492	0.174526
957.492824	0.172513
957.669138	0.172013
957.845434	0.171919
958.021712	0.172057
958.197971	0.170179
958.374212	0.170869
958.550435	0.171885
958.726640	0.169577
958.902826	0.168599
959.078995	0.169245
959.255145	0.167832
959.431277	0.166951
959.607390	0.165696
959.783486	0.166318
959.959563	0.164171
960.135622	0.162441
960.311662	0.160074
960.487685	0.160425
960.663689	0.159215
960.839675	0.160322
961.015643	0.158789
961.191593	0.158437
961.367524	0.155846
961.543437	0.154769
961.719332	0.155853
961.895209	0.157105
962.071067	0.154684
962.246907	0.153583
962.422730	0.151655
962.598533	0.152232
962.774319	0.149750
962.950086	0.149326
963.125835	0.149120
963.301566	0.147867
963.477279	0.149490
963.652973	0.151418
963.828650	0.151262
964.004308	0.153452
964.179947	0.153753
964.355569	0.156674
964.531172	0.158956
964.706757	0.158611
964.882324	0.157052
965.057873	0.154562
965.233403	0.150582
965.408916	0.152613
965.584410	0.149684
965.759885	0.149046
965.935343	0.149127
966.110782	0.147519
966.286203	0.147513
966.461606	0.147446
966.636991	0.146038
966.812357	0.148462
966.987705	0.145479
967.163035	0.144217
967.338347	0.143205
967.513641	0.142359
967.688916	0.143869
967.864173	0.143901
968.039412	0.144904
968.214632	0.148078
968.389835	0.147417
968.565019	0.150329
968.740185	0.149726
968.915333	0.151485
969.090462	0.150652
969.265573	0.148155
969.440667	0.148413
969.615741	0.147857
969.790798	0.147305
969.965836	0.145243
970.140856	0.144107
970.315858	0.145297
970.490842	0.145036
970.665808	0.143876
970.840755	0.146032
971.015684	0.147201
971.190595	0.146695
971.365487	0.146579
971.540362	0.147266
971.715218	0.147350
971.890056	0.147034
972.064875	0.146973
972.239677	0.147692
972.414460	0.146413
972.589225	0.147400
972.763972	0.148347
972.938700	0.146359
973.113411	0.147510
973.288103	0.146336
973.462777	0.147286
973.637432	0.146936
973.812070	0.148596
973.986689	0.149368
974.161290	0.147487
974.335873	0.149089
974.510437	0.149187
974.684984	0.148754
974.859512	0.149070
975.034022	0.149865
975.208513	0.149072
975.382987	0.148482
975.557442	0.148534
975.731879	0.148574
975.906298	0.145654
976.080698	0.145282
976.255080	0.142157
976.429445	0.144067
976.603790	0.142106
976.778118	0.142977
976.952427	0.143781
977.126719	0.143051
977.300992	0.143212
977.475246	0.142302
977.649483	0.142560
977.823701	0.144748
977.997901	0.144144
978.172083	0.146342
978.346247	0.146561
978.520392	0.144983
978.694519	0.147850
978.868628	0.145974
979.042719	0.146405
979.216791	0.146574
979.390845	0.146819
979.564882	0.146160
979.738899	0.143907
979.912899	0.143178
980.086880	0.144502
980.260843	0.142531
980.434788	0.143989
980.608715	0.144913
980.782623	0.146616
980.956514	0.144310
981.130386	0.143334
981.304240	0.143156
981.478075	0.143880
981.651892	0.142133
981.825692	0.140889
981.999472	0.140356
982.173235	0.141544
982.346980	0.140021
982.520706	0.144915
982.694414	0.143718
982.868104	0.146343
983.041775	0.145005
983.215428	0.148650
983.389064	0.150030
983.562680	0.151836
983.736279	0.150389
983.909860	0.151416
984.083422	0.149568
984.256966	0.152634
984.430491	0.150263
984.603999	0.151167
984.777488	0.148080
984.950959	0.147134
985.124412	0.145654
985.297847	0.145418
985.471263	0.146950
985.644661	0.146373
985.818041	0.144364
985.991403	0.145631
986.164747	0.144720
986.338072	0.146090
986.511379	0.145770
986.684668	0.146079
986.857938	0.146938
987.031191	0.144471
987.204425	0.145376
987.377641	0.147155
987.550839	0.146535
987.724018	0.147540
987.897179	0.147101
988.070322	0.148892
988.243447	0.150467
988.416554	0.148606
988.589642	0.148499
988.762712	0.148368
988.935764	0.147986
989.108798	0.148538
989.281813	0.148732
989.454811	0.148530
989.627790	0.147704
989.800751	0.144901
989.973693	0.145088
990.146617	0.144436
990.319524	0.143364
990.492412	0.142224
990.665281	0.141752
990.838133	0.141074
991.010966	0.141640
991.183781	0.141902
991.356578	0.142827
991.529356	0.143824
991.702117	0.144463
991.874859	0.144524
992.047583	0.146467
992.220288	0.147047
992.392976	0.147851
992.565645	0.147642
992.738296	0.147945
992.910929	0.148707
993.083543	0.147459
993.256139	0.146883
993.428718	0.147589
993.601277	0.145534
993.773819	0.145147
993.946342	0.144580
994.118848	0.143998
994.291335	0.142082
994.463803	0.142116
994.636254	0.142522
994.808686	0.144132
994.981100	0.144268
995.153496	0.145195
995.325874	0.147012
995.498233	0.146485
995.670574	0.146543
995.842897	0.146970
996.015202	0.146689
996.187488	0.146733
996.359757	0.146489
996.532007	0.145389
996.704239	0.145131
996.876452	0.143633
997.048648	0.143951
997.220825	0.143687
997.392984	0.145328
997.565124	0.144912
997.737247	0.145836
997.909351	0.144643
998.081437	0.143836
998.253505	0.143411
998.425554	0.142054
998.597586	0.143490
998.769599	0.143941
998.941594	0.143137
999.113571	0.142688
999.285529	0.142465
999.457469	0.142387
999.629391	0.143254
999.801295	0.143399
999.973181	0.144844
1000.145048	0.142355
1000.316897	0.139385
1000.488728	0.140470
1000.660541	0.141599
1000.832335	0.142652
1001.004111	0.145778
1001.175869	0.148389
1001.347609	0.145823
1001.519331	0.144579
1001.691034	0.145490
1001.862719	0.145874
1002.034386	0.145153
1002.206035	0.145191
1002.377665	0.145536
1002.549277	0.142575
1002.720871	0.141382
1002.892447	0.143829
1003.064004	0.144886
1003.235544	0.146088
1003.407065	0.148955
1003.578568	0.147107
1003.750052	0.147394
1003.921519	0.147030
1004.092967	0.148387
1004.264397	0.147807
1004.435809	0.147000
1004.607202	0.145694
1004.778577	0.146810
1004.949934	0.145793
1005.121273	0.146773
1005.292594	0.146160
1005.463896	0.145803
1005.635180	0.145164
1005.806446	0.144917
1005.977694	0.145386
1006.148923	0.147797
1006.320135	0.147688
1006.491328	0.149648
1006.662503	0.149152
1006.833659	0.148774
1007.004798	0.148011
1007.175918	0.148191
1007.347020	0.149289
1007.518103	0.149184
1007.689169	0.147094
1007.860216	0.144999
1008.031245	0.144316
1008.202256	0.144436
1008.373248	0.144401
1008.544223	0.143816
1008.715179	0.143766
1008.886117	0.141243
1009.057036	0.142485
1009.227938	0.141582
1009.398821	0.143001
1009.569686	0.142137
1009.740533	0.142799
1009.911361	0.142980
1010.082172	0.145518
1010.252964	0.143633
1010.423738	0.145421
1010.594493	0.142731
1010.765231	0.143272
1010.935950	0.142730
1011.106651	0.142400
1011.277334	0.142564
1011.447998	0.141635
1011.618645	0.139166
1011.789273	0.142053
1011.959882	0.142405
1012.130474	0.144870
1012.301048	0.145943
1012.471603	0.147322
1012.642140	0.147507
1012.812658	0.147293
1012.983159	0.146528
1013.153641	0.146901
1013.324105	0.144041
1013.494551	0.144013
1013.664979	0.143988
1013.835388	0.144432
1014.005779	0.143347
1014.176152	0.143551
1014.346507	0.143764
1014.516843	0.144720
1014.687162	0.145456
1014.857462	0.145453
1015.027744	0.144652
1015.198007	0.143909
1015.368252	0.141596
1015.538480	0.139144
1015.708689	0.139127
1015.878879	0.139646
1016.049052	0.139540
1016.219206	0.138961
1016.389342	0.140491
1016.559460	0.141371
1016.729559	0.140165
1016.899641	0.143305
1017.069704	0.144054
1017.239749	0.144103
1017.409775	0.144576
1017.579784	0.144520
1017.749774	0.143542
1017.919746	0.143514
1018.089700	0.142881
1018.259635	0.142493
1018.429553	0.142053
1018.599452	0.143356
1018.769333	0.143264
1018.939195	0.141284
1019.109040	0.142553
1019.278866	0.143631
1019.448674	0.143044
1019.618464	0.144134
1019.788235	0.146659
1019.957989	0.146229
1020.127724	0.145040
1020.297441	0.146490
1020.467139	0.147134
1020.636820	0.146830
1020.806482	0.147845
1020.976126	0.149339
1021.145752	0.147783
1021.315359	0.146965
1021.484948	0.146157
1021.654519	0.146476
1021.824072	0.145033
1021.993607	0.144444
1022.163123	0.142331
1022.332621	0.140914
1022.502101	0.138680
1022.671563	0.138530
1022.841007	0.137574
1023.010432	0.136965
1023.179839	0.137812
1023.349228	0.136348
1023.518598	0.137229
1023.687951	0.139440
1023.857285	0.139231
1024.026601	0.139159
1024.195899	0.140395
1024.365178	0.141079
1024.534439	0.141377
1024.703682	0.140156
1024.872907	0.141541
1025.042114	0.141814
1025.211302	0.141512
1025.380472	0.141871
1025.549624	0.143144
1025.718758	0.140950
1025.887873	0.141290
1026.056970	0.140639
1026.226049	0.142391
1026.395110	0.144259
1026.564153	0.142955
1026.733177	0.143365
1026.902183	0.143000
1027.071171	0.143833
1027.240141	0.145072
1027.409092	0.146209
1027.578026	0.146761
1027.746940	0.147067
1027.915837	0.146349
1028.084716	0.147699
1028.253576	0.146844
1028.422418	0.149994
1028.591242	0.149248
1028.760048	0.150130
1028.928835	0.149263
1029.097604	0.149375
1029.266355	0.146551
1029.435088	0.145621
1029.603803	0.144087
1029.772499	0.145362
1029.941177	0.143934
1030.109837	0.145195
1030.278478	0.145357
1030.447102	0.144463
1030.615707	0.145190
1030.784294	0.146354
1030.952863	0.145612
1031.121413	0.145643
1031.289945	0.143707
1031.458460	0.142559
1031.626955	0.143317
1031.795433	0.142442
1031.963892	0.143183
1032.132334	0.143232
1032.300756	0.144718
1032.469161	0.144310
1032.637548	0.144998
1032.805916	0.145093
1032.974266	0.145148
1033.142598	0.143065
1033.310911	0.143058
1033.479207	0.142953
1033.647484	0.143765
1033.815743	0.142575
1033.983983	0.143382
1034.152206	0.142467
1034.320410	0.144228
1034.488596	0.143928
1034.656764	0.143818
1034.824914	0.143644
1034.993045	0.143256
1035.161158	0.143112
1035.329253	0.142450
1035.497330	0.141494
1035.665388	0.143852
1035.833428	0.142554
1036.001450	0.143341
1036.169454	0.142225
1036.337440	0.140509
1036.505407	0.140881
1036.673356	0.139490
1036.841287	0.140193
1037.009200	0.139899
1037.177094	0.140873
1037.344970	0.141446
1037.512828	0.139616
1037.680668	0.141107
1037.848489	0.142998
1038.016293	0.142792
1038.184078	0.142660
1038.351845	0.142363
1038.519593	0.144800
1038.687324	0.144180
1038.855036	0.144537
1039.022730	0.145372
1039.190406	0.144427
1039.358063	0.144567
1039.525702	0.143769
1039.693323	0.144534
1039.860926	0.145500
1040.028511	0.143963
1040.196077	0.141825
1040.363625	0.139859
1040.531155	0.140446
1040.698667	0.142152
1040.866161	0.142078
1041.033636	0.142321
1041.201093	0.142715
1041.368532	0.141658
1041.535952	0.141048
1041.703355	0.140823
1041.870739	0.140617
1042.038105	0.138524
1042.205452	0.136932
1042.372782	0.135891
1042.540093	0.134730
1042.707386	0.133717
1042.874661	0.134665
1043.041918	0.135373
1043.209156	0.137024
1043.376376	0.137654
1043.543578	0.138708
1043.710762	0.138732
1043.877927	0.141049
1044.045074	0.141540
1044.212203	0.141383
1044.379314	0.140982
1044.546407	0.139889
1044.713481	0.138677
1044.880537	0.138204
1045.047575	0.140061
1045.214595	0.140186
1045.381596	0.137518
1045.548579	0.140303
1045.715544	0.140254
1045.882491	0.139440
1046.049420	0.141055
1046.216330	0.140129
1046.383222	0.140612
1046.550096	0.139002
1046.716951	0.140898
1046.883789	0.142897
1047.050608	0.140662
1047.217409	0.142395
1047.384192	0.142061
1047.550956	0.143009
1047.717703	0.143824
1047.884431	0.144646
1048.051140	0.145709
1048.217832	0.143708
1048.384505	0.142653
1048.551161	0.144965
1048.717798	0.142456
1048.884416	0.144575
1049.051017	0.144879
1049.217599	0.144844
1049.384163	0.146309
1049.550709	0.145920
1049.717237	0.145684
1049.883746	0.146555
1050.050237	0.145626
1050.216710	0.145178
1050.383165	0.144619
1050.549601	0.142677
1050.716019	0.143858
1050.882420	0.142809
1051.048801	0.141774
1051.215165	0.142222
1051.381510	0.140876
1051.547837	0.139970
1051.714146	0.138842
1051.880437	0.138434
1052.046709	0.137657
1052.212964	0.135717
1052.379200	0.136203
1052.545417	0.137589
1052.711617	0.138354
1052.877798	0.138360
1053.043961	0.138825
1053.210106	0.143019
1053.376233	0.140541
1053.542341	0.142627
1053.708432	0.143860
1053.874504	0.142253
1054.040557	0.142236
1054.206593	0.143650
1054.372610	0.144173
1054.538609	0.143877
1054.704590	0.143015
1054.870553	0.144334
1055.036497	0.144441
1055.202424	0.145016
1055.368331	0.145475
1055.534221	0.146166
1055.700093	0.142395
1055.865946	0.143306
1056.031781	0.143118
1056.197598	0.142787
1056.363397	0.143716
1056.529177	0.141506
1056.694939	0.141283
1056.860683	0.140126
1057.026409	0.140425
1057.192116	0.143485
1057.357806	0.143802
1057.523477	0.142925
1057.689130	0.143874
1057.854764	0.144211
1058.020381	0.146638
1058.185979	0.146021
1058.351559	0.147616
1058.517120	0.145601
1058.682664	0.144033
1058.848189	0.143125
1059.013696	0.143786
1059.179185	0.143661
1059.344656	0.141897
1059.510108	0.139768
1059.675542	0.139755
1059.840958	0.141481
1060.006356	0.143066
1060.171735	0.142406
1060.337096	0.142320
1060.502439	0.142654
1060.667764	0.141423
1060.833071	0.143655
1060.998359	0.146103
1061.163629	0.148318
1061.328881	0.145856
1061.494115	0.143890
1061.659330	0.144206
1061.824527	0.143592
1061.989706	0.144375
1062.154867	0.145830
1062.320010	0.144949
1062.485134	0.143173
1062.650240	0.140573
1062.815328	0.141656
1062.980398	0.141861
1063.145449	0.143441
1063.310482	0.143490
1063.475497	0.141436
1063.640494	0.140865
1063.805473	0.141699
1063.970433	0.142915
1064.135375	0.143118
1064.300299	0.141573
1064.465204	0.144008
1064.630092	0.145633
1064.794961	0.145863
1064.959812	0.144834
1065.124645	0.143681
1065.289459	0.144017
1065.454256	0.143484
1065.619034	0.142741
1065.783793	0.143516
1065.948535	0.142187
1066.113258	0.141250
1066.277964	0.141109
1066.442651	0.144675
1066.607319	0.143448
1066.771970	0.144299
1066.936602	0.143726
1067.101216	0.145653
1067.265812	0.145409
1067.430389	0.145612
1067.594949	0.142403
1067.759490	0.143543
1067.924013	0.143986
1068.088518	0.148257
1068.253004	0.150086
1068.417472	0.150738
1068.581922	0.151108
1068.746354	0.153732
1068.910768	0.153893
1069.075163	0.157093
1069.239540	0.155046
1069.403899	0.153319
1069.568240	0.150337
1069.732562	0.144984
1069.896866	0.146559
1070.061152	0.146497
1070.225420	0.143553
1070.389670	0.142219
1070.553901	0.141653
1070.718114	0.143055
1070.882309	0.142943
1071.046486	0.144496
1071.210644	0.147140
1071.374784	0.144936
1071.538906	0.144884
1071.703010	0.147347
1071.867096	0.146826
1072.031163	0.146521
1072.195212	0.146723
1072.359243	0.147986
1072.523256	0.146676
1072.687250	0.143610
1072.851226	0.145146
1073.015184	0.146380
1073.179124	0.144904
1073.343045	0.146114
1073.506949	0.146135
1073.670834	0.145531
1073.834701	0.145809
1073.998549	0.147518
1074.162380	0.149390
1074.326192	0.147605
1074.489986	0.145171
1074.653761	0.144552
1074.817519	0.144764
1074.981258	0.142965
1075.144979	0.144822
1075.308682	0.143021
1075.472367	0.142613
1075.636033	0.143912
1075.799681	0.145705
1075.963311	0.147184
1076.126923	0.150243
1076.290516	0.152043
1076.454092	0.153357
1076.617649	0.151601
1076.781187	0.151367
1076.944708	0.152230
1077.108210	0.150695
1077.271695	0.154091
1077.435160	0.153062
1077.598608	0.148398
1077.762038	0.147916
1077.925449	0.148504
1078.088842	0.148844
1078.252217	0.151771
1078.415573	0.148749
1078.578912	0.150849
1078.742232	0.148820
1078.905534	0.150606
1079.068817	0.152647
1079.232083	0.151641
1079.395330	0.153192
1079.558559	0.154505
1079.721770	0.154823
1079.884962	0.158099
1080.048136	0.155453
1080.211293	0.156995
1080.374430	0.154283
1080.537550	0.155704
1080.700651	0.154686
1080.863735	0.152905
1081.026800	0.152808
1081.189846	0.151349
1081.352875	0.150041
1081.515885	0.149603
1081.678877	0.145855
1081.841851	0.146849
1082.004807	0.147578
1082.167744	0.146208
1082.330663	0.146981
1082.493564	0.146531
1082.656447	0.143881
1082.819312	0.144776
1082.982158	0.145524
1083.144986	0.147001
1083.307796	0.144845
1083.470587	0.142976
1083.633361	0.145255
1083.796116	0.144640
1083.958853	0.145850
1084.121571	0.146768
1084.284272	0.145099
1084.446954	0.148623
1084.609618	0.147576
1084.772264	0.152415
1084.934892	0.153696
1085.097501	0.152595
1085.260092	0.154975
1085.422665	0.154369
1085.585220	0.156322
1085.747756	0.157124
1085.910274	0.155546
1086.072774	0.155158
1086.235256	0.153963
1086.397720	0.151508
1086.560165	0.152524
1086.722592	0.151839
1086.885001	0.152461
1087.047392	0.153786
1087.209764	0.153445
1087.372119	0.151674
1087.534455	0.154859
1087.696772	0.154531
1087.859072	0.159497
1088.021353	0.159990
1088.183616	0.156560
1088.345861	0.154493
1088.508088	0.148993
1088.670296	0.150616
1088.832486	0.151180
1088.994658	0.148016
1089.156812	0.149154
1089.318948	0.146631
1089.481065	0.148134
1089.643164	0.149619
1089.805245	0.151891
1089.967308	0.155816
1090.129352	0.156274
1090.291378	0.156437
1090.453386	0.155627
1090.615376	0.155029
1090.777347	0.152334
1090.939301	0.150768
1091.101236	0.150843
1091.263153	0.146861
1091.425051	0.146643
1091.586932	0.145630
1091.748794	0.145019
1091.910638	0.145059
1092.072463	0.147055
1092.234271	0.149700
1092.396060	0.148412
1092.557831	0.147191
1092.719584	0.148888
1092.881319	0.151661
1093.043035	0.149410
1093.204733	0.152696
1093.366413	0.155718
1093.528075	0.154352
1093.689718	0.154544
1093.851343	0.157907
1094.012950	0.161624
1094.174539	0.162448
1094.336110	0.159238
1094.497662	0.159974
1094.659196	0.155559
1094.820712	0.153027
1094.982210	0.156657
1095.143689	0.158471
1095.305151	0.158614
1095.466594	0.157879
1095.628018	0.159275
1095.789425	0.159539
1095.950813	0.160929
1096.112183	0.163154
1096.273535	0.163824
1096.434869	0.156715
1096.596184	0.155962
1096.757482	0.152341
1096.918761	0.147371
1097.080021	0.144601
1097.241264	0.145191
1097.402488	0.148120
1097.563694	0.152231
1097.724882	0.154010
1097.886052	0.154366
1098.047203	0.151321
1098.208336	0.155017
1098.369451	0.160398
1098.530548	0.160216
1098.691627	0.155900
1098.852687	0.155086
1099.013729	0.151018
1099.174753	0.149842
1099.335758	0.149748
1099.496746	0.152188
1099.657715	0.150151
1099.818666	0.147202
1099.979599	0.149451
1100.140513	0.151769
1100.301409	0.148184
1100.462287	0.144964
1100.623147	0.146000
1100.783989	0.147771
1100.944812	0.146956
1101.105617	0.149077
1101.266404	0.149897
1101.427173	0.151634
1101.587923	0.152881
1101.748656	0.153722
1101.909370	0.156300
1102.070066	0.153048
1102.230743	0.152327
1102.391403	0.153245
1102.552044	0.152582
1102.712667	0.150141
1102.873271	0.147832
1103.033858	0.153528
1103.194426	0.152674
1103.354976	0.155496
1103.515508	0.157400
1103.676021	0.156104
1103.836517	0.153597
1103.996994	0.153182
1104.157453	0.159888
1104.317893	0.158662
1104.478316	0.154233
1104.638720	0.154154
1104.799106	0.155265
1104.959474	0.152538
1105.119823	0.157713
1105.280155	0.158219
1105.440468	0.155158
1105.600763	0.150158
1105.761039	0.153775
1105.921298	0.155053
1106.081538	0.160519
1106.241760	0.158167
1106.401964	0.160532
1106.562149	0.157284
1106.722316	0.156901
1106.882465	0.160670
1107.042596	0.160290
1107.202709	0.159518
1107.362803	0.157994
1107.522879	0.150775
1107.682937	0.147923
1107.842977	0.148260
1108.002999	0.149231
1108.163002	0.152107
1108.322987	0.148410
1108.482954	0.152904
1108.642902	0.155615
1108.802833	0.155411
1108.962745	0.160492
1109.122639	0.162803
1109.282515	0.161270
1109.442372	0.160546
1109.602211	0.164691
1109.762032	0.168704
1109.921835	0.168934
1110.081620	0.163211
1110.241386	0.160874
1110.401134	0.161139
1110.560864	0.160933
1110.720576	0.164209
1110.880269	0.165039
1111.039945	0.162511
1111.199602	0.158774
1111.359240	0.158906
1111.518861	0.158098
1111.678463	0.160136
1111.838047	0.156672
1111.997613	0.161184
1112.157161	0.159100
1112.316690	0.160656
1112.476202	0.153735
1112.635695	0.158920
1112.795169	0.157452
1112.954626	0.160313
1113.114064	0.160436
1113.273484	0.162230
1113.432886	0.157753
1113.592270	0.155631
1113.751635	0.153253
1113.910983	0.155042
1114.070312	0.150890
1114.229622	0.152231
1114.388915	0.148779
1114.548189	0.150779
1114.707445	0.151048
1114.866683	0.147077
1115.025903	0.150865
1115.185104	0.150835
1115.344287	0.158138
1115.503452	0.160608
1115.662599	0.161269
1115.821727	0.164707
1115.980838	0.162443
1116.139930	0.160579
1116.299004	0.165844
1116.458059	0.165850
1116.617097	0.167531
1116.776116	0.161487
1116.935117	0.160385
1117.094099	0.156195
1117.253064	0.154913
1117.412010	0.151829
1117.570938	0.152142
1117.729848	0.151639
1117.888740	0.148815
1118.047613	0.147190
1118.206468	0.150629
1118.365305	0.153633
1118.524124	0.156822
1118.682924	0.158650
1118.841707	0.163235
1119.000471	0.163562
1119.159216	0.164804
1119.317944	0.165137
1119.476653	0.163804
1119.635344	0.162117
1119.794017	0.158809
1119.952672	0.160913
1120.111308	0.165109
1120.269927	0.168464
1120.428527	0.172518
1120.587108	0.175799
1120.745672	0.177676
1120.904217	0.185564
1121.062744	0.180564
1121.221253	0.183867
1121.379744	0.179823
1121.538216	0.176771
1121.696671	0.171013
1121.855107	0.169128
1122.013524	0.166951
1122.171924	0.169235
1122.330305	0.161466
1122.488668	0.171501
1122.647013	0.166076
1122.805340	0.164740
1122.963648	0.158319
1123.121938	0.159756
1123.280210	0.159776
1123.438464	0.157938
1123.596700	0.155070
1123.754917	0.156143
1123.913116	0.150658
1124.071297	0.153399
1124.229459	0.153278
1124.387604	0.159299
1124.545730	0.159345
1124.703838	0.159443
1124.861928	0.159376
1125.019999	0.156128
1125.178052	0.154315
1125.336088	0.151474
1125.494104	0.150568
1125.652103	0.149914
1125.810083	0.146673
1125.968045	0.144622
1126.125989	0.138960
1126.283915	0.139194
1126.441823	0.142200
1126.599712	0.142385
1126.757583	0.147665
1126.915436	0.147972
1127.073270	0.149007
1127.231087	0.152378
1127.388885	0.156249
1127.546665	0.156640
1127.704426	0.157993
1127.862170	0.159620
1128.019895	0.163357
1128.177602	0.162654
1128.335291	0.165964
1128.492961	0.163320
1128.650614	0.161816
1128.808248	0.164281
1128.965864	0.165779
1129.123461	0.167018
1129.281041	0.165837
1129.438602	0.165145
1129.596145	0.164540
1129.753670	0.158488
1129.911176	0.160378
1130.068665	0.158715
1130.226135	0.156374
1130.383587	0.163852
1130.541020	0.158619
1130.698436	0.154952
1130.855833	0.153676
1131.013212	0.149299
1131.170573	0.154575
1131.327915	0.150571
1131.485239	0.153377
1131.642545	0.155452
1131.799833	0.148528
1131.957103	0.147362
1132.114354	0.149247
1132.271588	0.149164
1132.428803	0.153053
1132.585999	0.156341
1132.743178	0.161269
1132.900338	0.163400
1133.057480	0.162501
1133.214604	0.163969
1133.371710	0.166168
1133.528797	0.168259
1133.685866	0.167460
1133.842917	0.166787
1133.999950	0.159761
1134.156964	0.160170
1134.313960	0.153442
1134.470938	0.152142
1134.627898	0.154400
1134.784840	0.157634
1134.941763	0.158355
1135.098668	0.159643
1135.255555	0.154723
1135.412424	0.157610
1135.569274	0.152662
1135.726107	0.154508
1135.882921	0.151703
1136.039716	0.148739
1136.196494	0.152992
1136.353253	0.152078
1136.509995	0.144853
1136.666717	0.152203
1136.823422	0.150418
1136.980109	0.157666
1137.136777	0.158823
1137.293427	0.164361
1137.450059	0.164167
1137.606672	0.154375
1137.763267	0.161700
1137.919844	0.171401
1138.076403	0.161305
1138.232944	0.161310
1138.389466	0.160089
1138.545971	0.162653
1138.702457	0.160588
1138.858924	0.162724
1139.015374	0.165818
1139.171805	0.157263
1139.328218	0.153426
1139.484613	0.158439
1139.640990	0.153932
1139.797348	0.146597
1139.953688	0.141089
1140.110010	0.137199
1140.266314	0.136490
1140.422600	0.138339
1140.578867	0.141662
1140.735116	0.142893
1140.891347	0.145739
1141.047559	0.151078
1141.203754	0.159533
1141.359930	0.167309
1141.516088	0.172926
1141.672228	0.168378
1141.828349	0.169325
1141.984452	0.160040
1142.140537	0.162397
1142.296604	0.163620
1142.452653	0.158173
1142.608683	0.148234
1142.764695	0.142805
1142.920689	0.143190
1143.076665	0.149612
1143.232622	0.151103
1143.388562	0.156288
1143.544483	0.154545
1143.700385	0.147402
1143.856270	0.148933
1144.012136	0.158136
1144.167985	0.164145
1144.323814	0.157576
1144.479626	0.157393
1144.635420	0.149123
1144.791195	0.149068
1144.946952	0.153954
1145.102691	0.158068
1145.258411	0.157611
1145.414113	0.155664
1145.569798	0.152140
1145.725463	0.153988
1145.881111	0.151279
1146.036741	0.157838
1146.192352	0.155337
1146.347945	0.144830
1146.503519	0.147465
1146.659076	0.154856
1146.814614	0.158631
1146.970134	0.153915
1147.125636	0.150211
1147.281120	0.141619
1147.436585	0.137172
1147.592032	0.143844
1147.747461	0.145090
1147.902872	0.140248
1148.058265	0.139342
1148.213639	0.140374
1148.368995	0.147030
1148.524333	0.142607
1148.679653	0.156534
1148.834954	0.153045
1148.990237	0.152937
1149.145502	0.159589
1149.300749	0.155088
1149.455977	0.156710
1149.611188	0.151924
1149.766380	0.144681
1149.921553	0.157307
1150.076709	0.146084
1150.231846	0.147662
1150.386966	0.141295
1150.542066	0.139692
1150.697149	0.141650
1150.852214	0.137673
1151.007260	0.140561
1151.162288	0.144573
1151.317298	0.141279
1151.472289	0.146893
1151.627263	0.147808
1151.782218	0.155860
1151.937155	0.153102
1152.092073	0.161555
1152.246974	0.163715
1152.401856	0.162719
1152.556720	0.161944
1152.711566	0.153765
1152.866393	0.153719
1153.021203	0.155087
1153.175994	0.158249
1153.330767	0.163119
1153.485521	0.159431
1153.640258	0.148452
1153.794976	0.142793
1153.949676	0.141915
1154.104358	0.147457
1154.259021	0.153852
1154.413667	0.156601
1154.568294	0.144546
1154.722903	0.141226
1154.877493	0.141698
1155.032066	0.156532
1155.186620	0.161071
1155.341156	0.155084
1155.495674	0.157528
1155.650173	0.145484
1155.804654	0.141278
1155.959118	0.144853
1156.113562	0.143793
1156.267989	0.140446
1156.422397	0.129653
1156.576788	0.132620
1156.731160	0.135983
1156.885513	0.129330
1157.039849	0.136080
1157.194166	0.132026
1157.348465	0.130010
1157.502746	0.124150
1157.657009	0.137499
1157.811253	0.134093
1157.965479	0.135929
1158.119687	0.137333
1158.273877	0.134591
1158.428048	0.131272
1158.582201	0.137110
1158.736337	0.138831
1158.890453	0.142252
1159.044552	0.134057
1159.198632	0.141537
1159.352694	0.139617
1159.506738	0.143411
1159.660764	0.155828
1159.814771	0.160662
1159.968761	0.166416
1160.122732	0.168808
1160.276685	0.174417
1160.430619	0.171917
1160.584535	0.172824
1160.738434	0.158641
1160.892313	0.163291
1161.046175	0.157150
1161.200019	0.151367
1161.353844	0.141544
1161.507651	0.141738
1161.661440	0.136183
1161.815210	0.141303
1161.968962	0.134369
1162.122697	0.140464
1162.276412	0.129592
1162.430110	0.125285
1162.583789	0.133671
1162.737451	0.144185
1162.891094	0.142531
1163.044718	0.141414
1163.198325	0.134487
1163.351913	0.136242
1163.505483	0.129310
1163.659035	0.137867
1163.812569	0.136190
1163.966084	0.129853
1164.119581	0.125339
1164.273060	0.114564
1164.426521	0.115559
1164.579964	0.114352
1164.733388	0.114157
1164.886794	0.127138
1165.040182	0.129118
1165.193551	0.127802
1165.346903	0.129211
1165.500236	0.126562
1165.653551	0.137587
1165.806848	0.134295
1165.960126	0.138909
1166.113386	0.135400
1166.266628	0.131219
1166.419852	0.118033
1166.573058	0.133385
1166.726245	0.140422
1166.879414	0.137126
1167.032565	0.133121
1167.185698	0.139850
1167.338812	0.139713
1167.491909	0.148812
1167.644987	0.153154
1167.798046	0.156337
1167.951088	0.151891
1168.104111	0.134654
1168.257117	0.132057
1168.410103	0.138730
1168.563072	0.131086
1168.716023	0.125051
1168.868955	0.120986
1169.021869	0.112984
1169.174765	0.114188
1169.327642	0.101744
1169.480501	0.110215
1169.633343	0.123312
1169.786165	0.123037
1169.938970	0.118381
1170.091757	0.117544
1170.244525	0.126730
1170.397275	0.136870
1170.550007	0.135313
1170.702720	0.150304
1170.855415	0.141847
1171.008092	0.128447
1171.160751	0.120366
1171.313392	0.127203
1171.466014	0.085356
1171.618619	0.093041
1171.771205	0.093041
1171.923772	0.093041
