sample name	sample
index	854
start time	 04-08-2021  10:58:11 AM
880	0.380075
Peak Time (s)	102.536
Peak Height 	0.3801
calc peak height	100,103
Baseline Time (s)	8.537
Baseline Value 	-0.006571
subtract baseline	10,4
Abs	0.276584
Peak Time (s)	102.536
Peak Height 	0.2766
calc peak height	100,103
Baseline Time (s)	8.537
Baseline Value 	0.003283
subtract baseline	10,3
PK_550	0.143290
Peak Time (s)	102.536
Peak Height 	0.1433
calc peak height	100,103
Baseline Time (s)	10.536
Baseline Value 	6.3448E-4
subtract baseline	10,2
PK_880	0.257464
Peak Time (s)	102.041
Peak Height 	0.2575
calc peak height	100,103
Baseline Time (s)	9.034
Baseline Value 	0.002815
subtract baseline	10,1


Time (s)	A880-A510	A880-A775	A880-A975	A880	I510	I775	I975	I880	
0.034500	-0.000014	-0.000606	-0.000653	0.002540	6852.267643	42414.028688	3850.921522	22597.205813
0.538000	-0.001715	0.000003	-0.006448	0.005745	6805.601805	42177.375401	3826.690662	22450.779392
1.035500	-0.002853	-0.000442	-0.005350	0.006038	6792.092595	42110.440386	3828.835774	22437.459691
1.536000	-0.002781	-0.000545	-0.001725	0.005547	6797.405436	42145.611244	3839.874930	22459.790645
2.036000	0.001177	0.000457	-0.000501	0.001353	6875.073151	42620.131798	3854.567777	22651.689471
2.536000	0.001550	0.000273	-0.005480	0.001272	6879.446343	42610.765978	3841.280813	22655.441458
3.036500	-0.001921	-0.000231	-0.004778	0.004321	6817.141445	42285.694178	3834.961862	22515.694018
3.537000	0.000136	-0.000876	-0.002909	0.000047	6877.618329	42617.603533	3851.565248	22711.811620
4.037500	0.000899	0.000345	0.001546	0.001496	6871.029910	42596.792824	3859.774771	22645.125064
4.537000	-0.000939	-0.000221	-0.002192	0.000617	6861.819482	42625.493256	3851.965796	22685.542627
5.037500	0.001100	-0.000204	-0.003760	0.001351	6874.354456	42559.703483	3845.714615	22651.802150
5.538000	0.001039	0.000581	-0.000351	0.001468	6872.640971	42620.951750	3854.662453	22646.396119
6.035500	-0.000535	-0.000554	-0.001302	0.000486	6866.959542	42606.933608	3854.749073	22691.591601
6.536000	-0.000952	-0.000442	-0.002239	0.000579	6862.061633	42608.685976	3851.941903	22687.324425
7.036500	-0.000047	0.000702	0.000789	0.000569	6870.845962	42714.810145	3860.241642	22687.794613
7.536500	-0.001723	-0.000574	-0.000981	-0.000108	6861.259734	42659.758303	3857.250165	22718.994125
8.036500	0.002405	0.001296	-0.001581	0.000820	6892.042633	42746.450650	3853.076032	22676.218116
8.537000	0.000235	0.000319	0.000000	0.000000	6879.025630	42731.976150	3859.638627	22713.998389
9.034500	0.000000	-0.000466	-0.000895	-0.000021	6876.966879	42661.586973	3857.246033	22714.950534
9.535000	0.000075	-0.000037	0.000576	0.000101	6876.522845	42689.876293	3860.940831	22709.357282
10.035500	-0.000662	-0.000343	0.001082	-0.000154	6871.877264	42685.183742	3863.030945	22721.087372
10.535500	-0.000528	0.000000	-0.002193	-0.000022	6871.905576	42704.576728	3853.704283	22715.005548
11.035500	0.002703	0.000603	-0.006917	0.000620	6896.852397	42700.976922	3839.161694	22685.415208
11.536000	-0.000515	0.000228	0.000917	0.000436	6867.625074	42683.470852	3860.958251	22693.904382
12.036500	0.000250	-0.000638	0.003066	-0.000690	6885.827988	42707.356546	3869.976649	22745.858740
12.536500	-0.000269	0.000225	-0.001632	-0.000229	6876.385193	42744.402252	3855.799509	22724.559431
13.037000	0.001606	0.000140	0.000624	-0.001283	6904.658438	42833.850832	3864.876347	22773.266764
13.537000	0.001315	0.000007	-0.002889	-0.000927	6898.398882	42788.647004	3854.276193	22756.812089
14.034500	0.000550	-0.000320	-0.003228	-0.001454	6896.096991	42807.131231	3854.787924	22781.179504
14.537500	-0.002074	0.000769	-0.003474	0.002055	6837.235764	42584.396421	3844.584841	22619.459520
15.035500	-0.001074	-0.000077	0.001635	0.000329	6863.289433	42665.244659	3863.222224	22698.835589
15.535500	0.000853	0.000266	0.003410	-0.001132	6895.912401	42831.434756	3872.150231	22766.263812
16.036000	0.001257	0.000568	0.000628	-0.001168	6900.164740	42862.770370	3864.571904	22767.948360
16.538000	0.000193	0.000321	-0.002228	-0.000803	6886.361006	42806.180998	3855.741051	22751.073693
17.036500	-0.000048	0.000835	-0.000288	0.000211	6874.272290	42760.053195	3858.272267	22704.251907
17.536500	0.002113	0.000446	-0.002125	-0.003644	6932.523916	43080.856812	3863.807130	22882.743283
18.037000	-0.000805	-0.000451	0.000726	-0.000448	6873.337235	42702.321072	3862.860459	22734.691094
18.537500	0.000944	0.000102	-0.003534	0.000907	6877.124788	42628.526859	3847.530565	22672.203494
19.034500	-0.000162	-0.000360	-0.001033	0.001002	6865.591077	42577.415842	3854.077168	22667.854588
19.535000	-0.000681	0.000112	0.000868	0.000950	6861.109780	42625.486756	3859.415329	22670.236010
20.035500	0.000535	0.000496	-0.001341	0.001170	6870.659840	42640.533776	3852.777976	22660.103683
20.535000	0.000165	-0.000234	-0.000992	0.000939	6869.327196	42594.705993	3854.358234	22670.753069
21.036000	0.001668	0.000513	-0.002403	0.001233	6880.955969	42636.280022	3849.715646	22657.195456
21.536500	-0.000925	0.001210	-0.005965	0.001778	6850.839096	42650.292872	3838.608874	22632.166058
22.042000	0.001446	0.000229	-0.000233	0.000870	6882.314998	42643.615921	3856.619349	22673.913186
22.537000	0.000048	0.000344	-0.001591	0.001010	6867.528530	42641.295335	3852.532215	22667.491335
23.042000	-0.001098	-0.000152	0.001660	0.000696	6859.546595	42624.630988	3862.283367	22681.937404
23.540000	-0.000761	0.000144	-0.001796	0.000562	6864.066085	42664.124283	3853.196838	22688.116691
24.037500	0.000829	0.000324	0.002260	0.001399	6871.285697	42603.705178	3862.000494	22649.588275
24.535000	-0.000455	0.000907	-0.000591	0.001440	6858.573100	42653.546918	3854.086257	22647.687032
25.035500	0.000549	0.000684	-0.001184	0.001557	6867.077876	42622.232985	3852.150533	22642.311560
25.536000	0.000008	0.000461	-0.006450	0.001209	6865.229357	42633.723906	3838.834495	22658.302004
26.036500	-0.000957	-0.001134	-0.002170	-0.000091	6868.447379	42606.637652	3853.956120	22718.191991
26.536500	-0.001517	-0.000034	-0.000007	0.000905	6853.534278	42616.230763	3857.142492	22672.326315
27.036500	-0.000838	0.000110	-0.000827	0.000728	6861.720418	42645.630169	3855.383641	22680.431538
27.537000	0.001930	0.000249	-0.001195	-0.000043	6895.794019	42729.437924	3856.486665	22715.977635
28.040000	0.002253	0.001305	0.002484	-0.001659	6914.576493	42976.304504	3871.045555	22790.644554
28.537500	0.000766	0.000471	-0.000230	-0.000787	6891.738869	42818.524630	3861.165247	22750.324509
29.043000	-0.003716	-0.001052	-0.006133	0.003532	6807.615891	42282.810741	3833.445983	22551.778468
29.535500	-0.000020	0.000318	-0.000708	-0.000947	6885.689694	42819.213019	3860.293404	22757.708221
30.035500	0.000579	-0.000086	0.002836	-0.000912	6891.139347	42778.697732	3869.954632	22756.110428
30.535500	0.002701	0.000936	0.000706	-0.000462	6907.310585	42831.510031	3862.845363	22735.324353
31.045500	-0.000729	-0.000220	-0.006169	0.002320	6847.530113	42469.339955	3836.599597	22607.274220
31.536500	-0.001471	-0.000330	0.000059	0.002163	6841.958075	42473.771341	3853.888728	22614.510113
32.039500	0.001370	0.000366	-0.003311	0.001276	6877.674408	42618.908700	3847.135440	22655.237510
32.594000	0.001084	0.000186	0.002375	-0.000714	6894.095356	42785.461587	3868.132968	22746.933882
33.037000	-0.003510	0.000291	-0.005859	0.005126	6794.500565	42259.886797	3829.913476	22478.972672
33.535000	0.002371	0.001133	0.001559	-0.000252	6902.087519	42830.289075	3864.613234	22725.643685
34.035000	0.000213	0.001051	0.002533	-0.000317	6881.871705	42828.697731	3867.473078	22728.625906
34.535000	0.001426	0.000268	0.006677	-0.002673	6916.396701	42974.295676	3885.539084	22837.662198
35.035500	-0.000245	-0.000011	0.001437	0.001638	6858.686295	42550.990127	3859.087528	22638.582531
35.536000	0.000419	0.000181	-0.000563	0.001942	6862.139995	42540.771395	3852.795103	22624.636276
36.036500	0.001555	0.000885	-0.001377	0.002016	6872.341704	42598.614608	3850.378617	22621.248475
36.536500	-0.000534	0.000288	0.003257	0.001578	6856.491967	42583.978224	3864.246581	22641.334095
37.037000	-0.000847	0.000399	0.001180	0.001503	6854.226243	42601.105208	3858.755595	22644.822935
37.537000	-0.000318	-0.000035	-0.002372	0.001119	6862.965067	42596.478375	3850.110324	22662.470035
38.034500	-0.000418	0.000454	0.000307	0.001779	6855.683051	42580.770944	3855.611362	22632.117963
38.535000	-0.001354	0.000375	-0.001306	0.001656	6847.902406	42584.746851	3851.547983	22637.756514
39.035500	-0.001562	0.000401	-0.001167	0.001434	6848.042825	42607.581055	3852.533557	22647.977612
39.538500	-0.000699	0.000568	0.003221	0.001962	6851.248495	42574.419775	3863.094497	22623.730789
40.036000	0.000056	0.000847	0.002020	0.001867	6859.379594	42608.826437	3860.057266	22628.089112
40.536000	-0.000992	0.000156	-0.004474	0.001524	6852.634599	42576.852752	3843.316978	22643.847540
41.036000	0.000642	0.000503	-0.000371	0.001806	6865.584011	42582.786309	3853.686398	22630.864888
41.537000	-0.000635	0.000058	0.001563	0.001283	6858.347946	42589.882997	3860.404829	22654.900966
42.042500	-0.000248	-0.000064	0.002409	0.001302	6861.881095	42577.008740	3862.673535	22654.020629
42.536500	-0.000942	0.000062	0.001383	0.001117	6857.001714	42605.524838	3860.369145	22662.553599
43.034500	-0.001047	-0.000056	-0.001942	0.001669	6850.715526	42544.128108	3849.785293	22637.180919
43.535000	-0.000060	0.000073	-0.001155	0.001197	6864.693473	42599.277876	3853.211935	22658.888544
44.035500	-0.000037	0.000871	-0.000956	0.001568	6861.352770	42638.375221	3852.741087	22641.796554
44.535500	0.002590	0.000951	0.001192	-0.002383	6924.884134	43010.660372	3869.473783	22824.186078
45.036500	-0.001358	0.000115	0.001160	0.002937	6835.654545	42443.654999	3854.779954	22579.026675
45.536500	0.002062	0.000585	-0.004373	-0.000641	6902.855178	42815.585967	3849.453962	22743.571109
46.036500	-0.000632	0.000322	0.000702	-0.001082	6881.099698	42832.043879	3864.537493	22763.967940
46.539500	0.001859	0.000372	0.001996	-0.000494	6899.473614	42782.354979	3866.482305	22736.806305
47.037000	-0.000237	0.000253	-0.000153	0.000831	6866.506516	42649.454628	3856.944672	22675.723320
47.537500	0.001458	0.000013	0.004618	-0.001014	6900.619347	42797.221931	3875.172970	22760.831011
48.057000	0.001947	0.000510	0.003409	-0.000789	6903.178062	42822.363994	3871.199205	22750.420285
48.535500	-0.001701	0.000313	0.000817	0.002810	6833.586258	42473.348511	3854.187388	22584.807508
49.035500	-0.001596	0.000287	0.000464	0.001909	6843.181231	42553.528207	3855.685381	22626.153661
49.552000	-0.000133	0.000118	0.000184	-0.000775	6882.947920	42784.862718	3862.267961	22749.761670
50.036500	-0.000169	0.000355	0.000582	-0.001452	6889.134402	42869.270551	3865.224667	22781.080237
50.536500	0.002043	0.000926	-0.001444	-0.000575	6902.030057	42840.931461	3857.258582	22740.522105
51.037000	0.000399	0.000605	-0.001829	0.001228	6868.801588	42645.208565	3851.290121	22657.442059
51.537000	0.001986	0.000875	0.000213	-0.000546	6901.200390	42833.596991	3861.718980	22739.183695
52.037000	-0.000122	-0.001554	-0.003724	-0.027615	7149.836814	45175.196540	3926.941333	24028.914653
52.537500	-0.045194	-0.019771	0.009153	0.013738	6346.552867	39733.653591	3847.140397	22090.323259
53.035000	-0.053945	-0.019625	0.008583	0.106930	5583.282701	32595.748308	3618.470495	18342.722254
53.535500	-0.043291	-0.020320	-0.001473	-0.093658	7390.576532	50057.751465	4141.069560	27534.501120
54.035500	-0.032152	-0.024152	-0.003951	-0.145851	8127.241581	55633.558123	4319.541355	30707.733532
54.536000	-0.013947	-0.017136	0.000857	-0.131292	8173.007691	54722.443301	4282.909800	29783.884296
55.036500	-0.019650	-0.014006	-0.002873	-0.107427	7812.697197	52298.148517	4183.585057	28334.971682
55.536500	-0.008283	-0.014090	-0.000728	-0.139239	8347.314584	56055.564603	4306.715324	30284.311935
56.037000	0.004625	-0.009841	0.005114	-0.149733	8660.049136	57897.178974	4369.472218	30959.309943
56.537000	0.017535	-0.006284	0.000815	-0.144741	8769.752500	57715.244824	4333.491085	30636.212057
57.034500	0.022411	-0.001450	0.009644	-0.121608	8519.804875	55446.232485	4279.582550	29186.339904
57.537500	0.030561	0.005474	0.019695	-0.092543	8246.097862	52825.445701	4210.610848	27470.772482
58.035000	0.047770	0.014043	0.035026	-0.076844	8265.420025	52009.636257	4209.303238	26590.791841
58.535500	0.053212	0.018956	0.037414	-0.055273	8062.462456	50154.979300	4142.773947	25432.448018
59.036000	0.051598	0.020790	0.044384	-0.038193	7836.464145	48518.638070	4108.873217	24555.202453
59.536000	0.053594	0.021997	0.045498	-0.028230	7743.068287	47604.512057	4079.843417	24059.193931
60.059000	0.054001	0.023332	0.051168	-0.018548	7636.466291	46750.045659	4066.871258	23587.922570
60.542000	0.057454	0.024918	0.055628	-0.008435	7561.310847	45894.025490	4048.800518	23106.794058
61.037000	0.058953	0.026825	0.054074	0.002113	7461.049339	45043.574916	4010.899292	22616.807222
61.537500	0.061174	0.028000	0.061741	0.009180	7408.189657	44473.197283	4012.751682	22295.064436
62.035000	0.063362	0.029393	0.067325	0.018491	7331.568067	43718.942389	4001.273300	21879.119829
62.534500	0.067904	0.031954	0.069366	0.028159	7277.208197	43053.500695	3978.092429	21456.567807
63.036000	0.071151	0.032968	0.070674	0.036700	7221.727940	42360.410132	3956.474757	21090.970776
63.535500	0.075197	0.035312	0.076530	0.044370	7184.147921	41877.398551	3951.113511	20768.794676
64.035500	0.076943	0.037310	0.080180	0.051420	7129.686417	41424.482162	3941.119386	20477.591488
64.536000	0.081441	0.039561	0.083775	0.057626	7112.298446	41073.591318	3933.497851	20225.146105
65.042000	0.083569	0.040953	0.089794	0.062932	7080.121093	40729.569925	3935.574521	20012.167078
65.537000	0.087402	0.043861	0.091149	0.068161	7066.042945	40526.920429	3924.328834	19804.758772
66.037500	0.091221	0.046200	0.094045	0.072809	7057.725477	40326.454078	3919.279243	19622.539896
66.534500	0.095853	0.047622	0.098984	0.076823	7063.926386	40102.671403	3921.942988	19466.696886
67.035000	0.100169	0.049523	0.101334	0.081173	7063.587839	39892.482631	3916.189337	19299.466916
67.535000	0.103017	0.052075	0.106613	0.085273	7051.019218	39760.249064	3919.576921	19143.343552
68.035500	0.106914	0.053914	0.107185	0.090140	7041.306752	39502.823100	3907.276667	18959.920007
68.536000	0.108588	0.055559	0.117004	0.093834	7021.164062	39329.802515	3924.858432	18822.098632
69.036000	0.110735	0.057275	0.113541	0.099565	6985.629454	38992.828902	3898.559631	18610.528702
69.539000	0.113241	0.058223	0.119451	0.102933	6977.128977	38791.272572	3905.774163	18487.504949
70.037000	0.117399	0.060650	0.121421	0.107891	6969.262608	38581.722311	3897.300633	18308.142409
70.537000	0.120527	0.062044	0.124968	0.113304	6946.848069	38251.385679	3892.036473	18114.628284
71.037500	0.123599	0.064358	0.122915	0.119291	6918.418001	37952.159366	3869.612027	17903.357597
71.537500	0.127817	0.066791	0.130255	0.124420	6909.584362	37734.105315	3875.737444	17724.697857
72.035000	0.131333	0.067998	0.132588	0.129354	6895.853902	37434.999981	3868.536132	17554.803285
72.535000	0.134810	0.069808	0.132425	0.134392	6880.788276	37177.818298	3854.261166	17383.285289
73.035500	0.138126	0.071584	0.138547	0.141555	6843.906695	36753.084095	3851.423941	17142.849235
73.536000	0.139205	0.072905	0.140546	0.144875	6822.570841	36596.839223	3847.835523	17032.756878
74.036000	0.141324	0.075225	0.146126	0.149865	6795.397082	36389.212810	3849.437127	16868.837943
74.536500	0.145109	0.077020	0.148408	0.155528	6777.712018	36090.646762	3840.284927	16685.080588
75.037000	0.147845	0.078139	0.150866	0.160692	6754.979733	35781.327621	3833.015484	16519.620952
75.537000	0.149651	0.080045	0.154867	0.165602	6726.085275	35553.410047	3830.579976	16364.072190
76.037500	0.154921	0.081858	0.156910	0.171027	6724.648427	35281.534064	3821.574730	16194.270988
76.534500	0.156161	0.082765	0.158454	0.174831	6700.943438	35065.000459	3815.595235	16076.449623
77.035000	0.158602	0.085228	0.160265	0.182024	6657.392111	34714.710845	3801.480529	15856.497209
77.535500	0.161945	0.086615	0.165592	0.185940	6652.162967	34528.905104	3805.163828	15738.242324
78.035500	0.165570	0.088854	0.163464	0.190932	6639.742522	34327.902012	3786.699547	15589.077393
78.536000	0.167561	0.090456	0.169922	0.196057	6611.405639	34072.509430	3790.131904	15437.684870
79.036000	0.169128	0.091964	0.172284	0.201663	6575.178621	33778.075332	3781.793691	15274.128586
79.536500	0.172465	0.092434	0.175198	0.205718	6568.781610	33522.793915	3778.874563	15157.145358
80.037000	0.173988	0.093410	0.176077	0.209989	6544.364595	33289.994110	3770.242959	15035.079853
80.537500	0.176224	0.095505	0.181574	0.215723	6513.507139	33034.907994	3769.642354	14873.083189
81.037000	0.178870	0.097272	0.182644	0.221864	6482.929879	32731.158614	3756.874023	14701.970231
81.535000	0.182405	0.098782	0.187896	0.225623	6480.981209	32576.167162	3760.617725	14598.404010
82.035500	0.183171	0.100272	0.189338	0.230172	6448.170193	32366.593885	3752.837738	14474.256173
82.535500	0.187253	0.100945	0.192800	0.234511	6445.951457	32117.411169	3750.653793	14357.058832
83.036000	0.184792	0.100921	0.191037	0.238451	6391.118006	31850.263223	3736.549226	14251.640462
83.539000	0.187810	0.101790	0.192848	0.242055	6386.142872	31667.385762	3732.151572	14156.049098
84.036500	0.192778	0.103498	0.196279	0.247204	6384.604737	31439.033328	3727.957747	14020.868380
84.537000	0.194343	0.105859	0.199911	0.252419	6353.750937	31250.859320	3724.106596	13885.545473
85.037000	0.193081	0.106289	0.205847	0.256699	6307.404327	30999.098093	3728.135135	13775.709008
85.537500	0.197100	0.107555	0.204906	0.260835	6306.432216	30812.818508	3715.833831	13670.601490
86.037500	0.199024	0.108521	0.211793	0.265040	6287.525331	30604.046653	3722.312956	13564.730583
86.535000	0.201536	0.110665	0.212683	0.269654	6270.206038	30446.012205	3713.325750	13449.771870
87.035500	0.201034	0.111520	0.209608	0.274343	6227.756222	30202.267870	3694.829090	13334.151771
87.535500	0.204543	0.112302	0.212868	0.277095	6233.920569	30077.901101	3696.030680	13266.893354
88.039000	0.207335	0.114210	0.217746	0.282735	6210.809766	29843.830791	3694.231480	13130.355338
88.536000	0.210163	0.115834	0.225480	0.287960	6191.471594	29619.849958	3700.167855	13005.434008
89.037000	0.208766	0.116225	0.226222	0.290257	6161.893619	29502.085141	3696.485089	12951.008769
89.537000	0.210856	0.117017	0.226562	0.293638	6151.616069	29342.913106	3689.318704	12871.402403
90.037500	0.215880	0.117592	0.229670	0.297823	6158.292682	29122.563115	3686.793874	12773.706450
90.537000	0.215991	0.118797	0.233060	0.302774	6119.943867	28895.819788	3683.143712	12659.355755
91.035000	0.220509	0.120476	0.230741	0.306580	6125.559929	28767.918527	3668.949289	12572.320104
91.535000	0.220149	0.120755	0.235394	0.309799	6097.425669	28592.163993	3672.254075	12499.297124
92.035500	0.222647	0.122445	0.237620	0.313364	6089.092439	28480.717825	3669.166200	12419.067306
92.536000	0.223303	0.123522	0.232132	0.318026	6057.957061	28268.922895	3646.073756	12315.131461
93.036000	0.226006	0.123677	0.242190	0.320570	6059.186195	28128.816688	3663.118331	12258.886160
93.536500	0.229228	0.126671	0.240057	0.325582	6045.366207	28011.033597	3646.903821	12149.036520
94.037000	0.231141	0.127333	0.245102	0.328291	6039.232987	27892.078440	3652.175349	12090.186991
94.537000	0.232099	0.127928	0.245053	0.333214	6008.875495	27642.513524	3640.991631	11984.180241
95.037500	0.234087	0.129125	0.251754	0.336172	6001.483596	27541.640363	3649.399645	11921.054090
95.537000	0.237192	0.131253	0.252319	0.339686	5998.372543	27462.567621	3642.768746	11846.620989
96.035500	0.236116	0.130640	0.254520	0.340994	5980.305355	27353.370901	3644.770656	11819.065719
96.534500	0.236266	0.132543	0.250755	0.346835	5937.576777	27131.006480	3623.436082	11697.033636
97.035500	0.239827	0.132902	0.255934	0.348233	5953.760960	27072.716157	3631.778804	11668.081634
97.535500	0.243336	0.134626	0.259984	0.350912	5959.984301	27019.223506	3634.822199	11612.843011
98.036000	0.244936	0.135874	0.263143	0.354807	5942.791394	26871.554367	3633.185514	11533.115481
98.536500	0.243494	0.135263	0.262583	0.359781	5895.214711	26562.955329	3620.983602	11432.365713
99.036500	0.245045	0.138152	0.270069	0.362097	5889.590992	26594.489357	3632.378584	11385.844728
99.537000	0.248213	0.138378	0.266454	0.363977	5899.064223	26503.688461	3620.271950	11348.247461
100.058000	0.253427	0.140752	0.272656	0.367694	5910.118919	26430.300488	3625.728905	11274.429030
100.535000	0.250118	0.139785	0.265667	0.368781	5877.774862	26318.441634	3608.111816	11252.960876
101.065500	0.254187	0.141201	0.272133	0.373570	5872.507377	26135.824478	3611.742217	11158.994501
101.535000	0.257034	0.142529	0.271375	0.375687	5877.844873	26093.359158	3605.526652	11117.789545
102.041500	0.257464	0.142632	0.274360	0.378263	5862.168313	25960.633198	3606.407584	11067.906872
102.536000	0.257438	0.143290	0.276584	0.380075	5848.809009	25898.975358	3607.297002	11033.009340
103.063500	0.261617	0.145010	0.280912	0.384932	5843.900724	25732.179909	3606.156194	10940.178116
103.537000	0.259475	0.145314	0.284661	0.385758	5822.475193	25704.471568	3612.479569	10924.481957
