sample name	sample
index	1128
start time	 04-22-2021  02:10:18 PM
880	0.458378
Peak Time (s)	102.537
Peak Height 	0.4584
calc peak height	100,103
Baseline Time (s)	10.536
Baseline Value 	-0.00569
subtract baseline	10,4
Abs	0.313548
Peak Time (s)	100.041
Peak Height 	0.3135
calc peak height	100,103
Baseline Time (s)	8.537
Baseline Value 	5.7476E-4
subtract baseline	10,3
PK_550	0.181858
Peak Time (s)	102.537
Peak Height 	0.1819
calc peak height	100,103
Baseline Time (s)	11.536
Baseline Value 	4.1972E-4
subtract baseline	10,2
PK_880	0.300479
Peak Time (s)	100.041
Peak Height 	0.3005
calc peak height	100,103
Baseline Time (s)	8.537
Baseline Value 	0.001899
subtract baseline	10,1


Time (s)	A880-A510	A880-A775	A880-A975	A880	I510	I775	I975	I880	
0.035000	0.000371	-0.000764	-0.001758	0.002049	6290.595275	43154.284994	3916.097605	22724.014066
0.535000	-0.002583	0.000082	-0.000179	0.004641	6248.313054	42993.298773	3913.784126	22606.412680
1.035500	-0.001096	-0.000926	0.003565	0.003735	6266.485334	42983.839605	3924.442359	22647.431286
1.538000	-0.004435	-0.000108	-0.002750	0.006724	6218.637794	42784.681753	3903.228969	22512.422270
2.036500	0.001300	-0.001017	-0.001337	0.000526	6309.457891	43271.747557	3920.551238	22793.442532
2.536500	-0.001604	0.000311	-0.000999	0.000892	6284.319315	43360.950664	3920.485206	22776.713582
3.036500	-0.000469	0.000386	0.005858	-0.001309	6309.966106	43572.866737	3941.496626	22877.404785
3.537000	0.000169	-0.000457	-0.006826	0.000648	6299.805949	43312.353830	3907.752473	22787.860378
4.037000	0.000063	-0.001105	-0.003275	-0.000606	6308.644875	43368.619853	3918.701102	22845.183860
4.537500	-0.001072	-0.000112	0.001066	0.000307	6292.889656	43376.064829	3926.588657	22803.448372
5.035000	0.000126	0.000110	-0.000116	0.000531	6300.373900	43375.897451	3923.345119	22793.201076
5.535000	0.000300	-0.000019	-0.001361	0.001420	6294.872812	43281.331439	3918.443550	22752.635031
6.036000	0.002049	-0.000392	-0.003781	0.000158	6318.082284	43363.829761	3915.793988	22810.223012
6.536000	0.001108	-0.000234	0.001956	-0.000208	6313.647727	43412.616257	3929.838376	22826.990914
7.036500	-0.003264	-0.000213	0.002294	-0.000313	6280.837896	43424.270436	3930.863938	22831.771842
7.536000	0.001798	0.000210	0.003919	0.000296	6315.081758	43407.016668	3933.223171	22803.945093
8.036500	-0.001828	0.000098	0.000363	-0.000152	6290.613507	43438.260069	3926.025854	22824.431956
8.537000	0.000000	-0.000374	0.000000	-0.000253	6305.437920	43403.712232	3925.418552	22829.015765
9.037000	0.000940	0.000053	0.005157	0.000057	6310.301046	43414.615728	3936.663343	22814.867159
9.535500	-0.002659	-0.000671	-0.002383	0.000117	6282.176915	43341.780921	3919.088859	22812.105666
10.035000	0.000132	0.000328	0.001796	-0.000050	6304.888202	43450.079960	3929.100130	22819.736249
10.535500	-0.000185	0.000193	-0.002641	0.000000	6302.063471	43432.914651	3918.766686	22817.463900
11.035000	-0.000599	-0.000231	0.003222	-0.000190	6300.339660	43411.173815	3932.733009	22826.150340
11.536000	0.000110	0.000000	-0.002533	0.000005	6304.305083	43414.529796	3919.000811	22817.240400
12.036000	-0.000549	-0.000144	-0.004572	-0.000953	6306.602131	43490.276898	3916.525935	22861.071998
12.536000	0.000263	0.000327	0.003080	0.000325	6303.008704	43415.115720	3931.207973	22802.599045
13.037000	0.001646	-0.000512	0.000943	-0.001250	6325.870637	43483.667237	3929.903668	22874.689736
13.534000	0.000487	0.000117	0.001706	0.000344	6304.592739	43393.840744	3927.981475	22801.730287
14.037000	-0.001793	-0.000736	0.001800	0.001513	6278.123594	43206.448693	3925.497666	22748.424977
14.540500	-0.002195	0.000316	-0.001462	0.001918	6271.961866	43266.358267	3917.073506	22729.989223
15.035000	0.000347	-0.000425	0.004335	-0.000863	6312.824484	43455.782601	3936.893698	22856.968788
15.536000	-0.002096	-0.000549	-0.002160	0.000502	6283.541774	43317.397818	3918.719658	22794.550042
16.035500	0.002597	0.000544	0.004199	-0.000524	6327.613323	43514.451370	3935.783393	22841.435601
16.536000	0.000771	0.000545	0.001515	-0.000551	6313.689132	43517.056320	3929.610948	22842.671042
17.036500	0.001067	0.000233	0.000348	-0.000924	6318.861110	43522.715986	3927.773361	22859.737261
17.537000	-0.001019	0.000461	0.001421	0.001483	6284.276873	43320.046568	3924.692543	22749.777915
18.037500	0.000496	0.000156	0.003926	0.001015	6299.496702	43335.195303	3931.568980	22771.109799
18.537500	-0.003272	-0.000342	0.001848	0.000432	6275.089322	43343.120311	3928.105741	22797.732032
19.034500	-0.003864	-0.000699	0.002420	0.000172	6272.550518	43334.044403	3930.031016	22809.589906
19.535000	0.000313	0.000431	-0.002145	0.001113	6297.336268	43351.663890	3917.353745	22766.659793
20.035500	0.001264	0.000123	0.005928	0.001083	6304.888894	43325.887802	3936.069572	22768.031802
20.535500	-0.001685	0.000637	0.002743	0.001229	6281.121748	43359.979813	3928.333617	22761.365065
21.036000	0.000019	0.000582	-0.002415	0.001278	6293.808999	43350.322578	3916.356431	22759.104265
21.535500	0.001050	0.000511	0.000122	0.001713	6298.383184	43303.311743	3921.173860	22739.292469
22.037000	-0.000956	0.000070	-0.000433	0.001224	6286.745962	43307.907979	3921.024496	22761.606789
22.536500	-0.001225	0.000418	0.002947	0.001890	6279.585985	43278.413834	3927.277105	22731.266953
23.037000	-0.000000	0.000529	0.005024	0.001766	6289.916304	43300.105854	3932.375531	22736.891282
23.534000	-0.001316	-0.000041	0.000572	0.001355	6282.982965	43285.403606	3923.033550	22755.621108
24.035000	-0.001815	-0.000028	0.002383	0.001557	6277.619677	43267.906544	3926.743599	22746.424887
24.535500	-0.001703	0.000146	0.003584	0.001519	6278.768374	43287.458430	3929.607953	22748.133677
25.036000	-0.000249	0.000481	-0.002312	0.001565	6289.544654	43314.274565	3915.936674	22746.030648
25.536000	-0.001295	0.000259	-0.000868	0.001302	6283.552792	43318.132790	3919.846799	22758.039831
26.036000	-0.001271	-0.000641	0.002170	0.000687	6288.445316	43291.724617	3928.259615	22786.075218
26.536000	-0.001684	0.000082	0.002876	0.001025	6282.691801	43327.371406	3929.111611	22770.661179
27.037000	-0.000738	0.000012	0.005230	0.001873	6283.445625	43242.365876	3932.606333	22732.034161
27.539500	0.000608	0.000235	0.004324	-0.001526	6319.971268	43579.009255	3938.413261	22887.343422
28.037500	0.000903	-0.000331	0.002359	-0.000457	6313.984347	43426.757978	3931.350124	22838.386299
28.537500	-0.001493	-0.000195	0.000136	-0.000442	6295.411265	43438.018185	3926.169502	22837.697301
29.035500	-0.000926	-0.000222	-0.000518	0.001785	6282.673865	43228.824104	3919.539585	22736.026374
29.534500	0.001583	0.000584	-0.001525	0.000403	6312.590189	43431.779261	3920.400153	22799.050555
30.036000	0.000843	-0.000136	0.005435	-0.000525	6314.043588	43451.161279	3938.670366	22841.462433
30.536000	-0.000115	-0.000322	0.003786	-0.000709	6308.072181	43451.003478	3935.252881	22849.909768
31.036000	-0.002061	-0.000029	0.000764	0.003413	6261.598492	43096.201179	3918.748061	22662.046169
31.536500	-0.000662	-0.000398	-0.000559	-0.000294	6300.659678	43405.308044	3924.225224	22830.927357
32.036500	0.001281	0.000354	-0.002177	-0.000369	6316.224131	43482.221976	3920.676640	22834.335040
32.540000	0.002077	0.000101	0.005055	-0.000432	6322.867987	43464.555760	3937.566963	22837.213938
33.037500	-0.001502	0.000938	0.000706	0.003044	6268.659553	43219.629910	3919.461210	22678.807396
33.534500	-0.001264	0.000429	-0.002711	0.000977	6286.276137	43364.055990	3916.368309	22772.842052
34.035500	0.001039	0.000418	0.004610	-0.000448	6314.960016	43495.553358	3936.564020	22837.942546
34.535500	0.000497	0.000219	-0.003560	0.001883	6292.832984	43260.570023	3912.364644	22731.564034
35.035500	0.000353	0.000145	0.001149	0.003037	6282.884098	43146.911175	3920.491661	22679.096832
35.536000	-0.001392	-0.000125	0.006921	0.001761	6279.298280	43239.980709	3936.803618	22737.127987
36.036500	-0.000644	-0.000025	0.000964	0.001694	6285.527055	43255.468174	3923.153461	22740.154399
36.536500	-0.002395	-0.000452	0.003299	0.001604	6272.831207	43224.290728	3928.752032	22744.286755
37.037000	-0.001050	0.000598	0.004155	0.003929	6265.358327	43106.435218	3925.356565	22638.649216
37.537500	-0.002006	-0.000313	-0.000520	0.001565	6276.101899	43240.809377	3920.041091	22746.059167
38.034500	-0.001407	0.000057	-0.003368	0.001704	6279.620966	43262.132950	3913.211166	22739.725179
38.535000	-0.001536	0.001095	0.002748	0.002821	6270.101292	43254.770647	3924.666551	22688.912319
39.035500	-0.001072	-0.000229	0.005367	0.001559	6283.293941	43249.146742	3933.653688	22746.334678
39.535500	-0.001528	0.001372	0.004055	0.002918	6269.419208	43271.432503	3927.459450	22684.503343
40.036000	0.001317	0.000436	0.002348	0.002050	6297.855007	43265.166260	3925.523814	22723.970929
40.536000	-0.001790	0.000180	0.001412	0.001682	6276.857848	43275.584981	3924.213570	22740.734026
41.036500	-0.001963	-0.000602	0.001594	0.002995	6265.517027	43081.925002	3921.611434	22681.001901
41.537000	-0.002479	0.000284	0.002183	0.001894	6269.975992	43265.493124	3925.500368	22731.043277
42.040000	0.000095	-0.000173	0.000826	0.001670	6291.383933	43244.018269	3922.891622	22741.269699
42.537500	-0.000835	0.000031	-0.000267	0.002032	6281.480207	43229.289763	3919.549947	22724.773843
43.034500	0.000804	-0.000329	0.007117	0.001024	6301.791576	43289.346023	3938.981780	22770.684069
43.535000	-0.000691	-0.000906	0.001193	0.000940	6290.952992	43243.726140	3925.419980	22774.534214
44.035500	-0.000248	0.000131	0.009238	-0.001217	6310.966429	43540.566151	3949.232872	22873.181166
44.535500	-0.000096	-0.000582	0.003869	-0.000638	6307.667477	43420.204056	3935.280750	22846.648758
45.036500	-0.002324	-0.000086	0.002706	-0.000535	6289.745895	43456.781357	3932.337437	22841.959367
45.539000	0.001185	0.000735	0.000367	0.000917	6305.559070	43398.023837	3923.568708	22775.579393
46.036500	0.000953	0.000495	0.006637	-0.000158	6312.060431	43475.768926	3940.624714	22824.690620
46.536500	-0.000233	0.000326	0.006395	-0.000517	6305.682986	43493.414799	3940.898860	22841.111276
47.037000	-0.003291	-0.000778	0.000183	0.004327	6245.328536	42943.103784	3915.326446	22620.634531
47.534500	-0.000758	-0.000224	0.000421	0.001825	6283.651906	43224.851511	3921.604445	22734.192570
48.035000	0.000807	0.000042	-0.000905	0.002238	6292.492856	43211.333726	3917.615963	22715.427069
48.535000	0.002865	0.000422	-0.003272	-0.000137	6326.695314	43466.947775	3917.634072	22823.722925
49.035500	-0.004236	0.000459	0.001798	0.004581	6236.269249	43033.583749	3918.440760	22609.158500
49.535500	0.000033	-0.000016	0.004216	0.001542	6291.894569	43270.450905	3931.020515	22747.115871
50.036500	0.002540	0.000086	0.004804	-0.002733	6344.355525	43677.903289	3942.363580	22942.798144
50.536500	0.000636	0.000242	0.007756	0.000274	6306.287746	43412.089367	3942.237438	22804.960134
51.036500	-0.001450	-0.001662	-0.000682	0.016476	6168.234947	41763.153339	3886.048560	22078.345147
51.540000	0.022921	-0.014123	0.008046	0.520773	4021.515723	14817.219258	3231.043950	8948.372590
52.034500	0.003647	-0.018586	-0.006042	-0.083445	7046.280305	49919.299720	4120.182182	27023.401356
52.535000	-0.007516	-0.037457	-0.008903	-0.189459	8044.053361	60337.393300	4440.995879	33675.540282
53.035000	-0.004679	-0.031374	0.001271	-0.185642	8032.588327	60637.185194	4463.370061	33406.797338
53.535500	0.007320	-0.019815	0.010893	-0.161503	7892.716606	58992.589566	4412.752713	31760.881821
54.035500	0.019310	-0.010662	0.020643	-0.107380	7436.517203	53488.113511	4268.112585	28386.638078
54.536000	0.016345	-0.005328	0.015603	-0.089818	7229.781864	52087.285711	4199.926468	27379.067297
55.035500	0.016919	0.000877	0.021003	-0.045013	6816.185589	47915.524057	4089.214025	24985.718897
55.537000	0.029619	0.002059	0.033387	-0.083133	7295.077356	52166.627912	4232.966319	27006.121596
56.035000	0.042363	0.012363	0.046217	-0.068065	7271.931572	51630.611568	4226.233910	26186.218195
56.537500	0.049778	0.022250	0.054110	-0.024076	6923.555986	47960.665117	4122.341563	23949.218614
57.034500	0.062731	0.029658	0.069948	-0.000156	6824.680187	46284.486681	4100.240340	22824.597426
57.534500	0.081080	0.037309	0.087512	0.021221	6797.824025	44938.927356	4089.954234	21870.642989
58.035500	0.094425	0.046706	0.102087	0.054769	6623.312384	42672.213923	4040.094757	20465.085438
58.535500	0.108890	0.055006	0.115378	0.086894	6477.273352	40556.200430	3992.708417	19217.167459
59.035500	0.120437	0.061831	0.119325	0.126380	6258.029670	37837.836993	3908.703207	17804.550797
59.536500	0.137703	0.071972	0.141267	0.151556	6198.473562	36653.534613	3901.393930	16968.647297
60.036500	0.148383	0.077667	0.153259	0.179708	6070.718177	34959.261840	3865.677940	16089.589260
60.536000	0.162168	0.086982	0.165983	0.206747	5977.169005	33682.547882	3835.129782	15297.246270
61.040000	0.166606	0.092223	0.171385	0.232288	5834.000357	32282.913700	3793.822570	14592.800501
61.537500	0.181096	0.099387	0.186300	0.223729	5990.724510	33361.196099	3842.155806	14824.252913
62.038000	0.190857	0.106964	0.198417	0.258316	5822.257499	31532.487112	3795.837321	13916.286308
62.535000	0.193939	0.109659	0.195189	0.262404	5815.628862	31441.268695	3781.266261	13813.678220
63.035000	0.192318	0.111252	0.204185	0.265614	5784.020743	31335.630693	3792.769811	13733.760399
63.535500	0.200609	0.114610	0.205666	0.265189	5841.300554	31583.244917	3796.593453	13744.309703
64.035500	0.204028	0.115522	0.209004	0.266847	5853.014755	31534.241769	3799.975925	13703.216920
64.537000	0.207344	0.117909	0.213639	0.270435	5851.207690	31455.608868	3802.092341	13614.871170
65.037000	0.211390	0.119514	0.218693	0.273424	5858.252742	31365.141299	3806.279625	13541.812905
65.539500	0.213960	0.122656	0.222268	0.277761	5846.478017	31287.261589	3804.732193	13436.684750
66.037000	0.212621	0.123643	0.225715	0.281339	5813.965279	31119.197101	3804.465552	13350.744908
66.537500	0.216266	0.125138	0.226029	0.285955	5807.582893	30918.060505	3795.781652	13240.919632
67.035000	0.221354	0.128154	0.228265	0.291437	5805.001301	30760.189535	3789.288463	13112.005194
67.535000	0.223943	0.129990	0.234773	0.296390	5789.556268	30561.983564	3792.393689	12996.931689
68.035500	0.231774	0.132202	0.236499	0.301198	5809.328592	30397.872351	3786.249579	12886.450990
68.536000	0.233036	0.132967	0.236294	0.303848	5800.227061	30279.353939	3780.597196	12826.085697
69.036500	0.232342	0.135102	0.242437	0.313298	5734.623112	29824.272222	3774.095229	12613.787183
69.537000	0.235922	0.135752	0.247058	0.312524	5762.595657	29912.300973	3784.727624	12631.010509
70.036500	0.239004	0.138908	0.250955	0.315016	5766.409545	29953.415221	3787.518268	12575.688834
70.536500	0.242840	0.139072	0.251189	0.317027	5778.233630	29839.177663	3783.991167	12531.286728
71.037500	0.244908	0.142253	0.250559	0.320613	5768.388008	29814.124664	3775.677294	12452.593974
71.537500	0.249553	0.143436	0.255585	0.323983	5776.652214	29679.677738	3778.934071	12379.256378
72.038000	0.248970	0.144844	0.255022	0.324957	5766.572049	29706.277020	3775.911712	12358.163331
72.535500	0.251401	0.147179	0.261695	0.327420	5766.361075	29698.422892	3784.213414	12305.026775
73.036000	0.252845	0.147734	0.260682	0.334819	5728.126740	29281.557117	3767.704910	12147.229547
73.536500	0.256690	0.149073	0.265263	0.331755	5772.531005	29548.921147	3782.694677	12212.234534
74.036000	0.260326	0.151265	0.255655	0.332854	5789.024979	29615.812381	3761.773939	12188.867000
74.536500	0.259811	0.152313	0.263643	0.334053	5777.871565	29606.495285	3774.977589	12163.423092
75.039500	0.259912	0.152241	0.266804	0.335402	5769.786020	29519.775766	3778.540375	12134.909062
75.537000	0.261756	0.153583	0.269448	0.338492	5761.732096	29413.325025	3777.662077	12069.871165
76.037500	0.263151	0.153705	0.269678	0.337839	5774.982405	29460.463999	3779.399514	12083.580562
76.534500	0.266639	0.154708	0.275657	0.341269	5775.354402	29313.176381	3784.438656	12011.829844
77.035000	0.267248	0.156218	0.275407	0.343785	5763.016518	29252.401060	3778.972613	11959.562855
77.535500	0.264240	0.157289	0.278435	0.346301	5727.568918	29165.308882	3779.981495	11907.584974
78.035500	0.267684	0.158391	0.277354	0.348610	5734.815805	29092.803667	3773.323466	11860.166085
78.536000	0.268538	0.158363	0.277445	0.350886	5725.737495	28954.898074	3769.057361	11813.649011
79.036000	0.269182	0.159120	0.275984	0.353327	5714.310012	28854.567514	3761.494594	11764.046265
79.536500	0.268772	0.161484	0.280248	0.358193	5681.037965	28706.283685	3760.334627	11665.995599
80.036500	0.271083	0.162110	0.281524	0.360032	5683.993282	28634.613126	3759.250917	11629.216138
80.537000	0.270873	0.161311	0.284021	0.361902	5670.973365	28477.821094	3760.458067	11591.987662
81.037000	0.269411	0.161963	0.281867	0.369449	5615.290286	28077.038887	3741.971012	11443.335819
81.535500	0.276839	0.164497	0.285231	0.369080	5663.411500	28244.966503	3749.035217	11450.533210
82.035000	0.275962	0.164056	0.291720	0.370731	5647.718832	28123.853231	3758.284330	11418.340981
82.535500	0.276196	0.164076	0.289021	0.373415	5632.587296	27970.387993	3748.000858	11366.246266
83.036000	0.277744	0.164765	0.289323	0.380936	5596.063432	27581.138437	3734.408848	11221.967541
83.536000	0.279720	0.164463	0.291144	0.377498	5629.143428	27759.029480	3744.288037	11287.602089
84.036500	0.279638	0.166598	0.295152	0.381193	5606.022397	27670.404203	3744.880449	11217.084886
84.539500	0.279736	0.165296	0.296024	0.381693	5603.571392	27568.402317	3745.583546	11207.583168
85.037000	0.280506	0.168352	0.286047	0.388482	5567.166701	27358.380227	3714.454991	11079.710298
85.534000	0.280841	0.167906	0.294714	0.388067	5571.676952	27356.708334	3731.167410	11087.476906
86.035000	0.284106	0.169853	0.295923	0.390905	5574.242535	27306.779014	3728.143398	11034.548086
86.535000	0.283898	0.168846	0.295198	0.392849	5561.316197	27142.424452	3723.213873	10998.496996
87.035000	0.284140	0.168975	0.296854	0.397846	5532.974372	26873.670129	3717.086133	10906.573062
87.535500	0.284742	0.169758	0.295483	0.398152	5534.729805	26899.909441	3714.027332	10900.981223
88.036000	0.288297	0.170841	0.299476	0.401401	5536.545023	26781.148596	3715.383553	10841.817414
88.536500	0.287298	0.170752	0.301302	0.403965	5515.479186	26636.561162	3714.039209	10795.444455
89.037000	0.285473	0.170224	0.295553	0.408326	5479.317337	26372.343841	3695.849919	10717.184977
89.537000	0.289024	0.172079	0.303312	0.409016	5495.979942	26435.037552	3708.522300	10704.875956
90.037000	0.288707	0.172838	0.303487	0.411467	5479.855543	26343.999111	3704.419759	10661.303655
90.534500	0.289159	0.173833	0.302960	0.414921	5462.487633	26212.424546	3697.295393	10600.324899
91.035000	0.287945	0.173480	0.304151	0.419095	5431.615255	25972.072282	3691.999662	10527.280290
91.535000	0.294926	0.175855	0.302200	0.420415	5464.065195	26027.861129	3686.233015	10504.323325
92.035500	0.290468	0.173585	0.301741	0.419770	5442.163565	25941.944990	3686.558941	10515.528121
92.536000	0.294466	0.176333	0.300847	0.425240	5433.761163	25798.869341	3675.461413	10421.011959
93.036500	0.293660	0.175826	0.304792	0.427160	5418.267364	25671.975204	3678.974761	10388.105710
93.536500	0.292767	0.175732	0.307361	0.428327	5406.630142	25606.329408	3681.416189	10368.179487
94.039000	0.294079	0.175782	0.306030	0.429625	5406.710727	25541.546045	3676.842869	10346.080243
94.537500	0.293985	0.175463	0.309220	0.432005	5392.800371	25402.072124	3678.248753	10305.728014
95.037000	0.292434	0.176709	0.307672	0.436875	5357.077764	25216.248401	3667.179317	10223.855493
95.534500	0.295564	0.177216	0.303997	0.437321	5371.944767	25219.327397	3660.156461	10216.404701
96.038000	0.296296	0.177573	0.309493	0.438642	5368.672297	25170.125102	3667.270981	10194.372928
96.535500	0.294947	0.178781	0.311688	0.441075	5347.773460	25107.751809	3666.862102	10153.969832
97.035500	0.296679	0.177391	0.311368	0.442059	5351.895163	24987.457555	3664.636155	10137.709237
97.536500	0.296824	0.180135	0.314519	0.445909	5331.567093	24931.655359	3663.443654	10074.388914
98.036500	0.293768	0.179982	0.311247	0.446483	5311.814681	24895.033911	3656.921391	10064.995787
98.539000	0.297428	0.178258	0.317220	0.446545	5331.389815	24805.305965	3666.970377	10063.979272
99.037000	0.294917	0.179719	0.317600	0.450618	5295.685094	24674.719407	3660.674871	9997.692577
99.540000	0.297483	0.179666	0.312286	0.451152	5306.650806	24645.506038	3650.815822	9989.052911
100.040500	0.300479	0.180537	0.313548	0.452078	5317.865783	24642.782563	3651.378265	9974.082747
100.535000	0.297620	0.181361	0.310183	0.453757	5293.341799	24600.273279	3642.974090	9947.031866
101.035500	0.296973	0.179795	0.304449	0.453368	5291.954756	24541.861501	3634.173963	9953.287285
101.535500	0.297845	0.180736	0.312078	0.456661	5278.982073	24425.724668	3641.305610	9900.488923
102.036000	0.297917	0.179337	0.310803	0.455813	5283.902018	24398.604264	3640.599140	9914.042443
102.536500	0.294890	0.181858	0.312147	0.458378	5254.154029	24396.405207	3638.585439	9873.111732
103.039500	0.295337	0.178363	0.308539	0.457063	5263.488521	24289.471284	3634.821596	9894.074741
103.537000	0.297260	0.180763	0.311641	0.460138	5257.383464	24256.442922	3634.865250	9845.171281
104.034000	0.297559	0.181086	0.311604	0.460522	5256.929746	24253.480291	3634.175753	9839.088136
104.536500	0.298088	0.180677	0.311257	0.461604	5254.005507	24180.787593	3631.842065	9821.982246
105.035000	0.298851	0.181703	0.310449	0.464207	5244.302329	24104.121222	3626.301262	9780.993718
105.535000	0.298029	0.180391	0.313251	0.463353	5244.472146	24081.900811	3632.241924	9794.413831
106.035000	0.296123	0.180704	0.305357	0.464212	5229.962564	24055.423094	3618.101517	9780.908321
106.535500	0.298211	0.181810	0.313004	0.465885	5232.128235	24027.975094	3627.720589	9754.690317
