sample name	sample
index	320
start time	 02-25-2021  03:17:06 PM


Wavelength (nm)	Absorbance
494.344910	NaN
494.563924	NaN
494.782919	NaN
495.001897	-0.015914
495.220856	-0.175855
495.439797	-0.207536
495.658719	-0.303836
495.877624	-0.281084
496.096510	-0.249121
496.315378	-0.144875
496.534227	-0.169185
496.753059	-0.168158
496.971872	-0.002010
497.190667	0.123524
497.409444	0.140395
497.628203	0.148158
497.846943	0.146347
498.065665	0.146650
498.284369	0.147651
498.503055	0.148597
498.721723	0.148947
498.940372	0.150809
499.159003	0.152030
499.377616	0.152077
499.596210	0.151188
499.814787	0.152382
500.033345	0.151896
500.251885	0.151810
500.470406	0.152664
500.688910	0.152916
500.907395	0.151621
501.125862	0.152581
501.344311	0.152801
501.562742	0.151846
501.781154	0.152582
501.999548	0.153660
502.217924	0.154372
502.436282	0.154734
502.654621	0.155348
502.872942	0.155389
503.091245	0.155971
503.309530	0.155479
503.527797	0.156743
503.746045	0.155992
503.964275	0.154929
504.182487	0.154373
504.400681	0.154147
504.618856	0.153468
504.837013	0.153129
505.055152	0.152696
505.273273	0.153764
505.491376	0.153866
505.709460	0.155731
505.927526	0.157442
506.145574	0.157978
506.363604	0.158324
506.581615	0.159638
506.799608	0.160625
507.017583	0.160373
507.235540	0.160509
507.453478	0.160810
507.671399	0.158498
507.889301	0.158507
508.107185	0.157692
508.325050	0.157412
508.542898	0.158062
508.760727	0.158084
508.978538	0.158375
509.196330	0.158332
509.414105	0.157952
509.631861	0.159496
509.849599	0.159046
510.067319	0.159907
510.285021	0.160803
510.502704	0.159657
510.720369	0.159699
510.938016	0.160114
511.155645	0.160793
511.373255	0.161122
511.590848	0.160704
511.808422	0.161129
512.025977	0.161356
512.243515	0.161255
512.461034	0.161806
512.678536	0.162065
512.896018	0.163075
513.113483	0.163082
513.330930	0.163804
513.548358	0.164756
513.765768	0.165299
513.983160	0.165361
514.200533	0.166025
514.417889	0.167119
514.635226	0.167485
514.852545	0.167865
515.069845	0.168370
515.287128	0.168459
515.504392	0.168415
515.721638	0.168261
515.938866	0.168310
516.156075	0.167741
516.373267	0.167671
516.590440	0.168019
516.807594	0.167465
517.024731	0.167892
517.241850	0.167693
517.458950	0.167287
517.676032	0.167840
517.893095	0.168283
518.110141	0.169288
518.327168	0.169213
518.544177	0.169312
518.761168	0.169773
518.978141	0.169375
519.195095	0.170380
519.412031	0.170528
519.628949	0.170710
519.845849	0.171836
520.062731	0.170976
520.279594	0.171064
520.496439	0.171285
520.713266	0.171541
520.930074	0.171600
521.146865	0.171447
521.363637	0.172143
521.580391	0.172665
521.797127	0.172174
522.013844	0.172524
522.230543	0.172131
522.447224	0.172739
522.663887	0.172322
522.880532	0.172433
523.097158	0.172839
523.313766	0.173049
523.530356	0.173209
523.746928	0.172874
523.963481	0.173867
524.180017	0.174952
524.396534	0.174834
524.613032	0.175620
524.829513	0.176174
525.045975	0.176262
525.262420	0.177224
525.478845	0.176811
525.695253	0.177298
525.911643	0.177270
526.128014	0.177692
526.344367	0.178521
526.560702	0.178487
526.777018	0.178554
526.993316	0.179140
527.209597	0.179095
527.425858	0.179773
527.642102	0.180889
527.858328	0.180976
528.074535	0.181210
528.290724	0.180977
528.506894	0.181942
528.723047	0.182686
528.939181	0.182900
529.155297	0.183243
529.371395	0.183338
529.587475	0.182821
529.803536	0.182780
530.019579	0.183713
530.235604	0.184227
530.451611	0.184235
530.667600	0.184536
530.883570	0.185160
531.099522	0.185267
531.315456	0.186236
531.531372	0.187461
531.747269	0.188420
531.963148	0.187828
532.179009	0.187887
532.394852	0.188607
532.610676	0.188953
532.826482	0.189277
533.042271	0.189263
533.258040	0.188927
533.473792	0.188711
533.689525	0.189227
533.905240	0.190290
534.120937	0.190610
534.336616	0.190808
534.552277	0.191125
534.767919	0.191588
534.983543	0.191680
535.199149	0.192097
535.414736	0.192826
535.630306	0.192711
535.845857	0.192005
536.061390	0.191927
536.276904	0.191808
536.492401	0.192623
536.707879	0.192862
536.923339	0.194387
537.138781	0.195368
537.354204	0.195428
537.569610	0.196238
537.784997	0.197409
538.000366	0.197898
538.215716	0.198171
538.431049	0.198100
538.646363	0.198015
538.861659	0.198237
539.076937	0.197512
539.292196	0.197426
539.507438	0.197785
539.722661	0.197920
539.937866	0.198151
540.153052	0.198785
540.368221	0.198503
540.583371	0.198683
540.798503	0.198694
541.013617	0.199756
541.228712	0.199997
541.443789	0.200023
541.658848	0.200366
541.873889	0.200844
542.088912	0.201249
542.303916	0.201843
542.518902	0.202158
542.733870	0.201939
542.948820	0.202432
543.163752	0.203302
543.378665	0.203767
543.593560	0.203715
543.808437	0.204472
544.023295	0.204621
544.238136	0.205199
544.452958	0.205521
544.667762	0.206365
544.882548	0.206394
545.097315	0.206746
545.312064	0.206806
545.526795	0.207097
545.741508	0.206777
545.956203	0.206570
546.170879	0.206645
546.385537	0.207070
546.600177	0.207400
546.814799	0.206941
547.029402	0.206652
547.243988	0.207209
547.458555	0.207065
547.673103	0.207746
547.887634	0.208414
548.102146	0.208884
548.316640	0.209039
548.531116	0.208824
548.745574	0.209364
548.960013	0.210429
549.174435	0.210236
549.388838	0.210787
549.603222	0.210845
549.817589	0.211300
550.031937	0.211422
550.246267	0.211427
550.460579	0.211575
550.674873	0.212256
550.889148	0.212304
551.103405	0.212735
551.317644	0.212968
551.531865	0.213059
551.746068	0.212937
551.960252	0.213038
552.174418	0.213425
552.388566	0.213677
552.602696	0.214189
552.816807	0.213783
553.030900	0.213926
553.244975	0.214335
553.459032	0.214480
553.673070	0.214710
553.887091	0.214822
554.101093	0.215065
554.315077	0.215816
554.529042	0.215276
554.742990	0.216017
554.956919	0.215908
555.170830	0.215989
555.384722	0.216237
555.598597	0.216280
555.812453	0.216644
556.026291	0.217080
556.240111	0.216888
556.453913	0.217033
556.667696	0.216616
556.881461	0.217286
557.095208	0.217251
557.308937	0.217804
557.522647	0.218588
557.736339	0.218795
557.950013	0.219066
558.163669	0.219473
558.377307	0.220222
558.590926	0.221354
558.804527	0.221630
559.018110	0.221921
559.231675	0.221895
559.445221	0.222102
559.658749	0.222242
559.872259	0.222199
560.085751	0.222746
560.299225	0.222282
560.512680	0.222323
560.726117	0.222189
560.939536	0.222962
561.152937	0.223255
561.366319	0.223001
561.579683	0.223403
561.793029	0.224089
562.006357	0.223527
562.219667	0.224253
562.432958	0.223924
562.646231	0.224003
562.859486	0.223834
563.072723	0.223711
563.285941	0.224091
563.499141	0.223853
563.712323	0.223503
563.925487	0.224239
564.138632	0.224495
564.351760	0.224925
564.564869	0.225444
564.777960	0.225940
564.991032	0.226395
565.204087	0.226546
565.417123	0.227358
565.630141	0.227634
565.843140	0.227580
566.056122	0.228053
566.269085	0.228536
566.482030	0.228722
566.694957	0.228954
566.907866	0.229166
567.120756	0.229488
567.333628	0.229236
567.546482	0.229687
567.759318	0.229761
567.972135	0.229597
568.184935	0.229089
568.397716	0.229716
568.610478	0.229880
568.823223	0.229795
569.035949	0.229912
569.248657	0.230351
569.461347	0.230334
569.674019	0.230796
569.886672	0.230627
570.099308	0.231327
570.311925	0.230831
570.524523	0.230505
570.737104	0.230891
570.949666	0.230995
571.162210	0.231289
571.374736	0.231662
571.587244	0.231886
571.799733	0.232798
572.012205	0.232944
572.224658	0.233187
572.437092	0.233752
572.649509	0.233925
572.861907	0.234213
573.074287	0.234068
573.286649	0.234161
573.498993	0.233761
573.711318	0.233380
573.923625	0.233638
574.135914	0.233946
574.348185	0.234035
574.560438	0.234067
574.772672	0.234447
574.984888	0.234119
575.197086	0.233861
575.409266	0.234509
575.621427	0.234959
575.833570	0.235066
576.045695	0.235271
576.257802	0.235514
576.469890	0.235774
576.681961	0.235824
576.894013	0.236765
577.106046	0.237304
577.318062	0.237560
577.530059	0.237708
577.742039	0.237762
577.954000	0.238142
578.165942	0.238283
578.377867	0.238654
578.589773	0.238512
578.801661	0.238466
579.013531	0.238555
579.225382	0.238645
579.437216	0.238985
579.649031	0.239564
579.860828	0.239617
580.072606	0.239597
580.284367	0.240101
580.496109	0.240607
580.707833	0.241013
580.919539	0.241323
581.131227	0.241717
581.342896	0.241839
581.554547	0.241866
581.766180	0.242216
581.977795	0.242712
582.189391	0.242365
582.400969	0.242418
582.612529	0.242161
582.824071	0.242355
583.035595	0.242262
583.247100	0.242296
583.458587	0.241735
583.670056	0.241948
583.881506	0.241982
584.092939	0.242442
584.304353	0.242685
584.515749	0.242940
584.727127	0.243209
584.938486	0.243611
585.149828	0.243831
585.361151	0.244543
585.572456	0.244222
585.783742	0.244543
585.995011	0.244554
586.206261	0.244675
586.417493	0.245311
586.628706	0.245383
586.839902	0.245480
587.051079	0.245851
587.262238	0.246496
587.473379	0.246807
587.684502	0.246685
587.895606	0.247079
588.106692	0.247273
588.317760	0.246895
588.528810	0.247419
588.739841	0.247669
588.950855	0.247697
589.161850	0.247455
589.372827	0.247855
589.583785	0.248213
589.794726	0.248532
590.005648	0.248751
590.216552	0.248879
590.427437	0.248836
590.638305	0.248621
590.849154	0.248751
591.059985	0.248952
591.270798	0.249196
591.481592	0.249380
591.692369	0.249515
591.903127	0.249873
592.113867	0.250265
592.324588	0.250161
592.535292	0.250670
592.745977	0.250728
592.956644	0.250643
593.167293	0.250684
593.377923	0.251038
593.588536	0.251119
593.799130	0.251158
594.009706	0.251379
594.220263	0.251800
594.430803	0.251963
594.641324	0.252348
594.851827	0.252996
595.062312	0.253110
595.272778	0.253097
595.483227	0.253313
595.693657	0.253458
595.904069	0.253950
596.114462	0.253756
596.324838	0.253836
596.535195	0.253975
596.745534	0.253940
596.955855	0.254273
597.166157	0.254401
597.376441	0.254483
597.586707	0.254685
597.796955	0.254700
598.007185	0.255357
598.217396	0.255898
598.427589	0.256111
598.637764	0.256431
598.847921	0.256775
599.058060	0.256854
599.268180	0.256901
599.478282	0.257328
599.688366	0.257598
599.898431	0.257510
600.108479	0.257302
600.318508	0.257747
600.528519	0.258008
600.738511	0.257794
600.948486	0.258048
601.158442	0.258406
601.368380	0.258312
601.578300	0.258336
601.788202	0.258611
601.998085	0.259042
602.207950	0.259104
602.417797	0.259151
602.627626	0.259770
602.837436	0.260305
603.047228	0.260484
603.257002	0.260745
603.466758	0.260839
603.676496	0.261130
603.886215	0.261188
604.095916	0.261104
604.305599	0.260943
604.515264	0.260669
604.724910	0.260635
604.934538	0.260838
605.144148	0.260506
605.353740	0.260814
605.563314	0.260676
605.772869	0.260582
605.982406	0.261073
606.191925	0.261267
606.401425	0.261378
606.610908	0.261539
606.820372	0.261586
607.029818	0.262135
607.239246	0.262040
607.448655	0.262507
607.658047	0.262714
607.867420	0.262449
608.076775	0.262825
608.286111	0.263219
608.495430	0.262838
608.704730	0.262959
608.914012	0.263062
609.123275	0.263259
609.332521	0.263263
609.541748	0.263383
609.750957	0.263430
609.960148	0.263706
610.169321	0.263767
610.378475	0.264399
610.587611	0.264492
610.796729	0.264655
611.005829	0.264990
611.214910	0.264992
611.423974	0.265365
611.633019	0.265677
611.842045	0.265603
612.051054	0.265529
612.260044	0.265560
612.469017	0.265600
612.677970	0.265753
612.886906	0.266024
613.095824	0.266040
613.304723	0.266014
613.513604	0.266316
613.722467	0.266592
613.931311	0.267154
614.140138	0.267134
614.348946	0.267346
614.557736	0.267259
614.766507	0.266970
614.975261	0.267389
615.183996	0.267631
615.392713	0.267876
615.601412	0.267753
615.810092	0.267400
616.018754	0.267517
616.227399	0.267774
616.436024	0.268484
616.644632	0.268838
616.853222	0.268953
617.061793	0.269065
617.270346	0.268940
617.478880	0.269113
617.687397	0.269439
617.895895	0.269849
618.104375	0.270210
618.312837	0.270347
618.521281	0.270716
618.729706	0.271049
618.938113	0.271437
619.146502	0.271863
619.354873	0.272040
619.563226	0.272488
619.771560	0.272382
619.979876	0.272347
620.188174	0.272332
620.396453	0.272190
620.604715	0.272428
620.812958	0.272439
621.021183	0.271937
621.229390	0.272242
621.437578	0.272292
621.645748	0.272503
621.853900	0.272565
622.062034	0.272280
622.270150	0.272555
622.478247	0.272311
622.686326	0.272494
622.894387	0.273077
623.102430	0.273449
623.310454	0.273555
623.518461	0.273906
623.726449	0.274115
623.934418	0.274003
624.142370	0.274089
624.350303	0.274597
624.558218	0.274691
624.766115	0.274601
624.973994	0.274430
625.181855	0.273992
625.389697	0.273913
625.597521	0.273990
625.805327	0.274607
626.013114	0.274911
626.220883	0.274883
626.428634	0.275107
626.636367	0.275442
626.844082	0.275651
627.051778	0.276241
627.259457	0.276839
627.467117	0.277047
627.674758	0.277209
627.882382	0.277189
628.089987	0.277383
628.297574	0.277412
628.505143	0.277464
628.712694	0.277574
628.920226	0.277844
629.127740	0.277622
629.335236	0.277716
629.542714	0.277743
629.750174	0.278014
629.957615	0.278231
630.165038	0.278147
630.372443	0.278582
630.579829	0.278914
630.787198	0.279206
630.994548	0.279551
631.201880	0.279758
631.409194	0.280003
631.616489	0.280239
631.823766	0.279987
632.031025	0.280260
632.238266	0.280245
632.445489	0.280120
632.652693	0.280000
632.859879	0.280272
633.067047	0.280428
633.274197	0.280795
633.481329	0.280995
633.688442	0.281361
633.895537	0.281609
634.102614	0.281831
634.309672	0.281932
634.516713	0.282218
634.723735	0.282304
634.930739	0.282697
635.137724	0.282829
635.344692	0.282822
635.551641	0.283048
635.758572	0.283357
635.965485	0.283606
636.172379	0.284057
636.379256	0.284144
636.586114	0.284234
636.792954	0.284137
636.999775	0.284539
637.206579	0.284766
637.413364	0.284829
637.620131	0.285017
637.826880	0.285015
638.033610	0.285170
638.240323	0.285492
638.447017	0.285709
638.653692	0.286242
638.860350	0.286003
639.066990	0.286025
639.273611	0.286225
639.480214	0.286161
639.686798	0.286340
639.893365	0.286560
640.099913	0.286395
640.306443	0.286557
640.512955	0.286485
640.719449	0.286784
640.925924	0.286919
641.132381	0.287120
641.338820	0.287408
641.545241	0.287688
641.751644	0.287679
641.958028	0.288402
642.164394	0.288344
642.370742	0.288532
642.577071	0.288846
642.783383	0.289361
642.989676	0.289681
643.195951	0.290034
643.402207	0.289813
643.608446	0.290069
643.814666	0.290040
644.020868	0.290397
644.227052	0.290374
644.433218	0.290364
644.639365	0.290363
644.845494	0.290516
645.051605	0.290489
645.257698	0.291159
645.463772	0.291317
645.669828	0.291630
645.875866	0.291922
646.081886	0.292419
646.287888	0.292446
646.493871	0.292707
646.699836	0.292716
646.905783	0.292921
647.111712	0.293246
647.317622	0.293431
647.523514	0.293537
647.729388	0.293877
647.935244	0.293808
648.141082	0.294120
648.346901	0.294296
648.552702	0.294501
648.758485	0.294873
648.964250	0.295178
649.169996	0.295485
649.375724	0.295585
649.581434	0.295619
649.787126	0.295703
649.992800	0.296025
650.198455	0.296116
650.404092	0.296411
650.609711	0.296655
650.815311	0.296600
651.020894	0.296577
651.226458	0.296787
651.432004	0.296677
651.637532	0.296971
651.843041	0.297002
652.048532	0.297241
652.254006	0.297310
652.459460	0.297276
652.664897	0.297372
652.870315	0.297958
653.075716	0.298530
653.281097	0.298966
653.486461	0.299304
653.691807	0.299551
653.897134	0.299699
654.102443	0.299940
654.307734	0.300007
654.513006	0.300381
654.718261	0.300078
654.923497	0.299676
655.128715	0.299665
655.333915	0.299965
655.539096	0.299926
655.744259	0.299899
655.949404	0.300081
656.154531	0.300385
656.359640	0.300463
656.564730	0.300784
656.769802	0.301179
656.974856	0.301585
657.179892	0.301644
657.384909	0.301890
657.589908	0.302174
657.794889	0.302503
657.999852	0.302558
658.204797	0.302976
658.409723	0.303532
658.614631	0.303752
658.819521	0.304078
659.024393	0.304110
659.229246	0.304448
659.434081	0.304677
659.638898	0.304805
659.843697	0.305142
660.048478	0.305025
660.253240	0.305223
660.457984	0.305359
660.662710	0.305392
660.867417	0.305778
661.072107	0.306166
661.276778	0.306611
661.481431	0.306639
661.686066	0.306909
661.890682	0.307114
662.095281	0.307425
662.299861	0.307732
662.504422	0.308050
662.708966	0.308079
662.913491	0.308205
663.117999	0.308201
663.322488	0.308675
663.526958	0.308923
663.731411	0.309307
663.935845	0.309420
664.140261	0.309544
664.344659	0.309692
664.549038	0.309792
664.753400	0.310175
664.957743	0.310574
665.162068	0.310798
665.366375	0.310855
665.570663	0.310858
665.774933	0.310794
665.979185	0.311013
666.183419	0.311200
666.387635	0.311599
666.591832	0.311641
666.796011	0.311678
667.000172	0.311822
667.204315	0.311832
667.408439	0.312235
667.612545	0.312562
667.816634	0.312850
668.020703	0.312945
668.224755	0.313218
668.428788	0.313485
668.632803	0.313940
668.836800	0.313962
669.040779	0.314664
669.244739	0.314555
669.448681	0.314704
669.652605	0.314818
669.856511	0.315409
670.060399	0.315635
670.264268	0.315954
670.468119	0.315983
670.671952	0.316289
670.875767	0.316530
671.079563	0.316979
671.283341	0.317139
671.487101	0.317574
671.690843	0.317394
671.894567	0.317421
672.098272	0.317406
672.301959	0.317884
672.505628	0.318249
672.709278	0.318349
672.912911	0.318674
673.116525	0.318946
673.320121	0.318879
673.523699	0.319554
673.727258	0.319920
673.930799	0.320046
674.134322	0.320160
674.337827	0.320516
674.541314	0.320598
674.744782	0.320700
674.948232	0.320738
675.151664	0.321034
675.355078	0.320828
675.558474	0.321160
675.761851	0.321467
675.965210	0.321541
676.168551	0.321479
676.371873	0.322061
676.575178	0.322278
676.778464	0.322826
676.981732	0.323008
677.184981	0.323356
677.388213	0.323538
677.591426	0.323905
677.794621	0.324346
677.997798	0.324530
678.200956	0.324356
678.404097	0.324576
678.607219	0.324650
678.810323	0.324895
679.013408	0.324923
679.216476	0.325230
679.419525	0.325308
679.622556	0.325440
679.825569	0.325786
680.028563	0.326473
680.231540	0.326813
680.434498	0.327078
680.637438	0.327445
680.840359	0.327911
681.043263	0.328058
681.246148	0.328433
681.449015	0.328565
681.651864	0.328945
681.854694	0.328914
682.057506	0.328909
682.260301	0.329022
682.463076	0.329059
682.665834	0.329302
682.868573	0.329660
683.071295	0.330109
683.273998	0.330320
683.476682	0.330363
683.679349	0.330334
683.881997	0.330777
684.084627	0.331091
684.287239	0.331348
684.489833	0.331432
684.692408	0.331275
684.894965	0.331014
685.097504	0.331233
685.300025	0.331460
685.502527	0.331533
685.705012	0.331549
685.907478	0.331664
686.109925	0.331973
686.312355	0.332080
686.514766	0.332567
686.717159	0.332889
686.919534	0.333049
687.121891	0.333218
687.324230	0.333689
687.526550	0.333980
687.728852	0.334304
687.931136	0.334236
688.133401	0.334776
688.335649	0.335079
688.537878	0.335032
688.740089	0.335201
688.942281	0.335231
689.144456	0.335388
689.346612	0.335554
689.548750	0.335517
689.750870	0.336003
689.952971	0.335991
690.155055	0.335825
690.357120	0.336050
690.559167	0.336597
690.761195	0.337080
690.963206	0.337292
691.165198	0.337337
691.367172	0.337485
691.569128	0.337662
691.771065	0.337966
691.972984	0.338442
692.174885	0.338912
692.376768	0.338698
692.578633	0.338878
692.780479	0.339367
692.982308	0.339718
693.184118	0.340033
693.385909	0.340140
693.587683	0.340149
693.789438	0.340311
693.991175	0.340322
694.192894	0.340571
694.394595	0.340731
694.596277	0.340553
694.797941	0.340824
694.999587	0.341202
695.201215	0.341354
695.402824	0.341448
695.604416	0.341506
695.805989	0.341634
696.007543	0.341628
696.209080	0.341427
696.410598	0.341523
696.612099	0.341494
696.813580	0.341334
697.015044	0.341384
697.216490	0.341714
697.417917	0.341911
697.619326	0.341964
697.820717	0.342035
698.022089	0.342396
698.223444	0.342643
698.424780	0.342869
698.626098	0.343119
698.827397	0.343360
699.028679	0.343416
699.229942	0.343449
699.431187	0.343685
699.632414	0.344117
699.833622	0.344354
700.034813	0.344663
700.235985	0.344599
700.437139	0.344588
700.638274	0.344752
700.839392	0.344888
701.040491	0.345139
701.241572	0.345493
701.442635	0.345350
701.643679	0.345346
701.844706	0.345001
702.045714	0.345234
702.246704	0.345266
702.447675	0.345223
702.648629	0.345116
702.849564	0.344846
703.050481	0.344792
703.251380	0.344838
703.452260	0.344895
703.653122	0.345250
703.853966	0.345312
704.054792	0.345362
704.255600	0.345366
704.456389	0.345596
704.657160	0.345958
704.857913	0.346104
705.058648	0.346418
705.259365	0.346473
705.460063	0.346195
705.660743	0.346247
705.861405	0.346646
706.062048	0.346825
706.262674	0.346773
706.463281	0.346868
706.663870	0.346989
706.864441	0.346849
707.064993	0.346959
707.265527	0.347278
707.466043	0.347208
707.666541	0.347108
707.867021	0.347358
708.067482	0.347434
708.267925	0.347479
708.468350	0.347396
708.668757	0.347830
708.869145	0.347964
709.069516	0.347920
709.269868	0.348108
709.470201	0.348317
709.670517	0.348293
709.870814	0.348566
710.071093	0.348437
710.271354	0.348397
710.471597	0.348211
710.671821	0.348174
710.872028	0.348177
711.072216	0.348055
711.272385	0.347787
711.472537	0.347984
711.672670	0.347768
711.872785	0.347722
712.072882	0.347757
712.272961	0.347762
712.473021	0.347549
712.673063	0.347570
712.873087	0.347645
713.073093	0.347729
713.273081	0.347483
713.473050	0.347506
713.673001	0.347491
713.872934	0.347590
714.072849	0.347667
714.272745	0.348115
714.472623	0.348174
714.672483	0.348126
714.872325	0.348207
715.072148	0.348062
715.271954	0.347951
715.471741	0.348158
715.671509	0.348188
715.871260	0.348180
716.070992	0.347743
716.270707	0.347797
716.470403	0.348059
716.670080	0.348082
716.869740	0.348093
717.069381	0.348360
717.269004	0.348181
717.468609	0.347868
717.668195	0.347815
717.867764	0.347907
718.067314	0.347814
718.266846	0.347612
718.466360	0.347705
718.665855	0.347575
718.865332	0.347452
719.064791	0.347476
719.264232	0.347745
719.463655	0.347813
719.663059	0.347772
719.862445	0.347690
720.061813	0.347940
720.261163	0.347951
720.460494	0.348375
720.659807	0.348235
720.859102	0.348249
721.058379	0.348110
721.257638	0.347932
721.456878	0.347744
721.656100	0.348002
721.855304	0.347484
722.054490	0.347064
722.253657	0.346520
722.452806	0.346213
722.651937	0.346227
722.851050	0.345995
723.050145	0.345797
723.249221	0.345855
723.448279	0.345279
723.647319	0.345511
723.846340	0.345503
724.045344	0.345501
724.244329	0.345734
724.443296	0.345679
724.642245	0.345959
724.841175	0.345934
725.040088	0.345861
725.238982	0.346086
725.437857	0.345735
725.636715	0.345658
725.835554	0.345726
726.034376	0.345560
726.233179	0.345021
726.431963	0.344602
726.630730	0.344474
726.829478	0.344375
727.028208	0.344192
727.226920	0.344088
727.425614	0.343836
727.624289	0.343581
727.822946	0.343489
728.021585	0.343569
728.220206	0.343596
728.418808	0.343420
728.617392	0.343007
728.815958	0.342739
729.014506	0.342816
729.213036	0.342884
729.411547	0.342658
729.610040	0.342724
729.808515	0.342647
730.006972	0.342076
730.205410	0.341979
730.403831	0.342006
730.602233	0.342232
730.800616	0.341910
730.998982	0.341800
731.197329	0.341873
731.395658	0.341314
731.593969	0.341101
731.792262	0.341592
731.990536	0.341530
732.188793	0.341759
732.387031	0.341329
732.585250	0.341516
732.783452	0.341152
732.981635	0.341183
733.179800	0.341332
733.377947	0.341366
733.576076	0.340865
733.774186	0.340914
733.972278	0.340530
734.170352	0.340281
734.368408	0.339832
734.566446	0.339855
734.764465	0.339391
734.962466	0.338975
735.160449	0.338711
735.358413	0.338778
735.556360	0.338314
735.754288	0.338179
735.952198	0.337805
736.150090	0.337643
736.347963	0.337392
736.545818	0.337240
736.743655	0.337120
736.941474	0.337018
737.139275	0.336559
737.337057	0.336167
737.534821	0.336024
737.732567	0.336297
737.930295	0.336017
738.128005	0.335796
738.325696	0.335631
738.523369	0.335864
738.721024	0.335438
738.918660	0.335256
739.116279	0.335339
739.313879	0.335112
739.511461	0.334899
739.709024	0.334918
739.906570	0.334811
740.104097	0.334742
740.301606	0.334217
740.499097	0.334152
740.696569	0.334119
740.894024	0.333826
741.091460	0.333772
741.288878	0.333660
741.486277	0.333261
741.683659	0.333050
741.881022	0.332689
742.078367	0.332653
742.275694	0.332675
742.473002	0.332572
742.670293	0.332450
742.867565	0.332266
743.064819	0.331652
743.262054	0.331722
743.459272	0.331535
743.656471	0.331257
743.853652	0.330782
744.050815	0.330418
744.247959	0.330003
744.445085	0.329696
744.642194	0.329369
744.839283	0.329586
745.036355	0.329309
745.233408	0.329247
745.430444	0.329125
745.627461	0.328962
745.824459	0.328838
746.021440	0.328827
746.218402	0.328690
746.415346	0.328476
746.612272	0.328130
746.809180	0.327968
747.006069	0.327962
747.202940	0.328003
747.399793	0.327716
747.596628	0.327336
747.793444	0.326779
747.990243	0.326597
748.187023	0.326372
748.383784	0.326327
748.580528	0.325922
748.777253	0.325352
748.973960	0.324991
749.170649	0.324715
749.367320	0.324631
749.563973	0.324627
749.760607	0.324292
749.957223	0.324029
750.153821	0.323445
750.350400	0.323302
750.546962	0.323337
750.743505	0.323076
750.940030	0.322836
751.136536	0.322474
751.333025	0.322080
751.529495	0.322029
751.725947	0.321835
751.922381	0.322009
752.118796	0.321713
752.315194	0.321211
752.511573	0.321256
752.707934	0.321245
752.904276	0.321113
753.100601	0.321102
753.296907	0.320876
753.493195	0.320711
753.689465	0.320210
753.885716	0.320161
754.081949	0.320205
754.278164	0.319912
754.474361	0.319835
754.670540	0.319659
754.866700	0.319645
755.062843	0.319599
755.258967	0.319459
755.455072	0.319656
755.651160	0.319559
755.847229	0.319492
756.043280	0.319377
756.239313	0.319084
756.435328	0.318979
756.631324	0.318850
756.827302	0.318737
757.023262	0.318673
757.219204	0.318288
757.415127	0.317817
757.611033	0.317415
757.806920	0.317018
758.002788	0.317093
758.198639	0.316859
758.394471	0.316545
758.590286	0.316102
758.786081	0.315804
758.981859	0.315746
759.177619	0.315664
759.373360	0.315649
759.569083	0.315667
759.764788	0.315631
759.960474	0.315572
760.156143	0.315344
760.351793	0.315536
760.547425	0.315374
760.743038	0.315098
760.938634	0.314995
761.134211	0.314865
761.329770	0.314606
761.525311	0.314031
761.720833	0.313981
761.916338	0.313924
762.111824	0.313537
762.307292	0.313237
762.502741	0.313150
762.698173	0.313043
762.893586	0.312650
763.088981	0.312574
763.284358	0.312600
763.479716	0.312473
763.675057	0.312299
763.870379	0.312153
764.065683	0.312134
764.260968	0.311945
764.456236	0.311723
764.651485	0.311641
764.846716	0.311590
765.041929	0.311553
765.237123	0.311105
765.432299	0.310994
765.627457	0.310942
765.822597	0.310847
766.017719	0.310672
766.212822	0.310650
766.407907	0.310870
766.602974	0.310625
766.798023	0.310416
766.993054	0.310349
767.188066	0.310252
767.383060	0.310417
767.578036	0.310375
767.772993	0.310500
767.967933	0.310290
768.162854	0.310117
768.357757	0.310085
768.552642	0.310151
768.747508	0.310331
768.942356	0.310182
769.137186	0.309930
769.331998	0.309885
769.526792	0.309634
769.721567	0.309772
769.916324	0.309587
770.111063	0.309240
770.305784	0.309075
770.500486	0.309099
770.695171	0.309210
770.889837	0.308977
771.084484	0.308804
771.279114	0.308678
771.473725	0.308252
771.668318	0.308028
771.862893	0.307950
772.057450	0.307706
772.251988	0.307429
772.446509	0.307361
772.641011	0.307133
772.835494	0.307238
773.029960	0.307138
773.224407	0.307329
773.418836	0.307430
773.613247	0.307693
773.807640	0.307701
774.002014	0.307586
774.196370	0.307154
774.390708	0.307062
774.585028	0.306711
774.779330	0.306742
774.973613	0.306586
775.167878	0.306368
775.362125	0.306275
775.556354	0.306454
775.750564	0.306455
775.944756	0.306507
776.138930	0.306641
776.333086	0.306698
776.527223	0.306593
776.721343	0.306864
776.915444	0.306641
777.109526	0.306617
777.303591	0.306418
777.497637	0.306312
777.691666	0.306575
777.885676	0.306951
778.079667	0.307155
778.273641	0.307363
778.467596	0.307043
778.661533	0.307238
778.855452	0.307295
779.049352	0.307283
779.243235	0.307368
779.437099	0.307077
779.630945	0.306704
779.824773	0.306438
780.018582	0.306047
780.212373	0.306027
780.406146	0.306229
780.599901	0.305966
780.793638	0.306034
780.987356	0.305893
781.181056	0.306025
781.374738	0.305949
781.568402	0.306041
781.762047	0.306159
781.955674	0.306192
782.149283	0.305767
782.342874	0.305699
782.536447	0.305551
782.730001	0.305504
782.923537	0.305688
783.117055	0.305710
783.310555	0.305523
783.504036	0.305815
783.697499	0.305919
783.890944	0.306023
784.084371	0.306126
784.277780	0.305845
784.471170	0.305815
784.664542	0.305458
784.857896	0.305347
785.051231	0.305514
785.244549	0.305384
785.437848	0.305324
785.631129	0.305431
785.824392	0.305546
786.017636	0.305842
786.210863	0.305974
786.404071	0.306115
786.597260	0.306461
786.790432	0.306487
786.983585	0.306596
787.176721	0.306521
787.369838	0.306608
787.562936	0.306687
787.756017	0.306690
787.949079	0.306772
788.142123	0.306633
788.335149	0.306605
788.528156	0.306681
788.721146	0.306557
788.914117	0.306982
789.107070	0.307113
789.300005	0.307212
789.492921	0.307296
789.685819	0.307295
789.878699	0.307438
790.071561	0.307576
790.264405	0.307950
790.457230	0.308062
790.650037	0.307955
790.842826	0.308058
791.035597	0.307959
791.228349	0.308007
791.421084	0.308197
791.613800	0.308367
791.806497	0.308299
791.999177	0.307968
792.191838	0.307918
792.384481	0.308003
792.577106	0.308216
792.769713	0.308446
792.962301	0.308652
793.154871	0.308853
793.347423	0.308797
793.539957	0.308926
793.732473	0.308929
793.924970	0.309088
794.117449	0.309170
794.309910	0.309100
794.502353	0.309141
794.694777	0.309221
794.887183	0.309293
795.079571	0.309866
795.271941	0.310047
795.464293	0.310334
795.656626	0.310633
795.848941	0.310691
796.041238	0.310918
796.233516	0.311066
796.425777	0.311431
796.618019	0.311486
796.810243	0.311600
797.002449	0.311513
797.194636	0.311785
797.386805	0.311781
797.578956	0.311749
797.771089	0.311919
797.963204	0.311970
798.155300	0.311960
798.347378	0.312201
798.539438	0.312012
798.731480	0.312134
798.923503	0.312190
799.115509	0.312404
799.307496	0.313023
799.499465	0.312843
799.691415	0.313080
799.883348	0.313141
800.075262	0.312969
800.267158	0.313375
800.459035	0.313491
800.650895	0.313410
800.842736	0.313558
801.034559	0.313215
801.226364	0.313643
801.418150	0.313658
801.609919	0.313689
801.801669	0.313926
801.993401	0.314016
802.185114	0.314472
802.376810	0.314765
802.568487	0.314717
802.760146	0.315244
802.951787	0.315169
803.143409	0.315671
803.335014	0.316076
803.526600	0.316391
803.718168	0.316675
803.909717	0.316807
804.101249	0.317125
804.292762	0.317599
804.484257	0.317785
804.675734	0.318497
804.867192	0.318660
805.058632	0.318845
805.250054	0.319095
805.441458	0.319159
805.632844	0.319419
805.824211	0.319621
806.015561	0.320124
806.206891	0.320346
806.398204	0.320193
806.589499	0.320278
806.780775	0.320715
806.972033	0.321046
807.163273	0.321414
807.354495	0.321832
807.545698	0.322141
807.736883	0.322014
807.928050	0.322295
808.119199	0.322668
808.310329	0.322881
808.501441	0.322899
808.692535	0.322761
808.883611	0.322891
809.074669	0.322795
809.265708	0.322919
809.456729	0.323002
809.647732	0.322921
809.838717	0.323258
810.029683	0.323574
810.220632	0.323659
810.411562	0.324094
810.602474	0.323971
810.793367	0.324393
810.984242	0.324433
811.175100	0.324827
811.365938	0.325375
811.556759	0.325450
811.747562	0.325631
811.938346	0.326295
812.129112	0.326589
812.319860	0.327369
812.510589	0.327517
812.701300	0.328293
812.891994	0.328777
813.082668	0.328936
813.273325	0.329187
813.463964	0.329606
813.654584	0.329551
813.845186	0.329995
814.035769	0.330365
814.226335	0.330873
814.416882	0.330977
814.607411	0.331160
814.797922	0.331527
814.988415	0.331932
815.178889	0.332316
815.369345	0.332783
815.559783	0.333002
815.750203	0.333266
815.940605	0.333420
816.130988	0.333803
816.321353	0.334171
816.511700	0.334616
816.702028	0.334899
816.892339	0.335085
817.082631	0.335409
817.272905	0.336014
817.463161	0.336448
817.653398	0.336774
817.843617	0.337043
818.033819	0.337382
818.224001	0.337825
818.414166	0.338253
818.604312	0.338621
818.794440	0.339082
818.984550	0.339239
819.174642	0.339364
819.364716	0.340070
819.554771	0.340644
819.744808	0.340982
819.934827	0.340881
820.124827	0.341254
820.314810	0.341394
820.504774	0.341566
820.694720	0.341957
820.884647	0.342448
821.074557	0.342770
821.264448	0.342686
821.454321	0.343078
821.644176	0.343785
821.834012	0.343871
822.023831	0.344421
822.213631	0.344937
822.403413	0.344940
822.593176	0.345261
822.782922	0.345289
822.972649	0.345780
823.162358	0.345750
823.352049	0.345935
823.541721	0.346588
823.731376	0.346719
823.921012	0.346874
824.110629	0.347757
824.300229	0.348006
824.489811	0.348299
824.679374	0.348652
824.868919	0.349287
825.058445	0.349688
825.247954	0.349902
825.437444	0.350429
825.626916	0.350864
825.816370	0.351044
826.005806	0.351600
826.195223	0.351953
826.384622	0.352352
826.574003	0.352643
826.763366	0.353187
826.952711	0.353538
827.142037	0.353485
827.331345	0.353720
827.520635	0.353941
827.709906	0.353908
827.899160	0.354685
828.088395	0.355023
828.277612	0.355414
828.466810	0.356037
828.655991	0.356238
828.845153	0.357270
829.034297	0.357613
829.223423	0.358012
829.412531	0.358249
829.601620	0.358377
829.790691	0.358724
829.979744	0.359108
830.168779	0.359153
830.357795	0.359647
830.546793	0.360133
830.735773	0.360641
830.924735	0.360980
831.113679	0.361486
831.302604	0.361927
831.491511	0.362585
831.680400	0.363092
831.869271	0.363646
832.058123	0.364325
832.246957	0.364582
832.435773	0.364798
832.624571	0.365160
832.813351	0.365779
833.002112	0.365855
833.190855	0.366187
833.379580	0.366852
833.568287	0.366831
833.756975	0.366878
833.945645	0.367237
834.134297	0.368194
834.322931	0.369007
834.511547	0.369447
834.700144	0.369973
834.888723	0.370277
835.077284	0.370610
835.265826	0.371060
835.454351	0.371731
835.642857	0.372117
835.831345	0.372064
836.019815	0.372467
836.208266	0.373076
836.396699	0.373785
836.585114	0.374411
836.773511	0.374714
836.961890	0.375496
837.150250	0.375755
837.338592	0.375890
837.526916	0.376436
837.715222	0.376670
837.903510	0.376798
838.091779	0.377283
838.280030	0.377533
838.468263	0.377732
838.656477	0.378152
838.844674	0.378687
839.032852	0.379761
839.221012	0.380176
839.409153	0.380526
839.597277	0.381062
839.785382	0.381038
839.973469	0.381476
840.161538	0.382341
840.349589	0.382739
840.537621	0.383284
840.725635	0.383205
840.913631	0.383816
841.101609	0.384251
841.289568	0.384842
841.477509	0.385701
841.665432	0.386406
841.853337	0.386702
842.041224	0.387081
842.229092	0.387796
842.416942	0.388049
842.604774	0.388410
842.792588	0.388661
842.980383	0.389161
843.168160	0.389399
843.355919	0.389788
843.543660	0.390084
843.731382	0.390593
843.919087	0.390928
844.106773	0.391740
844.294441	0.392498
844.482090	0.393165
844.669722	0.393524
844.857335	0.393924
845.044930	0.394151
845.232507	0.394698
845.420065	0.395292
845.607605	0.395522
845.795127	0.396007
845.982631	0.396378
846.170117	0.397073
846.357584	0.397899
846.545033	0.398354
846.732464	0.398768
846.919877	0.399417
847.107272	0.400039
847.294648	0.400614
847.482006	0.401316
847.669346	0.401844
847.856667	0.402098
848.043971	0.402008
848.231256	0.402438
848.418523	0.402935
848.605771	0.403225
848.793002	0.403296
848.980214	0.403572
849.167408	0.403910
849.354584	0.404366
849.541742	0.404962
849.728881	0.405714
849.916002	0.406369
850.103105	0.407169
850.290190	0.407398
850.477256	0.407873
850.664304	0.408454
850.851334	0.408783
851.038346	0.409020
851.225340	0.409651
851.412315	0.409842
851.599272	0.410544
851.786211	0.410970
851.973132	0.411608
852.160034	0.412647
852.346918	0.412750
852.533784	0.413213
852.720632	0.414100
852.907462	0.414160
853.094273	0.414839
853.281066	0.415440
853.467841	0.415597
853.654598	0.416362
853.841336	0.416370
854.028056	0.417360
854.214758	0.417707
854.401442	0.417629
854.588107	0.417885
854.774755	0.417933
854.961384	0.417924
855.147995	0.418173
855.334587	0.418380
855.521162	0.418465
855.707718	0.418513
855.894256	0.419171
856.080775	0.419643
856.267277	0.420822
856.453760	0.421571
856.640225	0.421862
856.826672	0.422737
857.013101	0.422952
857.199511	0.423821
857.385903	0.424450
857.572277	0.424930
857.758633	0.425265
857.944970	0.425096
858.131290	0.425545
858.317591	0.426164
858.503873	0.426230
858.690138	0.426851
858.876384	0.427127
859.062612	0.427398
859.248822	0.427488
859.435014	0.428316
859.621188	0.428906
859.807343	0.429247
859.993480	0.429875
860.179599	0.430635
860.365699	0.431035
860.551781	0.431176
860.737846	0.431746
860.923891	0.431651
861.109919	0.431798
861.295929	0.432224
861.481920	0.432945
861.667893	0.433268
861.853848	0.433534
862.039784	0.434091
862.225702	0.434567
862.411603	0.434958
862.597484	0.435864
862.783348	0.436570
862.969193	0.437053
863.155021	0.436883
863.340830	0.437181
863.526620	0.437760
863.712393	0.438039
863.898147	0.438323
864.083883	0.438715
864.269601	0.439687
864.455301	0.439725
864.640982	0.439896
864.826645	0.440483
865.012290	0.441072
865.197917	0.441226
865.383526	0.441498
865.569116	0.442298
865.754688	0.442520
865.940242	0.441974
866.125777	0.442096
866.311295	0.442228
866.496794	0.442402
866.682275	0.442160
866.867737	0.442441
867.053182	0.442877
867.238608	0.442693
867.424016	0.442840
867.609406	0.443557
867.794778	0.443963
867.980131	0.444766
868.165466	0.445081
868.350783	0.445574
868.536082	0.446101
868.721362	0.446398
868.906625	0.446801
869.091869	0.447426
869.277094	0.447349
869.462302	0.447866
869.647491	0.448288
869.832662	0.448683
870.017815	0.449335
870.202950	0.449302
870.388066	0.449295
870.573165	0.449790
870.758245	0.450391
870.943306	0.451111
871.128350	0.451237
871.313375	0.450984
871.498382	0.451495
871.683371	0.451681
871.868342	0.451876
872.053294	0.452398
872.238229	0.452740
872.423144	0.452512
872.608042	0.452544
872.792922	0.452959
872.977783	0.453832
873.162626	0.454210
873.347451	0.454441
873.532258	0.454869
873.717046	0.455057
873.901816	0.455310
874.086568	0.455626
874.271302	0.456542
874.456017	0.456596
874.640715	0.456514
874.825394	0.456466
875.010055	0.456824
875.194697	0.456848
875.379322	0.457523
875.563928	0.457808
875.748516	0.457707
875.933085	0.457381
876.117637	0.458186
876.302170	0.458193
876.486685	0.458284
876.671182	0.458265
876.855661	0.458786
877.040121	0.458581
877.224563	0.459137
877.408987	0.460102
877.593393	0.460386
877.777780	0.460142
877.962150	0.460820
878.146501	0.461944
878.330833	0.461940
878.515148	0.462468
878.699444	0.462645
878.883722	0.462325
879.067982	0.461962
879.252224	0.462194
879.436447	0.462494
879.620653	0.462375
879.804840	0.462044
879.989008	0.462122
880.173159	0.461772
880.357291	0.462073
880.541405	0.462833
880.725501	0.463391
880.909579	0.463891
881.093638	0.463947
881.277680	0.464200
881.461703	0.463987
881.645707	0.464890
881.829694	0.465084
882.013662	0.465432
882.197612	0.465302
882.381544	0.465714
882.565458	0.465400
882.749353	0.465525
882.933230	0.465311
883.117089	0.464930
883.300930	0.464077
883.484753	0.463875
883.668557	0.463470
883.852343	0.463400
884.036111	0.462734
884.219861	0.463075
884.403592	0.463168
884.587305	0.463734
884.771000	0.464655
884.954677	0.465237
885.138335	0.465954
885.321976	0.467051
885.505598	0.466908
885.689201	0.467650
885.872787	0.467892
886.056354	0.467974
886.239904	0.467914
886.423434	0.468026
886.606947	0.468346
886.790442	0.468395
886.973918	0.467660
887.157376	0.467421
887.340816	0.467021
887.524237	0.466567
887.707641	0.466620
887.891026	0.466450
888.074393	0.466651
888.257741	0.466524
888.441072	0.466284
888.624384	0.466098
888.807678	0.466631
888.990954	0.466624
889.174211	0.466700
889.357451	0.466662
889.540672	0.466210
889.723875	0.465548
889.907059	0.465113
890.090226	0.465273
890.273374	0.465672
890.456504	0.465387
890.639616	0.465222
890.822709	0.464743
891.005785	0.464888
891.188842	0.465462
891.371881	0.465553
891.554901	0.466350
891.737904	0.466157
891.920888	0.465741
892.103854	0.465892
892.286802	0.465684
892.469731	0.465830
892.652643	0.465574
892.835536	0.465057
893.018410	0.464875
893.201267	0.463831
893.384106	0.463537
893.566926	0.463120
893.749728	0.462984
893.932511	0.463001
894.115277	0.463190
894.298024	0.463123
894.480753	0.463777
894.663464	0.463702
894.846157	0.464437
895.028831	0.464329
895.211487	0.464879
895.394125	0.464428
895.576745	0.464641
895.759346	0.464683
895.941930	0.464813
896.124495	0.463968
896.307041	0.464036
896.489570	0.464096
896.672080	0.464181
896.854573	0.464141
897.037046	0.464152
897.219502	0.463957
897.401940	0.463736
897.584359	0.462572
897.766760	0.462413
897.949143	0.462145
898.131507	0.461439
898.313854	0.461246
898.496182	0.460549
898.678492	0.460073
898.860783	0.459386
899.043057	0.459428
899.225312	0.460037
899.407549	0.459582
899.589768	0.459547
899.771968	0.459457
899.954151	0.459229
900.136315	0.458687
900.318461	0.458883
900.500588	0.458798
900.682698	0.458332
900.864789	0.458129
901.046862	0.458475
901.228917	0.457633
901.410953	0.457386
901.592971	0.457135
901.774972	0.457320
901.956953	0.456411
902.138917	0.456495
902.320862	0.456155
902.502790	0.455077
902.684699	0.454689
902.866589	0.454403
903.048462	0.453855
903.230316	0.453021
903.412152	0.452520
903.593970	0.452693
903.775770	0.452109
903.957551	0.451234
904.139314	0.451223
904.321059	0.450337
904.502786	0.450313
904.684494	0.449527
904.866185	0.449239
905.047857	0.448617
905.229510	0.447690
905.411146	0.447290
905.592763	0.446858
905.774363	0.446838
905.955943	0.446914
906.137506	0.446507
906.319051	0.446336
906.500577	0.446432
906.682085	0.446302
906.863575	0.446256
907.045046	0.445908
907.226500	0.445989
907.407935	0.445197
907.589352	0.444754
907.770750	0.444698
907.952131	0.444201
908.133493	0.443024
908.314837	0.441984
908.496163	0.441961
908.677470	0.441335
908.858760	0.440874
909.040031	0.440893
909.221284	0.440732
909.402518	0.439795
909.583735	0.439874
909.764933	0.440417
909.946113	0.440333
910.127275	0.439558
910.308418	0.438736
910.489544	0.437719
910.670651	0.436918
910.851740	0.435667
911.032810	0.435379
911.213863	0.433909
911.394897	0.433277
911.575913	0.432202
911.756911	0.432153
911.937890	0.432241
912.118851	0.432188
912.299794	0.431743
912.480719	0.431445
912.661626	0.430302
912.842514	0.430786
913.023384	0.430131
913.204236	0.429793
913.385070	0.428892
913.565886	0.428214
913.746683	0.427765
913.927462	0.427380
914.108223	0.426571
914.288965	0.426231
914.469690	0.425239
914.650396	0.424234
914.831084	0.424443
915.011754	0.424123
915.192405	0.423694
915.373038	0.422718
915.553653	0.421843
915.734250	0.421694
915.914829	0.421203
916.095389	0.420058
916.275931	0.419763
916.456455	0.419018
916.636961	0.417979
916.817448	0.416739
916.997917	0.416167
917.178368	0.415424
917.358801	0.414234
917.539216	0.412834
917.719612	0.412515
917.899990	0.411483
918.080350	0.410677
918.260692	0.409351
918.441015	0.408967
918.621320	0.407923
918.801607	0.407781
918.981876	0.406718
919.162127	0.406550
919.342359	0.405398
919.522573	0.404736
919.702769	0.404294
919.882947	0.403551
920.063106	0.402914
920.243247	0.402180
920.423370	0.400987
920.603475	0.400670
920.783562	0.399439
920.963630	0.398370
921.143680	0.397381
921.323712	0.396000
921.503725	0.395884
921.683721	0.394600
921.863698	0.394498
922.043657	0.393479
922.223598	0.392275
922.403520	0.391950
922.583424	0.392213
922.763311	0.391696
922.943178	0.391298
923.123028	0.390097
923.302859	0.389647
923.482673	0.387581
923.662467	0.386716
923.842244	0.386407
924.022003	0.385547
924.201743	0.384782
924.381465	0.383734
924.561169	0.382183
924.740854	0.381208
924.920522	0.380106
925.100171	0.380012
925.279802	0.379784
925.459414	0.378792
925.639009	0.377406
925.818585	0.376109
925.998143	0.376167
926.177683	0.376304
926.357205	0.375691
926.536708	0.376012
926.716193	0.374548
926.895660	0.372995
927.075109	0.373000
927.254539	0.372602
927.433951	0.371936
927.613345	0.370461
927.792721	0.368822
927.972079	0.368204
928.151418	0.366422
928.330739	0.366446
928.510042	0.365672
928.689327	0.363969
928.868593	0.363142
929.047841	0.362335
929.227071	0.361273
929.406283	0.360941
929.585476	0.359548
929.764652	0.358667
929.943809	0.357994
930.122948	0.356716
930.302068	0.356077
930.481171	0.355034
930.660255	0.353156
930.839321	0.352409
931.018369	0.350907
931.197398	0.351237
931.376409	0.350580
931.555402	0.348695
931.734377	0.347780
931.913334	0.346695
932.092272	0.345426
932.271192	0.345025
932.450094	0.343678
932.628978	0.342818
932.807844	0.341415
932.986691	0.339832
933.165520	0.339214
933.344331	0.339314
933.523123	0.338479
933.701898	0.338405
933.880654	0.337231
934.059392	0.335592
934.238111	0.334918
934.416813	0.333113
934.595496	0.332449
934.774161	0.331731
934.952808	0.329682
935.131437	0.328627
935.310047	0.327225
935.488639	0.327373
935.667213	0.327328
935.845769	0.326382
936.024306	0.325552
936.202825	0.324214
936.381326	0.323607
936.559809	0.321819
936.738274	0.320550
936.916720	0.319591
937.095148	0.317240
937.273558	0.315509
937.451950	0.313884
937.630323	0.312544
937.808678	0.311948
937.987015	0.310367
938.165334	0.309708
938.343635	0.308548
938.521917	0.306434
938.700181	0.305053
938.878427	0.304830
939.056655	0.304486
939.234864	0.303564
939.413055	0.302036
939.591228	0.300537
939.769383	0.301015
939.947519	0.299754
940.125638	0.300873
940.303738	0.300239
940.481820	0.299659
940.659883	0.299011
940.837929	0.297767
941.015956	0.296331
941.193965	0.294411
941.371955	0.292733
941.549928	0.292113
941.727882	0.289738
941.905818	0.288436
942.083736	0.286069
942.261636	0.284557
942.439517	0.283382
942.617380	0.282055
942.795225	0.281737
942.973052	0.279629
943.150860	0.278590
943.328651	0.276717
943.506423	0.276793
943.684176	0.275789
943.861912	0.274290
944.039629	0.274201
944.217328	0.274012
944.395009	0.274128
944.572672	0.272822
944.750317	0.270668
944.927943	0.269427
945.105551	0.267236
945.283141	0.266113
945.460712	0.264784
945.638265	0.261947
945.815801	0.260426
945.993317	0.257006
946.170816	0.256931
946.348297	0.256336
946.525759	0.256412
946.703203	0.255727
946.880629	0.254640
947.058036	0.252908
947.235425	0.252105
947.412797	0.251098
947.590149	0.251870
947.767484	0.249618
947.944800	0.248784
948.122099	0.246745
948.299379	0.244994
948.476640	0.243276
948.653884	0.242383
948.831109	0.242118
949.008316	0.240665
949.185505	0.237737
949.362676	0.238024
949.539828	0.234707
949.716962	0.234268
949.894078	0.233290
950.071176	0.231515
950.248256	0.229947
950.425317	0.228558
950.602360	0.226043
950.779385	0.226308
950.956391	0.222884
951.133380	0.223535
951.310350	0.222254
951.487302	0.219199
951.664235	0.219286
951.841151	0.217949
952.018048	0.215825
952.194927	0.216481
952.371788	0.215051
952.548631	0.215403
952.725455	0.213036
952.902261	0.211639
953.079049	0.212773
953.255819	0.209956
953.432570	0.209775
953.609303	0.208262
953.786018	0.206827
953.962715	0.205051
954.139394	0.201689
954.316054	0.201282
954.492696	0.199585
954.669320	0.196498
954.845926	0.196223
955.022513	0.194530
955.199083	0.194293
955.375634	0.194536
955.552166	0.193703
955.728681	0.195623
955.905177	0.194171
956.081655	0.191658
956.258115	0.190572
956.434557	0.190021
956.610980	0.187741
956.787385	0.186349
956.963772	0.184195
957.140141	0.181807
957.316492	0.179895
957.492824	0.177780
957.669138	0.178371
957.845434	0.179146
958.021712	0.177261
958.197971	0.178036
958.374212	0.178022
958.550435	0.177872
958.726640	0.177020
958.902826	0.176946
959.078995	0.176803
959.255145	0.176359
959.431277	0.176653
959.607390	0.177258
959.783486	0.174149
959.959563	0.173342
960.135622	0.172324
960.311662	0.173402
960.487685	0.168981
960.663689	0.170643
960.839675	0.168512
961.015643	0.165563
961.191593	0.163315
961.367524	0.163663
961.543437	0.162923
961.719332	0.159753
961.895209	0.160695
962.071067	0.161345
962.246907	0.159622
962.422730	0.162212
962.598533	0.163396
962.774319	0.162864
962.950086	0.161327
963.125835	0.159737
963.301566	0.158718
963.477279	0.157641
963.652973	0.157205
963.828650	0.156867
964.004308	0.153712
964.179947	0.152023
964.355569	0.152571
964.531172	0.153449
964.706757	0.151291
964.882324	0.153592
965.057873	0.152093
965.233403	0.154986
965.408916	0.155752
965.584410	0.156302
965.759885	0.157341
965.935343	0.154829
966.110782	0.156596
966.286203	0.159263
966.461606	0.158254
966.636991	0.156371
966.812357	0.153680
966.987705	0.153642
967.163035	0.153626
967.338347	0.151619
967.513641	0.153846
967.688916	0.152818
967.864173	0.150944
968.039412	0.151898
968.214632	0.153277
968.389835	0.152411
968.565019	0.151414
968.740185	0.151909
968.915333	0.153023
969.090462	0.153186
969.265573	0.153188
969.440667	0.152363
969.615741	0.151830
969.790798	0.150784
969.965836	0.153519
970.140856	0.151085
970.315858	0.149749
970.490842	0.148117
970.665808	0.146334
970.840755	0.144582
971.015684	0.145636
971.190595	0.146035
971.365487	0.144561
971.540362	0.141870
971.715218	0.143527
971.890056	0.144141
972.064875	0.144781
972.239677	0.146971
972.414460	0.148440
972.589225	0.149419
972.763972	0.149443
972.938700	0.150733
973.113411	0.149346
973.288103	0.148779
973.462777	0.148561
973.637432	0.148562
973.812070	0.147308
973.986689	0.145291
974.161290	0.144335
974.335873	0.142832
974.510437	0.143934
974.684984	0.146055
974.859512	0.146195
975.034022	0.146217
975.208513	0.147274
975.382987	0.146193
975.557442	0.146090
975.731879	0.146813
975.906298	0.144975
976.080698	0.145240
976.255080	0.147442
976.429445	0.147046
976.603790	0.146542
976.778118	0.143258
976.952427	0.143548
977.126719	0.144757
977.300992	0.143972
977.475246	0.145355
977.649483	0.145070
977.823701	0.142074
977.997901	0.141290
978.172083	0.139916
978.346247	0.141957
978.520392	0.143699
978.694519	0.142489
978.868628	0.143221
979.042719	0.141524
979.216791	0.141054
979.390845	0.142944
979.564882	0.141964
979.738899	0.143592
979.912899	0.144012
980.086880	0.144707
980.260843	0.145220
980.434788	0.145012
980.608715	0.146092
980.782623	0.144682
980.956514	0.143658
981.130386	0.145134
981.304240	0.143786
981.478075	0.144243
981.651892	0.142095
981.825692	0.141029
981.999472	0.140845
982.173235	0.142669
982.346980	0.142985
982.520706	0.145089
982.694414	0.143587
982.868104	0.145135
983.041775	0.145332
983.215428	0.144929
983.389064	0.147204
983.562680	0.146955
983.736279	0.145218
983.909860	0.146984
984.083422	0.144300
984.256966	0.145440
984.430491	0.145687
984.603999	0.144062
984.777488	0.145953
984.950959	0.145190
985.124412	0.144056
985.297847	0.145545
985.471263	0.144681
985.644661	0.144038
985.818041	0.145387
985.991403	0.144549
986.164747	0.145616
986.338072	0.144829
986.511379	0.145654
986.684668	0.145242
986.857938	0.143201
987.031191	0.143669
987.204425	0.146345
987.377641	0.147619
987.550839	0.146272
987.724018	0.146099
987.897179	0.147007
988.070322	0.146090
988.243447	0.148397
988.416554	0.150795
988.589642	0.150606
988.762712	0.148532
988.935764	0.144952
989.108798	0.147133
989.281813	0.148603
989.454811	0.146115
989.627790	0.144890
989.800751	0.144610
989.973693	0.145572
990.146617	0.146238
990.319524	0.146220
990.492412	0.148584
990.665281	0.147672
990.838133	0.144230
991.010966	0.145319
991.183781	0.147222
991.356578	0.145924
991.529356	0.144801
991.702117	0.143807
991.874859	0.145099
992.047583	0.145272
992.220288	0.145446
992.392976	0.147599
992.565645	0.148302
992.738296	0.147650
992.910929	0.147140
993.083543	0.145303
993.256139	0.145342
993.428718	0.145434
993.601277	0.144469
993.773819	0.144960
993.946342	0.144174
994.118848	0.144725
994.291335	0.144530
994.463803	0.146765
994.636254	0.146543
994.808686	0.147425
994.981100	0.148102
995.153496	0.150318
995.325874	0.150304
995.498233	0.151389
995.670574	0.150710
995.842897	0.152571
996.015202	0.152329
996.187488	0.153724
996.359757	0.153542
996.532007	0.152831
996.704239	0.151750
996.876452	0.151662
997.048648	0.151884
997.220825	0.151415
997.392984	0.149631
997.565124	0.149676
997.737247	0.149490
997.909351	0.148480
998.081437	0.148359
998.253505	0.147500
998.425554	0.147265
998.597586	0.146186
998.769599	0.147163
998.941594	0.147950
999.113571	0.149006
999.285529	0.148646
999.457469	0.149596
999.629391	0.148684
999.801295	0.148874
999.973181	0.148767
1000.145048	0.147878
1000.316897	0.146524
1000.488728	0.145383
1000.660541	0.142969
1000.832335	0.143231
1001.004111	0.143191
1001.175869	0.144032
1001.347609	0.143660
1001.519331	0.144163
1001.691034	0.144507
1001.862719	0.144850
1002.034386	0.146676
1002.206035	0.146985
1002.377665	0.148100
1002.549277	0.146967
1002.720871	0.146434
1002.892447	0.146211
1003.064004	0.145791
1003.235544	0.146512
1003.407065	0.147126
1003.578568	0.147328
1003.750052	0.147998
1003.921519	0.148151
1004.092967	0.147569
1004.264397	0.148084
1004.435809	0.149133
1004.607202	0.147603
1004.778577	0.149003
1004.949934	0.148144
1005.121273	0.146574
1005.292594	0.148260
1005.463896	0.147696
1005.635180	0.150081
1005.806446	0.150299
1005.977694	0.148744
1006.148923	0.150747
1006.320135	0.150435
1006.491328	0.148444
1006.662503	0.149579
1006.833659	0.145924
1007.004798	0.146085
1007.175918	0.144559
1007.347020	0.145741
1007.518103	0.145899
1007.689169	0.145989
1007.860216	0.145762
1008.031245	0.149130
1008.202256	0.149673
1008.373248	0.152505
1008.544223	0.153498
1008.715179	0.152859
1008.886117	0.151640
1009.057036	0.152715
1009.227938	0.152639
1009.398821	0.151949
1009.569686	0.150576
1009.740533	0.149607
1009.911361	0.147446
1010.082172	0.146191
1010.252964	0.148375
1010.423738	0.147625
1010.594493	0.148189
1010.765231	0.149148
1010.935950	0.149168
1011.106651	0.150689
1011.277334	0.149891
1011.447998	0.152297
1011.618645	0.151733
1011.789273	0.151219
1011.959882	0.151061
1012.130474	0.149084
1012.301048	0.149065
1012.471603	0.148661
1012.642140	0.148401
1012.812658	0.150268
1012.983159	0.147868
1013.153641	0.147613
1013.324105	0.145973
1013.494551	0.146582
1013.664979	0.148602
1013.835388	0.147272
1014.005779	0.149242
1014.176152	0.149168
1014.346507	0.147364
1014.516843	0.148816
1014.687162	0.148529
1014.857462	0.148989
1015.027744	0.149734
1015.198007	0.149758
1015.368252	0.149358
1015.538480	0.147980
1015.708689	0.145371
1015.878879	0.143836
1016.049052	0.142381
1016.219206	0.141683
1016.389342	0.142380
1016.559460	0.139987
1016.729559	0.141026
1016.899641	0.140970
1017.069704	0.140485
1017.239749	0.141917
1017.409775	0.142852
1017.579784	0.143948
1017.749774	0.146672
1017.919746	0.146745
1018.089700	0.148728
1018.259635	0.148837
1018.429553	0.149204
1018.599452	0.149637
1018.769333	0.150165
1018.939195	0.149992
1019.109040	0.149383
1019.278866	0.147916
1019.448674	0.147980
1019.618464	0.147501
1019.788235	0.145365
1019.957989	0.145229
1020.127724	0.142872
1020.297441	0.143538
1020.467139	0.144620
1020.636820	0.146997
1020.806482	0.146940
1020.976126	0.147524
1021.145752	0.146338
1021.315359	0.147692
1021.484948	0.146162
1021.654519	0.149367
1021.824072	0.149130
1021.993607	0.148866
1022.163123	0.147025
1022.332621	0.146681
1022.502101	0.145663
1022.671563	0.146961
1022.841007	0.146420
1023.010432	0.147541
1023.179839	0.147130
1023.349228	0.146129
1023.518598	0.146629
1023.687951	0.146107
1023.857285	0.145379
1024.026601	0.146415
1024.195899	0.145687
1024.365178	0.146474
1024.534439	0.147055
1024.703682	0.147033
1024.872907	0.147857
1025.042114	0.147840
1025.211302	0.148968
1025.380472	0.149261
1025.549624	0.147517
1025.718758	0.149048
1025.887873	0.149050
1026.056970	0.148197
1026.226049	0.147605
1026.395110	0.148733
1026.564153	0.147992
1026.733177	0.149422
1026.902183	0.151573
1027.071171	0.152982
1027.240141	0.151199
1027.409092	0.149449
1027.578026	0.149986
1027.746940	0.149021
1027.915837	0.146799
1028.084716	0.146973
1028.253576	0.144851
1028.422418	0.144071
1028.591242	0.143503
1028.760048	0.144713
1028.928835	0.143782
1029.097604	0.144859
1029.266355	0.145466
1029.435088	0.147457
1029.603803	0.147933
1029.772499	0.148374
1029.941177	0.147912
1030.109837	0.148690
1030.278478	0.148465
1030.447102	0.150176
1030.615707	0.150953
1030.784294	0.152317
1030.952863	0.151732
1031.121413	0.149845
1031.289945	0.149548
1031.458460	0.150998
1031.626955	0.149696
1031.795433	0.148265
1031.963892	0.147192
1032.132334	0.145715
1032.300756	0.144180
1032.469161	0.144484
1032.637548	0.145286
1032.805916	0.145692
1032.974266	0.144149
1033.142598	0.144586
1033.310911	0.145922
1033.479207	0.144625
1033.647484	0.145593
1033.815743	0.145654
1033.983983	0.144988
1034.152206	0.145448
1034.320410	0.145224
1034.488596	0.147015
1034.656764	0.146980
1034.824914	0.145410
1034.993045	0.146877
1035.161158	0.145257
1035.329253	0.145486
1035.497330	0.144701
1035.665388	0.144382
1035.833428	0.144185
1036.001450	0.142814
1036.169454	0.143245
1036.337440	0.145256
1036.505407	0.146247
1036.673356	0.145374
1036.841287	0.145701
1037.009200	0.145692
1037.177094	0.145964
1037.344970	0.145610
1037.512828	0.144530
1037.680668	0.144448
1037.848489	0.143524
1038.016293	0.142611
1038.184078	0.143486
1038.351845	0.143247
1038.519593	0.141094
1038.687324	0.142386
1038.855036	0.142937
1039.022730	0.143174
1039.190406	0.141797
1039.358063	0.141172
1039.525702	0.142891
1039.693323	0.144839
1039.860926	0.144649
1040.028511	0.147722
1040.196077	0.147481
1040.363625	0.149565
1040.531155	0.151247
1040.698667	0.153306
1040.866161	0.153682
1041.033636	0.151586
1041.201093	0.151373
1041.368532	0.149194
1041.535952	0.148792
1041.703355	0.147710
1041.870739	0.144030
1042.038105	0.143649
1042.205452	0.142031
1042.372782	0.141891
1042.540093	0.142418
1042.707386	0.139740
1042.874661	0.140435
1043.041918	0.141785
1043.209156	0.144202
1043.376376	0.144518
1043.543578	0.143620
1043.710762	0.145633
1043.877927	0.146685
1044.045074	0.145510
1044.212203	0.148216
1044.379314	0.150214
1044.546407	0.149669
1044.713481	0.146620
1044.880537	0.149709
1045.047575	0.148017
1045.214595	0.145850
1045.381596	0.145907
1045.548579	0.146348
1045.715544	0.144230
1045.882491	0.144512
1046.049420	0.142524
1046.216330	0.143469
1046.383222	0.142003
1046.550096	0.144147
1046.716951	0.145043
1046.883789	0.146829
1047.050608	0.147989
1047.217409	0.148674
1047.384192	0.148970
1047.550956	0.151464
1047.717703	0.151577
1047.884431	0.151171
1048.051140	0.151024
1048.217832	0.150552
1048.384505	0.147671
1048.551161	0.144981
1048.717798	0.143017
1048.884416	0.142169
1049.051017	0.138588
1049.217599	0.138737
1049.384163	0.138265
1049.550709	0.136804
1049.717237	0.137766
1049.883746	0.138844
1050.050237	0.141079
1050.216710	0.144531
1050.383165	0.145660
1050.549601	0.147832
1050.716019	0.147868
1050.882420	0.148488
1051.048801	0.150313
1051.215165	0.149810
1051.381510	0.147220
1051.547837	0.148162
1051.714146	0.148275
1051.880437	0.145141
1052.046709	0.148069
1052.212964	0.147522
1052.379200	0.147891
1052.545417	0.146013
1052.711617	0.145118
1052.877798	0.147353
1053.043961	0.148279
1053.210106	0.144997
1053.376233	0.145862
1053.542341	0.142858
1053.708432	0.142654
1053.874504	0.141650
1054.040557	0.145135
1054.206593	0.144797
1054.372610	0.145067
1054.538609	0.145880
1054.704590	0.146467
1054.870553	0.149304
1055.036497	0.150852
1055.202424	0.152232
1055.368331	0.152130
1055.534221	0.151155
1055.700093	0.153189
1055.865946	0.153114
1056.031781	0.149951
1056.197598	0.151276
1056.363397	0.148640
1056.529177	0.149330
1056.694939	0.149261
1056.860683	0.149256
1057.026409	0.147967
1057.192116	0.146366
1057.357806	0.147049
1057.523477	0.148441
1057.689130	0.150764
1057.854764	0.152170
1058.020381	0.150822
1058.185979	0.149281
1058.351559	0.150030
1058.517120	0.150550
1058.682664	0.151206
1058.848189	0.150688
1059.013696	0.151073
1059.179185	0.148133
1059.344656	0.148987
1059.510108	0.149222
1059.675542	0.149972
1059.840958	0.149457
1060.006356	0.147454
1060.171735	0.148936
1060.337096	0.148180
1060.502439	0.148407
1060.667764	0.148666
1060.833071	0.147257
1060.998359	0.145758
1061.163629	0.145887
1061.328881	0.146201
1061.494115	0.148972
1061.659330	0.149434
1061.824527	0.150711
1061.989706	0.150891
1062.154867	0.149678
1062.320010	0.151088
1062.485134	0.153391
1062.650240	0.153879
1062.815328	0.155509
1062.980398	0.153212
1063.145449	0.152406
1063.310482	0.153608
1063.475497	0.154882
1063.640494	0.156746
1063.805473	0.159240
1063.970433	0.156826
1064.135375	0.157766
1064.300299	0.156215
1064.465204	0.160358
1064.630092	0.160249
1064.794961	0.158359
1064.959812	0.152753
1065.124645	0.153116
1065.289459	0.149719
1065.454256	0.151129
1065.619034	0.150677
1065.783793	0.150233
1065.948535	0.147122
1066.113258	0.146785
1066.277964	0.146652
1066.442651	0.151079
1066.607319	0.153414
1066.771970	0.152659
1066.936602	0.152619
1067.101216	0.152232
1067.265812	0.150284
1067.430389	0.152241
1067.594949	0.151406
1067.759490	0.152015
1067.924013	0.150234
1068.088518	0.145406
1068.253004	0.148345
1068.417472	0.145643
1068.581922	0.145927
1068.746354	0.149560
1068.910768	0.147041
1069.075163	0.151380
1069.239540	0.151092
1069.403899	0.150961
1069.568240	0.152381
1069.732562	0.153054
1069.896866	0.157422
1070.061152	0.159368
1070.225420	0.161670
1070.389670	0.163531
1070.553901	0.160480
1070.718114	0.162747
1070.882309	0.164805
1071.046486	0.166657
1071.210644	0.165911
1071.374784	0.165819
1071.538906	0.161390
1071.703010	0.158597
1071.867096	0.158141
1072.031163	0.155200
1072.195212	0.152892
1072.359243	0.153227
1072.523256	0.153864
1072.687250	0.153266
1072.851226	0.152991
1073.015184	0.156073
1073.179124	0.156710
1073.343045	0.156762
1073.506949	0.158705
1073.670834	0.158481
1073.834701	0.156769
1073.998549	0.155577
1074.162380	0.155511
1074.326192	0.156339
1074.489986	0.154146
1074.653761	0.153211
1074.817519	0.154782
1074.981258	0.153058
1075.144979	0.155121
1075.308682	0.155621
1075.472367	0.154083
1075.636033	0.156134
1075.799681	0.155692
1075.963311	0.156700
1076.126923	0.156206
1076.290516	0.155940
1076.454092	0.159043
1076.617649	0.156367
1076.781187	0.157414
1076.944708	0.160661
1077.108210	0.159984
1077.271695	0.158864
1077.435160	0.158165
1077.598608	0.158958
1077.762038	0.158863
1077.925449	0.157015
1078.088842	0.158430
1078.252217	0.158178
1078.415573	0.156665
1078.578912	0.153044
1078.742232	0.153753
1078.905534	0.155152
1079.068817	0.158363
1079.232083	0.157613
1079.395330	0.160553
1079.558559	0.160313
1079.721770	0.159029
1079.884962	0.163059
1080.048136	0.166576
1080.211293	0.165081
1080.374430	0.165669
1080.537550	0.164955
1080.700651	0.165785
1080.863735	0.167289
1081.026800	0.168586
1081.189846	0.170223
1081.352875	0.167047
1081.515885	0.165961
1081.678877	0.165543
1081.841851	0.166308
1082.004807	0.165004
1082.167744	0.166959
1082.330663	0.166232
1082.493564	0.164295
1082.656447	0.166551
1082.819312	0.167352
1082.982158	0.169334
1083.144986	0.170377
1083.307796	0.169925
1083.470587	0.170165
1083.633361	0.169206
1083.796116	0.166720
1083.958853	0.168428
1084.121571	0.166332
1084.284272	0.169392
1084.446954	0.168405
1084.609618	0.170198
1084.772264	0.169689
1084.934892	0.167874
1085.097501	0.167010
1085.260092	0.168338
1085.422665	0.169791
1085.585220	0.169715
1085.747756	0.167575
1085.910274	0.167221
1086.072774	0.166491
1086.235256	0.165635
1086.397720	0.165548
1086.560165	0.164697
1086.722592	0.165651
1086.885001	0.163600
1087.047392	0.163637
1087.209764	0.162459
1087.372119	0.162045
1087.534455	0.161394
1087.696772	0.163630
1087.859072	0.163217
1088.021353	0.161921
1088.183616	0.163799
1088.345861	0.162506
1088.508088	0.162897
1088.670296	0.161863
1088.832486	0.160329
1088.994658	0.158232
1089.156812	0.159942
1089.318948	0.162752
1089.481065	0.163504
1089.643164	0.163403
1089.805245	0.164679
1089.967308	0.166045
1090.129352	0.164910
1090.291378	0.163270
1090.453386	0.166328
1090.615376	0.163376
1090.777347	0.162011
1090.939301	0.161738
1091.101236	0.159147
1091.263153	0.160752
1091.425051	0.158793
1091.586932	0.160057
1091.748794	0.166608
1091.910638	0.166867
1092.072463	0.169133
1092.234271	0.169210
1092.396060	0.172293
1092.557831	0.172995
1092.719584	0.173944
1092.881319	0.173032
1093.043035	0.173580
1093.204733	0.168553
1093.366413	0.168402
1093.528075	0.167648
1093.689718	0.170202
1093.851343	0.168886
1094.012950	0.169058
1094.174539	0.168285
1094.336110	0.170184
1094.497662	0.172535
1094.659196	0.174141
1094.820712	0.172834
1094.982210	0.170289
1095.143689	0.171759
1095.305151	0.171092
1095.466594	0.171682
1095.628018	0.174264
1095.789425	0.174164
1095.950813	0.172747
1096.112183	0.173456
1096.273535	0.177970
1096.434869	0.181819
1096.596184	0.180103
1096.757482	0.185668
1096.918761	0.180466
1097.080021	0.177629
1097.241264	0.178745
1097.402488	0.180275
1097.563694	0.177148
1097.724882	0.173538
1097.886052	0.174158
1098.047203	0.174257
1098.208336	0.170841
1098.369451	0.175130
1098.530548	0.174649
1098.691627	0.174115
1098.852687	0.172603
1099.013729	0.177875
1099.174753	0.178866
1099.335758	0.176224
1099.496746	0.171932
1099.657715	0.170288
1099.818666	0.168048
1099.979599	0.165981
1100.140513	0.164761
1100.301409	0.165374
1100.462287	0.161499
1100.623147	0.159540
1100.783989	0.159194
1100.944812	0.162622
1101.105617	0.166607
1101.266404	0.167575
1101.427173	0.170793
1101.587923	0.170737
1101.748656	0.172848
1101.909370	0.176037
1102.070066	0.178010
1102.230743	0.177813
1102.391403	0.178121
1102.552044	0.177839
1102.712667	0.179567
1102.873271	0.180258
1103.033858	0.182941
1103.194426	0.180691
1103.354976	0.180571
1103.515508	0.180943
1103.676021	0.181905
1103.836517	0.181999
1103.996994	0.180805
1104.157453	0.183529
1104.317893	0.185665
1104.478316	0.184431
1104.638720	0.187674
1104.799106	0.188540
1104.959474	0.189757
1105.119823	0.191559
1105.280155	0.188394
1105.440468	0.188454
1105.600763	0.185300
1105.761039	0.182079
1105.921298	0.185848
1106.081538	0.181530
1106.241760	0.185121
1106.401964	0.184020
1106.562149	0.179337
1106.722316	0.180396
1106.882465	0.178285
1107.042596	0.182514
1107.202709	0.179242
1107.362803	0.174777
1107.522879	0.174698
1107.682937	0.174343
1107.842977	0.176257
1108.002999	0.179306
1108.163002	0.183767
1108.322987	0.183480
1108.482954	0.180043
1108.642902	0.188795
1108.802833	0.186374
1108.962745	0.186987
1109.122639	0.183301
1109.282515	0.181441
1109.442372	0.183196
1109.602211	0.182580
1109.762032	0.183431
1109.921835	0.182761
1110.081620	0.182452
1110.241386	0.186475
1110.401134	0.189743
1110.560864	0.185674
1110.720576	0.185902
1110.880269	0.185040
1111.039945	0.181228
1111.199602	0.185512
1111.359240	0.189639
1111.518861	0.189896
1111.678463	0.186293
1111.838047	0.182570
1111.997613	0.187953
1112.157161	0.188016
1112.316690	0.186816
1112.476202	0.191626
1112.635695	0.184960
1112.795169	0.179767
1112.954626	0.179160
1113.114064	0.183127
1113.273484	0.184307
1113.432886	0.181841
1113.592270	0.180409
1113.751635	0.186678
1113.910983	0.181172
1114.070312	0.187117
1114.229622	0.187643
1114.388915	0.186680
1114.548189	0.185944
1114.707445	0.189615
1114.866683	0.188866
1115.025903	0.193034
1115.185104	0.193674
1115.344287	0.193590
1115.503452	0.192528
1115.662599	0.193239
1115.821727	0.189937
1115.980838	0.189822
1116.139930	0.188206
1116.299004	0.190525
1116.458059	0.189617
1116.617097	0.183174
1116.776116	0.194654
1116.935117	0.196209
1117.094099	0.199841
1117.253064	0.203139
1117.412010	0.203298
1117.570938	0.203295
1117.729848	0.203832
1117.888740	0.204142
1118.047613	0.210503
1118.206468	0.200598
1118.365305	0.201713
1118.524124	0.202133
1118.682924	0.196908
1118.841707	0.197590
1119.000471	0.197491
1119.159216	0.195245
1119.317944	0.193678
1119.476653	0.194188
1119.635344	0.199506
1119.794017	0.199060
1119.952672	0.199156
1120.111308	0.200175
1120.269927	0.199811
1120.428527	0.198303
1120.587108	0.199886
1120.745672	0.203265
1120.904217	0.202894
1121.062744	0.200996
1121.221253	0.194734
1121.379744	0.192949
1121.538216	0.194010
1121.696671	0.199395
1121.855107	0.197242
1122.013524	0.198685
1122.171924	0.200165
1122.330305	0.198012
1122.488668	0.197162
1122.647013	0.199807
1122.805340	0.196748
1122.963648	0.203397
1123.121938	0.200002
1123.280210	0.205158
1123.438464	0.207310
1123.596700	0.201913
1123.754917	0.197652
1123.913116	0.199786
1124.071297	0.201662
1124.229459	0.200833
1124.387604	0.195509
1124.545730	0.199405
1124.703838	0.199696
1124.861928	0.197598
1125.019999	0.205716
1125.178052	0.211143
1125.336088	0.207819
1125.494104	0.211799
1125.652103	0.212159
1125.810083	0.211662
1125.968045	0.211273
1126.125989	0.203928
1126.283915	0.196169
1126.441823	0.186160
1126.599712	0.184280
1126.757583	0.184983
1126.915436	0.182954
1127.073270	0.191377
1127.231087	0.192084
1127.388885	0.185536
1127.546665	0.189954
1127.704426	0.195073
1127.862170	0.201358
1128.019895	0.205427
1128.177602	0.205862
1128.335291	0.205773
1128.492961	0.199237
1128.650614	0.201174
1128.808248	0.202881
1128.965864	0.203376
1129.123461	0.202349
1129.281041	0.204491
1129.438602	0.200137
1129.596145	0.194984
1129.753670	0.192117
1129.911176	0.198968
1130.068665	0.201043
1130.226135	0.203188
1130.383587	0.203954
1130.541020	0.211340
1130.698436	0.207003
1130.855833	0.206367
1131.013212	0.215500
1131.170573	0.220460
1131.327915	0.210636
1131.485239	0.208855
1131.642545	0.211051
1131.799833	0.215566
1131.957103	0.216982
1132.114354	0.210571
1132.271588	0.209098
1132.428803	0.208799
1132.585999	0.203593
1132.743178	0.208931
1132.900338	0.203338
1133.057480	0.199412
1133.214604	0.197130
1133.371710	0.200868
1133.528797	0.212014
1133.685866	0.214142
1133.842917	0.215102
1133.999950	0.213588
1134.156964	0.218046
1134.313960	0.220246
1134.470938	0.219006
1134.627898	0.215613
1134.784840	0.207235
1134.941763	0.204342
1135.098668	0.203381
1135.255555	0.198395
1135.412424	0.196890
1135.569274	0.195743
1135.726107	0.193302
1135.882921	0.201921
1136.039716	0.203464
1136.196494	0.206801
1136.353253	0.212615
1136.509995	0.210528
1136.666717	0.214162
1136.823422	0.221592
1136.980109	0.215180
1137.136777	0.222556
1137.293427	0.214709
1137.450059	0.219493
1137.606672	0.216389
1137.763267	0.209780
1137.919844	0.207702
1138.076403	0.197621
1138.232944	0.198792
1138.389466	0.199628
1138.545971	0.196318
1138.702457	0.202133
1138.858924	0.200265
1139.015374	0.201585
1139.171805	0.207284
1139.328218	0.209144
1139.484613	0.215011
1139.640990	0.210571
1139.797348	0.215374
1139.953688	0.224075
1140.110010	0.216937
1140.266314	0.212119
1140.422600	0.203873
1140.578867	0.205292
1140.735116	0.219030
1140.891347	0.226421
1141.047559	0.225488
1141.203754	0.227665
1141.359930	0.220031
1141.516088	0.217267
1141.672228	0.223494
1141.828349	0.233465
1141.984452	0.227075
1142.140537	0.214177
1142.296604	0.210515
1142.452653	0.206032
1142.608683	0.201799
1142.764695	0.204520
1142.920689	0.212755
1143.076665	0.211500
1143.232622	0.206417
1143.388562	0.201107
1143.544483	0.205796
1143.700385	0.211035
1143.856270	0.229291
1144.012136	0.230356
1144.167985	0.235342
1144.323814	0.233331
1144.479626	0.233685
1144.635420	0.245812
1144.791195	0.254457
1144.946952	0.253354
1145.102691	0.255722
1145.258411	0.247644
1145.414113	0.247431
1145.569798	0.247925
1145.725463	0.245845
1145.881111	0.248019
1146.036741	0.242011
1146.192352	0.231360
1146.347945	0.227496
1146.503519	0.225526
1146.659076	0.225493
1146.814614	0.232617
1146.970134	0.226728
1147.125636	0.230210
1147.281120	0.228508
1147.436585	0.226017
1147.592032	0.228373
1147.747461	0.234137
1147.902872	0.230255
1148.058265	0.232404
1148.213639	0.225622
1148.368995	0.232084
1148.524333	0.237036
1148.679653	0.239712
1148.834954	0.235940
1148.990237	0.249646
1149.145502	0.238046
1149.300749	0.236672
1149.455977	0.234819
1149.611188	0.243656
1149.766380	0.228461
1149.921553	0.220897
1150.076709	0.213616
1150.231846	0.214041
1150.386966	0.210134
1150.542066	0.219654
1150.697149	0.218984
1150.852214	0.218024
1151.007260	0.204595
1151.162288	0.219586
1151.317298	0.221436
1151.472289	0.224796
1151.627263	0.229130
1151.782218	0.222877
1151.937155	0.221105
1152.092073	0.218670
1152.246974	0.213939
1152.401856	0.222418
1152.556720	0.212381
1152.711566	0.207503
1152.866393	0.198400
1153.021203	0.201938
1153.175994	0.202382
1153.330767	0.202194
1153.485521	0.194466
1153.640258	0.189746
1153.794976	0.178031
1153.949676	0.177678
1154.104358	0.175222
1154.259021	0.187735
1154.413667	0.177157
1154.568294	0.174828
1154.722903	0.170455
1154.877493	0.181761
1155.032066	0.183148
1155.186620	0.194225
1155.341156	0.191266
1155.495674	0.197629
1155.650173	0.188238
1155.804654	0.194999
1155.959118	0.196782
1156.113562	0.206653
1156.267989	0.201674
1156.422397	0.211725
1156.576788	0.214700
1156.731160	0.214456
1156.885513	0.216295
1157.039849	0.223989
1157.194166	0.217766
1157.348465	0.203658
1157.502746	0.196988
1157.657009	0.206148
1157.811253	0.203028
1157.965479	0.194716
1158.119687	0.200692
1158.273877	0.192615
1158.428048	0.194362
1158.582201	0.200430
1158.736337	0.225818
1158.890453	0.221977
1159.044552	0.211518
1159.198632	0.209069
1159.352694	0.203001
1159.506738	0.200120
1159.660764	0.205833
1159.814771	0.215826
1159.968761	0.208382
1160.122732	0.203216
1160.276685	0.206139
1160.430619	0.213613
1160.584535	0.220060
1160.738434	0.225331
1160.892313	0.225348
1161.046175	0.233887
1161.200019	0.229525
1161.353844	0.238869
1161.507651	0.236025
1161.661440	0.242869
1161.815210	0.260458
1161.968962	0.269101
1162.122697	0.291531
1162.276412	0.305053
1162.430110	0.291395
1162.583789	0.275241
1162.737451	0.270163
1162.891094	0.266598
1163.044718	0.259089
1163.198325	0.244363
1163.351913	0.238009
1163.505483	0.219028
1163.659035	0.213748
1163.812569	0.207259
1163.966084	0.205874
1164.119581	0.215629
1164.273060	0.208137
1164.426521	0.220153
1164.579964	0.213322
1164.733388	0.203837
1164.886794	0.203629
1165.040182	0.204771
1165.193551	0.207087
1165.346903	0.208472
1165.500236	0.182358
1165.653551	0.185910
1165.806848	0.172676
1165.960126	0.169960
1166.113386	0.168115
1166.266628	0.162393
1166.419852	0.156571
1166.573058	0.169637
1166.726245	0.176137
1166.879414	0.186643
1167.032565	0.188048
1167.185698	0.188617
1167.338812	0.179823
1167.491909	0.178861
1167.644987	0.180630
1167.798046	0.174186
1167.951088	0.155589
1168.104111	0.155221
1168.257117	0.164061
1168.410103	0.161544
1168.563072	0.155655
1168.716023	0.174428
1168.868955	0.181222
1169.021869	0.193097
1169.174765	0.178778
1169.327642	0.200959
1169.480501	0.210270
1169.633343	0.204433
1169.786165	0.228315
1169.938970	0.255882
1170.091757	0.250763
1170.244525	0.247067
1170.397275	0.240776
1170.550007	0.264100
1170.702720	0.246543
1170.855415	0.231413
1171.008092	0.247128
1171.160751	0.245553
1171.313392	0.246491
1171.466014	0.211230
1171.618619	0.355925
1171.771205	0.355925
1171.923772	0.355925
