sample name	sample
index	983
start time	 04-14-2021  03:24:45 PM


Wavelength (nm)	Absorbance
494.344910	-0.024161
494.563924	-0.024161
494.782919	-0.024161
495.001897	0.079974
495.220856	-0.005436
495.439797	-0.000812
495.658719	-0.002955
495.877624	-0.018021
496.096510	-0.020483
496.315378	-0.034159
496.534227	-0.036137
496.753059	-0.029550
496.971872	-0.010126
497.190667	0.112711
497.409444	0.152524
497.628203	0.171942
497.846943	0.182877
498.065665	0.188006
498.284369	0.192555
498.503055	0.193137
498.721723	0.193727
498.940372	0.195125
499.159003	0.195793
499.377616	0.196178
499.596210	0.195582
499.814787	0.196961
500.033345	0.197251
500.251885	0.197166
500.470406	0.197214
500.688910	0.198220
500.907395	0.198734
501.125862	0.198046
501.344311	0.199220
501.562742	0.199665
501.781154	0.198650
501.999548	0.197838
502.217924	0.198670
502.436282	0.200091
502.654621	0.200627
502.872942	0.200167
503.091245	0.201844
503.309530	0.203224
503.527797	0.203306
503.746045	0.203937
503.964275	0.204240
504.182487	0.203552
504.400681	0.203844
504.618856	0.203734
504.837013	0.204832
505.055152	0.204799
505.273273	0.204601
505.491376	0.205634
505.709460	0.204830
505.927526	0.205246
506.145574	0.205980
506.363604	0.205849
506.581615	0.205987
506.799608	0.205589
507.017583	0.205793
507.235540	0.205842
507.453478	0.205897
507.671399	0.206611
507.889301	0.207684
508.107185	0.207939
508.325050	0.208569
508.542898	0.209342
508.760727	0.209442
508.978538	0.210150
509.196330	0.209405
509.414105	0.208965
509.631861	0.209321
509.849599	0.208538
510.067319	0.208420
510.285021	0.208437
510.502704	0.208209
510.720369	0.208953
510.938016	0.209352
511.155645	0.210162
511.373255	0.210538
511.590848	0.211108
511.808422	0.211218
512.025977	0.211264
512.243515	0.211256
512.461034	0.210856
512.678536	0.210914
512.896018	0.210797
513.113483	0.210116
513.330930	0.210633
513.548358	0.210344
513.765768	0.211546
513.983160	0.212388
514.200533	0.212540
514.417889	0.213383
514.635226	0.212610
514.852545	0.211997
515.069845	0.212489
515.287128	0.212704
515.504392	0.212740
515.721638	0.212706
515.938866	0.211851
516.156075	0.211541
516.373267	0.211772
516.590440	0.213306
516.807594	0.214356
517.024731	0.215224
517.241850	0.214996
517.458950	0.215541
517.676032	0.215722
517.893095	0.217073
518.110141	0.217880
518.327168	0.217976
518.544177	0.217365
518.761168	0.216822
518.978141	0.217133
519.195095	0.218086
519.412031	0.217855
519.628949	0.217949
519.845849	0.217799
520.062731	0.217572
520.279594	0.218296
520.496439	0.218412
520.713266	0.218952
520.930074	0.218563
521.146865	0.219397
521.363637	0.220194
521.580391	0.220211
521.797127	0.221362
522.013844	0.222528
522.230543	0.222290
522.447224	0.222469
522.663887	0.223116
522.880532	0.223424
523.097158	0.222980
523.313766	0.222850
523.530356	0.223509
523.746928	0.223271
523.963481	0.223429
524.180017	0.224619
524.396534	0.225046
524.613032	0.224740
524.829513	0.225207
525.045975	0.224975
525.262420	0.225201
525.478845	0.225029
525.695253	0.226059
525.911643	0.226166
526.128014	0.226114
526.344367	0.227316
526.560702	0.227887
526.777018	0.228360
526.993316	0.228878
527.209597	0.229741
527.425858	0.230268
527.642102	0.230300
527.858328	0.229963
528.074535	0.230212
528.290724	0.229576
528.506894	0.230107
528.723047	0.230604
528.939181	0.230868
529.155297	0.230909
529.371395	0.231464
529.587475	0.230989
529.803536	0.232212
530.019579	0.232977
530.235604	0.233749
530.451611	0.234293
530.667600	0.234950
530.883570	0.235509
531.099522	0.236409
531.315456	0.237531
531.531372	0.238346
531.747269	0.238420
531.963148	0.238774
532.179009	0.239282
532.394852	0.239923
532.610676	0.239121
532.826482	0.239761
533.042271	0.240287
533.258040	0.239829
533.473792	0.240124
533.689525	0.240290
533.905240	0.239758
534.120937	0.240608
534.336616	0.240172
534.552277	0.241256
534.767919	0.242181
534.983543	0.241951
535.199149	0.242381
535.414736	0.242682
535.630306	0.243468
535.845857	0.244270
536.061390	0.243887
536.276904	0.244243
536.492401	0.244477
536.707879	0.243911
536.923339	0.244460
537.138781	0.244691
537.354204	0.245373
537.569610	0.245181
537.784997	0.245567
538.000366	0.246537
538.215716	0.246905
538.431049	0.246774
538.646363	0.247653
538.861659	0.248237
539.076937	0.247988
539.292196	0.247877
539.507438	0.248740
539.722661	0.248692
539.937866	0.249291
540.153052	0.249854
540.368221	0.251117
540.583371	0.251165
540.798503	0.251516
541.013617	0.252793
541.228712	0.253509
541.443789	0.253477
541.658848	0.253904
541.873889	0.253487
542.088912	0.253842
542.303916	0.254055
542.518902	0.254888
542.733870	0.254682
542.948820	0.254931
543.163752	0.254799
543.378665	0.254916
543.593560	0.255675
543.808437	0.256066
544.023295	0.256204
544.238136	0.256018
544.452958	0.255740
544.667762	0.256216
544.882548	0.256366
545.097315	0.256897
545.312064	0.257238
545.526795	0.257147
545.741508	0.257027
545.956203	0.257359
546.170879	0.257848
546.385537	0.257820
546.600177	0.257976
546.814799	0.258260
547.029402	0.258383
547.243988	0.258747
547.458555	0.259294
547.673103	0.259864
547.887634	0.260309
548.102146	0.260868
548.316640	0.261627
548.531116	0.262385
548.745574	0.262777
548.960013	0.263474
549.174435	0.263791
549.388838	0.264050
549.603222	0.264834
549.817589	0.265145
550.031937	0.265459
550.246267	0.265358
550.460579	0.265723
550.674873	0.265428
550.889148	0.265052
551.103405	0.265174
551.317644	0.265055
551.531865	0.265131
551.746068	0.265050
551.960252	0.265452
552.174418	0.265439
552.388566	0.265440
552.602696	0.266383
552.816807	0.267015
553.030900	0.267555
553.244975	0.268218
553.459032	0.268489
553.673070	0.268910
553.887091	0.268805
554.101093	0.269666
554.315077	0.270139
554.529042	0.269980
554.742990	0.269892
554.956919	0.270173
555.170830	0.270719
555.384722	0.270490
555.598597	0.271012
555.812453	0.271204
556.026291	0.271446
556.240111	0.271891
556.453913	0.272185
556.667696	0.272884
556.881461	0.272732
557.095208	0.272357
557.308937	0.272720
557.522647	0.273164
557.736339	0.273535
557.950013	0.273594
558.163669	0.273398
558.377307	0.273818
558.590926	0.274427
558.804527	0.275129
559.018110	0.275157
559.231675	0.275255
559.445221	0.275038
559.658749	0.275093
559.872259	0.275589
560.085751	0.275900
560.299225	0.276099
560.512680	0.275446
560.726117	0.275187
560.939536	0.275280
561.152937	0.275351
561.366319	0.275655
561.579683	0.275784
561.793029	0.275489
562.006357	0.275241
562.219667	0.275467
562.432958	0.275978
562.646231	0.276384
562.859486	0.277149
563.072723	0.278120
563.285941	0.278238
563.499141	0.278977
563.712323	0.279353
563.925487	0.279487
564.138632	0.279728
564.351760	0.280045
564.564869	0.279938
564.777960	0.280063
564.991032	0.279558
565.204087	0.279568
565.417123	0.279459
565.630141	0.279831
565.843140	0.280565
566.056122	0.280795
566.269085	0.280914
566.482030	0.281234
566.694957	0.281303
566.907866	0.281635
567.120756	0.282184
567.333628	0.282481
567.546482	0.282664
567.759318	0.282642
567.972135	0.283084
568.184935	0.283327
568.397716	0.284174
568.610478	0.284402
568.823223	0.284679
569.035949	0.284759
569.248657	0.284785
569.461347	0.285133
569.674019	0.285388
569.886672	0.285223
570.099308	0.285182
570.311925	0.285062
570.524523	0.285519
570.737104	0.285747
570.949666	0.285452
571.162210	0.285353
571.374736	0.285142
571.587244	0.285236
571.799733	0.285325
572.012205	0.285515
572.224658	0.285584
572.437092	0.285681
572.649509	0.285843
572.861907	0.286608
573.074287	0.287368
573.286649	0.287583
573.498993	0.287841
573.711318	0.287616
573.923625	0.287755
574.135914	0.288080
574.348185	0.288301
574.560438	0.288062
574.772672	0.288219
574.984888	0.287665
575.197086	0.288070
575.409266	0.288185
575.621427	0.288581
575.833570	0.288979
576.045695	0.288912
576.257802	0.289055
576.469890	0.289539
576.681961	0.289954
576.894013	0.290619
577.106046	0.290480
577.318062	0.290989
577.530059	0.291513
577.742039	0.291595
577.954000	0.291839
578.165942	0.291335
578.377867	0.292032
578.589773	0.291866
578.801661	0.292069
579.013531	0.292385
579.225382	0.292030
579.437216	0.291617
579.649031	0.291769
579.860828	0.291821
580.072606	0.292290
580.284367	0.291775
580.496109	0.291977
580.707833	0.292146
580.919539	0.292332
581.131227	0.292307
581.342896	0.293092
581.554547	0.293172
581.766180	0.293720
581.977795	0.293821
582.189391	0.294445
582.400969	0.294737
582.612529	0.294705
582.824071	0.294719
583.035595	0.294862
583.247100	0.294862
583.458587	0.295081
583.670056	0.295292
583.881506	0.296064
584.092939	0.296205
584.304353	0.296233
584.515749	0.296268
584.727127	0.296768
584.938486	0.297188
585.149828	0.297367
585.361151	0.297547
585.572456	0.297591
585.783742	0.297353
585.995011	0.297608
586.206261	0.298109
586.417493	0.298792
586.628706	0.299016
586.839902	0.299340
587.051079	0.299311
587.262238	0.299803
587.473379	0.299930
587.684502	0.300266
587.895606	0.300721
588.106692	0.300581
588.317760	0.300708
588.528810	0.300725
588.739841	0.301256
588.950855	0.301436
589.161850	0.301712
589.372827	0.301728
589.583785	0.301536
589.794726	0.301489
590.005648	0.301884
590.216552	0.301739
590.427437	0.302173
590.638305	0.302082
590.849154	0.302629
591.059985	0.302698
591.270798	0.303167
591.481592	0.304184
591.692369	0.304343
591.903127	0.304423
592.113867	0.304967
592.324588	0.305323
592.535292	0.305634
592.745977	0.305920
592.956644	0.306220
593.167293	0.306178
593.377923	0.306345
593.588536	0.306490
593.799130	0.306701
594.009706	0.306878
594.220263	0.306767
594.430803	0.306787
594.641324	0.306687
594.851827	0.306284
595.062312	0.306735
595.272778	0.306602
595.483227	0.307254
595.693657	0.307156
595.904069	0.306987
596.114462	0.307176
596.324838	0.307623
596.535195	0.307561
596.745534	0.308531
596.955855	0.308531
597.166157	0.308510
597.376441	0.308256
597.586707	0.308452
597.796955	0.309121
598.007185	0.309396
598.217396	0.309361
598.427589	0.309832
598.637764	0.309760
598.847921	0.309800
599.058060	0.310299
599.268180	0.310435
599.478282	0.310504
599.688366	0.310070
599.898431	0.309940
600.108479	0.310373
600.318508	0.310455
600.528519	0.310564
600.738511	0.310769
600.948486	0.311013
601.158442	0.311095
601.368380	0.311169
601.578300	0.311389
601.788202	0.311469
601.998085	0.311595
602.207950	0.311676
602.417797	0.311733
602.627626	0.311982
602.837436	0.311918
603.047228	0.312295
603.257002	0.312526
603.466758	0.312818
603.676496	0.313388
603.886215	0.313186
604.095916	0.313539
604.305599	0.313679
604.515264	0.313837
604.724910	0.313730
604.934538	0.313985
605.144148	0.314264
605.353740	0.314354
605.563314	0.314526
605.772869	0.315057
605.982406	0.315220
606.191925	0.315581
606.401425	0.316166
606.610908	0.316781
606.820372	0.316790
607.029818	0.317143
607.239246	0.317745
607.448655	0.317879
607.658047	0.317872
607.867420	0.318203
608.076775	0.318069
608.286111	0.317935
608.495430	0.318232
608.704730	0.318271
608.914012	0.318463
609.123275	0.318168
609.332521	0.318432
609.541748	0.318730
609.750957	0.318781
609.960148	0.319289
610.169321	0.319341
610.378475	0.319406
610.587611	0.319475
610.796729	0.319708
611.005829	0.320221
611.214910	0.319728
611.423974	0.319614
611.633019	0.319746
611.842045	0.319888
612.051054	0.320261
612.260044	0.320252
612.469017	0.320664
612.677970	0.320681
612.886906	0.320899
613.095824	0.321428
613.304723	0.321855
613.513604	0.321904
613.722467	0.321958
613.931311	0.321878
614.140138	0.322319
614.348946	0.322269
614.557736	0.322347
614.766507	0.322224
614.975261	0.322673
615.183996	0.322387
615.392713	0.322592
615.601412	0.322817
615.810092	0.323006
616.018754	0.322519
616.227399	0.322775
616.436024	0.323054
616.644632	0.323468
616.853222	0.323388
617.061793	0.323962
617.270346	0.324098
617.478880	0.323935
617.687397	0.324152
617.895895	0.324636
618.104375	0.324901
618.312837	0.325015
618.521281	0.325245
618.729706	0.325267
618.938113	0.325242
619.146502	0.325547
619.354873	0.325799
619.563226	0.325966
619.771560	0.325915
619.979876	0.326063
620.188174	0.326045
620.396453	0.326053
620.604715	0.326426
620.812958	0.326552
621.021183	0.326413
621.229390	0.326618
621.437578	0.326926
621.645748	0.327234
621.853900	0.326712
622.062034	0.327490
622.270150	0.327647
622.478247	0.327932
622.686326	0.328126
622.894387	0.328440
623.102430	0.328635
623.310454	0.328310
623.518461	0.328482
623.726449	0.328887
623.934418	0.328431
624.142370	0.328533
624.350303	0.328282
624.558218	0.328418
624.766115	0.328545
624.973994	0.328506
625.181855	0.328913
625.389697	0.329088
625.597521	0.329708
625.805327	0.330092
626.013114	0.330291
626.220883	0.330784
626.428634	0.331045
626.636367	0.331496
626.844082	0.331948
627.051778	0.332126
627.259457	0.332134
627.467117	0.332324
627.674758	0.332328
627.882382	0.332720
628.089987	0.332852
628.297574	0.333455
628.505143	0.333116
628.712694	0.333342
628.920226	0.333656
629.127740	0.333906
629.335236	0.333783
629.542714	0.334186
629.750174	0.334281
629.957615	0.334826
630.165038	0.334561
630.372443	0.334918
630.579829	0.334972
630.787198	0.335120
630.994548	0.335538
631.201880	0.335607
631.409194	0.336103
631.616489	0.335933
631.823766	0.335750
632.031025	0.336051
632.238266	0.336395
632.445489	0.336813
632.652693	0.337202
632.859879	0.337203
633.067047	0.337316
633.274197	0.336912
633.481329	0.337161
633.688442	0.337338
633.895537	0.337230
634.102614	0.337396
634.309672	0.337435
634.516713	0.337268
634.723735	0.337249
634.930739	0.337542
635.137724	0.337789
635.344692	0.338015
635.551641	0.338025
635.758572	0.338222
635.965485	0.338668
636.172379	0.338664
636.379256	0.339130
636.586114	0.339419
636.792954	0.339922
636.999775	0.340113
637.206579	0.340360
637.413364	0.340491
637.620131	0.341028
637.826880	0.340997
638.033610	0.341272
638.240323	0.341426
638.447017	0.342001
638.653692	0.342389
638.860350	0.342716
639.066990	0.342994
639.273611	0.343237
639.480214	0.343281
639.686798	0.343474
639.893365	0.343688
640.099913	0.343939
640.306443	0.343900
640.512955	0.343812
640.719449	0.343876
640.925924	0.344127
641.132381	0.344466
641.338820	0.344482
641.545241	0.344607
641.751644	0.344994
641.958028	0.345026
642.164394	0.345204
642.370742	0.345574
642.577071	0.346018
642.783383	0.346293
642.989676	0.346779
643.195951	0.347121
643.402207	0.347394
643.608446	0.347195
643.814666	0.347458
644.020868	0.347567
644.227052	0.347749
644.433218	0.347833
644.639365	0.347538
644.845494	0.347398
645.051605	0.347425
645.257698	0.347597
645.463772	0.347913
645.669828	0.348021
645.875866	0.348006
646.081886	0.348041
646.287888	0.347943
646.493871	0.348548
646.699836	0.348719
646.905783	0.349121
647.111712	0.349187
647.317622	0.349244
647.523514	0.349459
647.729388	0.350015
647.935244	0.350346
648.141082	0.350683
648.346901	0.350703
648.552702	0.350641
648.758485	0.350754
648.964250	0.350949
649.169996	0.351245
649.375724	0.351493
649.581434	0.351891
649.787126	0.352012
649.992800	0.352231
650.198455	0.352616
650.404092	0.353229
650.609711	0.353655
650.815311	0.353947
651.020894	0.354395
651.226458	0.354547
651.432004	0.354636
651.637532	0.354790
651.843041	0.355249
652.048532	0.355388
652.254006	0.355670
652.459460	0.355617
652.664897	0.355975
652.870315	0.356193
653.075716	0.356571
653.281097	0.356867
653.486461	0.357297
653.691807	0.357385
653.897134	0.357575
654.102443	0.357712
654.307734	0.358032
654.513006	0.358124
654.718261	0.358264
654.923497	0.358382
655.128715	0.358308
655.333915	0.358339
655.539096	0.358545
655.744259	0.358899
655.949404	0.359067
656.154531	0.359032
656.359640	0.359460
656.564730	0.359656
656.769802	0.359804
656.974856	0.360087
657.179892	0.360240
657.384909	0.360534
657.589908	0.360642
657.794889	0.360970
657.999852	0.361274
658.204797	0.361287
658.409723	0.361481
658.614631	0.361592
658.819521	0.361871
659.024393	0.362210
659.229246	0.362339
659.434081	0.362409
659.638898	0.362827
659.843697	0.363253
660.048478	0.363632
660.253240	0.364056
660.457984	0.364461
660.662710	0.364568
660.867417	0.364696
661.072107	0.364833
661.276778	0.365260
661.481431	0.365338
661.686066	0.365650
661.890682	0.365550
662.095281	0.365717
662.299861	0.365764
662.504422	0.366222
662.708966	0.366576
662.913491	0.367056
663.117999	0.367131
663.322488	0.367259
663.526958	0.367550
663.731411	0.368129
663.935845	0.368228
664.140261	0.368613
664.344659	0.368798
664.549038	0.369056
664.753400	0.369248
664.957743	0.369548
665.162068	0.369762
665.366375	0.370021
665.570663	0.370352
665.774933	0.370840
665.979185	0.370992
666.183419	0.371311
666.387635	0.371340
666.591832	0.371466
666.796011	0.371619
667.000172	0.371886
667.204315	0.371841
667.408439	0.371845
667.612545	0.371790
667.816634	0.372198
668.020703	0.372309
668.224755	0.372668
668.428788	0.372972
668.632803	0.373229
668.836800	0.373229
669.040779	0.373518
669.244739	0.373678
669.448681	0.373720
669.652605	0.373989
669.856511	0.374165
670.060399	0.374317
670.264268	0.374459
670.468119	0.374772
670.671952	0.375101
670.875767	0.375515
671.079563	0.376069
671.283341	0.376676
671.487101	0.376756
671.690843	0.376938
671.894567	0.377188
672.098272	0.377491
672.301959	0.377770
672.505628	0.378075
672.709278	0.378150
672.912911	0.378244
673.116525	0.378472
673.320121	0.378644
673.523699	0.379048
673.727258	0.379481
673.930799	0.379537
674.134322	0.379840
674.337827	0.380138
674.541314	0.380537
674.744782	0.380493
674.948232	0.380630
675.151664	0.380998
675.355078	0.381131
675.558474	0.381154
675.761851	0.381560
675.965210	0.381791
676.168551	0.381816
676.371873	0.381980
676.575178	0.382642
676.778464	0.382987
676.981732	0.383358
677.184981	0.383491
677.388213	0.383736
677.591426	0.384126
677.794621	0.384520
677.997798	0.385299
678.200956	0.385465
678.404097	0.385346
678.607219	0.385718
678.810323	0.385979
679.013408	0.386418
679.216476	0.386921
679.419525	0.387297
679.622556	0.387586
679.825569	0.387449
680.028563	0.387684
680.231540	0.388116
680.434498	0.388078
680.637438	0.388425
680.840359	0.388407
681.043263	0.388460
681.246148	0.388547
681.449015	0.388631
681.651864	0.388986
681.854694	0.389274
682.057506	0.389622
682.260301	0.389966
682.463076	0.389863
682.665834	0.390358
682.868573	0.390749
683.071295	0.390800
683.273998	0.391112
683.476682	0.391442
683.679349	0.391667
683.881997	0.391868
684.084627	0.392038
684.287239	0.392303
684.489833	0.392479
684.692408	0.392683
684.894965	0.393234
685.097504	0.393262
685.300025	0.393301
685.502527	0.393627
685.705012	0.393675
685.907478	0.393932
686.109925	0.394143
686.312355	0.394251
686.514766	0.394568
686.717159	0.394481
686.919534	0.394846
687.121891	0.395234
687.324230	0.395462
687.526550	0.395893
687.728852	0.395865
687.931136	0.396362
688.133401	0.396501
688.335649	0.396409
688.537878	0.396680
688.740089	0.396738
688.942281	0.397095
689.144456	0.397094
689.346612	0.397160
689.548750	0.397509
689.750870	0.397650
689.952971	0.398015
690.155055	0.398294
690.357120	0.398526
690.559167	0.398841
690.761195	0.398718
690.963206	0.398987
691.165198	0.398966
691.367172	0.399192
691.569128	0.399198
691.771065	0.399624
691.972984	0.400015
692.174885	0.400275
692.376768	0.400472
692.578633	0.400715
692.780479	0.401046
692.982308	0.401546
693.184118	0.401854
693.385909	0.402350
693.587683	0.402212
693.789438	0.402206
693.991175	0.402190
694.192894	0.402553
694.394595	0.402770
694.596277	0.402700
694.797941	0.402806
694.999587	0.402811
695.201215	0.402757
695.402824	0.403291
695.604416	0.403447
695.805989	0.403704
696.007543	0.403525
696.209080	0.403682
696.410598	0.403878
696.612099	0.403985
696.813580	0.404247
697.015044	0.404069
697.216490	0.403886
697.417917	0.403973
697.619326	0.404256
697.820717	0.404416
698.022089	0.404476
698.223444	0.404920
698.424780	0.405200
698.626098	0.405453
698.827397	0.405846
699.028679	0.406382
699.229942	0.406432
699.431187	0.406465
699.632414	0.406708
699.833622	0.406762
700.034813	0.406793
700.235985	0.406613
700.437139	0.406463
700.638274	0.406693
700.839392	0.406517
701.040491	0.406726
701.241572	0.406920
701.442635	0.406996
701.643679	0.407130
701.844706	0.407159
702.045714	0.407435
702.246704	0.407472
702.447675	0.407845
702.648629	0.408016
702.849564	0.408291
703.050481	0.408400
703.251380	0.408323
703.452260	0.408431
703.653122	0.408593
703.853966	0.408647
704.054792	0.408946
704.255600	0.408493
704.456389	0.408602
704.657160	0.408714
704.857913	0.408365
705.058648	0.408572
705.259365	0.408534
705.460063	0.408274
705.660743	0.408414
705.861405	0.408611
706.062048	0.408943
706.262674	0.408772
706.463281	0.408625
706.663870	0.408989
706.864441	0.408985
707.064993	0.409577
707.265527	0.409995
707.466043	0.410203
707.666541	0.410295
707.867021	0.410180
708.067482	0.410479
708.267925	0.410680
708.468350	0.410652
708.668757	0.411019
708.869145	0.410730
709.069516	0.410868
709.269868	0.411001
709.470201	0.410829
709.670517	0.410960
709.870814	0.410978
710.071093	0.411292
710.271354	0.411533
710.471597	0.410969
710.671821	0.410943
710.872028	0.410704
711.072216	0.410585
711.272385	0.410631
711.472537	0.410544
711.672670	0.410211
711.872785	0.409781
712.072882	0.409494
712.272961	0.409838
712.473021	0.409677
712.673063	0.409754
712.873087	0.409299
713.073093	0.409147
713.273081	0.408961
713.473050	0.409132
713.673001	0.408934
713.872934	0.408974
714.072849	0.408851
714.272745	0.408721
714.472623	0.408696
714.672483	0.408803
714.872325	0.408777
715.072148	0.409153
715.271954	0.408980
715.471741	0.409081
715.671509	0.408770
715.871260	0.408625
716.070992	0.408768
716.270707	0.408587
716.470403	0.408552
716.670080	0.408576
716.869740	0.408248
717.069381	0.408564
717.269004	0.408323
717.468609	0.408669
717.668195	0.408719
717.867764	0.408810
718.067314	0.408672
718.266846	0.408648
718.466360	0.408537
718.665855	0.408476
718.865332	0.408118
719.064791	0.408116
719.264232	0.407970
719.463655	0.408112
719.663059	0.407732
719.862445	0.407770
720.061813	0.407794
720.261163	0.407868
720.460494	0.407751
720.659807	0.407395
720.859102	0.407306
721.058379	0.407179
721.257638	0.406986
721.456878	0.406724
721.656100	0.406840
721.855304	0.406691
722.054490	0.406275
722.253657	0.406157
722.452806	0.406308
722.651937	0.406325
722.851050	0.406177
723.050145	0.405824
723.249221	0.405905
723.448279	0.405335
723.647319	0.405115
723.846340	0.405248
724.045344	0.405024
724.244329	0.404824
724.443296	0.404723
724.642245	0.404340
724.841175	0.404379
725.040088	0.404446
725.238982	0.404484
725.437857	0.404385
725.636715	0.404365
725.835554	0.404377
726.034376	0.404248
726.233179	0.404234
726.431963	0.404353
726.630730	0.404126
726.829478	0.403822
727.028208	0.403454
727.226920	0.403413
727.425614	0.403047
727.624289	0.403197
727.822946	0.402891
728.021585	0.402637
728.220206	0.402701
728.418808	0.402452
728.617392	0.402546
728.815958	0.402526
729.014506	0.402268
729.213036	0.401971
729.411547	0.401655
729.610040	0.401886
729.808515	0.401853
730.006972	0.401656
730.205410	0.401606
730.403831	0.401080
730.602233	0.400814
730.800616	0.400437
730.998982	0.400321
731.197329	0.399684
731.395658	0.399332
731.593969	0.398813
731.792262	0.398264
731.990536	0.397604
732.188793	0.397169
732.387031	0.396955
732.585250	0.396917
732.783452	0.396860
732.981635	0.397016
733.179800	0.396539
733.377947	0.396418
733.576076	0.396311
733.774186	0.396442
733.972278	0.396517
734.170352	0.396296
734.368408	0.395987
734.566446	0.395406
734.764465	0.394960
734.962466	0.394816
735.160449	0.394356
735.358413	0.393931
735.556360	0.393712
735.754288	0.393466
735.952198	0.393325
736.150090	0.393021
736.347963	0.392809
736.545818	0.392668
736.743655	0.392487
736.941474	0.392173
737.139275	0.391788
737.337057	0.391537
737.534821	0.391291
737.732567	0.391022
737.930295	0.390814
738.128005	0.390762
738.325696	0.390347
738.523369	0.390116
738.721024	0.390133
738.918660	0.390188
739.116279	0.389804
739.313879	0.389663
739.511461	0.389538
739.709024	0.389359
739.906570	0.389075
740.104097	0.388928
740.301606	0.388688
740.499097	0.388492
740.696569	0.388141
740.894024	0.388039
741.091460	0.387658
741.288878	0.387359
741.486277	0.386886
741.683659	0.386576
741.881022	0.386296
742.078367	0.386026
742.275694	0.385594
742.473002	0.385727
742.670293	0.385404
742.867565	0.385239
743.064819	0.385047
743.262054	0.384881
743.459272	0.384771
743.656471	0.384452
743.853652	0.384517
744.050815	0.384433
744.247959	0.383930
744.445085	0.384098
744.642194	0.383997
744.839283	0.383630
745.036355	0.383514
745.233408	0.383313
745.430444	0.383234
745.627461	0.382292
745.824459	0.381873
746.021440	0.381485
746.218402	0.381088
746.415346	0.380638
746.612272	0.380500
746.809180	0.380170
747.006069	0.379482
747.202940	0.379470
747.399793	0.379636
747.596628	0.379982
747.793444	0.379926
747.990243	0.379433
748.187023	0.379395
748.383784	0.379087
748.580528	0.378724
748.777253	0.378564
748.973960	0.377877
749.170649	0.377635
749.367320	0.376910
749.563973	0.376600
749.760607	0.376560
749.957223	0.376054
750.153821	0.375875
750.350400	0.375847
750.546962	0.375900
750.743505	0.375777
750.940030	0.375257
751.136536	0.375443
751.333025	0.375165
751.529495	0.374795
751.725947	0.374707
751.922381	0.374400
752.118796	0.374222
752.315194	0.373943
752.511573	0.373863
752.707934	0.373787
752.904276	0.373461
753.100601	0.373246
753.296907	0.373098
753.493195	0.372662
753.689465	0.372302
753.885716	0.372141
754.081949	0.372188
754.278164	0.372232
754.474361	0.372006
754.670540	0.371633
754.866700	0.371490
755.062843	0.371498
755.258967	0.371309
755.455072	0.371219
755.651160	0.371144
755.847229	0.370538
756.043280	0.370025
756.239313	0.369940
756.435328	0.369713
756.631324	0.369497
756.827302	0.369071
757.023262	0.368976
757.219204	0.368892
757.415127	0.368904
757.611033	0.368875
757.806920	0.369005
758.002788	0.368869
758.198639	0.368857
758.394471	0.368758
758.590286	0.368659
758.786081	0.368562
758.981859	0.368165
759.177619	0.367643
759.373360	0.367420
759.569083	0.367079
759.764788	0.366694
759.960474	0.366326
760.156143	0.365751
760.351793	0.365166
760.547425	0.364979
760.743038	0.364881
760.938634	0.364703
761.134211	0.364648
761.329770	0.364395
761.525311	0.364306
761.720833	0.364113
761.916338	0.364022
762.111824	0.363916
762.307292	0.363542
762.502741	0.363112
762.698173	0.362953
762.893586	0.362688
763.088981	0.362091
763.284358	0.362043
763.479716	0.361544
763.675057	0.361366
763.870379	0.361438
764.065683	0.361350
764.260968	0.361613
764.456236	0.361451
764.651485	0.361146
764.846716	0.361357
765.041929	0.361281
765.237123	0.361513
765.432299	0.361823
765.627457	0.361447
765.822597	0.361280
766.017719	0.360848
766.212822	0.360739
766.407907	0.360861
766.602974	0.360709
766.798023	0.360324
766.993054	0.360233
767.188066	0.359948
767.383060	0.360028
767.578036	0.359962
767.772993	0.360048
767.967933	0.359837
768.162854	0.359950
768.357757	0.359816
768.552642	0.359840
768.747508	0.359721
768.942356	0.359326
769.137186	0.359206
769.331998	0.359295
769.526792	0.359269
769.721567	0.359033
769.916324	0.358542
770.111063	0.358673
770.305784	0.358495
770.500486	0.358293
770.695171	0.358417
770.889837	0.358288
771.084484	0.357919
771.279114	0.357649
771.473725	0.357381
771.668318	0.357525
771.862893	0.356981
772.057450	0.357164
772.251988	0.356928
772.446509	0.356744
772.641011	0.356648
772.835494	0.357130
773.029960	0.357203
773.224407	0.357376
773.418836	0.357279
773.613247	0.357623
773.807640	0.357475
774.002014	0.357527
774.196370	0.357353
774.390708	0.357439
774.585028	0.357060
774.779330	0.357027
774.973613	0.356914
775.167878	0.356845
775.362125	0.356608
775.556354	0.356409
775.750564	0.356456
775.944756	0.356704
776.138930	0.356380
776.333086	0.356057
776.527223	0.355998
776.721343	0.356211
776.915444	0.356026
777.109526	0.355902
777.303591	0.355973
777.497637	0.355727
777.691666	0.355722
777.885676	0.356053
778.079667	0.355940
778.273641	0.355958
778.467596	0.355703
778.661533	0.355892
778.855452	0.356176
779.049352	0.356103
779.243235	0.356098
779.437099	0.356390
779.630945	0.356208
779.824773	0.356601
780.018582	0.356424
780.212373	0.356795
780.406146	0.356728
780.599901	0.356677
780.793638	0.356865
780.987356	0.357082
781.181056	0.356719
781.374738	0.356906
781.568402	0.356969
781.762047	0.357220
781.955674	0.357308
782.149283	0.357497
782.342874	0.357481
782.536447	0.357496
782.730001	0.357592
782.923537	0.357821
783.117055	0.357980
783.310555	0.358147
783.504036	0.358275
783.697499	0.357936
783.890944	0.358006
784.084371	0.357962
784.277780	0.358074
784.471170	0.358471
784.664542	0.358358
784.857896	0.358156
785.051231	0.357816
785.244549	0.357474
785.437848	0.357629
785.631129	0.357715
785.824392	0.358004
786.017636	0.357960
786.210863	0.357719
786.404071	0.357824
786.597260	0.358060
786.790432	0.358305
786.983585	0.358700
787.176721	0.358837
787.369838	0.358632
787.562936	0.358521
787.756017	0.358466
787.949079	0.358423
788.142123	0.358563
788.335149	0.358686
788.528156	0.358809
788.721146	0.358777
788.914117	0.358833
789.107070	0.358751
789.300005	0.359062
789.492921	0.359155
789.685819	0.359796
789.878699	0.359934
790.071561	0.360067
790.264405	0.360489
790.457230	0.361053
790.650037	0.361508
790.842826	0.362147
791.035597	0.362306
791.228349	0.362841
791.421084	0.362888
791.613800	0.362968
791.806497	0.363678
791.999177	0.363656
792.191838	0.363727
792.384481	0.363620
792.577106	0.364042
792.769713	0.364139
792.962301	0.364340
793.154871	0.364402
793.347423	0.365084
793.539957	0.364757
793.732473	0.365188
793.924970	0.365292
794.117449	0.365817
794.309910	0.365801
794.502353	0.366318
794.694777	0.366648
794.887183	0.367010
795.079571	0.366998
795.271941	0.367332
795.464293	0.367496
795.656626	0.367527
795.848941	0.367494
796.041238	0.367726
796.233516	0.367778
796.425777	0.367737
796.618019	0.367857
796.810243	0.367901
797.002449	0.368015
797.194636	0.368244
797.386805	0.368764
797.578956	0.369134
797.771089	0.368985
797.963204	0.369251
798.155300	0.369573
798.347378	0.369978
798.539438	0.370522
798.731480	0.370866
798.923503	0.371222
799.115509	0.371329
799.307496	0.371617
799.499465	0.372243
799.691415	0.372350
799.883348	0.372760
800.075262	0.372735
800.267158	0.372782
800.459035	0.373144
800.650895	0.373261
800.842736	0.373564
801.034559	0.373704
801.226364	0.374016
801.418150	0.374092
801.609919	0.374357
801.801669	0.374865
801.993401	0.375374
802.185114	0.375190
802.376810	0.375124
802.568487	0.375261
802.760146	0.375513
802.951787	0.375547
803.143409	0.376043
803.335014	0.376069
803.526600	0.376221
803.718168	0.376432
803.909717	0.376885
804.101249	0.377604
804.292762	0.378197
804.484257	0.378905
804.675734	0.379159
804.867192	0.379150
805.058632	0.379265
805.250054	0.379827
805.441458	0.379987
805.632844	0.380753
805.824211	0.381074
806.015561	0.381071
806.206891	0.380968
806.398204	0.381288
806.589499	0.381949
806.780775	0.382555
806.972033	0.382458
807.163273	0.383042
807.354495	0.382974
807.545698	0.383469
807.736883	0.383658
807.928050	0.384113
808.119199	0.384352
808.310329	0.384892
808.501441	0.385411
808.692535	0.385884
808.883611	0.385886
809.074669	0.386383
809.265708	0.386553
809.456729	0.387438
809.647732	0.388009
809.838717	0.388694
810.029683	0.389068
810.220632	0.389628
810.411562	0.390269
810.602474	0.391004
810.793367	0.391174
810.984242	0.391742
811.175100	0.391900
811.365938	0.392086
811.556759	0.392295
811.747562	0.392568
811.938346	0.392665
812.129112	0.392995
812.319860	0.393530
812.510589	0.394224
812.701300	0.394927
812.891994	0.395499
813.082668	0.396123
813.273325	0.396666
813.463964	0.397219
813.654584	0.397397
813.845186	0.397662
814.035769	0.397951
814.226335	0.398370
814.416882	0.398534
814.607411	0.398516
814.797922	0.398559
814.988415	0.398974
815.178889	0.399235
815.369345	0.399872
815.559783	0.400220
815.750203	0.400318
815.940605	0.400379
816.130988	0.400292
816.321353	0.400913
816.511700	0.401368
816.702028	0.401795
816.892339	0.402389
817.082631	0.403002
817.272905	0.403235
817.463161	0.403558
817.653398	0.404317
817.843617	0.405062
818.033819	0.405503
818.224001	0.406144
818.414166	0.406441
818.604312	0.406545
818.794440	0.406512
818.984550	0.406777
819.174642	0.407455
819.364716	0.407621
819.554771	0.408035
819.744808	0.408814
819.934827	0.409108
820.124827	0.409860
820.314810	0.410391
820.504774	0.411123
820.694720	0.412135
820.884647	0.412705
821.074557	0.413402
821.264448	0.413723
821.454321	0.414119
821.644176	0.414881
821.834012	0.415298
822.023831	0.415792
822.213631	0.416548
822.403413	0.416894
822.593176	0.417165
822.782922	0.417384
822.972649	0.417926
823.162358	0.418393
823.352049	0.418727
823.541721	0.419058
823.731376	0.419842
823.921012	0.419822
824.110629	0.420438
824.300229	0.421189
824.489811	0.421927
824.679374	0.422298
824.868919	0.422964
825.058445	0.423566
825.247954	0.424035
825.437444	0.424433
825.626916	0.425252
825.816370	0.425856
826.005806	0.426275
826.195223	0.427093
826.384622	0.427538
826.574003	0.427944
826.763366	0.428251
826.952711	0.428914
827.142037	0.429287
827.331345	0.429892
827.520635	0.430197
827.709906	0.430565
827.899160	0.431011
828.088395	0.432044
828.277612	0.432565
828.466810	0.433051
828.655991	0.433786
828.845153	0.434492
829.034297	0.435298
829.223423	0.435749
829.412531	0.436424
829.601620	0.436720
829.790691	0.437330
829.979744	0.437573
830.168779	0.438060
830.357795	0.438755
830.546793	0.439463
830.735773	0.439663
830.924735	0.440324
831.113679	0.441061
831.302604	0.441572
831.491511	0.441738
831.680400	0.442912
831.869271	0.444110
832.058123	0.444750
832.246957	0.444966
832.435773	0.445494
832.624571	0.446090
832.813351	0.446454
833.002112	0.447333
833.190855	0.447812
833.379580	0.448151
833.568287	0.448594
833.756975	0.448649
833.945645	0.449518
834.134297	0.450312
834.322931	0.450624
834.511547	0.451370
834.700144	0.451912
834.888723	0.452429
835.077284	0.452745
835.265826	0.452953
835.454351	0.453890
835.642857	0.454160
835.831345	0.454402
836.019815	0.454964
836.208266	0.455185
836.396699	0.455389
836.585114	0.456092
836.773511	0.456922
836.961890	0.457469
837.150250	0.457835
837.338592	0.458526
837.526916	0.459137
837.715222	0.460077
837.903510	0.460607
838.091779	0.461394
838.280030	0.461752
838.468263	0.461844
838.656477	0.461993
838.844674	0.462771
839.032852	0.463202
839.221012	0.464051
839.409153	0.464359
839.597277	0.465148
839.785382	0.465749
839.973469	0.466627
840.161538	0.467876
840.349589	0.469031
840.537621	0.469425
840.725635	0.470220
840.913631	0.470673
841.101609	0.471364
841.289568	0.471998
841.477509	0.472617
841.665432	0.473148
841.853337	0.473501
842.041224	0.474538
842.229092	0.475254
842.416942	0.476056
842.604774	0.476624
842.792588	0.477697
842.980383	0.478894
843.168160	0.479494
843.355919	0.479692
843.543660	0.480184
843.731382	0.480511
843.919087	0.481241
844.106773	0.481850
844.294441	0.482561
844.482090	0.482881
844.669722	0.482547
844.857335	0.482775
845.044930	0.483512
845.232507	0.484032
845.420065	0.484664
845.607605	0.485168
845.795127	0.485401
845.982631	0.486352
846.170117	0.486341
846.357584	0.487045
846.545033	0.487760
846.732464	0.488870
846.919877	0.489503
847.107272	0.489935
847.294648	0.490334
847.482006	0.490828
847.669346	0.490840
847.856667	0.491601
848.043971	0.492548
848.231256	0.493047
848.418523	0.493455
848.605771	0.493920
848.793002	0.494318
848.980214	0.494892
849.167408	0.496024
849.354584	0.496838
849.541742	0.498015
849.728881	0.498597
849.916002	0.499888
850.103105	0.500090
850.290190	0.500813
850.477256	0.501874
850.664304	0.502462
850.851334	0.502548
851.038346	0.502964
851.225340	0.503361
851.412315	0.504202
851.599272	0.504424
851.786211	0.505365
851.973132	0.506073
852.160034	0.506265
852.346918	0.507264
852.533784	0.508168
852.720632	0.509076
852.907462	0.509825
853.094273	0.510144
853.281066	0.510723
853.467841	0.511118
853.654598	0.511746
853.841336	0.512868
854.028056	0.513052
854.214758	0.513763
854.401442	0.514079
854.588107	0.514398
854.774755	0.515095
854.961384	0.515539
855.147995	0.516281
855.334587	0.516510
855.521162	0.516740
855.707718	0.517278
855.894256	0.517888
856.080775	0.518174
856.267277	0.519013
856.453760	0.519339
856.640225	0.519642
856.826672	0.520165
857.013101	0.520884
857.199511	0.520560
857.385903	0.521317
857.572277	0.521918
857.758633	0.522416
857.944970	0.522342
858.131290	0.522428
858.317591	0.523644
858.503873	0.524247
858.690138	0.524995
858.876384	0.525967
859.062612	0.526326
859.248822	0.526448
859.435014	0.527482
859.621188	0.528133
859.807343	0.528807
859.993480	0.529095
860.179599	0.529619
860.365699	0.529934
860.551781	0.530962
860.737846	0.531558
860.923891	0.531794
861.109919	0.532168
861.295929	0.533292
861.481920	0.534375
861.667893	0.534734
861.853848	0.535410
862.039784	0.536304
862.225702	0.536806
862.411603	0.537321
862.597484	0.538290
862.783348	0.538758
862.969193	0.538685
863.155021	0.538918
863.340830	0.539958
863.526620	0.540100
863.712393	0.539964
863.898147	0.540300
864.083883	0.540250
864.269601	0.540494
864.455301	0.540991
864.640982	0.541762
864.826645	0.542359
865.012290	0.542460
865.197917	0.543181
865.383526	0.543850
865.569116	0.543843
865.754688	0.544900
865.940242	0.545218
866.125777	0.545481
866.311295	0.545793
866.496794	0.545926
866.682275	0.546055
866.867737	0.547015
867.053182	0.547575
867.238608	0.548048
867.424016	0.548409
867.609406	0.548746
867.794778	0.549222
867.980131	0.549646
868.165466	0.550580
868.350783	0.551405
868.536082	0.551142
868.721362	0.552172
868.906625	0.552795
869.091869	0.553226
869.277094	0.554265
869.462302	0.555165
869.647491	0.555663
869.832662	0.556147
870.017815	0.556467
870.202950	0.557357
870.388066	0.556593
870.573165	0.557409
870.758245	0.557926
870.943306	0.557680
871.128350	0.557801
871.313375	0.558390
871.498382	0.558359
871.683371	0.558854
871.868342	0.558620
872.053294	0.559487
872.238229	0.559510
872.423144	0.559874
872.608042	0.560564
872.792922	0.561205
872.977783	0.561407
873.162626	0.561904
873.347451	0.562213
873.532258	0.562739
873.717046	0.563277
873.901816	0.563373
874.086568	0.563617
874.271302	0.564133
874.456017	0.563785
874.640715	0.564098
874.825394	0.564758
875.010055	0.564768
875.194697	0.564556
875.379322	0.564841
875.563928	0.565386
875.748516	0.565555
875.933085	0.565819
876.117637	0.566264
876.302170	0.566425
876.486685	0.566604
876.671182	0.567586
876.855661	0.568411
877.040121	0.568764
877.224563	0.569431
877.408987	0.570030
877.593393	0.569685
877.777780	0.570726
877.962150	0.571014
878.146501	0.571018
878.330833	0.570771
878.515148	0.571232
878.699444	0.571400
878.883722	0.571627
879.067982	0.571798
879.252224	0.572488
879.436447	0.572992
879.620653	0.573420
879.804840	0.573605
879.989008	0.573572
880.173159	0.573471
880.357291	0.573483
880.541405	0.573305
880.725501	0.573118
880.909579	0.573210
881.093638	0.572097
881.277680	0.572122
881.461703	0.572288
881.645707	0.572540
881.829694	0.572974
882.013662	0.573183
882.197612	0.573880
882.381544	0.573918
882.565458	0.574132
882.749353	0.574767
882.933230	0.574968
883.117089	0.574979
883.300930	0.575026
883.484753	0.575177
883.668557	0.575886
883.852343	0.576066
884.036111	0.576215
884.219861	0.576805
884.403592	0.577209
884.587305	0.577769
884.771000	0.577197
884.954677	0.577388
885.138335	0.577804
885.321976	0.577399
885.505598	0.577265
885.689201	0.577742
885.872787	0.577608
886.056354	0.577280
886.239904	0.576449
886.423434	0.577295
886.606947	0.577406
886.790442	0.577584
886.973918	0.576775
887.157376	0.576271
887.340816	0.576062
887.524237	0.575765
887.707641	0.575816
887.891026	0.576632
888.074393	0.576395
888.257741	0.576894
888.441072	0.576096
888.624384	0.576620
888.807678	0.577049
888.990954	0.576273
889.174211	0.576174
889.357451	0.576173
889.540672	0.575889
889.723875	0.576210
889.907059	0.575769
890.090226	0.575602
890.273374	0.576206
890.456504	0.575317
890.639616	0.576166
890.822709	0.575893
891.005785	0.576332
891.188842	0.576540
891.371881	0.576453
891.554901	0.576093
891.737904	0.576394
891.920888	0.576029
892.103854	0.577312
892.286802	0.577266
892.469731	0.578134
892.652643	0.578017
892.835536	0.577219
893.018410	0.576723
893.201267	0.576871
893.384106	0.577325
893.566926	0.577439
893.749728	0.576435
893.932511	0.576091
894.115277	0.575344
894.298024	0.574494
894.480753	0.574488
894.663464	0.575069
894.846157	0.574954
895.028831	0.574407
895.211487	0.574304
895.394125	0.574686
895.576745	0.574753
895.759346	0.573839
895.941930	0.573261
896.124495	0.573070
896.307041	0.571990
896.489570	0.571267
896.672080	0.570679
896.854573	0.569748
897.037046	0.569302
897.219502	0.569004
897.401940	0.569426
897.584359	0.570120
897.766760	0.570001
897.949143	0.569170
898.131507	0.569302
898.313854	0.569219
898.496182	0.569275
898.678492	0.568885
898.860783	0.568230
899.043057	0.568029
899.225312	0.567724
899.407549	0.566789
899.589768	0.567500
899.771968	0.567195
899.954151	0.567055
900.136315	0.566778
900.318461	0.566565
900.500588	0.566583
900.682698	0.566465
900.864789	0.565684
901.046862	0.566199
901.228917	0.565877
901.410953	0.565300
901.592971	0.564815
901.774972	0.564669
901.956953	0.563915
902.138917	0.563752
902.320862	0.563521
902.502790	0.563097
902.684699	0.562058
902.866589	0.561858
903.048462	0.562064
903.230316	0.561838
903.412152	0.560634
903.593970	0.559744
903.775770	0.558506
903.957551	0.557857
904.139314	0.556979
904.321059	0.556679
904.502786	0.555500
904.684494	0.554192
904.866185	0.552995
905.047857	0.552740
905.229510	0.552993
905.411146	0.552468
905.592763	0.552218
905.774363	0.552401
905.955943	0.552041
906.137506	0.552058
906.319051	0.551509
906.500577	0.551421
906.682085	0.551172
906.863575	0.551254
907.045046	0.551459
907.226500	0.550476
907.407935	0.550189
907.589352	0.550037
907.770750	0.549872
907.952131	0.550483
908.133493	0.549471
908.314837	0.549033
908.496163	0.547700
908.677470	0.546728
908.858760	0.546060
909.040031	0.545372
909.221284	0.544383
909.402518	0.543185
909.583735	0.541968
909.764933	0.542288
909.946113	0.541814
910.127275	0.541177
910.308418	0.541011
910.489544	0.540647
910.670651	0.539826
910.851740	0.539084
911.032810	0.538199
911.213863	0.537113
911.394897	0.535981
911.575913	0.535061
911.756911	0.533767
911.937890	0.532786
912.118851	0.532289
912.299794	0.531863
912.480719	0.532033
912.661626	0.531288
912.842514	0.530544
913.023384	0.530026
913.204236	0.528248
913.385070	0.528419
913.565886	0.527516
913.746683	0.526557
913.927462	0.525406
914.108223	0.524074
914.288965	0.523926
914.469690	0.523592
914.650396	0.522275
914.831084	0.522469
915.011754	0.521314
915.192405	0.520479
915.373038	0.520350
915.553653	0.519614
915.734250	0.518882
915.914829	0.517283
916.095389	0.515929
916.275931	0.515785
916.456455	0.515038
916.636961	0.514440
916.817448	0.513666
916.997917	0.511388
917.178368	0.510228
917.358801	0.508431
917.539216	0.507925
917.719612	0.507481
917.899990	0.506130
918.080350	0.504447
918.260692	0.503081
918.441015	0.502713
918.621320	0.502167
918.801607	0.501938
918.981876	0.501217
919.162127	0.500360
919.342359	0.499491
919.522573	0.498517
919.702769	0.498206
919.882947	0.497493
920.063106	0.496828
920.243247	0.496362
920.423370	0.494880
920.603475	0.493945
920.783562	0.491984
920.963630	0.490730
921.143680	0.490015
921.323712	0.489241
921.503725	0.488621
921.683721	0.486947
921.863698	0.485526
922.043657	0.484446
922.223598	0.484182
922.403520	0.485174
922.583424	0.484366
922.763311	0.483086
922.943178	0.481754
923.123028	0.480293
923.302859	0.479070
923.482673	0.477406
923.662467	0.475716
923.842244	0.475471
924.022003	0.473248
924.201743	0.472295
924.381465	0.471443
924.561169	0.469946
924.740854	0.468459
924.920522	0.467065
925.100171	0.466663
925.279802	0.466323
925.459414	0.464271
925.639009	0.463395
925.818585	0.463106
925.998143	0.462442
926.177683	0.461977
926.357205	0.461698
926.536708	0.461566
926.716193	0.460230
926.895660	0.459749
927.075109	0.459505
927.254539	0.458263
927.433951	0.456486
927.613345	0.454975
927.792721	0.454138
927.972079	0.452625
928.151418	0.451272
928.330739	0.451074
928.510042	0.449930
928.689327	0.447876
928.868593	0.446729
929.047841	0.445139
929.227071	0.444932
929.406283	0.443542
929.585476	0.442829
929.764652	0.441337
929.943809	0.439870
930.122948	0.437283
930.302068	0.436020
930.481171	0.434879
930.660255	0.433309
930.839321	0.430185
931.018369	0.429247
931.197398	0.427631
931.376409	0.427410
931.555402	0.426102
931.734377	0.426206
931.913334	0.425132
932.092272	0.424081
932.271192	0.423641
932.450094	0.422748
932.628978	0.421342
932.807844	0.419710
932.986691	0.417168
933.165520	0.415132
933.344331	0.413111
933.523123	0.411414
933.701898	0.410709
933.880654	0.408726
934.059392	0.407686
934.238111	0.406114
934.416813	0.405168
934.595496	0.403842
934.774161	0.402177
934.952808	0.400850
935.131437	0.399689
935.310047	0.397857
935.488639	0.397504
935.667213	0.397064
935.845769	0.396550
936.024306	0.394990
936.202825	0.394499
936.381326	0.394136
936.559809	0.393677
936.738274	0.392277
936.916720	0.390585
937.095148	0.389539
937.273558	0.386604
937.451950	0.385956
937.630323	0.384369
937.808678	0.382392
937.987015	0.380913
938.165334	0.379307
938.343635	0.377464
938.521917	0.376808
938.700181	0.375586
938.878427	0.374670
939.056655	0.370792
939.234864	0.369180
939.413055	0.367440
939.591228	0.365914
939.769383	0.364253
939.947519	0.362343
940.125638	0.359244
940.303738	0.357134
940.481820	0.356683
940.659883	0.355505
940.837929	0.355433
941.015956	0.354724
941.193965	0.353952
941.371955	0.351467
941.549928	0.350085
941.727882	0.350092
941.905818	0.347369
942.083736	0.345515
942.261636	0.343541
942.439517	0.341509
942.617380	0.339387
942.795225	0.337492
942.973052	0.337401
943.150860	0.337788
943.328651	0.337751
943.506423	0.336896
943.684176	0.336287
943.861912	0.336506
944.039629	0.336400
944.217328	0.335576
944.395009	0.334547
944.572672	0.332542
944.750317	0.330300
944.927943	0.324827
945.105551	0.323969
945.283141	0.321713
945.460712	0.319200
945.638265	0.316198
945.815801	0.314194
945.993317	0.311517
946.170816	0.310938
946.348297	0.309724
946.525759	0.310972
946.703203	0.309328
946.880629	0.306955
947.058036	0.307821
947.235425	0.307295
947.412797	0.306646
947.590149	0.306377
947.767484	0.302020
947.944800	0.300485
948.122099	0.298550
948.299379	0.297642
948.476640	0.297282
948.653884	0.294308
948.831109	0.293066
949.008316	0.291643
949.185505	0.290081
949.362676	0.289555
949.539828	0.286641
949.716962	0.285001
949.894078	0.282042
950.071176	0.278853
950.248256	0.278395
950.425317	0.274529
950.602360	0.271074
950.779385	0.268625
950.956391	0.266463
951.133380	0.267811
951.310350	0.264880
951.487302	0.263966
951.664235	0.263743
951.841151	0.261534
952.018048	0.261163
952.194927	0.259644
952.371788	0.258928
952.548631	0.258589
952.725455	0.254116
952.902261	0.254231
953.079049	0.250449
953.255819	0.250225
953.432570	0.246745
953.609303	0.245748
953.786018	0.244676
953.962715	0.242212
954.139394	0.241335
954.316054	0.241566
954.492696	0.241765
954.669320	0.242078
954.845926	0.239613
955.022513	0.240215
955.199083	0.239043
955.375634	0.237900
955.552166	0.239272
955.728681	0.235827
955.905177	0.234639
956.081655	0.231512
956.258115	0.233140
956.434557	0.231478
956.610980	0.226989
956.787385	0.224324
956.963772	0.224185
957.140141	0.221838
957.316492	0.221669
957.492824	0.221065
957.669138	0.220620
957.845434	0.218444
958.021712	0.218425
958.197971	0.220470
958.374212	0.220457
958.550435	0.218616
958.726640	0.216233
958.902826	0.216142
959.078995	0.214014
959.255145	0.212353
959.431277	0.210781
959.607390	0.209687
959.783486	0.208791
959.959563	0.209568
960.135622	0.208687
960.311662	0.208112
960.487685	0.208772
960.663689	0.209031
960.839675	0.207731
961.015643	0.206819
961.191593	0.209670
961.367524	0.209797
961.543437	0.207550
961.719332	0.208289
961.895209	0.210346
962.071067	0.207474
962.246907	0.206275
962.422730	0.206530
962.598533	0.206464
962.774319	0.202508
962.950086	0.199595
963.125835	0.199173
963.301566	0.198731
963.477279	0.197233
963.652973	0.196034
963.828650	0.194522
964.004308	0.193735
964.179947	0.190974
964.355569	0.190190
964.531172	0.193502
964.706757	0.189959
964.882324	0.190642
965.057873	0.189042
965.233403	0.190720
965.408916	0.191446
965.584410	0.189261
965.759885	0.188834
965.935343	0.190802
966.110782	0.188914
966.286203	0.189619
966.461606	0.187904
966.636991	0.189573
966.812357	0.188553
966.987705	0.188680
967.163035	0.191993
967.338347	0.191335
967.513641	0.187075
967.688916	0.186790
967.864173	0.188472
968.039412	0.188032
968.214632	0.187380
968.389835	0.188227
968.565019	0.186723
968.740185	0.185686
968.915333	0.187624
969.090462	0.188278
969.265573	0.188672
969.440667	0.188043
969.615741	0.187694
969.790798	0.186824
969.965836	0.187551
970.140856	0.188549
970.315858	0.187669
970.490842	0.186892
970.665808	0.187251
970.840755	0.185218
971.015684	0.185059
971.190595	0.186689
971.365487	0.187744
971.540362	0.189361
971.715218	0.187766
971.890056	0.189241
972.064875	0.188713
972.239677	0.189052
972.414460	0.188796
972.589225	0.187440
972.763972	0.185522
972.938700	0.184024
973.113411	0.181481
973.288103	0.182386
973.462777	0.181197
973.637432	0.182444
973.812070	0.181341
973.986689	0.184446
974.161290	0.184304
974.335873	0.184120
974.510437	0.184350
974.684984	0.182668
974.859512	0.182141
975.034022	0.182890
975.208513	0.181900
975.382987	0.183052
975.557442	0.180598
975.731879	0.180936
975.906298	0.179772
976.080698	0.179740
976.255080	0.180521
976.429445	0.181249
976.603790	0.180303
976.778118	0.184245
976.952427	0.185028
977.126719	0.182603
977.300992	0.183457
977.475246	0.186329
977.649483	0.183912
977.823701	0.182508
977.997901	0.180893
978.172083	0.180832
978.346247	0.176745
978.520392	0.174966
978.694519	0.177309
978.868628	0.179568
979.042719	0.177661
979.216791	0.178670
979.390845	0.182318
979.564882	0.182147
979.738899	0.183728
979.912899	0.184904
980.086880	0.184799
980.260843	0.183587
980.434788	0.183375
980.608715	0.184929
980.782623	0.185606
980.956514	0.184548
981.130386	0.189345
981.304240	0.187504
981.478075	0.187455
981.651892	0.185933
981.825692	0.187339
981.999472	0.187026
982.173235	0.187766
982.346980	0.187656
982.520706	0.187358
982.694414	0.184974
982.868104	0.183090
983.041775	0.182044
983.215428	0.184387
983.389064	0.184168
983.562680	0.184516
983.736279	0.184001
983.909860	0.182531
984.083422	0.179668
984.256966	0.180422
984.430491	0.184283
984.603999	0.186164
984.777488	0.187075
984.950959	0.190701
985.124412	0.189720
985.297847	0.187978
985.471263	0.188890
985.644661	0.190389
985.818041	0.188652
985.991403	0.187206
986.164747	0.189287
986.338072	0.188053
986.511379	0.186993
986.684668	0.186565
986.857938	0.188933
987.031191	0.189367
987.204425	0.191257
987.377641	0.191292
987.550839	0.190493
987.724018	0.186398
987.897179	0.185594
988.070322	0.184156
988.243447	0.182682
988.416554	0.181063
988.589642	0.181609
988.762712	0.180105
988.935764	0.179312
989.108798	0.181047
989.281813	0.182961
989.454811	0.184800
989.627790	0.185349
989.800751	0.186339
989.973693	0.186322
990.146617	0.187984
990.319524	0.190161
990.492412	0.191368
990.665281	0.190214
990.838133	0.190777
991.010966	0.188681
991.183781	0.188050
991.356578	0.189949
991.529356	0.190815
991.702117	0.189348
991.874859	0.187779
992.047583	0.189418
992.220288	0.190054
992.392976	0.187593
992.565645	0.189755
992.738296	0.188569
992.910929	0.189564
993.083543	0.188608
993.256139	0.188372
993.428718	0.188602
993.601277	0.187331
993.773819	0.186489
993.946342	0.187964
994.118848	0.187045
994.291335	0.187926
994.463803	0.185743
994.636254	0.187711
994.808686	0.187765
994.981100	0.186824
995.153496	0.186007
995.325874	0.186051
995.498233	0.185422
995.670574	0.184998
995.842897	0.184443
996.015202	0.183084
996.187488	0.181581
996.359757	0.182043
996.532007	0.183179
996.704239	0.183427
996.876452	0.184716
997.048648	0.185440
997.220825	0.185348
997.392984	0.185900
997.565124	0.187060
997.737247	0.187198
997.909351	0.185975
998.081437	0.185437
998.253505	0.186214
998.425554	0.185612
998.597586	0.187672
998.769599	0.187132
998.941594	0.186578
999.113571	0.188844
999.285529	0.188094
999.457469	0.188923
999.629391	0.188494
999.801295	0.186188
999.973181	0.185911
1000.145048	0.184122
1000.316897	0.185941
1000.488728	0.189187
1000.660541	0.189039
1000.832335	0.188985
1001.004111	0.188030
1001.175869	0.188746
1001.347609	0.189542
1001.519331	0.189107
1001.691034	0.188424
1001.862719	0.186912
1002.034386	0.184829
1002.206035	0.183068
1002.377665	0.185039
1002.549277	0.186528
1002.720871	0.186093
1002.892447	0.185821
1003.064004	0.186296
1003.235544	0.188474
1003.407065	0.190385
1003.578568	0.189095
1003.750052	0.189787
1003.921519	0.189669
1004.092967	0.189710
1004.264397	0.190168
1004.435809	0.191570
1004.607202	0.191893
1004.778577	0.190065
1004.949934	0.188376
1005.121273	0.188752
1005.292594	0.188431
1005.463896	0.185795
1005.635180	0.186264
1005.806446	0.185376
1005.977694	0.186183
1006.148923	0.186443
1006.320135	0.187526
1006.491328	0.188099
1006.662503	0.186495
1006.833659	0.184998
1007.004798	0.185905
1007.175918	0.185004
1007.347020	0.186879
1007.518103	0.185157
1007.689169	0.186340
1007.860216	0.185999
1008.031245	0.185941
1008.202256	0.187843
1008.373248	0.186811
1008.544223	0.184737
1008.715179	0.185524
1008.886117	0.185197
1009.057036	0.184184
1009.227938	0.182924
1009.398821	0.180302
1009.569686	0.180239
1009.740533	0.180258
1009.911361	0.181412
1010.082172	0.185374
1010.252964	0.184891
1010.423738	0.183768
1010.594493	0.185754
1010.765231	0.183685
1010.935950	0.185556
1011.106651	0.185381
1011.277334	0.184748
1011.447998	0.184190
1011.618645	0.183888
1011.789273	0.183838
1011.959882	0.185289
1012.130474	0.185221
1012.301048	0.186703
1012.471603	0.185305
1012.642140	0.184501
1012.812658	0.187132
1012.983159	0.189491
1013.153641	0.188388
1013.324105	0.188083
1013.494551	0.188374
1013.664979	0.188548
1013.835388	0.188299
1014.005779	0.191334
1014.176152	0.193445
1014.346507	0.192799
1014.516843	0.192017
1014.687162	0.190769
1014.857462	0.190552
1015.027744	0.189399
1015.198007	0.189948
1015.368252	0.189796
1015.538480	0.187447
1015.708689	0.184902
1015.878879	0.183541
1016.049052	0.183737
1016.219206	0.185123
1016.389342	0.184787
1016.559460	0.184745
1016.729559	0.185408
1016.899641	0.185271
1017.069704	0.185334
1017.239749	0.187843
1017.409775	0.185754
1017.579784	0.185875
1017.749774	0.185409
1017.919746	0.184163
1018.089700	0.182567
1018.259635	0.181823
1018.429553	0.183563
1018.599452	0.184551
1018.769333	0.184767
1018.939195	0.187495
1019.109040	0.187100
1019.278866	0.188444
1019.448674	0.191053
1019.618464	0.192626
1019.788235	0.191924
1019.957989	0.190552
1020.127724	0.189904
1020.297441	0.189553
1020.467139	0.188091
1020.636820	0.188256
1020.806482	0.187618
1020.976126	0.185719
1021.145752	0.185855
1021.315359	0.185574
1021.484948	0.185192
1021.654519	0.183500
1021.824072	0.182526
1021.993607	0.182834
1022.163123	0.181955
1022.332621	0.181020
1022.502101	0.181383
1022.671563	0.179633
1022.841007	0.179618
1023.010432	0.178715
1023.179839	0.180326
1023.349228	0.181890
1023.518598	0.181804
1023.687951	0.182388
1023.857285	0.183045
1024.026601	0.181833
1024.195899	0.182755
1024.365178	0.183712
1024.534439	0.185063
1024.703682	0.183727
1024.872907	0.182412
1025.042114	0.182117
1025.211302	0.181487
1025.380472	0.180115
1025.549624	0.182486
1025.718758	0.182110
1025.887873	0.180021
1026.056970	0.180466
1026.226049	0.181280
1026.395110	0.180205
1026.564153	0.180742
1026.733177	0.182847
1026.902183	0.182146
1027.071171	0.181405
1027.240141	0.180427
1027.409092	0.180759
1027.578026	0.181725
1027.746940	0.178875
1027.915837	0.180441
1028.084716	0.179866
1028.253576	0.179779
1028.422418	0.182307
1028.591242	0.183199
1028.760048	0.184610
1028.928835	0.186127
1029.097604	0.182478
1029.266355	0.186092
1029.435088	0.185728
1029.603803	0.186711
1029.772499	0.184579
1029.941177	0.182454
1030.109837	0.182658
1030.278478	0.181308
1030.447102	0.180359
1030.615707	0.182382
1030.784294	0.182057
1030.952863	0.179755
1031.121413	0.176730
1031.289945	0.176391
1031.458460	0.177167
1031.626955	0.175173
1031.795433	0.177120
1031.963892	0.178247
1032.132334	0.176048
1032.300756	0.175261
1032.469161	0.177633
1032.637548	0.179225
1032.805916	0.178833
1032.974266	0.180281
1033.142598	0.181685
1033.310911	0.181327
1033.479207	0.178869
1033.647484	0.181192
1033.815743	0.181204
1033.983983	0.180942
1034.152206	0.180071
1034.320410	0.182325
1034.488596	0.180578
1034.656764	0.178833
1034.824914	0.178664
1034.993045	0.180481
1035.161158	0.180837
1035.329253	0.183196
1035.497330	0.183947
1035.665388	0.184820
1035.833428	0.183561
1036.001450	0.183512
1036.169454	0.185625
1036.337440	0.185204
1036.505407	0.184420
1036.673356	0.184375
1036.841287	0.183376
1037.009200	0.180838
1037.177094	0.183234
1037.344970	0.184910
1037.512828	0.184828
1037.680668	0.183373
1037.848489	0.184064
1038.016293	0.183757
1038.184078	0.182899
1038.351845	0.181559
1038.519593	0.183864
1038.687324	0.181889
1038.855036	0.181598
1039.022730	0.182385
1039.190406	0.184023
1039.358063	0.183508
1039.525702	0.184576
1039.693323	0.184670
1039.860926	0.185614
1040.028511	0.184726
1040.196077	0.185889
1040.363625	0.183016
1040.531155	0.181592
1040.698667	0.179917
1040.866161	0.179610
1041.033636	0.180031
1041.201093	0.179830
1041.368532	0.179348
1041.535952	0.178897
1041.703355	0.178542
1041.870739	0.180581
1042.038105	0.183323
1042.205452	0.182660
1042.372782	0.184290
1042.540093	0.183797
1042.707386	0.185067
1042.874661	0.184460
1043.041918	0.184767
1043.209156	0.186008
1043.376376	0.186581
1043.543578	0.185024
1043.710762	0.186315
1043.877927	0.184494
1044.045074	0.181426
1044.212203	0.179702
1044.379314	0.181747
1044.546407	0.178979
1044.713481	0.177255
1044.880537	0.176560
1045.047575	0.176292
1045.214595	0.176331
1045.381596	0.175146
1045.548579	0.179104
1045.715544	0.180357
1045.882491	0.178414
1046.049420	0.182183
1046.216330	0.182127
1046.383222	0.181705
1046.550096	0.182243
1046.716951	0.180769
1046.883789	0.182595
1047.050608	0.180436
1047.217409	0.180325
1047.384192	0.179860
1047.550956	0.180038
1047.717703	0.178524
1047.884431	0.179151
1048.051140	0.178993
1048.217832	0.180933
1048.384505	0.178485
1048.551161	0.179075
1048.717798	0.180573
1048.884416	0.181977
1049.051017	0.180527
1049.217599	0.179537
1049.384163	0.178711
1049.550709	0.178550
1049.717237	0.177451
1049.883746	0.180513
1050.050237	0.180958
1050.216710	0.177714
1050.383165	0.177071
1050.549601	0.178852
1050.716019	0.182982
1050.882420	0.182939
1051.048801	0.181592
1051.215165	0.182239
1051.381510	0.182478
1051.547837	0.183954
1051.714146	0.185381
1051.880437	0.183561
1052.046709	0.182991
1052.212964	0.182572
1052.379200	0.181900
1052.545417	0.184976
1052.711617	0.185116
1052.877798	0.184517
1053.043961	0.183920
1053.210106	0.184941
1053.376233	0.187448
1053.542341	0.187894
1053.708432	0.185992
1053.874504	0.186442
1054.040557	0.184550
1054.206593	0.182902
1054.372610	0.182008
1054.538609	0.182150
1054.704590	0.180960
1054.870553	0.180516
1055.036497	0.179734
1055.202424	0.180789
1055.368331	0.180324
1055.534221	0.180318
1055.700093	0.182828
1055.865946	0.182907
1056.031781	0.180050
1056.197598	0.180462
1056.363397	0.179516
1056.529177	0.177217
1056.694939	0.178476
1056.860683	0.180257
1057.026409	0.179452
1057.192116	0.177155
1057.357806	0.175336
1057.523477	0.176961
1057.689130	0.178086
1057.854764	0.180942
1058.020381	0.183279
1058.185979	0.181760
1058.351559	0.179433
1058.517120	0.181279
1058.682664	0.182505
1058.848189	0.183881
1059.013696	0.184669
1059.179185	0.182986
1059.344656	0.179589
1059.510108	0.178994
1059.675542	0.179675
1059.840958	0.181208
1060.006356	0.181940
1060.171735	0.180300
1060.337096	0.179989
1060.502439	0.178357
1060.667764	0.179278
1060.833071	0.181725
1060.998359	0.183041
1061.163629	0.181960
1061.328881	0.181284
1061.494115	0.179233
1061.659330	0.181195
1061.824527	0.183204
1061.989706	0.184551
1062.154867	0.183580
1062.320010	0.182628
1062.485134	0.181546
1062.650240	0.181233
1062.815328	0.181171
1062.980398	0.181665
1063.145449	0.180845
1063.310482	0.179952
1063.475497	0.180484
1063.640494	0.180491
1063.805473	0.181107
1063.970433	0.179856
1064.135375	0.179794
1064.300299	0.179552
1064.465204	0.178572
1064.630092	0.178382
1064.794961	0.178882
1064.959812	0.180652
1065.124645	0.182179
1065.289459	0.180890
1065.454256	0.182827
1065.619034	0.182374
1065.783793	0.180519
1065.948535	0.182494
1066.113258	0.182119
1066.277964	0.182168
1066.442651	0.179938
1066.607319	0.181971
1066.771970	0.181498
1066.936602	0.180135
1067.101216	0.182026
1067.265812	0.183551
1067.430389	0.181788
1067.594949	0.182422
1067.759490	0.181971
1067.924013	0.180241
1068.088518	0.176165
1068.253004	0.176195
1068.417472	0.174582
1068.581922	0.172123
1068.746354	0.174426
1068.910768	0.174576
1069.075163	0.175028
1069.239540	0.174341
1069.403899	0.177120
1069.568240	0.179386
1069.732562	0.178098
1069.896866	0.182220
1070.061152	0.183970
1070.225420	0.184130
1070.389670	0.182941
1070.553901	0.183667
1070.718114	0.183242
1070.882309	0.180766
1071.046486	0.177837
1071.210644	0.182151
1071.374784	0.179027
1071.538906	0.179960
1071.703010	0.177077
1071.867096	0.178512
1072.031163	0.176986
1072.195212	0.179177
1072.359243	0.178097
1072.523256	0.181339
1072.687250	0.180970
1072.851226	0.180611
1073.015184	0.177633
1073.179124	0.181227
1073.343045	0.184175
1073.506949	0.187079
1073.670834	0.186977
1073.834701	0.188079
1073.998549	0.187128
1074.162380	0.186279
1074.326192	0.189372
1074.489986	0.192054
1074.653761	0.190541
1074.817519	0.186302
1074.981258	0.182913
1075.144979	0.181589
1075.308682	0.183582
1075.472367	0.182727
1075.636033	0.184657
1075.799681	0.183174
1075.963311	0.184266
1076.126923	0.182113
1076.290516	0.182015
1076.454092	0.181857
1076.617649	0.182279
1076.781187	0.180175
1076.944708	0.180847
1077.108210	0.177334
1077.271695	0.176081
1077.435160	0.176426
1077.598608	0.178286
1077.762038	0.182141
1077.925449	0.183068
1078.088842	0.182049
1078.252217	0.185100
1078.415573	0.183683
1078.578912	0.185536
1078.742232	0.189168
1078.905534	0.187142
1079.068817	0.186987
1079.232083	0.188176
1079.395330	0.188092
1079.558559	0.190516
1079.721770	0.189798
1079.884962	0.191679
1080.048136	0.191785
1080.211293	0.191301
1080.374430	0.189446
1080.537550	0.188544
1080.700651	0.186017
1080.863735	0.187051
1081.026800	0.187369
1081.189846	0.187019
1081.352875	0.185722
1081.515885	0.184689
1081.678877	0.181564
1081.841851	0.185396
1082.004807	0.188688
1082.167744	0.189702
1082.330663	0.190016
1082.493564	0.191500
1082.656447	0.191770
1082.819312	0.192879
1082.982158	0.195340
1083.144986	0.195526
1083.307796	0.191486
1083.470587	0.189497
1083.633361	0.186717
1083.796116	0.186530
1083.958853	0.183197
1084.121571	0.182993
1084.284272	0.180288
1084.446954	0.179233
1084.609618	0.180403
1084.772264	0.187692
1084.934892	0.186985
1085.097501	0.188748
1085.260092	0.185464
1085.422665	0.186122
1085.585220	0.185060
1085.747756	0.187863
1085.910274	0.186222
1086.072774	0.186433
1086.235256	0.180090
1086.397720	0.180821
1086.560165	0.181082
1086.722592	0.181584
1086.885001	0.182912
1087.047392	0.183314
1087.209764	0.181938
1087.372119	0.182298
1087.534455	0.183066
1087.696772	0.184893
1087.859072	0.184849
1088.021353	0.184922
1088.183616	0.185541
1088.345861	0.185790
1088.508088	0.183992
1088.670296	0.185819
1088.832486	0.187966
1088.994658	0.182866
1089.156812	0.182537
1089.318948	0.183574
1089.481065	0.182848
1089.643164	0.184768
1089.805245	0.183603
1089.967308	0.185356
1090.129352	0.184327
1090.291378	0.183219
1090.453386	0.188199
1090.615376	0.188552
1090.777347	0.187427
1090.939301	0.187605
1091.101236	0.188637
1091.263153	0.190678
1091.425051	0.194885
1091.586932	0.195075
1091.748794	0.197476
1091.910638	0.196538
1092.072463	0.195331
1092.234271	0.197452
1092.396060	0.198447
1092.557831	0.198673
1092.719584	0.193497
1092.881319	0.188041
1093.043035	0.189982
1093.204733	0.187191
1093.366413	0.191638
1093.528075	0.193655
1093.689718	0.193343
1093.851343	0.198338
1094.012950	0.197231
1094.174539	0.199523
1094.336110	0.198975
1094.497662	0.198274
1094.659196	0.197985
1094.820712	0.196138
1094.982210	0.196245
1095.143689	0.194266
1095.305151	0.189206
1095.466594	0.187209
1095.628018	0.188433
1095.789425	0.192703
1095.950813	0.193540
1096.112183	0.194302
1096.273535	0.191329
1096.434869	0.186990
1096.596184	0.189766
1096.757482	0.190851
1096.918761	0.191229
1097.080021	0.190734
1097.241264	0.186577
1097.402488	0.182941
1097.563694	0.182229
1097.724882	0.184985
1097.886052	0.187400
1098.047203	0.185126
1098.208336	0.178615
1098.369451	0.177663
1098.530548	0.174142
1098.691627	0.173635
1098.852687	0.172433
1099.013729	0.174469
1099.174753	0.170562
1099.335758	0.170864
1099.496746	0.170815
1099.657715	0.175343
1099.818666	0.175435
1099.979599	0.180803
1100.140513	0.183301
1100.301409	0.187165
1100.462287	0.183575
1100.623147	0.187639
1100.783989	0.184908
1100.944812	0.186383
1101.105617	0.187493
1101.266404	0.188231
1101.427173	0.185726
1101.587923	0.188669
1101.748656	0.188869
1101.909370	0.190985
1102.070066	0.183515
1102.230743	0.186289
1102.391403	0.188462
1102.552044	0.185384
1102.712667	0.185727
1102.873271	0.186788
1103.033858	0.185553
1103.194426	0.184342
1103.354976	0.181205
1103.515508	0.186968
1103.676021	0.188209
1103.836517	0.180912
1103.996994	0.182439
1104.157453	0.181606
1104.317893	0.181714
1104.478316	0.177335
1104.638720	0.177511
1104.799106	0.178351
1104.959474	0.176662
1105.119823	0.174915
1105.280155	0.177588
1105.440468	0.182563
1105.600763	0.185023
1105.761039	0.184712
1105.921298	0.186866
1106.081538	0.189898
1106.241760	0.189148
1106.401964	0.193911
1106.562149	0.194955
1106.722316	0.193252
1106.882465	0.188410
1107.042596	0.189857
1107.202709	0.185507
1107.362803	0.186006
1107.522879	0.184344
1107.682937	0.185449
1107.842977	0.181837
1108.002999	0.182249
1108.163002	0.184351
1108.322987	0.189323
1108.482954	0.184494
1108.642902	0.187840
1108.802833	0.185638
1108.962745	0.182090
1109.122639	0.189469
1109.282515	0.188305
1109.442372	0.186897
1109.602211	0.192717
1109.762032	0.188346
1109.921835	0.189111
1110.081620	0.193772
1110.241386	0.193908
1110.401134	0.192899
1110.560864	0.188047
1110.720576	0.192753
1110.880269	0.195777
1111.039945	0.190371
1111.199602	0.188185
1111.359240	0.195346
1111.518861	0.193691
1111.678463	0.197924
1111.838047	0.202413
1111.997613	0.202732
1112.157161	0.205221
1112.316690	0.204440
1112.476202	0.201781
1112.635695	0.202580
1112.795169	0.196961
1112.954626	0.194977
1113.114064	0.191102
1113.273484	0.189965
1113.432886	0.187416
1113.592270	0.188550
1113.751635	0.186850
1113.910983	0.189608
1114.070312	0.189171
1114.229622	0.188415
1114.388915	0.193528
1114.548189	0.194292
1114.707445	0.197234
1114.866683	0.199876
1115.025903	0.192875
1115.185104	0.191148
1115.344287	0.195742
1115.503452	0.201077
1115.662599	0.205977
1115.821727	0.198993
1115.980838	0.202610
1116.139930	0.198042
1116.299004	0.195320
1116.458059	0.192278
1116.617097	0.195370
1116.776116	0.195015
1116.935117	0.193409
1117.094099	0.191729
1117.253064	0.191145
1117.412010	0.191045
1117.570938	0.196347
1117.729848	0.200722
1117.888740	0.203625
1118.047613	0.200141
1118.206468	0.198040
1118.365305	0.195948
1118.524124	0.195739
1118.682924	0.195559
1118.841707	0.196538
1119.000471	0.191882
1119.159216	0.184508
1119.317944	0.184996
1119.476653	0.189215
1119.635344	0.184847
1119.794017	0.183325
1119.952672	0.181775
1120.111308	0.181057
1120.269927	0.176864
1120.428527	0.179677
1120.587108	0.188773
1120.745672	0.188598
1120.904217	0.185660
1121.062744	0.190531
1121.221253	0.193233
1121.379744	0.196243
1121.538216	0.196815
1121.696671	0.200220
1121.855107	0.199106
1122.013524	0.194800
1122.171924	0.199308
1122.330305	0.203682
1122.488668	0.200829
1122.647013	0.202179
1122.805340	0.204077
1122.963648	0.208163
1123.121938	0.203995
1123.280210	0.200257
1123.438464	0.201392
1123.596700	0.198290
1123.754917	0.194035
1123.913116	0.198519
1124.071297	0.199130
1124.229459	0.192517
1124.387604	0.194176
1124.545730	0.200194
1124.703838	0.202521
1124.861928	0.201984
1125.019999	0.197751
1125.178052	0.199113
1125.336088	0.195365
1125.494104	0.187750
1125.652103	0.191129
1125.810083	0.188376
1125.968045	0.176572
1126.125989	0.180873
1126.283915	0.177986
1126.441823	0.180548
1126.599712	0.180069
1126.757583	0.175342
1126.915436	0.176502
1127.073270	0.178916
1127.231087	0.179004
1127.388885	0.186983
1127.546665	0.186252
1127.704426	0.194941
1127.862170	0.199400
1128.019895	0.205792
1128.177602	0.206128
1128.335291	0.213870
1128.492961	0.208659
1128.650614	0.208405
1128.808248	0.203210
1128.965864	0.200675
1129.123461	0.188528
1129.281041	0.185646
1129.438602	0.186128
1129.596145	0.188345
1129.753670	0.188399
1129.911176	0.190442
1130.068665	0.190345
1130.226135	0.190700
1130.383587	0.195404
1130.541020	0.202188
1130.698436	0.199915
1130.855833	0.191758
1131.013212	0.196513
1131.170573	0.186474
1131.327915	0.183937
1131.485239	0.183695
1131.642545	0.193212
1131.799833	0.190934
1131.957103	0.181591
1132.114354	0.182921
1132.271588	0.182259
1132.428803	0.180987
1132.585999	0.185212
1132.743178	0.194423
1132.900338	0.192501
1133.057480	0.185747
1133.214604	0.178252
1133.371710	0.181327
1133.528797	0.182210
1133.685866	0.182989
1133.842917	0.189632
1133.999950	0.192838
1134.156964	0.185765
1134.313960	0.185923
1134.470938	0.195180
1134.627898	0.194841
1134.784840	0.202277
1134.941763	0.200963
1135.098668	0.198599
1135.255555	0.186882
1135.412424	0.182554
1135.569274	0.181689
1135.726107	0.181492
1135.882921	0.170998
1136.039716	0.173947
1136.196494	0.165618
1136.353253	0.167961
1136.509995	0.169102
1136.666717	0.170269
1136.823422	0.175072
1136.980109	0.173134
1137.136777	0.177041
1137.293427	0.179211
1137.450059	0.183051
1137.606672	0.188825
1137.763267	0.186664
1137.919844	0.188684
1138.076403	0.189382
1138.232944	0.188035
1138.389466	0.189063
1138.545971	0.182414
1138.702457	0.193111
1138.858924	0.194002
1139.015374	0.199428
1139.171805	0.197532
1139.328218	0.191475
1139.484613	0.191523
1139.640990	0.181727
1139.797348	0.179963
1139.953688	0.189035
1140.110010	0.173032
1140.266314	0.172467
1140.422600	0.171020
1140.578867	0.171991
1140.735116	0.178903
1140.891347	0.176272
1141.047559	0.182445
1141.203754	0.186426
1141.359930	0.178628
1141.516088	0.186199
1141.672228	0.180830
1141.828349	0.177166
1141.984452	0.178901
1142.140537	0.177054
1142.296604	0.179384
1142.452653	0.190030
1142.608683	0.187054
1142.764695	0.195416
1142.920689	0.188324
1143.076665	0.191126
1143.232622	0.190175
1143.388562	0.187675
1143.544483	0.190512
1143.700385	0.190647
1143.856270	0.188149
1144.012136	0.189578
1144.167985	0.179784
1144.323814	0.185301
1144.479626	0.183807
1144.635420	0.176861
1144.791195	0.175821
1144.946952	0.177552
1145.102691	0.182916
1145.258411	0.177626
1145.414113	0.180286
1145.569798	0.181585
1145.725463	0.181841
1145.881111	0.187700
1146.036741	0.193011
1146.192352	0.192751
1146.347945	0.187438
1146.503519	0.182899
1146.659076	0.179798
1146.814614	0.177181
1146.970134	0.178415
1147.125636	0.172384
1147.281120	0.167031
1147.436585	0.172444
1147.592032	0.168463
1147.747461	0.166465
1147.902872	0.168226
1148.058265	0.167856
1148.213639	0.165309
1148.368995	0.165578
1148.524333	0.164968
1148.679653	0.161360
1148.834954	0.151708
1148.990237	0.160220
1149.145502	0.170535
1149.300749	0.173635
1149.455977	0.176786
1149.611188	0.178927
1149.766380	0.177311
1149.921553	0.190228
1150.076709	0.194792
1150.231846	0.200218
1150.386966	0.198011
1150.542066	0.194594
1150.697149	0.184718
1150.852214	0.187742
1151.007260	0.189622
1151.162288	0.192906
1151.317298	0.184941
1151.472289	0.183484
1151.627263	0.190714
1151.782218	0.185887
1151.937155	0.177576
1152.092073	0.179676
1152.246974	0.173939
1152.401856	0.171444
1152.556720	0.168910
1152.711566	0.168818
1152.866393	0.167142
1153.021203	0.160268
1153.175994	0.159656
1153.330767	0.166415
1153.485521	0.166626
1153.640258	0.173369
1153.794976	0.176896
1153.949676	0.170137
1154.104358	0.169850
1154.259021	0.168037
1154.413667	0.170165
1154.568294	0.170822
1154.722903	0.173514
1154.877493	0.174484
1155.032066	0.163188
1155.186620	0.160145
1155.341156	0.168234
1155.495674	0.162071
1155.650173	0.163643
1155.804654	0.156913
1155.959118	0.155215
1156.113562	0.146609
1156.267989	0.139900
1156.422397	0.142541
1156.576788	0.145029
1156.731160	0.141641
1156.885513	0.150117
1157.039849	0.151081
1157.194166	0.152805
1157.348465	0.155536
1157.502746	0.151417
1157.657009	0.155904
1157.811253	0.162182
1157.965479	0.156082
1158.119687	0.162136
1158.273877	0.159331
1158.428048	0.164793
1158.582201	0.174284
1158.736337	0.172494
1158.890453	0.175368
1159.044552	0.185736
1159.198632	0.176381
1159.352694	0.177099
1159.506738	0.181089
1159.660764	0.182826
1159.814771	0.173161
1159.968761	0.162001
1160.122732	0.159050
1160.276685	0.163224
1160.430619	0.153318
1160.584535	0.159828
1160.738434	0.154163
1160.892313	0.150932
1161.046175	0.140163
1161.200019	0.143034
1161.353844	0.150494
1161.507651	0.153582
1161.661440	0.145486
1161.815210	0.147817
1161.968962	0.139158
1162.122697	0.144372
1162.276412	0.142011
1162.430110	0.149569
1162.583789	0.154346
1162.737451	0.142827
1162.891094	0.151807
1163.044718	0.147608
1163.198325	0.143158
1163.351913	0.147618
1163.505483	0.143117
1163.659035	0.131840
1163.812569	0.128940
1163.966084	0.127432
1164.119581	0.130564
1164.273060	0.127268
1164.426521	0.128498
1164.579964	0.129749
1164.733388	0.124459
1164.886794	0.135751
1165.040182	0.143064
1165.193551	0.155806
1165.346903	0.150901
1165.500236	0.150473
1165.653551	0.143427
1165.806848	0.157626
1165.960126	0.151644
1166.113386	0.158999
1166.266628	0.159940
1166.419852	0.162096
1166.573058	0.147431
1166.726245	0.146992
1166.879414	0.154971
1167.032565	0.151988
1167.185698	0.145925
1167.338812	0.147040
1167.491909	0.158478
1167.644987	0.148636
1167.798046	0.157664
1167.951088	0.162604
1168.104111	0.152621
1168.257117	0.137732
1168.410103	0.146314
1168.563072	0.140879
1168.716023	0.158248
1168.868955	0.146573
1169.021869	0.143215
1169.174765	0.136475
1169.327642	0.133342
1169.480501	0.133361
1169.633343	0.129121
1169.786165	0.125534
1169.938970	0.118582
1170.091757	0.102683
1170.244525	0.102747
1170.397275	0.098688
1170.550007	0.093192
1170.702720	0.091218
1170.855415	0.097774
1171.008092	0.106874
1171.160751	0.102304
1171.313392	0.109460
1171.466014	0.107804
1171.618619	0.098734
1171.771205	0.098734
1171.923772	0.098734
