sample name	sample
index	1373
start time	 05-03-2021  02:31:33 PM


Wavelength (nm)	Absorbance
494.344910	0.185190
494.563924	0.185190
494.782919	0.185190
495.001897	NaN
495.220856	0.045098
495.439797	-0.027482
495.658719	0.000726
495.877624	-0.017172
496.096510	-0.032721
496.315378	0.005048
496.534227	0.111760
496.753059	0.066149
496.971872	0.045483
497.190667	0.142286
497.409444	0.151704
497.628203	0.156304
497.846943	0.153444
498.065665	0.155906
498.284369	0.154682
498.503055	0.152285
498.721723	0.154267
498.940372	0.156630
499.159003	0.157256
499.377616	0.156348
499.596210	0.154917
499.814787	0.155288
500.033345	0.154040
500.251885	0.155428
500.470406	0.156691
500.688910	0.154586
500.907395	0.152818
501.125862	0.151729
501.344311	0.152623
501.562742	0.151938
501.781154	0.153187
501.999548	0.153486
502.217924	0.152978
502.436282	0.152862
502.654621	0.153896
502.872942	0.153880
503.091245	0.155100
503.309530	0.154324
503.527797	0.155072
503.746045	0.154797
503.964275	0.155597
504.182487	0.155637
504.400681	0.156183
504.618856	0.157524
504.837013	0.158909
505.055152	0.159800
505.273273	0.161001
505.491376	0.161303
505.709460	0.161983
505.927526	0.162243
506.145574	0.161852
506.363604	0.160775
506.581615	0.161051
506.799608	0.160309
507.017583	0.159552
507.235540	0.158128
507.453478	0.157638
507.671399	0.157344
507.889301	0.156203
508.107185	0.156282
508.325050	0.157460
508.542898	0.157172
508.760727	0.158142
508.978538	0.158991
509.196330	0.160187
509.414105	0.161121
509.631861	0.161411
509.849599	0.162094
510.067319	0.163003
510.285021	0.163342
510.502704	0.162400
510.720369	0.161148
510.938016	0.161007
511.155645	0.160877
511.373255	0.160647
511.590848	0.160653
511.808422	0.161556
512.025977	0.161384
512.243515	0.160742
512.461034	0.161762
512.678536	0.162808
512.896018	0.162658
513.113483	0.163141
513.330930	0.163425
513.548358	0.163094
513.765768	0.162575
513.983160	0.163077
514.200533	0.164089
514.417889	0.164327
514.635226	0.163761
514.852545	0.164192
515.069845	0.165803
515.287128	0.165313
515.504392	0.165453
515.721638	0.165233
515.938866	0.165763
516.156075	0.165533
516.373267	0.164520
516.590440	0.165003
516.807594	0.164118
517.024731	0.163437
517.241850	0.164406
517.458950	0.164465
517.676032	0.165172
517.893095	0.164959
518.110141	0.165730
518.327168	0.166821
518.544177	0.166649
518.761168	0.166784
518.978141	0.166995
519.195095	0.167451
519.412031	0.167919
519.628949	0.167576
519.845849	0.167326
520.062731	0.167321
520.279594	0.167619
520.496439	0.168520
520.713266	0.169119
520.930074	0.169213
521.146865	0.168814
521.363637	0.169194
521.580391	0.168629
521.797127	0.169079
522.013844	0.169105
522.230543	0.168455
522.447224	0.168351
522.663887	0.168605
522.880532	0.168344
523.097158	0.168258
523.313766	0.168512
523.530356	0.169281
523.746928	0.169327
523.963481	0.169051
524.180017	0.170858
524.396534	0.171348
524.613032	0.171793
524.829513	0.171594
525.045975	0.172684
525.262420	0.173115
525.478845	0.174282
525.695253	0.175001
525.911643	0.175887
526.128014	0.175540
526.344367	0.175227
526.560702	0.175392
526.777018	0.176399
526.993316	0.176891
527.209597	0.177311
527.425858	0.177934
527.642102	0.178046
527.858328	0.178293
528.074535	0.178391
528.290724	0.179799
528.506894	0.181017
528.723047	0.181709
528.939181	0.181355
529.155297	0.182003
529.371395	0.181057
529.587475	0.181850
529.803536	0.182211
530.019579	0.182658
530.235604	0.182753
530.451611	0.182671
530.667600	0.182547
530.883570	0.182848
531.099522	0.183151
531.315456	0.183609
531.531372	0.184301
531.747269	0.184779
531.963148	0.185277
532.179009	0.184996
532.394852	0.185046
532.610676	0.185636
532.826482	0.186742
533.042271	0.186202
533.258040	0.187021
533.473792	0.186825
533.689525	0.186980
533.905240	0.187261
534.120937	0.187456
534.336616	0.187417
534.552277	0.188378
534.767919	0.187980
534.983543	0.189430
535.199149	0.189583
535.414736	0.189807
535.630306	0.190387
535.845857	0.190045
536.061390	0.191136
536.276904	0.191638
536.492401	0.191425
536.707879	0.192443
536.923339	0.192000
537.138781	0.192467
537.354204	0.193143
537.569610	0.193005
537.784997	0.193900
538.000366	0.194477
538.215716	0.194849
538.431049	0.194985
538.646363	0.194838
538.861659	0.195135
539.076937	0.195498
539.292196	0.195390
539.507438	0.196226
539.722661	0.196918
539.937866	0.196649
540.153052	0.197250
540.368221	0.197530
540.583371	0.197822
540.798503	0.198661
541.013617	0.199333
541.228712	0.199797
541.443789	0.199834
541.658848	0.199900
541.873889	0.200401
542.088912	0.200736
542.303916	0.201196
542.518902	0.201884
542.733870	0.202270
542.948820	0.202172
543.163752	0.202465
543.378665	0.202966
543.593560	0.203073
543.808437	0.203485
544.023295	0.203342
544.238136	0.203512
544.452958	0.203199
544.667762	0.202968
544.882548	0.203601
545.097315	0.203801
545.312064	0.203955
545.526795	0.203972
545.741508	0.203924
545.956203	0.204253
546.170879	0.204383
546.385537	0.204654
546.600177	0.204820
546.814799	0.204987
547.029402	0.205410
547.243988	0.205298
547.458555	0.206172
547.673103	0.206743
547.887634	0.207309
548.102146	0.207841
548.316640	0.208442
548.531116	0.209014
548.745574	0.209093
548.960013	0.209140
549.174435	0.209509
549.388838	0.209924
549.603222	0.209262
549.817589	0.209432
550.031937	0.208582
550.246267	0.208712
550.460579	0.208566
550.674873	0.208793
550.889148	0.209105
551.103405	0.209421
551.317644	0.209294
551.531865	0.210124
551.746068	0.210530
551.960252	0.211599
552.174418	0.211509
552.388566	0.211907
552.602696	0.211829
552.816807	0.211840
553.030900	0.212376
553.244975	0.212223
553.459032	0.212900
553.673070	0.212680
553.887091	0.212493
554.101093	0.213481
554.315077	0.214349
554.529042	0.215177
554.742990	0.215811
554.956919	0.216075
555.170830	0.216810
555.384722	0.216508
555.598597	0.216778
555.812453	0.217163
556.026291	0.216917
556.240111	0.216875
556.453913	0.217037
556.667696	0.217088
556.881461	0.216613
557.095208	0.216547
557.308937	0.217010
557.522647	0.217184
557.736339	0.217935
557.950013	0.217807
558.163669	0.217380
558.377307	0.217362
558.590926	0.217361
558.804527	0.218056
559.018110	0.218379
559.231675	0.218718
559.445221	0.218719
559.658749	0.218613
559.872259	0.219138
560.085751	0.219643
560.299225	0.219721
560.512680	0.219691
560.726117	0.219647
560.939536	0.219687
561.152937	0.219322
561.366319	0.219989
561.579683	0.220158
561.793029	0.219959
562.006357	0.220058
562.219667	0.220144
562.432958	0.219822
562.646231	0.219998
562.859486	0.219743
563.072723	0.219960
563.285941	0.220336
563.499141	0.220078
563.712323	0.220430
563.925487	0.220556
564.138632	0.220688
564.351760	0.221133
564.564869	0.220969
564.777960	0.221362
564.991032	0.221838
565.204087	0.221396
565.417123	0.221924
565.630141	0.221889
565.843140	0.222136
566.056122	0.222675
566.269085	0.223396
566.482030	0.223829
566.694957	0.224173
566.907866	0.224014
567.120756	0.224327
567.333628	0.224674
567.546482	0.224854
567.759318	0.225051
567.972135	0.224696
568.184935	0.224451
568.397716	0.224393
568.610478	0.224204
568.823223	0.224303
569.035949	0.224430
569.248657	0.224425
569.461347	0.224558
569.674019	0.224091
569.886672	0.224403
570.099308	0.224503
570.311925	0.224594
570.524523	0.224731
570.737104	0.224867
570.949666	0.224898
571.162210	0.225151
571.374736	0.225663
571.587244	0.225927
571.799733	0.226109
572.012205	0.226711
572.224658	0.227155
572.437092	0.227630
572.649509	0.227818
572.861907	0.228094
573.074287	0.228179
573.286649	0.227936
573.498993	0.228074
573.711318	0.228166
573.923625	0.228053
574.135914	0.227910
574.348185	0.227670
574.560438	0.227953
574.772672	0.228166
574.984888	0.228303
575.197086	0.228689
575.409266	0.229179
575.621427	0.228989
575.833570	0.229140
576.045695	0.229092
576.257802	0.229605
576.469890	0.229236
576.681961	0.228910
576.894013	0.229044
577.106046	0.229366
577.318062	0.229463
577.530059	0.229934
577.742039	0.229825
577.954000	0.229895
578.165942	0.229742
578.377867	0.230210
578.589773	0.230534
578.801661	0.230702
579.013531	0.230513
579.225382	0.230323
579.437216	0.230502
579.649031	0.230965
579.860828	0.231140
580.072606	0.231673
580.284367	0.232199
580.496109	0.232395
580.707833	0.232531
580.919539	0.232786
581.131227	0.233563
581.342896	0.233569
581.554547	0.233496
581.766180	0.233944
581.977795	0.233775
582.189391	0.233439
582.400969	0.233750
582.612529	0.233496
582.824071	0.233793
583.035595	0.233216
583.247100	0.233185
583.458587	0.233897
583.670056	0.233938
583.881506	0.234016
584.092939	0.234167
584.304353	0.233985
584.515749	0.234382
584.727127	0.234233
584.938486	0.234596
585.149828	0.235277
585.361151	0.234635
585.572456	0.234967
585.783742	0.235367
585.995011	0.235400
586.206261	0.235985
586.417493	0.236068
586.628706	0.236541
586.839902	0.236891
587.051079	0.236460
587.262238	0.236870
587.473379	0.236729
587.684502	0.236775
587.895606	0.237308
588.106692	0.237250
588.317760	0.237543
588.528810	0.237619
588.739841	0.238003
588.950855	0.238386
589.161850	0.238633
589.372827	0.239174
589.583785	0.239302
589.794726	0.239011
590.005648	0.239500
590.216552	0.239519
590.427437	0.239524
590.638305	0.239609
590.849154	0.239909
591.059985	0.240369
591.270798	0.240327
591.481592	0.240927
591.692369	0.241084
591.903127	0.240681
592.113867	0.240735
592.324588	0.241194
592.535292	0.240975
592.745977	0.240997
592.956644	0.240580
593.167293	0.240520
593.377923	0.240066
593.588536	0.240698
593.799130	0.241095
594.009706	0.241300
594.220263	0.241094
594.430803	0.241195
594.641324	0.241361
594.851827	0.241534
595.062312	0.241986
595.272778	0.242075
595.483227	0.241672
595.693657	0.241774
595.904069	0.241854
596.114462	0.241967
596.324838	0.242304
596.535195	0.242335
596.745534	0.242857
596.955855	0.242845
597.166157	0.243174
597.376441	0.243539
597.586707	0.243798
597.796955	0.244094
598.007185	0.244312
598.217396	0.244441
598.427589	0.244796
598.637764	0.244701
598.847921	0.244798
599.058060	0.245008
599.268180	0.245418
599.478282	0.246081
599.688366	0.246005
599.898431	0.246136
600.108479	0.246755
600.318508	0.246858
600.528519	0.247409
600.738511	0.247777
600.948486	0.248037
601.158442	0.247894
601.368380	0.247415
601.578300	0.247963
601.788202	0.248405
601.998085	0.248258
602.207950	0.248589
602.417797	0.248740
602.627626	0.248990
602.837436	0.249355
603.047228	0.249770
603.257002	0.250194
603.466758	0.250444
603.676496	0.250598
603.886215	0.250699
604.095916	0.250614
604.305599	0.250438
604.515264	0.250766
604.724910	0.250268
604.934538	0.250216
605.144148	0.250400
605.353740	0.250262
605.563314	0.249877
605.772869	0.250129
605.982406	0.250346
606.191925	0.250784
606.401425	0.250569
606.610908	0.251299
606.820372	0.251200
607.029818	0.251251
607.239246	0.251392
607.448655	0.251932
607.658047	0.251995
607.867420	0.252078
608.076775	0.251864
608.286111	0.252210
608.495430	0.252157
608.704730	0.252769
608.914012	0.252629
609.123275	0.252733
609.332521	0.252841
609.541748	0.253037
609.750957	0.252922
609.960148	0.253435
610.169321	0.253267
610.378475	0.253474
610.587611	0.253474
610.796729	0.253850
611.005829	0.253998
611.214910	0.254236
611.423974	0.254113
611.633019	0.254711
611.842045	0.254525
612.051054	0.254618
612.260044	0.254809
612.469017	0.254918
612.677970	0.255046
612.886906	0.255210
613.095824	0.255025
613.304723	0.255417
613.513604	0.255412
613.722467	0.255649
613.931311	0.256010
614.140138	0.256219
614.348946	0.256115
614.557736	0.256156
614.766507	0.256611
614.975261	0.256455
615.183996	0.256276
615.392713	0.256548
615.601412	0.256719
615.810092	0.256914
616.018754	0.257116
616.227399	0.257303
616.436024	0.257531
616.644632	0.257446
616.853222	0.257550
617.061793	0.257925
617.270346	0.257796
617.478880	0.257921
617.687397	0.257908
617.895895	0.257744
618.104375	0.258022
618.312837	0.258089
618.521281	0.258093
618.729706	0.258678
618.938113	0.259012
619.146502	0.258809
619.354873	0.258789
619.563226	0.259112
619.771560	0.259361
619.979876	0.260032
620.188174	0.260403
620.396453	0.260560
620.604715	0.260787
620.812958	0.260571
621.021183	0.261338
621.229390	0.261783
621.437578	0.261724
621.645748	0.261913
621.853900	0.261453
622.062034	0.261234
622.270150	0.261564
622.478247	0.261752
622.686326	0.261895
622.894387	0.262037
623.102430	0.262287
623.310454	0.262413
623.518461	0.262167
623.726449	0.262390
623.934418	0.262675
624.142370	0.262767
624.350303	0.262520
624.558218	0.262779
624.766115	0.262765
624.973994	0.262469
625.181855	0.262853
625.389697	0.263341
625.597521	0.263529
625.805327	0.263308
626.013114	0.263375
626.220883	0.263913
626.428634	0.263851
626.636367	0.264022
626.844082	0.264412
627.051778	0.264468
627.259457	0.264671
627.467117	0.264876
627.674758	0.265270
627.882382	0.265493
628.089987	0.265624
628.297574	0.265890
628.505143	0.265932
628.712694	0.266100
628.920226	0.266299
629.127740	0.266193
629.335236	0.266407
629.542714	0.266460
629.750174	0.266552
629.957615	0.266760
630.165038	0.267269
630.372443	0.267377
630.579829	0.267504
630.787198	0.267447
630.994548	0.267462
631.201880	0.267611
631.409194	0.268238
631.616489	0.268617
631.823766	0.268554
632.031025	0.268805
632.238266	0.269104
632.445489	0.269150
632.652693	0.269168
632.859879	0.269820
633.067047	0.270187
633.274197	0.270063
633.481329	0.269880
633.688442	0.270311
633.895537	0.270147
634.102614	0.270370
634.309672	0.270536
634.516713	0.270823
634.723735	0.270817
634.930739	0.270641
635.137724	0.270779
635.344692	0.270983
635.551641	0.270932
635.758572	0.270757
635.965485	0.270765
636.172379	0.270844
636.379256	0.271009
636.586114	0.271021
636.792954	0.271187
636.999775	0.271133
637.206579	0.271207
637.413364	0.271380
637.620131	0.271665
637.826880	0.271540
638.033610	0.271641
638.240323	0.271779
638.447017	0.271749
638.653692	0.271587
638.860350	0.271674
639.066990	0.271734
639.273611	0.272019
639.480214	0.272229
639.686798	0.272456
639.893365	0.272648
640.099913	0.272943
640.306443	0.273256
640.512955	0.273726
640.719449	0.274094
640.925924	0.274406
641.132381	0.274376
641.338820	0.274629
641.545241	0.275023
641.751644	0.275305
641.958028	0.275719
642.164394	0.275923
642.370742	0.275992
642.577071	0.276038
642.783383	0.276346
642.989676	0.276542
643.195951	0.276502
643.402207	0.276802
643.608446	0.276829
643.814666	0.276910
644.020868	0.277048
644.227052	0.277272
644.433218	0.277419
644.639365	0.277580
644.845494	0.277688
645.051605	0.278280
645.257698	0.278400
645.463772	0.278735
645.669828	0.278610
645.875866	0.278685
646.081886	0.278587
646.287888	0.279021
646.493871	0.279037
646.699836	0.279378
646.905783	0.279045
647.111712	0.278962
647.317622	0.278815
647.523514	0.278968
647.729388	0.279221
647.935244	0.279637
648.141082	0.279697
648.346901	0.280013
648.552702	0.280156
648.758485	0.280546
648.964250	0.280893
649.169996	0.281527
649.375724	0.282134
649.581434	0.282220
649.787126	0.282314
649.992800	0.282493
650.198455	0.282683
650.404092	0.282639
650.609711	0.282825
650.815311	0.283086
651.020894	0.282955
651.226458	0.283128
651.432004	0.283698
651.637532	0.284051
651.843041	0.284288
652.048532	0.284614
652.254006	0.284980
652.459460	0.285246
652.664897	0.285042
652.870315	0.285513
653.075716	0.285462
653.281097	0.285436
653.486461	0.285578
653.691807	0.285445
653.897134	0.285348
654.102443	0.285544
654.307734	0.285644
654.513006	0.286287
654.718261	0.286246
654.923497	0.286554
655.128715	0.286690
655.333915	0.286915
655.539096	0.287386
655.744259	0.287490
655.949404	0.287456
656.154531	0.287800
656.359640	0.287994
656.564730	0.288170
656.769802	0.288295
656.974856	0.288368
657.179892	0.288324
657.384909	0.288476
657.589908	0.288671
657.794889	0.289104
657.999852	0.289094
658.204797	0.288897
658.409723	0.289030
658.614631	0.289126
658.819521	0.289204
659.024393	0.289603
659.229246	0.289887
659.434081	0.290068
659.638898	0.289986
659.843697	0.290028
660.048478	0.290349
660.253240	0.290446
660.457984	0.290429
660.662710	0.290738
660.867417	0.290754
661.072107	0.291103
661.276778	0.291257
661.481431	0.291832
661.686066	0.291872
661.890682	0.292007
662.095281	0.292535
662.299861	0.292619
662.504422	0.293012
662.708966	0.293396
662.913491	0.293550
663.117999	0.294114
663.322488	0.294014
663.526958	0.294589
663.731411	0.294768
663.935845	0.294786
664.140261	0.295101
664.344659	0.295311
664.549038	0.295197
664.753400	0.295020
664.957743	0.295157
665.162068	0.295487
665.366375	0.295450
665.570663	0.295650
665.774933	0.295753
665.979185	0.295854
666.183419	0.295605
666.387635	0.296002
666.591832	0.296388
666.796011	0.296345
667.000172	0.296506
667.204315	0.296818
667.408439	0.296912
667.612545	0.297110
667.816634	0.297555
668.020703	0.298044
668.224755	0.298270
668.428788	0.298531
668.632803	0.298653
668.836800	0.298690
669.040779	0.298989
669.244739	0.299373
669.448681	0.299617
669.652605	0.299826
669.856511	0.299900
670.060399	0.300185
670.264268	0.300408
670.468119	0.300637
670.671952	0.300750
670.875767	0.301009
671.079563	0.301097
671.283341	0.301498
671.487101	0.301640
671.690843	0.302166
671.894567	0.302123
672.098272	0.302184
672.301959	0.302686
672.505628	0.303126
672.709278	0.303285
672.912911	0.303512
673.116525	0.303569
673.320121	0.303893
673.523699	0.303779
673.727258	0.304508
673.930799	0.304712
674.134322	0.304515
674.337827	0.304745
674.541314	0.304816
674.744782	0.304929
674.948232	0.305039
675.151664	0.305161
675.355078	0.305473
675.558474	0.305229
675.761851	0.305396
675.965210	0.305555
676.168551	0.305394
676.371873	0.305809
676.575178	0.306173
676.778464	0.306100
676.981732	0.306067
677.184981	0.306160
677.388213	0.306315
677.591426	0.306530
677.794621	0.306789
677.997798	0.307208
678.200956	0.307371
678.404097	0.307372
678.607219	0.307735
678.810323	0.308093
679.013408	0.308338
679.216476	0.308770
679.419525	0.309179
679.622556	0.309604
679.825569	0.309847
680.028563	0.309845
680.231540	0.310121
680.434498	0.310636
680.637438	0.311076
680.840359	0.311622
681.043263	0.311644
681.246148	0.311595
681.449015	0.311804
681.651864	0.312250
681.854694	0.312653
682.057506	0.312686
682.260301	0.312628
682.463076	0.312728
682.665834	0.312748
682.868573	0.313030
683.071295	0.313368
683.273998	0.313671
683.476682	0.313751
683.679349	0.313958
683.881997	0.314572
684.084627	0.315027
684.287239	0.315209
684.489833	0.315253
684.692408	0.315354
684.894965	0.315364
685.097504	0.315641
685.300025	0.315714
685.502527	0.315745
685.705012	0.315783
685.907478	0.315652
686.109925	0.315573
686.312355	0.315874
686.514766	0.316195
686.717159	0.316546
686.919534	0.316421
687.121891	0.316760
687.324230	0.316913
687.526550	0.317270
687.728852	0.317459
687.931136	0.317569
688.133401	0.317641
688.335649	0.317757
688.537878	0.317783
688.740089	0.318075
688.942281	0.318065
689.144456	0.318191
689.346612	0.318086
689.548750	0.318277
689.750870	0.318757
689.952971	0.318859
690.155055	0.319084
690.357120	0.319432
690.559167	0.319511
690.761195	0.319708
690.963206	0.320049
691.165198	0.320224
691.367172	0.320734
691.569128	0.320650
691.771065	0.321163
691.972984	0.321506
692.174885	0.321836
692.376768	0.322204
692.578633	0.322236
692.780479	0.322177
692.982308	0.322469
693.184118	0.322514
693.385909	0.322609
693.587683	0.322509
693.789438	0.322614
693.991175	0.322649
694.192894	0.322760
694.394595	0.323250
694.596277	0.323627
694.797941	0.323850
694.999587	0.324059
695.201215	0.324456
695.402824	0.324754
695.604416	0.324865
695.805989	0.324949
696.007543	0.324991
696.209080	0.324759
696.410598	0.325032
696.612099	0.325316
696.813580	0.325257
697.015044	0.325492
697.216490	0.325815
697.417917	0.325924
697.619326	0.326191
697.820717	0.326422
698.022089	0.326823
698.223444	0.326977
698.424780	0.326927
698.626098	0.327024
698.827397	0.327366
699.028679	0.327209
699.229942	0.327350
699.431187	0.327414
699.632414	0.327472
699.833622	0.327723
700.034813	0.327829
700.235985	0.328030
700.437139	0.328548
700.638274	0.328608
700.839392	0.328921
701.040491	0.328864
701.241572	0.328860
701.442635	0.329051
701.643679	0.329192
701.844706	0.329105
702.045714	0.329201
702.246704	0.329101
702.447675	0.328837
702.648629	0.328654
702.849564	0.328636
703.050481	0.328834
703.251380	0.328896
703.452260	0.328929
703.653122	0.328918
703.853966	0.328832
704.054792	0.328653
704.255600	0.329016
704.456389	0.328873
704.657160	0.328853
704.857913	0.328813
705.058648	0.328695
705.259365	0.328441
705.460063	0.328293
705.660743	0.328382
705.861405	0.328558
706.062048	0.328280
706.262674	0.328538
706.463281	0.328801
706.663870	0.328674
706.864441	0.328717
707.064993	0.328678
707.265527	0.328934
707.466043	0.328814
707.666541	0.328784
707.867021	0.328612
708.067482	0.328480
708.267925	0.328195
708.468350	0.328260
708.668757	0.328172
708.869145	0.328175
709.069516	0.328216
709.269868	0.328333
709.470201	0.328346
709.670517	0.328496
709.870814	0.328625
710.071093	0.328897
710.271354	0.328972
710.471597	0.329254
710.671821	0.329445
710.872028	0.329311
711.072216	0.329461
711.272385	0.329637
711.472537	0.329756
711.672670	0.329876
711.872785	0.329880
712.072882	0.329860
712.272961	0.329477
712.473021	0.329495
712.673063	0.329672
712.873087	0.329519
713.073093	0.329118
713.273081	0.329284
713.473050	0.329063
713.673001	0.329103
713.872934	0.329006
714.072849	0.329394
714.272745	0.329502
714.472623	0.329507
714.672483	0.329446
714.872325	0.329645
715.072148	0.329658
715.271954	0.329958
715.471741	0.329902
715.671509	0.329944
715.871260	0.329683
716.070992	0.329670
716.270707	0.329794
716.470403	0.329890
716.670080	0.330062
716.869740	0.329942
717.069381	0.329847
717.269004	0.329810
717.468609	0.329892
717.668195	0.329704
717.867764	0.329431
718.067314	0.328972
718.266846	0.328789
718.466360	0.328369
718.665855	0.328330
718.865332	0.328031
719.064791	0.327899
719.264232	0.327576
719.463655	0.327825
719.663059	0.327649
719.862445	0.327576
720.061813	0.327521
720.261163	0.327504
720.460494	0.327229
720.659807	0.327123
720.859102	0.326822
721.058379	0.326754
721.257638	0.326234
721.456878	0.326061
721.656100	0.325890
721.855304	0.325803
722.054490	0.325677
722.253657	0.325435
722.452806	0.325313
722.651937	0.325419
722.851050	0.325267
723.050145	0.325337
723.249221	0.325101
723.448279	0.325228
723.647319	0.324918
723.846340	0.324828
724.045344	0.324785
724.244329	0.324472
724.443296	0.324157
724.642245	0.324083
724.841175	0.323984
725.040088	0.323992
725.238982	0.323592
725.437857	0.323604
725.636715	0.323664
725.835554	0.323370
726.034376	0.323381
726.233179	0.323098
726.431963	0.323065
726.630730	0.322975
726.829478	0.322753
727.028208	0.322729
727.226920	0.322539
727.425614	0.322188
727.624289	0.321794
727.822946	0.321659
728.021585	0.321723
728.220206	0.321623
728.418808	0.321372
728.617392	0.321328
728.815958	0.321374
729.014506	0.321218
729.213036	0.321105
729.411547	0.321405
729.610040	0.321462
729.808515	0.321406
730.006972	0.321080
730.205410	0.320881
730.403831	0.321047
730.602233	0.320993
730.800616	0.320738
730.998982	0.320681
731.197329	0.320427
731.395658	0.320167
731.593969	0.320015
731.792262	0.320027
731.990536	0.320054
732.188793	0.319915
732.387031	0.319582
732.585250	0.319635
732.783452	0.319656
732.981635	0.319756
733.179800	0.319588
733.377947	0.319521
733.576076	0.319332
733.774186	0.319202
733.972278	0.318740
734.170352	0.318466
734.368408	0.318304
734.566446	0.317924
734.764465	0.317867
734.962466	0.317688
735.160449	0.317333
735.358413	0.317123
735.556360	0.316540
735.754288	0.316481
735.952198	0.316539
736.150090	0.316476
736.347963	0.316305
736.545818	0.316022
736.743655	0.315931
736.941474	0.315931
737.139275	0.315691
737.337057	0.316064
737.534821	0.315804
737.732567	0.315469
737.930295	0.315225
738.128005	0.315082
738.325696	0.315004
738.523369	0.314764
738.721024	0.314648
738.918660	0.314698
739.116279	0.314380
739.313879	0.314239
739.511461	0.314182
739.709024	0.314031
739.906570	0.313686
740.104097	0.313450
740.301606	0.313370
740.499097	0.313288
740.696569	0.313246
740.894024	0.313239
741.091460	0.313175
741.288878	0.313002
741.486277	0.312826
741.683659	0.312948
741.881022	0.312760
742.078367	0.312680
742.275694	0.312357
742.473002	0.312069
742.670293	0.311850
742.867565	0.311557
743.064819	0.311411
743.262054	0.311410
743.459272	0.311268
743.656471	0.310989
743.853652	0.310785
744.050815	0.310629
744.247959	0.310194
744.445085	0.309910
744.642194	0.310066
744.839283	0.309993
745.036355	0.309819
745.233408	0.309611
745.430444	0.309693
745.627461	0.309392
745.824459	0.309202
746.021440	0.309027
746.218402	0.309097
746.415346	0.309039
746.612272	0.308699
746.809180	0.308268
747.006069	0.307798
747.202940	0.307358
747.399793	0.307245
747.596628	0.306985
747.793444	0.306788
747.990243	0.306516
748.187023	0.306171
748.383784	0.305828
748.580528	0.305728
748.777253	0.305722
748.973960	0.305536
749.170649	0.305294
749.367320	0.305222
749.563973	0.305220
749.760607	0.304729
749.957223	0.304070
750.153821	0.303967
750.350400	0.303874
750.546962	0.303578
750.743505	0.303346
750.940030	0.303147
751.136536	0.302896
751.333025	0.302588
751.529495	0.302845
751.725947	0.302807
751.922381	0.302575
752.118796	0.302471
752.315194	0.302412
752.511573	0.302356
752.707934	0.302132
752.904276	0.302189
753.100601	0.302119
753.296907	0.301802
753.493195	0.301868
753.689465	0.301619
753.885716	0.301276
754.081949	0.301093
754.278164	0.300586
754.474361	0.300421
754.670540	0.300282
754.866700	0.300262
755.062843	0.300129
755.258967	0.299865
755.455072	0.299800
755.651160	0.299578
755.847229	0.299296
756.043280	0.299368
756.239313	0.299184
756.435328	0.298911
756.631324	0.298658
756.827302	0.298225
757.023262	0.298080
757.219204	0.297914
757.415127	0.297697
757.611033	0.297672
757.806920	0.297625
758.002788	0.297551
758.198639	0.297193
758.394471	0.296928
758.590286	0.296891
758.786081	0.296595
758.981859	0.296367
759.177619	0.296098
759.373360	0.295660
759.569083	0.295384
759.764788	0.295255
759.960474	0.295053
760.156143	0.294844
760.351793	0.294660
760.547425	0.294477
760.743038	0.294209
760.938634	0.294002
761.134211	0.293985
761.329770	0.293783
761.525311	0.293491
761.720833	0.293091
761.916338	0.292926
762.111824	0.292852
762.307292	0.293058
762.502741	0.293247
762.698173	0.293302
762.893586	0.293204
763.088981	0.293035
763.284358	0.292944
763.479716	0.292951
763.675057	0.292971
763.870379	0.292580
764.065683	0.292044
764.260968	0.291806
764.456236	0.291579
764.651485	0.291456
764.846716	0.291344
765.041929	0.291371
765.237123	0.291388
765.432299	0.291002
765.627457	0.290972
765.822597	0.290920
766.017719	0.290500
766.212822	0.290191
766.407907	0.290091
766.602974	0.290037
766.798023	0.289790
766.993054	0.289564
767.188066	0.289485
767.383060	0.289309
767.578036	0.289169
767.772993	0.289127
767.967933	0.289050
768.162854	0.289023
768.357757	0.288895
768.552642	0.288806
768.747508	0.288595
768.942356	0.288491
769.137186	0.288281
769.331998	0.288308
769.526792	0.288497
769.721567	0.288516
769.916324	0.288540
770.111063	0.288532
770.305784	0.288440
770.500486	0.288539
770.695171	0.288626
770.889837	0.288858
771.084484	0.288700
771.279114	0.288394
771.473725	0.288459
771.668318	0.288052
771.862893	0.287750
772.057450	0.287418
772.251988	0.287269
772.446509	0.287340
772.641011	0.287074
772.835494	0.286948
773.029960	0.286697
773.224407	0.286614
773.418836	0.286785
773.613247	0.286779
773.807640	0.286793
774.002014	0.286719
774.196370	0.286445
774.390708	0.286537
774.585028	0.286618
774.779330	0.286960
774.973613	0.286656
775.167878	0.286575
775.362125	0.286555
775.556354	0.286611
775.750564	0.286821
775.944756	0.286632
776.138930	0.286364
776.333086	0.286315
776.527223	0.286372
776.721343	0.286329
776.915444	0.286103
777.109526	0.285695
777.303591	0.285597
777.497637	0.285280
777.691666	0.285391
777.885676	0.285451
778.079667	0.285335
778.273641	0.284873
778.467596	0.285015
778.661533	0.285098
778.855452	0.285677
779.049352	0.285758
779.243235	0.286057
779.437099	0.285958
779.630945	0.286232
779.824773	0.286302
780.018582	0.286531
780.212373	0.286674
780.406146	0.286789
780.599901	0.286818
780.793638	0.286803
780.987356	0.286586
781.181056	0.286785
781.374738	0.286700
781.568402	0.286738
781.762047	0.287038
781.955674	0.287006
782.149283	0.287131
782.342874	0.287098
782.536447	0.287084
782.730001	0.287255
782.923537	0.286999
783.117055	0.286795
783.310555	0.286645
783.504036	0.286418
783.697499	0.286439
783.890944	0.286259
784.084371	0.286056
784.277780	0.286129
784.471170	0.285972
784.664542	0.286091
784.857896	0.286181
785.051231	0.286580
785.244549	0.286523
785.437848	0.286683
785.631129	0.286633
785.824392	0.286696
786.017636	0.286632
786.210863	0.286674
786.404071	0.286911
786.597260	0.286847
786.790432	0.286386
786.983585	0.286434
787.176721	0.286078
787.369838	0.286342
787.562936	0.286495
787.756017	0.286747
787.949079	0.286925
788.142123	0.286725
788.335149	0.286847
788.528156	0.287179
788.721146	0.287256
788.914117	0.287619
789.107070	0.287620
789.300005	0.287834
789.492921	0.287784
789.685819	0.287948
789.878699	0.288423
790.071561	0.288644
790.264405	0.288818
790.457230	0.289326
790.650037	0.289463
790.842826	0.289775
791.035597	0.289789
791.228349	0.290185
791.421084	0.290303
791.613800	0.290155
791.806497	0.290090
791.999177	0.290013
792.191838	0.289774
792.384481	0.289829
792.577106	0.289741
792.769713	0.290057
792.962301	0.290431
793.154871	0.290570
793.347423	0.290708
793.539957	0.291085
793.732473	0.291643
793.924970	0.292170
794.117449	0.292406
794.309910	0.292555
794.502353	0.292667
794.694777	0.292508
794.887183	0.292680
795.079571	0.293201
795.271941	0.293429
795.464293	0.293691
795.656626	0.293607
795.848941	0.293902
796.041238	0.294387
796.233516	0.294689
796.425777	0.294805
796.618019	0.295081
796.810243	0.295235
797.002449	0.295728
797.194636	0.295801
797.386805	0.295991
797.578956	0.296350
797.771089	0.296234
797.963204	0.296232
798.155300	0.296268
798.347378	0.296608
798.539438	0.296754
798.731480	0.296547
798.923503	0.296581
799.115509	0.296845
799.307496	0.297011
799.499465	0.297158
799.691415	0.297208
799.883348	0.297452
800.075262	0.297188
800.267158	0.296845
800.459035	0.297092
800.650895	0.297270
800.842736	0.296952
801.034559	0.296678
801.226364	0.297067
801.418150	0.297447
801.609919	0.297745
801.801669	0.298107
801.993401	0.298670
802.185114	0.298642
802.376810	0.298891
802.568487	0.299653
802.760146	0.300004
802.951787	0.299843
803.143409	0.300116
803.335014	0.300453
803.526600	0.300526
803.718168	0.300688
803.909717	0.301073
804.101249	0.301248
804.292762	0.301554
804.484257	0.301841
804.675734	0.302660
804.867192	0.302900
805.058632	0.303200
805.250054	0.303343
805.441458	0.303625
805.632844	0.304088
805.824211	0.304585
806.015561	0.304612
806.206891	0.304932
806.398204	0.304863
806.589499	0.305141
806.780775	0.305171
806.972033	0.305829
807.163273	0.306171
807.354495	0.306217
807.545698	0.306192
807.736883	0.306593
807.928050	0.306714
808.119199	0.307036
808.310329	0.307213
808.501441	0.307457
808.692535	0.307314
808.883611	0.307563
809.074669	0.307871
809.265708	0.308062
809.456729	0.308303
809.647732	0.308826
809.838717	0.309240
810.029683	0.309301
810.220632	0.309848
810.411562	0.310510
810.602474	0.310763
810.793367	0.310709
810.984242	0.311191
811.175100	0.311418
811.365938	0.311857
811.556759	0.312241
811.747562	0.312701
811.938346	0.313000
812.129112	0.313128
812.319860	0.313298
812.510589	0.313877
812.701300	0.314228
812.891994	0.314375
813.082668	0.314703
813.273325	0.314703
813.463964	0.315086
813.654584	0.315373
813.845186	0.315894
814.035769	0.316413
814.226335	0.316694
814.416882	0.316736
814.607411	0.317195
814.797922	0.316974
814.988415	0.317279
815.178889	0.317502
815.369345	0.317733
815.559783	0.317621
815.750203	0.317866
815.940605	0.318155
816.130988	0.318558
816.321353	0.318943
816.511700	0.319219
816.702028	0.319670
816.892339	0.319919
817.082631	0.320056
817.272905	0.320608
817.463161	0.321185
817.653398	0.321862
817.843617	0.322332
818.033819	0.322716
818.224001	0.323191
818.414166	0.323450
818.604312	0.323665
818.794440	0.324183
818.984550	0.324642
819.174642	0.324627
819.364716	0.324822
819.554771	0.324937
819.744808	0.325154
819.934827	0.325746
820.124827	0.325928
820.314810	0.326301
820.504774	0.326674
820.694720	0.327175
820.884647	0.327816
821.074557	0.328105
821.264448	0.328845
821.454321	0.329595
821.644176	0.329886
821.834012	0.330555
822.023831	0.331282
822.213631	0.331977
822.403413	0.332502
822.593176	0.332695
822.782922	0.333235
822.972649	0.333442
823.162358	0.333705
823.352049	0.334132
823.541721	0.334569
823.731376	0.335150
823.921012	0.335234
824.110629	0.335391
824.300229	0.336126
824.489811	0.336794
824.679374	0.336822
824.868919	0.337133
825.058445	0.337686
825.247954	0.338187
825.437444	0.338603
825.626916	0.338970
825.816370	0.339495
826.005806	0.339699
826.195223	0.340035
826.384622	0.340837
826.574003	0.340912
826.763366	0.340994
826.952711	0.341165
827.142037	0.341193
827.331345	0.341374
827.520635	0.341537
827.709906	0.342066
827.899160	0.342172
828.088395	0.342799
828.277612	0.343493
828.466810	0.344113
828.655991	0.344358
828.845153	0.344605
829.034297	0.345089
829.223423	0.345219
829.412531	0.345094
829.601620	0.345285
829.790691	0.345436
829.979744	0.345849
830.168779	0.345928
830.357795	0.346270
830.546793	0.346947
830.735773	0.347383
830.924735	0.348177
831.113679	0.348713
831.302604	0.349520
831.491511	0.349901
831.680400	0.349950
831.869271	0.350283
832.058123	0.350528
832.246957	0.350810
832.435773	0.351103
832.624571	0.351253
832.813351	0.351942
833.002112	0.352334
833.190855	0.353044
833.379580	0.353723
833.568287	0.354258
833.756975	0.355127
833.945645	0.355347
834.134297	0.356082
834.322931	0.356651
834.511547	0.356931
834.700144	0.357168
834.888723	0.356828
835.077284	0.357157
835.265826	0.357786
835.454351	0.358324
835.642857	0.359367
835.831345	0.359642
836.019815	0.360467
836.208266	0.360886
836.396699	0.361456
836.585114	0.362680
836.773511	0.363219
836.961890	0.363933
837.150250	0.364359
837.338592	0.364538
837.526916	0.365311
837.715222	0.365919
837.903510	0.366695
838.091779	0.367401
838.280030	0.367783
838.468263	0.368414
838.656477	0.369137
838.844674	0.370023
839.032852	0.370653
839.221012	0.371374
839.409153	0.371528
839.597277	0.372123
839.785382	0.372618
839.973469	0.373357
840.161538	0.374004
840.349589	0.374111
840.537621	0.374056
840.725635	0.374748
840.913631	0.374896
841.101609	0.375494
841.289568	0.375977
841.477509	0.376277
841.665432	0.376967
841.853337	0.377568
842.041224	0.378436
842.229092	0.379045
842.416942	0.379486
842.604774	0.380349
842.792588	0.380685
842.980383	0.381596
843.168160	0.382030
843.355919	0.382179
843.543660	0.382554
843.731382	0.382902
843.919087	0.383593
844.106773	0.384011
844.294441	0.384461
844.482090	0.385251
844.669722	0.385230
844.857335	0.385642
845.044930	0.385974
845.232507	0.386376
845.420065	0.386850
845.607605	0.387267
845.795127	0.387599
845.982631	0.387713
846.170117	0.387942
846.357584	0.388240
846.545033	0.389123
846.732464	0.389997
846.919877	0.390602
847.107272	0.391324
847.294648	0.392139
847.482006	0.392870
847.669346	0.393721
847.856667	0.394574
848.043971	0.395184
848.231256	0.395435
848.418523	0.395693
848.605771	0.396048
848.793002	0.396087
848.980214	0.396526
849.167408	0.397066
849.354584	0.396891
849.541742	0.397311
849.728881	0.398174
849.916002	0.398641
850.103105	0.398882
850.290190	0.399335
850.477256	0.399934
850.664304	0.399805
850.851334	0.399683
851.038346	0.400399
851.225340	0.400514
851.412315	0.400603
851.599272	0.401090
851.786211	0.401835
851.973132	0.402192
852.160034	0.402821
852.346918	0.403468
852.533784	0.403996
852.720632	0.404494
852.907462	0.404840
853.094273	0.405288
853.281066	0.405380
853.467841	0.405550
853.654598	0.405839
853.841336	0.406306
854.028056	0.406761
854.214758	0.407400
854.401442	0.408092
854.588107	0.409029
854.774755	0.409275
854.961384	0.410183
855.147995	0.410507
855.334587	0.411609
855.521162	0.411991
855.707718	0.412471
855.894256	0.412887
856.080775	0.413150
856.267277	0.413755
856.453760	0.414592
856.640225	0.414939
856.826672	0.415824
857.013101	0.415839
857.199511	0.416119
857.385903	0.416861
857.572277	0.417479
857.758633	0.418230
857.944970	0.418426
858.131290	0.419015
858.317591	0.419580
858.503873	0.419901
858.690138	0.420689
858.876384	0.421139
859.062612	0.421723
859.248822	0.422164
859.435014	0.422492
859.621188	0.422610
859.807343	0.423162
859.993480	0.423872
860.179599	0.424682
860.365699	0.424882
860.551781	0.425220
860.737846	0.425037
860.923891	0.425583
861.109919	0.425806
861.295929	0.426714
861.481920	0.427296
861.667893	0.427551
861.853848	0.427971
862.039784	0.429021
862.225702	0.429749
862.411603	0.430415
862.597484	0.430748
862.783348	0.431279
862.969193	0.431316
863.155021	0.431267
863.340830	0.431714
863.526620	0.431679
863.712393	0.431587
863.898147	0.431895
864.083883	0.432094
864.269601	0.432809
864.455301	0.433023
864.640982	0.433505
864.826645	0.434155
865.012290	0.433991
865.197917	0.434715
865.383526	0.435158
865.569116	0.435399
865.754688	0.436387
865.940242	0.436525
866.125777	0.437179
866.311295	0.437341
866.496794	0.437820
866.682275	0.438493
866.867737	0.438317
867.053182	0.438355
867.238608	0.438800
867.424016	0.438830
867.609406	0.438820
867.794778	0.438727
867.980131	0.439284
868.165466	0.438973
868.350783	0.439482
868.536082	0.439825
868.721362	0.440764
868.906625	0.441438
869.091869	0.442105
869.277094	0.442707
869.462302	0.443512
869.647491	0.443861
869.832662	0.444535
870.017815	0.444198
870.202950	0.445146
870.388066	0.445078
870.573165	0.445202
870.758245	0.444858
870.943306	0.445046
871.128350	0.445392
871.313375	0.445791
871.498382	0.446067
871.683371	0.447292
871.868342	0.447543
872.053294	0.448239
872.238229	0.448577
872.423144	0.449372
872.608042	0.449741
872.792922	0.449697
872.977783	0.450087
873.162626	0.450472
873.347451	0.450066
873.532258	0.449981
873.717046	0.450312
873.901816	0.451097
874.086568	0.450708
874.271302	0.450662
874.456017	0.450711
874.640715	0.450600
874.825394	0.450729
875.010055	0.451576
875.194697	0.452600
875.379322	0.452823
875.563928	0.452765
875.748516	0.453471
875.933085	0.454813
876.117637	0.455751
876.302170	0.456066
876.486685	0.456393
876.671182	0.456646
876.855661	0.456443
877.040121	0.456549
877.224563	0.456177
877.408987	0.456515
877.593393	0.456194
877.777780	0.456428
877.962150	0.456942
878.146501	0.457342
878.330833	0.456758
878.515148	0.457011
878.699444	0.457131
878.883722	0.457724
879.067982	0.457837
879.252224	0.458074
879.436447	0.458384
879.620653	0.458146
879.804840	0.458042
879.989008	0.458992
880.173159	0.458788
880.357291	0.459013
880.541405	0.459326
880.725501	0.459551
880.909579	0.459607
881.093638	0.459340
881.277680	0.459821
881.461703	0.460197
881.645707	0.460576
881.829694	0.460668
882.013662	0.460900
882.197612	0.460581
882.381544	0.460208
882.565458	0.460194
882.749353	0.460559
882.933230	0.460636
883.117089	0.460701
883.300930	0.459992
883.484753	0.460146
883.668557	0.459978
883.852343	0.460193
884.036111	0.460708
884.219861	0.460852
884.403592	0.460828
884.587305	0.460996
884.771000	0.460701
884.954677	0.461417
885.138335	0.461547
885.321976	0.461748
885.505598	0.462428
885.689201	0.462763
885.872787	0.462585
886.056354	0.462702
886.239904	0.462362
886.423434	0.462694
886.606947	0.462737
886.790442	0.462952
886.973918	0.463182
887.157376	0.462690
887.340816	0.462413
887.524237	0.462568
887.707641	0.462717
887.891026	0.463042
888.074393	0.463261
888.257741	0.462870
888.441072	0.462762
888.624384	0.462473
888.807678	0.462687
888.990954	0.462718
889.174211	0.463109
889.357451	0.462788
889.540672	0.463118
889.723875	0.463000
889.907059	0.463205
890.090226	0.463552
890.273374	0.463350
890.456504	0.463404
890.639616	0.463659
890.822709	0.463083
891.005785	0.463349
891.188842	0.462976
891.371881	0.462422
891.554901	0.462145
891.737904	0.461365
891.920888	0.461492
892.103854	0.461056
892.286802	0.460957
892.469731	0.461529
892.652643	0.461442
892.835536	0.461654
893.018410	0.461494
893.201267	0.461689
893.384106	0.462137
893.566926	0.461786
893.749728	0.461445
893.932511	0.460979
894.115277	0.460499
894.298024	0.459899
894.480753	0.459615
894.663464	0.459582
894.846157	0.459122
895.028831	0.458816
895.211487	0.458940
895.394125	0.459150
895.576745	0.458848
895.759346	0.458841
895.941930	0.459078
896.124495	0.458835
896.307041	0.458848
896.489570	0.458955
896.672080	0.459610
896.854573	0.458919
897.037046	0.458469
897.219502	0.458142
897.401940	0.457643
897.584359	0.457789
897.766760	0.457040
897.949143	0.457037
898.131507	0.456842
898.313854	0.455248
898.496182	0.454928
898.678492	0.454450
898.860783	0.455138
899.043057	0.455146
899.225312	0.454288
899.407549	0.454440
899.589768	0.453928
899.771968	0.453700
899.954151	0.453670
900.136315	0.453650
900.318461	0.454152
900.500588	0.453203
900.682698	0.452373
900.864789	0.452134
901.046862	0.451825
901.228917	0.451174
901.410953	0.450848
901.592971	0.450446
901.774972	0.450328
901.956953	0.449477
902.138917	0.449131
902.320862	0.449300
902.502790	0.449510
902.684699	0.449253
902.866589	0.448805
903.048462	0.448014
903.230316	0.448041
903.412152	0.447798
903.593970	0.447702
903.775770	0.447852
903.957551	0.447187
904.139314	0.446811
904.321059	0.446436
904.502786	0.446518
904.684494	0.446515
904.866185	0.446193
905.047857	0.445484
905.229510	0.444617
905.411146	0.443553
905.592763	0.443213
905.774363	0.441958
905.955943	0.441094
906.137506	0.440257
906.319051	0.439588
906.500577	0.439307
906.682085	0.439297
906.863575	0.439914
907.045046	0.439758
907.226500	0.439357
907.407935	0.438967
907.589352	0.439008
907.770750	0.439207
907.952131	0.439062
908.133493	0.438219
908.314837	0.437819
908.496163	0.436548
908.677470	0.435811
908.858760	0.435002
909.040031	0.435247
909.221284	0.435062
909.402518	0.434551
909.583735	0.433830
909.764933	0.433982
909.946113	0.433343
910.127275	0.432623
910.308418	0.432166
910.489544	0.432032
910.670651	0.431485
910.851740	0.431159
911.032810	0.430999
911.213863	0.430723
911.394897	0.429769
911.575913	0.429430
911.756911	0.429428
911.937890	0.429100
912.118851	0.428319
912.299794	0.427415
912.480719	0.425938
912.661626	0.424947
912.842514	0.423857
913.023384	0.423209
913.204236	0.422202
913.385070	0.420830
913.565886	0.420922
913.746683	0.420670
913.927462	0.419956
914.108223	0.419791
914.288965	0.418863
914.469690	0.418841
914.650396	0.417974
914.831084	0.417258
915.011754	0.416539
915.192405	0.415032
915.373038	0.414056
915.553653	0.412919
915.734250	0.412633
915.914829	0.412638
916.095389	0.410928
916.275931	0.410493
916.456455	0.410033
916.636961	0.409438
916.817448	0.408653
916.997917	0.407852
917.178368	0.407800
917.358801	0.406354
917.539216	0.404636
917.719612	0.404776
917.899990	0.403505
918.080350	0.402103
918.260692	0.401788
918.441015	0.401267
918.621320	0.400254
918.801607	0.399394
918.981876	0.398923
919.162127	0.398878
919.342359	0.398590
919.522573	0.398022
919.702769	0.398186
919.882947	0.397853
920.063106	0.397436
920.243247	0.396856
920.423370	0.396036
920.603475	0.395403
920.783562	0.394900
920.963630	0.393356
921.143680	0.392814
921.323712	0.391851
921.503725	0.391027
921.683721	0.389526
921.863698	0.388615
922.043657	0.387969
922.223598	0.386992
922.403520	0.385936
922.583424	0.385148
922.763311	0.384072
922.943178	0.383063
923.123028	0.381556
923.302859	0.380791
923.482673	0.380668
923.662467	0.378874
923.842244	0.378055
924.022003	0.377406
924.201743	0.376397
924.381465	0.376281
924.561169	0.374961
924.740854	0.373667
924.920522	0.373192
925.100171	0.372251
925.279802	0.372236
925.459414	0.371317
925.639009	0.370780
925.818585	0.370009
925.998143	0.368672
926.177683	0.368177
926.357205	0.367366
926.536708	0.366587
926.716193	0.365529
926.895660	0.364690
927.075109	0.363035
927.254539	0.360918
927.433951	0.359463
927.613345	0.358106
927.792721	0.356136
927.972079	0.355434
928.151418	0.354188
928.330739	0.352534
928.510042	0.350456
928.689327	0.349289
928.868593	0.348900
929.047841	0.348299
929.227071	0.346948
929.406283	0.347163
929.585476	0.346609
929.764652	0.345070
929.943809	0.344650
930.122948	0.344423
930.302068	0.344071
930.481171	0.342002
930.660255	0.341564
930.839321	0.341511
931.018369	0.340231
931.197398	0.339069
931.376409	0.338796
931.555402	0.338058
931.734377	0.336904
931.913334	0.335219
932.092272	0.334326
932.271192	0.332156
932.450094	0.330552
932.628978	0.328803
932.807844	0.327872
932.986691	0.325622
933.165520	0.323552
933.344331	0.323035
933.523123	0.322524
933.701898	0.322104
933.880654	0.321292
934.059392	0.319930
934.238111	0.319699
934.416813	0.318290
934.595496	0.317796
934.774161	0.316762
934.952808	0.315313
935.131437	0.314912
935.310047	0.313638
935.488639	0.312500
935.667213	0.312540
935.845769	0.311906
936.024306	0.310255
936.202825	0.310107
936.381326	0.309118
936.559809	0.308170
936.738274	0.306892
936.916720	0.305794
937.095148	0.304890
937.273558	0.303742
937.451950	0.302153
937.630323	0.301112
937.808678	0.298003
937.987015	0.296763
938.165334	0.294785
938.343635	0.293119
938.521917	0.291679
938.700181	0.290708
938.878427	0.289942
939.056655	0.288737
939.234864	0.289406
939.413055	0.289411
939.591228	0.288243
939.769383	0.288302
939.947519	0.286240
940.125638	0.284220
940.303738	0.283261
940.481820	0.280165
940.659883	0.278079
940.837929	0.274485
941.015956	0.272332
941.193965	0.272032
941.371955	0.268928
941.549928	0.267639
941.727882	0.267582
941.905818	0.265388
942.083736	0.264087
942.261636	0.262032
942.439517	0.261222
942.617380	0.261578
942.795225	0.259101
942.973052	0.259580
943.150860	0.260092
943.328651	0.259241
943.506423	0.259017
943.684176	0.258735
943.861912	0.259510
944.039629	0.258059
944.217328	0.258146
944.395009	0.257457
944.572672	0.254785
944.750317	0.253153
944.927943	0.251018
945.105551	0.249324
945.283141	0.246894
945.460712	0.244499
945.638265	0.242886
945.815801	0.238580
945.993317	0.237381
946.170816	0.238115
946.348297	0.236632
946.525759	0.234996
946.703203	0.232048
946.880629	0.232150
947.058036	0.230073
947.235425	0.229293
947.412797	0.228056
947.590149	0.228474
947.767484	0.225347
947.944800	0.223019
948.122099	0.224221
948.299379	0.224300
948.476640	0.223717
948.653884	0.222944
948.831109	0.221922
949.008316	0.221353
949.185505	0.218569
949.362676	0.218301
949.539828	0.217817
949.716962	0.214406
949.894078	0.213975
950.071176	0.210721
950.248256	0.209663
950.425317	0.209964
950.602360	0.210213
950.779385	0.208629
950.956391	0.206409
951.133380	0.205417
951.310350	0.204810
951.487302	0.202345
951.664235	0.201187
951.841151	0.200394
952.018048	0.197648
952.194927	0.193262
952.371788	0.193024
952.548631	0.192976
952.725455	0.191555
952.902261	0.189904
953.079049	0.189328
953.255819	0.188042
953.432570	0.187403
953.609303	0.187696
953.786018	0.187120
953.962715	0.185697
954.139394	0.184750
954.316054	0.184120
954.492696	0.182948
954.669320	0.182616
954.845926	0.182030
955.022513	0.180083
955.199083	0.178264
955.375634	0.181739
955.552166	0.181182
955.728681	0.179355
955.905177	0.177230
956.081655	0.178651
956.258115	0.179991
956.434557	0.179371
956.610980	0.180164
956.787385	0.179905
956.963772	0.176844
957.140141	0.175932
957.316492	0.176371
957.492824	0.180257
957.669138	0.177527
957.845434	0.176057
958.021712	0.175844
958.197971	0.176657
958.374212	0.178478
958.550435	0.178350
958.726640	0.179271
958.902826	0.177472
959.078995	0.172851
959.255145	0.171902
959.431277	0.168776
959.607390	0.167056
959.783486	0.166226
959.959563	0.160937
960.135622	0.160511
960.311662	0.157262
960.487685	0.158949
960.663689	0.157330
960.839675	0.157121
961.015643	0.158449
961.191593	0.159977
961.367524	0.158796
961.543437	0.161321
961.719332	0.158130
961.895209	0.159472
962.071067	0.159322
962.246907	0.161397
962.422730	0.161752
962.598533	0.161155
962.774319	0.161898
962.950086	0.162550
963.125835	0.161861
963.301566	0.165182
963.477279	0.161417
963.652973	0.159350
963.828650	0.154944
964.004308	0.152896
964.179947	0.153485
964.355569	0.150041
964.531172	0.147284
964.706757	0.145016
964.882324	0.144017
965.057873	0.144109
965.233403	0.143851
965.408916	0.146023
965.584410	0.149079
965.759885	0.147358
965.935343	0.148333
966.110782	0.147263
966.286203	0.146766
966.461606	0.146512
966.636991	0.149882
966.812357	0.150029
966.987705	0.151491
967.163035	0.150226
967.338347	0.151982
967.513641	0.150230
967.688916	0.151777
967.864173	0.153366
968.039412	0.150828
968.214632	0.152583
968.389835	0.149243
968.565019	0.148174
968.740185	0.148151
968.915333	0.146696
969.090462	0.150757
969.265573	0.150410
969.440667	0.149202
969.615741	0.151910
969.790798	0.149603
969.965836	0.152985
970.140856	0.153093
970.315858	0.152494
970.490842	0.151307
970.665808	0.149980
970.840755	0.150884
971.015684	0.150303
971.190595	0.147191
971.365487	0.145795
971.540362	0.144581
971.715218	0.145461
971.890056	0.146492
972.064875	0.146143
972.239677	0.145278
972.414460	0.143169
972.589225	0.145008
972.763972	0.146876
972.938700	0.147912
973.113411	0.147931
973.288103	0.144845
973.462777	0.143131
973.637432	0.143228
973.812070	0.141962
973.986689	0.141964
974.161290	0.140051
974.335873	0.141213
974.510437	0.140542
974.684984	0.140788
974.859512	0.143325
975.034022	0.143729
975.208513	0.145816
975.382987	0.145840
975.557442	0.147825
975.731879	0.150322
975.906298	0.150107
976.080698	0.151714
976.255080	0.153542
976.429445	0.153535
976.603790	0.155560
976.778118	0.154520
976.952427	0.152263
977.126719	0.148316
977.300992	0.145454
977.475246	0.144802
977.649483	0.145126
977.823701	0.144652
977.997901	0.145755
978.172083	0.143415
978.346247	0.145316
978.520392	0.148541
978.694519	0.151449
978.868628	0.151829
979.042719	0.151482
979.216791	0.151327
979.390845	0.149501
979.564882	0.148763
979.738899	0.150031
979.912899	0.147535
980.086880	0.145563
980.260843	0.144776
980.434788	0.145851
980.608715	0.146284
980.782623	0.146142
980.956514	0.145022
981.130386	0.144362
981.304240	0.141912
981.478075	0.140322
981.651892	0.142503
981.825692	0.143007
981.999472	0.144517
982.173235	0.143990
982.346980	0.142560
982.520706	0.144174
982.694414	0.144507
982.868104	0.143977
983.041775	0.148278
983.215428	0.150144
983.389064	0.150840
983.562680	0.148244
983.736279	0.148046
983.909860	0.149372
984.083422	0.148912
984.256966	0.148166
984.430491	0.150404
984.603999	0.148126
984.777488	0.145666
984.950959	0.144424
985.124412	0.145711
985.297847	0.147932
985.471263	0.146240
985.644661	0.144587
985.818041	0.145090
985.991403	0.142630
986.164747	0.142821
986.338072	0.142915
986.511379	0.142264
986.684668	0.141350
986.857938	0.137956
987.031191	0.136915
987.204425	0.138971
987.377641	0.139193
987.550839	0.141720
987.724018	0.140496
987.897179	0.139688
988.070322	0.140202
988.243447	0.141064
988.416554	0.143981
988.589642	0.146050
988.762712	0.146703
988.935764	0.146908
989.108798	0.146332
989.281813	0.145376
989.454811	0.145079
989.627790	0.146297
989.800751	0.145184
989.973693	0.144655
990.146617	0.142917
990.319524	0.143491
990.492412	0.143987
990.665281	0.143508
990.838133	0.144404
991.010966	0.145219
991.183781	0.143945
991.356578	0.144065
991.529356	0.142449
991.702117	0.142529
991.874859	0.143417
992.047583	0.140828
992.220288	0.141552
992.392976	0.141710
992.565645	0.141499
992.738296	0.140608
992.910929	0.143587
993.083543	0.144917
993.256139	0.145211
993.428718	0.144399
993.601277	0.145712
993.773819	0.144539
993.946342	0.143813
994.118848	0.144347
994.291335	0.145807
994.463803	0.142772
994.636254	0.141237
994.808686	0.142839
994.981100	0.139091
995.153496	0.138197
995.325874	0.137573
995.498233	0.140312
995.670574	0.140918
995.842897	0.142468
996.015202	0.143888
996.187488	0.146742
996.359757	0.144064
996.532007	0.146937
996.704239	0.147058
996.876452	0.149115
997.048648	0.148753
997.220825	0.147213
997.392984	0.146103
997.565124	0.144462
997.737247	0.141169
997.909351	0.143391
998.081437	0.143073
998.253505	0.143534
998.425554	0.145099
998.597586	0.144248
998.769599	0.146412
998.941594	0.144780
999.113571	0.146280
999.285529	0.148860
999.457469	0.149105
999.629391	0.149646
999.801295	0.150836
999.973181	0.150902
1000.145048	0.149254
1000.316897	0.145307
1000.488728	0.146593
1000.660541	0.147448
1000.832335	0.147062
1001.004111	0.145880
1001.175869	0.145467
1001.347609	0.145732
1001.519331	0.144367
1001.691034	0.146038
1001.862719	0.149664
1002.034386	0.147186
1002.206035	0.145404
1002.377665	0.143348
1002.549277	0.143615
1002.720871	0.143075
1002.892447	0.141183
1003.064004	0.141831
1003.235544	0.141561
1003.407065	0.139727
1003.578568	0.141407
1003.750052	0.139691
1003.921519	0.141405
1004.092967	0.138892
1004.264397	0.139287
1004.435809	0.141745
1004.607202	0.138751
1004.778577	0.139416
1004.949934	0.140398
1005.121273	0.140394
1005.292594	0.142105
1005.463896	0.142584
1005.635180	0.144165
1005.806446	0.146835
1005.977694	0.145321
1006.148923	0.147185
1006.320135	0.146485
1006.491328	0.145662
1006.662503	0.147031
1006.833659	0.145661
1007.004798	0.143850
1007.175918	0.143565
1007.347020	0.139984
1007.518103	0.137540
1007.689169	0.137810
1007.860216	0.138331
1008.031245	0.138755
1008.202256	0.137831
1008.373248	0.141173
1008.544223	0.141075
1008.715179	0.141582
1008.886117	0.140998
1009.057036	0.143803
1009.227938	0.143205
1009.398821	0.142046
1009.569686	0.141382
1009.740533	0.141625
1009.911361	0.142015
1010.082172	0.142248
1010.252964	0.143437
1010.423738	0.143212
1010.594493	0.143268
1010.765231	0.144186
1010.935950	0.145297
1011.106651	0.145420
1011.277334	0.146415
1011.447998	0.143641
1011.618645	0.144356
1011.789273	0.144277
1011.959882	0.144781
1012.130474	0.143610
1012.301048	0.142747
1012.471603	0.141488
1012.642140	0.140802
1012.812658	0.139422
1012.983159	0.141216
1013.153641	0.140830
1013.324105	0.140321
1013.494551	0.140130
1013.664979	0.140282
1013.835388	0.141412
1014.005779	0.141078
1014.176152	0.142675
1014.346507	0.143296
1014.516843	0.143107
1014.687162	0.142387
1014.857462	0.141168
1015.027744	0.141776
1015.198007	0.141475
1015.368252	0.140579
1015.538480	0.140207
1015.708689	0.140911
1015.878879	0.140212
1016.049052	0.139060
1016.219206	0.139887
1016.389342	0.141353
1016.559460	0.141971
1016.729559	0.141885
1016.899641	0.141844
1017.069704	0.143524
1017.239749	0.142939
1017.409775	0.140719
1017.579784	0.140558
1017.749774	0.141921
1017.919746	0.139312
1018.089700	0.139601
1018.259635	0.139379
1018.429553	0.137213
1018.599452	0.136337
1018.769333	0.135760
1018.939195	0.139137
1019.109040	0.139738
1019.278866	0.137106
1019.448674	0.138903
1019.618464	0.138861
1019.788235	0.139740
1019.957989	0.139985
1020.127724	0.140828
1020.297441	0.142817
1020.467139	0.142380
1020.636820	0.141503
1020.806482	0.141235
1020.976126	0.140867
1021.145752	0.140935
1021.315359	0.140509
1021.484948	0.142471
1021.654519	0.139311
1021.824072	0.134282
1021.993607	0.133231
1022.163123	0.133470
1022.332621	0.134499
1022.502101	0.134309
1022.671563	0.134856
1022.841007	0.134869
1023.010432	0.134909
1023.179839	0.136381
1023.349228	0.137899
1023.518598	0.139286
1023.687951	0.140132
1023.857285	0.140311
1024.026601	0.143170
1024.195899	0.140608
1024.365178	0.140814
1024.534439	0.139212
1024.703682	0.140087
1024.872907	0.138734
1025.042114	0.137585
1025.211302	0.136780
1025.380472	0.136105
1025.549624	0.134764
1025.718758	0.135745
1025.887873	0.137606
1026.056970	0.139896
1026.226049	0.138825
1026.395110	0.143264
1026.564153	0.142368
1026.733177	0.138251
1026.902183	0.138730
1027.071171	0.138557
1027.240141	0.135514
1027.409092	0.133821
1027.578026	0.130377
1027.746940	0.131636
1027.915837	0.129216
1028.084716	0.130388
1028.253576	0.133806
1028.422418	0.135575
1028.591242	0.135013
1028.760048	0.138558
1028.928835	0.138128
1029.097604	0.139342
1029.266355	0.140684
1029.435088	0.140857
1029.603803	0.141086
1029.772499	0.141100
1029.941177	0.140712
1030.109837	0.139072
1030.278478	0.139973
1030.447102	0.141093
1030.615707	0.143329
1030.784294	0.143074
1030.952863	0.142703
1031.121413	0.142352
1031.289945	0.142031
1031.458460	0.142306
1031.626955	0.142281
1031.795433	0.138037
1031.963892	0.136405
1032.132334	0.134429
1032.300756	0.132676
1032.469161	0.132872
1032.637548	0.131079
1032.805916	0.132430
1032.974266	0.130598
1033.142598	0.133154
1033.310911	0.137337
1033.479207	0.137612
1033.647484	0.137488
1033.815743	0.137718
1033.983983	0.138203
1034.152206	0.137739
1034.320410	0.136707
1034.488596	0.136732
1034.656764	0.135302
1034.824914	0.133701
1034.993045	0.134469
1035.161158	0.136062
1035.329253	0.136172
1035.497330	0.137105
1035.665388	0.138478
1035.833428	0.137652
1036.001450	0.137690
1036.169454	0.138128
1036.337440	0.138410
1036.505407	0.137851
1036.673356	0.136076
1036.841287	0.136356
1037.009200	0.134437
1037.177094	0.134334
1037.344970	0.136201
1037.512828	0.135867
1037.680668	0.135018
1037.848489	0.133829
1038.016293	0.134085
1038.184078	0.133083
1038.351845	0.132968
1038.519593	0.133934
1038.687324	0.134304
1038.855036	0.134077
1039.022730	0.132547
1039.190406	0.132200
1039.358063	0.133809
1039.525702	0.133179
1039.693323	0.133260
1039.860926	0.133053
1040.028511	0.133463
1040.196077	0.131834
1040.363625	0.129257
1040.531155	0.132495
1040.698667	0.131416
1040.866161	0.130012
1041.033636	0.129078
1041.201093	0.131879
1041.368532	0.133085
1041.535952	0.130850
1041.703355	0.132581
1041.870739	0.134631
1042.038105	0.134498
1042.205452	0.135913
1042.372782	0.136759
1042.540093	0.139155
1042.707386	0.138452
1042.874661	0.138193
1043.041918	0.139732
1043.209156	0.138586
1043.376376	0.139648
1043.543578	0.136020
1043.710762	0.137771
1043.877927	0.138294
1044.045074	0.137957
1044.212203	0.138162
1044.379314	0.136646
1044.546407	0.136305
1044.713481	0.135380
1044.880537	0.135356
1045.047575	0.138551
1045.214595	0.137637
1045.381596	0.139237
1045.548579	0.139933
1045.715544	0.137407
1045.882491	0.139577
1046.049420	0.139094
1046.216330	0.140627
1046.383222	0.138941
1046.550096	0.137937
1046.716951	0.134895
1046.883789	0.131315
1047.050608	0.130967
1047.217409	0.132241
1047.384192	0.130882
1047.550956	0.130797
1047.717703	0.130901
1047.884431	0.131784
1048.051140	0.133437
1048.217832	0.135756
1048.384505	0.137137
1048.551161	0.137120
1048.717798	0.136048
1048.884416	0.136794
1049.051017	0.136084
1049.217599	0.136824
1049.384163	0.137453
1049.550709	0.134790
1049.717237	0.135408
1049.883746	0.134822
1050.050237	0.133896
1050.216710	0.135045
1050.383165	0.134022
1050.549601	0.136300
1050.716019	0.137511
1050.882420	0.135210
1051.048801	0.136548
1051.215165	0.137486
1051.381510	0.137173
1051.547837	0.135757
1051.714146	0.134320
1051.880437	0.134652
1052.046709	0.133967
1052.212964	0.133181
1052.379200	0.135467
1052.545417	0.133794
1052.711617	0.134832
1052.877798	0.134085
1053.043961	0.134728
1053.210106	0.135235
1053.376233	0.134097
1053.542341	0.134524
1053.708432	0.133220
1053.874504	0.130295
1054.040557	0.133018
1054.206593	0.133805
1054.372610	0.137577
1054.538609	0.137329
1054.704590	0.138610
1054.870553	0.138489
1055.036497	0.139160
1055.202424	0.138008
1055.368331	0.139809
1055.534221	0.139253
1055.700093	0.136451
1055.865946	0.135310
1056.031781	0.135399
1056.197598	0.134868
1056.363397	0.135333
1056.529177	0.135102
1056.694939	0.138181
1056.860683	0.136559
1057.026409	0.135176
1057.192116	0.137482
1057.357806	0.136068
1057.523477	0.137268
1057.689130	0.138650
1057.854764	0.138588
1058.020381	0.136835
1058.185979	0.138288
1058.351559	0.140235
1058.517120	0.140290
1058.682664	0.139936
1058.848189	0.140805
1059.013696	0.140501
1059.179185	0.140433
1059.344656	0.141193
1059.510108	0.141856
1059.675542	0.139386
1059.840958	0.141268
1060.006356	0.141568
1060.171735	0.141459
1060.337096	0.141767
1060.502439	0.140660
1060.667764	0.141318
1060.833071	0.138785
1060.998359	0.140885
1061.163629	0.140861
1061.328881	0.138448
1061.494115	0.141434
1061.659330	0.138066
1061.824527	0.136770
1061.989706	0.138171
1062.154867	0.136593
1062.320010	0.140275
1062.485134	0.137595
1062.650240	0.136731
1062.815328	0.136864
1062.980398	0.132927
1063.145449	0.135164
1063.310482	0.135636
1063.475497	0.135823
1063.640494	0.134796
1063.805473	0.132747
1063.970433	0.132329
1064.135375	0.132862
1064.300299	0.133486
1064.465204	0.135591
1064.630092	0.136347
1064.794961	0.140715
1064.959812	0.139828
1065.124645	0.140405
1065.289459	0.143558
1065.454256	0.145262
1065.619034	0.143590
1065.783793	0.144328
1065.948535	0.144034
1066.113258	0.141135
1066.277964	0.138661
1066.442651	0.140145
1066.607319	0.140637
1066.771970	0.140141
1066.936602	0.141669
1067.101216	0.142893
1067.265812	0.142761
1067.430389	0.143321
1067.594949	0.144316
1067.759490	0.142477
1067.924013	0.141622
1068.088518	0.142481
1068.253004	0.141205
1068.417472	0.140348
1068.581922	0.143089
1068.746354	0.142130
1068.910768	0.143342
1069.075163	0.145416
1069.239540	0.147257
1069.403899	0.145076
1069.568240	0.147358
1069.732562	0.148008
1069.896866	0.149869
1070.061152	0.149757
1070.225420	0.151143
1070.389670	0.150171
1070.553901	0.151351
1070.718114	0.149139
1070.882309	0.152816
1071.046486	0.150267
1071.210644	0.151625
1071.374784	0.149736
1071.538906	0.150566
1071.703010	0.149161
1071.867096	0.147632
1072.031163	0.147937
1072.195212	0.149497
1072.359243	0.147695
1072.523256	0.148452
1072.687250	0.146566
1072.851226	0.145070
1073.015184	0.145228
1073.179124	0.146240
1073.343045	0.149835
1073.506949	0.146945
1073.670834	0.146649
1073.834701	0.147254
1073.998549	0.148147
1074.162380	0.149591
1074.326192	0.150206
1074.489986	0.145381
1074.653761	0.147526
1074.817519	0.143886
1074.981258	0.143382
1075.144979	0.146288
1075.308682	0.146200
1075.472367	0.145873
1075.636033	0.141440
1075.799681	0.140295
1075.963311	0.144984
1076.126923	0.143731
1076.290516	0.142618
1076.454092	0.141786
1076.617649	0.137784
1076.781187	0.137329
1076.944708	0.137093
1077.108210	0.139098
1077.271695	0.145019
1077.435160	0.146470
1077.598608	0.148068
1077.762038	0.152064
1077.925449	0.154232
1078.088842	0.156759
1078.252217	0.159573
1078.415573	0.157287
1078.578912	0.159900
1078.742232	0.152803
1078.905534	0.148863
1079.068817	0.149353
1079.232083	0.148476
1079.395330	0.148581
1079.558559	0.147582
1079.721770	0.145121
1079.884962	0.145405
1080.048136	0.146804
1080.211293	0.150139
1080.374430	0.152462
1080.537550	0.149690
1080.700651	0.151112
1080.863735	0.151214
1081.026800	0.154247
1081.189846	0.154690
1081.352875	0.158255
1081.515885	0.155471
1081.678877	0.154178
1081.841851	0.152290
1082.004807	0.150870
1082.167744	0.147146
1082.330663	0.148693
1082.493564	0.147696
1082.656447	0.149939
1082.819312	0.149007
1082.982158	0.151481
1083.144986	0.153651
1083.307796	0.155823
1083.470587	0.158415
1083.633361	0.160922
1083.796116	0.159702
1083.958853	0.158619
1084.121571	0.155115
1084.284272	0.154191
1084.446954	0.150526
1084.609618	0.149300
1084.772264	0.147343
1084.934892	0.147220
1085.097501	0.147040
1085.260092	0.146771
1085.422665	0.145533
1085.585220	0.148693
1085.747756	0.149051
1085.910274	0.151755
1086.072774	0.155533
1086.235256	0.157366
1086.397720	0.153323
1086.560165	0.152148
1086.722592	0.153047
1086.885001	0.151859
1087.047392	0.149729
1087.209764	0.150670
1087.372119	0.149537
1087.534455	0.147734
1087.696772	0.146388
1087.859072	0.149172
1088.021353	0.152231
1088.183616	0.154892
1088.345861	0.162175
1088.508088	0.163035
1088.670296	0.162750
1088.832486	0.164344
1088.994658	0.163554
1089.156812	0.161910
1089.318948	0.165449
1089.481065	0.164287
1089.643164	0.159619
1089.805245	0.157184
1089.967308	0.157174
1090.129352	0.156123
1090.291378	0.159368
1090.453386	0.160406
1090.615376	0.162721
1090.777347	0.160172
1090.939301	0.156885
1091.101236	0.158978
1091.263153	0.156925
1091.425051	0.157556
1091.586932	0.160931
1091.748794	0.161651
1091.910638	0.161827
1092.072463	0.159668
1092.234271	0.159602
1092.396060	0.163878
1092.557831	0.160933
1092.719584	0.164736
1092.881319	0.164471
1093.043035	0.161679
1093.204733	0.158158
1093.366413	0.157388
1093.528075	0.159367
1093.689718	0.161172
1093.851343	0.161201
1094.012950	0.167380
1094.174539	0.162115
1094.336110	0.163612
1094.497662	0.165512
1094.659196	0.162134
1094.820712	0.161491
1094.982210	0.159602
1095.143689	0.159691
1095.305151	0.158369
1095.466594	0.154517
1095.628018	0.154636
1095.789425	0.154520
1095.950813	0.154142
1096.112183	0.159109
1096.273535	0.160133
1096.434869	0.160983
1096.596184	0.159833
1096.757482	0.156181
1096.918761	0.159400
1097.080021	0.161223
1097.241264	0.160975
1097.402488	0.160295
1097.563694	0.160482
1097.724882	0.161867
1097.886052	0.163858
1098.047203	0.160161
1098.208336	0.166627
1098.369451	0.162198
1098.530548	0.163506
1098.691627	0.166684
1098.852687	0.166156
1099.013729	0.163790
1099.174753	0.165577
1099.335758	0.164705
1099.496746	0.167987
1099.657715	0.168259
1099.818666	0.169506
1099.979599	0.168864
1100.140513	0.159764
1100.301409	0.159860
1100.462287	0.161506
1100.623147	0.156407
1100.783989	0.158357
1100.944812	0.157622
1101.105617	0.156202
1101.266404	0.157654
1101.427173	0.154477
1101.587923	0.156319
1101.748656	0.152781
1101.909370	0.155065
1102.070066	0.157253
1102.230743	0.156543
1102.391403	0.161472
1102.552044	0.163334
1102.712667	0.165108
1102.873271	0.165947
1103.033858	0.170181
1103.194426	0.174277
1103.354976	0.168743
1103.515508	0.164846
1103.676021	0.167369
1103.836517	0.170400
1103.996994	0.166687
1104.157453	0.166078
1104.317893	0.171821
1104.478316	0.173974
1104.638720	0.173103
1104.799106	0.179811
1104.959474	0.180776
1105.119823	0.181159
1105.280155	0.175559
1105.440468	0.173301
1105.600763	0.170299
1105.761039	0.168175
1105.921298	0.164186
1106.081538	0.165865
1106.241760	0.159468
1106.401964	0.163692
1106.562149	0.158713
1106.722316	0.159388
1106.882465	0.162018
1107.042596	0.164924
1107.202709	0.162442
1107.362803	0.164886
1107.522879	0.167687
1107.682937	0.166869
1107.842977	0.167942
1108.002999	0.173334
1108.163002	0.171139
1108.322987	0.172358
1108.482954	0.166781
1108.642902	0.162858
1108.802833	0.167387
1108.962745	0.163101
1109.122639	0.169399
1109.282515	0.168910
1109.442372	0.160100
1109.602211	0.162697
1109.762032	0.165600
1109.921835	0.168476
1110.081620	0.171136
1110.241386	0.162479
1110.401134	0.162635
1110.560864	0.158509
1110.720576	0.156894
1110.880269	0.160353
1111.039945	0.162680
1111.199602	0.159648
1111.359240	0.157601
1111.518861	0.155500
1111.678463	0.162467
1111.838047	0.159671
1111.997613	0.157407
1112.157161	0.153222
1112.316690	0.154021
1112.476202	0.149025
1112.635695	0.153714
1112.795169	0.156326
1112.954626	0.162078
1113.114064	0.162608
1113.273484	0.170441
1113.432886	0.174540
1113.592270	0.178401
1113.751635	0.180887
1113.910983	0.184045
1114.070312	0.182517
1114.229622	0.183334
1114.388915	0.184187
1114.548189	0.183908
1114.707445	0.183752
1114.866683	0.183452
1115.025903	0.188645
1115.185104	0.190617
1115.344287	0.185603
1115.503452	0.182709
1115.662599	0.185481
1115.821727	0.180091
1115.980838	0.180312
1116.139930	0.180596
1116.299004	0.182285
1116.458059	0.179952
1116.617097	0.181268
1116.776116	0.188767
1116.935117	0.192068
1117.094099	0.184725
1117.253064	0.190843
1117.412010	0.185634
1117.570938	0.189674
1117.729848	0.184296
1117.888740	0.179555
1118.047613	0.172277
1118.206468	0.169594
1118.365305	0.171578
1118.524124	0.183431
1118.682924	0.179196
1118.841707	0.183198
1119.000471	0.173315
1119.159216	0.177684
1119.317944	0.178991
1119.476653	0.181560
1119.635344	0.175565
1119.794017	0.162641
1119.952672	0.152642
1120.111308	0.157477
1120.269927	0.154900
1120.428527	0.157814
1120.587108	0.150689
1120.745672	0.151466
1120.904217	0.149212
1121.062744	0.155178
1121.221253	0.166384
1121.379744	0.171164
1121.538216	0.164040
1121.696671	0.160142
1121.855107	0.159145
1122.013524	0.161711
1122.171924	0.160377
1122.330305	0.164550
1122.488668	0.167488
1122.647013	0.163692
1122.805340	0.162752
1122.963648	0.161650
1123.121938	0.170981
1123.280210	0.175859
1123.438464	0.179094
1123.596700	0.181708
1123.754917	0.180682
1123.913116	0.180977
1124.071297	0.180074
1124.229459	0.183095
1124.387604	0.188107
1124.545730	0.182885
1124.703838	0.180995
1124.861928	0.184724
1125.019999	0.185809
1125.178052	0.182502
1125.336088	0.170550
1125.494104	0.169353
1125.652103	0.165192
1125.810083	0.168414
1125.968045	0.163137
1126.125989	0.162592
1126.283915	0.152760
1126.441823	0.152401
1126.599712	0.152668
1126.757583	0.157895
1126.915436	0.161179
1127.073270	0.163092
1127.231087	0.164061
1127.388885	0.166741
1127.546665	0.168558
1127.704426	0.176948
1127.862170	0.180437
1128.019895	0.190820
1128.177602	0.196891
1128.335291	0.195938
1128.492961	0.203188
1128.650614	0.203145
1128.808248	0.210695
1128.965864	0.215324
1129.123461	0.214052
1129.281041	0.209666
1129.438602	0.198079
1129.596145	0.193411
1129.753670	0.198884
1129.911176	0.186583
1130.068665	0.183985
1130.226135	0.179080
1130.383587	0.179145
1130.541020	0.186173
1130.698436	0.185642
1130.855833	0.194508
1131.013212	0.199646
1131.170573	0.192500
1131.327915	0.206472
1131.485239	0.205599
1131.642545	0.212033
1131.799833	0.210953
1131.957103	0.202167
1132.114354	0.194067
1132.271588	0.197805
1132.428803	0.190864
1132.585999	0.200010
1132.743178	0.189796
1132.900338	0.189755
1133.057480	0.182970
1133.214604	0.184221
1133.371710	0.184766
1133.528797	0.184344
1133.685866	0.180279
1133.842917	0.183946
1133.999950	0.182123
1134.156964	0.177575
1134.313960	0.183731
1134.470938	0.182223
1134.627898	0.184430
1134.784840	0.195275
1134.941763	0.194553
1135.098668	0.185659
1135.255555	0.179521
1135.412424	0.174657
1135.569274	0.185371
1135.726107	0.183576
1135.882921	0.185235
1136.039716	0.177416
1136.196494	0.167636
1136.353253	0.174713
1136.509995	0.180397
1136.666717	0.185325
1136.823422	0.188427
1136.980109	0.187585
1137.136777	0.177970
1137.293427	0.191370
1137.450059	0.192216
1137.606672	0.193610
1137.763267	0.194556
1137.919844	0.196601
1138.076403	0.203437
1138.232944	0.207915
1138.389466	0.212721
1138.545971	0.207188
1138.702457	0.192947
1138.858924	0.184484
1139.015374	0.193637
1139.171805	0.191660
1139.328218	0.195761
1139.484613	0.185361
1139.640990	0.186337
1139.797348	0.174418
1139.953688	0.176295
1140.110010	0.186380
1140.266314	0.190214
1140.422600	0.175132
1140.578867	0.178486
1140.735116	0.168371
1140.891347	0.173931
1141.047559	0.163464
1141.203754	0.167272
1141.359930	0.186063
1141.516088	0.177734
1141.672228	0.175252
1141.828349	0.184305
1141.984452	0.183696
1142.140537	0.187854
1142.296604	0.192909
1142.452653	0.195886
1142.608683	0.203432
1142.764695	0.204390
1142.920689	0.205405
1143.076665	0.209105
1143.232622	0.213700
1143.388562	0.221837
1143.544483	0.224741
1143.700385	0.222250
1143.856270	0.209550
1144.012136	0.200126
1144.167985	0.190099
1144.323814	0.183401
1144.479626	0.185340
1144.635420	0.187264
1144.791195	0.176534
1144.946952	0.184824
1145.102691	0.183828
1145.258411	0.194656
1145.414113	0.193239
1145.569798	0.189805
1145.725463	0.204640
1145.881111	0.206874
1146.036741	0.194317
1146.192352	0.207501
1146.347945	0.201744
1146.503519	0.196593
1146.659076	0.191704
1146.814614	0.198339
1146.970134	0.201298
1147.125636	0.181749
1147.281120	0.174099
1147.436585	0.182566
1147.592032	0.174814
1147.747461	0.167239
1147.902872	0.182103
1148.058265	0.186499
1148.213639	0.191884
1148.368995	0.188976
1148.524333	0.204426
1148.679653	0.197461
1148.834954	0.199717
1148.990237	0.202475
1149.145502	0.200138
1149.300749	0.185608
1149.455977	0.189277
1149.611188	0.183776
1149.766380	0.185349
1149.921553	0.193640
1150.076709	0.209197
1150.231846	0.198466
1150.386966	0.197104
1150.542066	0.207580
1150.697149	0.221069
1150.852214	0.227136
1151.007260	0.225933
1151.162288	0.229672
1151.317298	0.220256
1151.472289	0.227664
1151.627263	0.223126
1151.782218	0.228531
1151.937155	0.219116
1152.092073	0.217700
1152.246974	0.214255
1152.401856	0.209986
1152.556720	0.207055
1152.711566	0.201101
1152.866393	0.192373
1153.021203	0.196327
1153.175994	0.196299
1153.330767	0.201827
1153.485521	0.190504
1153.640258	0.180200
1153.794976	0.187189
1153.949676	0.182140
1154.104358	0.191394
1154.259021	0.182335
1154.413667	0.175794
1154.568294	0.182474
1154.722903	0.175554
1154.877493	0.170646
1155.032066	0.189447
1155.186620	0.186369
1155.341156	0.194793
1155.495674	0.190418
1155.650173	0.192810
1155.804654	0.207230
1155.959118	0.189816
1156.113562	0.191712
1156.267989	0.202497
1156.422397	0.189721
1156.576788	0.197595
1156.731160	0.195898
1156.885513	0.187620
1157.039849	0.207824
1157.194166	0.205096
1157.348465	0.205468
1157.502746	0.217912
1157.657009	0.204564
1157.811253	0.190550
1157.965479	0.187839
1158.119687	0.185644
1158.273877	0.200486
1158.428048	0.189727
1158.582201	0.197515
1158.736337	0.212909
1158.890453	0.198031
1159.044552	0.214177
1159.198632	0.227235
1159.352694	0.224817
1159.506738	0.223364
1159.660764	0.215723
1159.814771	0.221504
1159.968761	0.205117
1160.122732	0.202217
1160.276685	0.209142
1160.430619	0.201727
1160.584535	0.196868
1160.738434	0.198266
1160.892313	0.201010
1161.046175	0.220382
1161.200019	0.197079
1161.353844	0.194656
1161.507651	0.181827
1161.661440	0.175264
1161.815210	0.180021
1161.968962	0.180056
1162.122697	0.166805
1162.276412	0.152104
1162.430110	0.121167
1162.583789	0.124390
1162.737451	0.135403
1162.891094	0.150844
1163.044718	0.148846
1163.198325	0.151620
1163.351913	0.145393
1163.505483	0.152057
1163.659035	0.164241
1163.812569	0.177912
1163.966084	0.178684
1164.119581	0.180836
1164.273060	0.164031
1164.426521	0.181138
1164.579964	0.179945
1164.733388	0.193594
1164.886794	0.195540
1165.040182	0.188398
1165.193551	0.197888
1165.346903	0.186364
1165.500236	0.188805
1165.653551	0.205021
1165.806848	0.198120
1165.960126	0.171857
1166.113386	0.165013
1166.266628	0.156897
1166.419852	0.175772
1166.573058	0.179269
1166.726245	0.213062
1166.879414	0.225102
1167.032565	0.203717
1167.185698	0.192236
1167.338812	0.214784
1167.491909	0.217867
1167.644987	0.237661
1167.798046	0.207813
1167.951088	0.181479
1168.104111	0.167474
1168.257117	0.154206
1168.410103	0.172262
1168.563072	0.167932
1168.716023	0.163403
1168.868955	0.164164
1169.021869	0.151634
1169.174765	0.167877
1169.327642	0.194239
1169.480501	0.199239
1169.633343	0.179293
1169.786165	0.179868
1169.938970	0.198847
1170.091757	0.190777
1170.244525	0.189026
1170.397275	0.183397
1170.550007	0.200252
1170.702720	0.189873
1170.855415	0.171707
1171.008092	0.174986
1171.160751	0.157600
1171.313392	0.147159
1171.466014	0.079694
1171.618619	0.135444
1171.771205	0.135444
1171.923772	0.135444
