sample name	sample
index	936
start time	 04-12-2021  12:42:26 PM


Wavelength (nm)	Absorbance
494.344910	0.418421
494.563924	0.418421
494.782919	0.418421
495.001897	0.151856
495.220856	0.222841
495.439797	0.645553
495.658719	0.493613
495.877624	0.622671
496.096510	0.613061
496.315378	NaN
496.534227	0.575216
496.753059	NaN
496.971872	0.736088
497.190667	0.106277
497.409444	0.096882
497.628203	0.097289
497.846943	0.096422
498.065665	0.097305
498.284369	0.097368
498.503055	0.096491
498.721723	0.095554
498.940372	0.095380
499.159003	0.095357
499.377616	0.095389
499.596210	0.095231
499.814787	0.095569
500.033345	0.094644
500.251885	0.094331
500.470406	0.094309
500.688910	0.094109
500.907395	0.094580
501.125862	0.094433
501.344311	0.094707
501.562742	0.095168
501.781154	0.094857
501.999548	0.096009
502.217924	0.096014
502.436282	0.097090
502.654621	0.097806
502.872942	0.097545
503.091245	0.098560
503.309530	0.099091
503.527797	0.099094
503.746045	0.100524
503.964275	0.099695
504.182487	0.100110
504.400681	0.098979
504.618856	0.098918
504.837013	0.099553
505.055152	0.099168
505.273273	0.099531
505.491376	0.099511
505.709460	0.098973
505.927526	0.099648
506.145574	0.099911
506.363604	0.101754
506.581615	0.102535
506.799608	0.103334
507.017583	0.104412
507.235540	0.104026
507.453478	0.104695
507.671399	0.104305
507.889301	0.104482
508.107185	0.104690
508.325050	0.103534
508.542898	0.102936
508.760727	0.102769
508.978538	0.102585
509.196330	0.102795
509.414105	0.101786
509.631861	0.102661
509.849599	0.102479
510.067319	0.102668
510.285021	0.103225
510.502704	0.103398
510.720369	0.103126
510.938016	0.102909
511.155645	0.102493
511.373255	0.103667
511.590848	0.103586
511.808422	0.104599
512.025977	0.105147
512.243515	0.106134
512.461034	0.106485
512.678536	0.107017
512.896018	0.107265
513.113483	0.108291
513.330930	0.107685
513.548358	0.108213
513.765768	0.107865
513.983160	0.108462
514.200533	0.107585
514.417889	0.108643
514.635226	0.108792
514.852545	0.109063
515.069845	0.109390
515.287128	0.110038
515.504392	0.110166
515.721638	0.110284
515.938866	0.110649
516.156075	0.111382
516.373267	0.110469
516.590440	0.110011
516.807594	0.110028
517.024731	0.109490
517.241850	0.109196
517.458950	0.108921
517.676032	0.109241
517.893095	0.108743
518.110141	0.108762
518.327168	0.109066
518.544177	0.109644
518.761168	0.110204
518.978141	0.110591
519.195095	0.110497
519.412031	0.111181
519.628949	0.111353
519.845849	0.111230
520.062731	0.111422
520.279594	0.111800
520.496439	0.112048
520.713266	0.112167
520.930074	0.112304
521.146865	0.113602
521.363637	0.113531
521.580391	0.113796
521.797127	0.113581
522.013844	0.114194
522.230543	0.114002
522.447224	0.114247
522.663887	0.114108
522.880532	0.114311
523.097158	0.114977
523.313766	0.114897
523.530356	0.114537
523.746928	0.115332
523.963481	0.115245
524.180017	0.115815
524.396534	0.116711
524.613032	0.117444
524.829513	0.117685
525.045975	0.117262
525.262420	0.117637
525.478845	0.118849
525.695253	0.119364
525.911643	0.119563
526.128014	0.120103
526.344367	0.119206
526.560702	0.119249
526.777018	0.119678
526.993316	0.120115
527.209597	0.120999
527.425858	0.120847
527.642102	0.121043
527.858328	0.121150
528.074535	0.121379
528.290724	0.122429
528.506894	0.122416
528.723047	0.122608
528.939181	0.122467
529.155297	0.122124
529.371395	0.122131
529.587475	0.122544
529.803536	0.122810
530.019579	0.123332
530.235604	0.123811
530.451611	0.124791
530.667600	0.125597
530.883570	0.126874
531.099522	0.127598
531.315456	0.128015
531.531372	0.128202
531.747269	0.128967
531.963148	0.129312
532.179009	0.129614
532.394852	0.129806
532.610676	0.130249
532.826482	0.130408
533.042271	0.130567
533.258040	0.131189
533.473792	0.131599
533.689525	0.131930
533.905240	0.131979
534.120937	0.132082
534.336616	0.132315
534.552277	0.131953
534.767919	0.131903
534.983543	0.132427
535.199149	0.132622
535.414736	0.132898
535.630306	0.133054
535.845857	0.133502
536.061390	0.133660
536.276904	0.134155
536.492401	0.134760
536.707879	0.134710
536.923339	0.134413
537.138781	0.134961
537.354204	0.135171
537.569610	0.135894
537.784997	0.135765
538.000366	0.136271
538.215716	0.136334
538.431049	0.136713
538.646363	0.136984
538.861659	0.137798
539.076937	0.137809
539.292196	0.138069
539.507438	0.138063
539.722661	0.138204
539.937866	0.138531
540.153052	0.138728
540.368221	0.139003
540.583371	0.139669
540.798503	0.139608
541.013617	0.139907
541.228712	0.140100
541.443789	0.140351
541.658848	0.140918
541.873889	0.141005
542.088912	0.141570
542.303916	0.141821
542.518902	0.142050
542.733870	0.142718
542.948820	0.143071
543.163752	0.143616
543.378665	0.143736
543.593560	0.144649
543.808437	0.144876
544.023295	0.144997
544.238136	0.145094
544.452958	0.145580
544.667762	0.145437
544.882548	0.145600
545.097315	0.145449
545.312064	0.145747
545.526795	0.145710
545.741508	0.146252
545.956203	0.146294
546.170879	0.146785
546.385537	0.146642
546.600177	0.146905
546.814799	0.147082
547.029402	0.147349
547.243988	0.147694
547.458555	0.147810
547.673103	0.147557
547.887634	0.147665
548.102146	0.147676
548.316640	0.148093
548.531116	0.148166
548.745574	0.148645
548.960013	0.149154
549.174435	0.149021
549.388838	0.149358
549.603222	0.150096
549.817589	0.150533
550.031937	0.150663
550.246267	0.150570
550.460579	0.151550
550.674873	0.151785
550.889148	0.152112
551.103405	0.152836
551.317644	0.152887
551.531865	0.153289
551.746068	0.153357
551.960252	0.153634
552.174418	0.154469
552.388566	0.154476
552.602696	0.154658
552.816807	0.155003
553.030900	0.154692
553.244975	0.155191
553.459032	0.155420
553.673070	0.155794
553.887091	0.155813
554.101093	0.155852
554.315077	0.155725
554.529042	0.155552
554.742990	0.155422
554.956919	0.156009
555.170830	0.156318
555.384722	0.156086
555.598597	0.156012
555.812453	0.156508
556.026291	0.156573
556.240111	0.157038
556.453913	0.157569
556.667696	0.157701
556.881461	0.157814
557.095208	0.158140
557.308937	0.158234
557.522647	0.158821
557.736339	0.158752
557.950013	0.159005
558.163669	0.159376
558.377307	0.159674
558.590926	0.159849
558.804527	0.159823
559.018110	0.159211
559.231675	0.159236
559.445221	0.159631
559.658749	0.159831
559.872259	0.160076
560.085751	0.160114
560.299225	0.159943
560.512680	0.160214
560.726117	0.160978
560.939536	0.161507
561.152937	0.162053
561.366319	0.162117
561.579683	0.162077
561.793029	0.162079
562.006357	0.162074
562.219667	0.162489
562.432958	0.162548
562.646231	0.162326
562.859486	0.162834
563.072723	0.162961
563.285941	0.162815
563.499141	0.163263
563.712323	0.163499
563.925487	0.163784
564.138632	0.163857
564.351760	0.164232
564.564869	0.164447
564.777960	0.164179
564.991032	0.164581
565.204087	0.164716
565.417123	0.164863
565.630141	0.164902
565.843140	0.165032
566.056122	0.165534
566.269085	0.165375
566.482030	0.165707
566.694957	0.165898
566.907866	0.166253
567.120756	0.166471
567.333628	0.166934
567.546482	0.167546
567.759318	0.167594
567.972135	0.167417
568.184935	0.167642
568.397716	0.167702
568.610478	0.167808
568.823223	0.167436
569.035949	0.167375
569.248657	0.167499
569.461347	0.167256
569.674019	0.167629
569.886672	0.167828
570.099308	0.168023
570.311925	0.168173
570.524523	0.168362
570.737104	0.168598
570.949666	0.168832
571.162210	0.168567
571.374736	0.168397
571.587244	0.168011
571.799733	0.167964
572.012205	0.168313
572.224658	0.168527
572.437092	0.168667
572.649509	0.168913
572.861907	0.169304
573.074287	0.169682
573.286649	0.170057
573.498993	0.170374
573.711318	0.171011
573.923625	0.171141
574.135914	0.170947
574.348185	0.170989
574.560438	0.171061
574.772672	0.171254
574.984888	0.171474
575.197086	0.171706
575.409266	0.171974
575.621427	0.171866
575.833570	0.171606
576.045695	0.172024
576.257802	0.172107
576.469890	0.172317
576.681961	0.172535
576.894013	0.172213
577.106046	0.172411
577.318062	0.172703
577.530059	0.172623
577.742039	0.173030
577.954000	0.172964
578.165942	0.173017
578.377867	0.172738
578.589773	0.172421
578.801661	0.172910
579.013531	0.173276
579.225382	0.173304
579.437216	0.173439
579.649031	0.173679
579.860828	0.173871
580.072606	0.174204
580.284367	0.174828
580.496109	0.175148
580.707833	0.174903
580.919539	0.174716
581.131227	0.174663
581.342896	0.175023
581.554547	0.175263
581.766180	0.175223
581.977795	0.175134
582.189391	0.174893
582.400969	0.175007
582.612529	0.175188
582.824071	0.175092
583.035595	0.175291
583.247100	0.175394
583.458587	0.175236
583.670056	0.175676
583.881506	0.176050
584.092939	0.176563
584.304353	0.176807
584.515749	0.177427
584.727127	0.178007
584.938486	0.178422
585.149828	0.178528
585.361151	0.179040
585.572456	0.179155
585.783742	0.179270
585.995011	0.179006
586.206261	0.179480
586.417493	0.179694
586.628706	0.179558
586.839902	0.179652
587.051079	0.179551
587.262238	0.179666
587.473379	0.179983
587.684502	0.179875
587.895606	0.180236
588.106692	0.180053
588.317760	0.180125
588.528810	0.180473
588.739841	0.180861
588.950855	0.181633
589.161850	0.181141
589.372827	0.181068
589.583785	0.181680
589.794726	0.182039
590.005648	0.182277
590.216552	0.182494
590.427437	0.182524
590.638305	0.182229
590.849154	0.182061
591.059985	0.182830
591.270798	0.182993
591.481592	0.182970
591.692369	0.183014
591.903127	0.183235
592.113867	0.183631
592.324588	0.184016
592.535292	0.184188
592.745977	0.184259
592.956644	0.184279
593.167293	0.184695
593.377923	0.184598
593.588536	0.184833
593.799130	0.185024
594.009706	0.184784
594.220263	0.184901
594.430803	0.185083
594.641324	0.185352
594.851827	0.185775
595.062312	0.185986
595.272778	0.186511
595.483227	0.186500
595.693657	0.186355
595.904069	0.186451
596.114462	0.186349
596.324838	0.186221
596.535195	0.186317
596.745534	0.186006
596.955855	0.185916
597.166157	0.185746
597.376441	0.185598
597.586707	0.185737
597.796955	0.185731
598.007185	0.185790
598.217396	0.186416
598.427589	0.186584
598.637764	0.186947
598.847921	0.186847
599.058060	0.186857
599.268180	0.187222
599.478282	0.187320
599.688366	0.187609
599.898431	0.187777
600.108479	0.187764
600.318508	0.187720
600.528519	0.187963
600.738511	0.188370
600.948486	0.188794
601.158442	0.189105
601.368380	0.189290
601.578300	0.189487
601.788202	0.189565
601.998085	0.189536
602.207950	0.189835
602.417797	0.189944
602.627626	0.190328
602.837436	0.190499
603.047228	0.190675
603.257002	0.191198
603.466758	0.191415
603.676496	0.191890
603.886215	0.192457
604.095916	0.192694
604.305599	0.192522
604.515264	0.192558
604.724910	0.192959
604.934538	0.192846
605.144148	0.192965
605.353740	0.193061
605.563314	0.192965
605.772869	0.193321
605.982406	0.193449
606.191925	0.193627
606.401425	0.193310
606.610908	0.193451
606.820372	0.193531
607.029818	0.193421
607.239246	0.193225
607.448655	0.193607
607.658047	0.193275
607.867420	0.193447
608.076775	0.193588
608.286111	0.193731
608.495430	0.193403
608.704730	0.193685
608.914012	0.193683
609.123275	0.194063
609.332521	0.194142
609.541748	0.194098
609.750957	0.194086
609.960148	0.194334
610.169321	0.194690
610.378475	0.194999
610.587611	0.195441
610.796729	0.195823
611.005829	0.195971
611.214910	0.196031
611.423974	0.196397
611.633019	0.196573
611.842045	0.196839
612.051054	0.196830
612.260044	0.196926
612.469017	0.196748
612.677970	0.196875
612.886906	0.196789
613.095824	0.196881
613.304723	0.196903
613.513604	0.196947
613.722467	0.196850
613.931311	0.196913
614.140138	0.197056
614.348946	0.197154
614.557736	0.197232
614.766507	0.197507
614.975261	0.197639
615.183996	0.197731
615.392713	0.198136
615.601412	0.198285
615.810092	0.198807
616.018754	0.199109
616.227399	0.199103
616.436024	0.199256
616.644632	0.199532
616.853222	0.199696
617.061793	0.200086
617.270346	0.200345
617.478880	0.200842
617.687397	0.200638
617.895895	0.200532
618.104375	0.200768
618.312837	0.200806
618.521281	0.200639
618.729706	0.200531
618.938113	0.200337
619.146502	0.199910
619.354873	0.199697
619.563226	0.200048
619.771560	0.200441
619.979876	0.200901
620.188174	0.200838
620.396453	0.201034
620.604715	0.201351
620.812958	0.201638
621.021183	0.202122
621.229390	0.202142
621.437578	0.201941
621.645748	0.201957
621.853900	0.201700
622.062034	0.201944
622.270150	0.202133
622.478247	0.202362
622.686326	0.202332
622.894387	0.202146
623.102430	0.202487
623.310454	0.203033
623.518461	0.203299
623.726449	0.203619
623.934418	0.203619
624.142370	0.203774
624.350303	0.204008
624.558218	0.204423
624.766115	0.204690
624.973994	0.204851
625.181855	0.204858
625.389697	0.204875
625.597521	0.205321
625.805327	0.205590
626.013114	0.205893
626.220883	0.205872
626.428634	0.205773
626.636367	0.205787
626.844082	0.205927
627.051778	0.206046
627.259457	0.206163
627.467117	0.205979
627.674758	0.205939
627.882382	0.205745
628.089987	0.206059
628.297574	0.206353
628.505143	0.206687
628.712694	0.206805
628.920226	0.206958
629.127740	0.207232
629.335236	0.207499
629.542714	0.207781
629.750174	0.208410
629.957615	0.208417
630.165038	0.208354
630.372443	0.208416
630.579829	0.208717
630.787198	0.208779
630.994548	0.209015
631.201880	0.208813
631.409194	0.209066
631.616489	0.208741
631.823766	0.208780
632.031025	0.208732
632.238266	0.208886
632.445489	0.208757
632.652693	0.208924
632.859879	0.208935
633.067047	0.209322
633.274197	0.209388
633.481329	0.209702
633.688442	0.209909
633.895537	0.210471
634.102614	0.210821
634.309672	0.211003
634.516713	0.211336
634.723735	0.211400
634.930739	0.211739
635.137724	0.212123
635.344692	0.212102
635.551641	0.212313
635.758572	0.212388
635.965485	0.212336
636.172379	0.212497
636.379256	0.212576
636.586114	0.212561
636.792954	0.212474
636.999775	0.212522
637.206579	0.212931
637.413364	0.213102
637.620131	0.213342
637.826880	0.213458
638.033610	0.213708
638.240323	0.213779
638.447017	0.214087
638.653692	0.214113
638.860350	0.214258
639.066990	0.214459
639.273611	0.214349
639.480214	0.214235
639.686798	0.214774
639.893365	0.215089
640.099913	0.215238
640.306443	0.215401
640.512955	0.215600
640.719449	0.216003
640.925924	0.216061
641.132381	0.216421
641.338820	0.216963
641.545241	0.216936
641.751644	0.216670
641.958028	0.216814
642.164394	0.217090
642.370742	0.217321
642.577071	0.217071
642.783383	0.217157
642.989676	0.217400
643.195951	0.217236
643.402207	0.217194
643.608446	0.217632
643.814666	0.217763
644.020868	0.217681
644.227052	0.217963
644.433218	0.218302
644.639365	0.218444
644.845494	0.218625
645.051605	0.218825
645.257698	0.219116
645.463772	0.219510
645.669828	0.219739
645.875866	0.220200
646.081886	0.220563
646.287888	0.220680
646.493871	0.221186
646.699836	0.221297
646.905783	0.221461
647.111712	0.221769
647.317622	0.221576
647.523514	0.221783
647.729388	0.221800
647.935244	0.221677
648.141082	0.221988
648.346901	0.222000
648.552702	0.222457
648.758485	0.223034
648.964250	0.223178
649.169996	0.223728
649.375724	0.224184
649.581434	0.224342
649.787126	0.224741
649.992800	0.224836
650.198455	0.225031
650.404092	0.224992
650.609711	0.224882
650.815311	0.224940
651.020894	0.224902
651.226458	0.224819
651.432004	0.225306
651.637532	0.225381
651.843041	0.225733
652.048532	0.225857
652.254006	0.226181
652.459460	0.226531
652.664897	0.226821
652.870315	0.226905
653.075716	0.227173
653.281097	0.227303
653.486461	0.227228
653.691807	0.227167
653.897134	0.227654
654.102443	0.227738
654.307734	0.227873
654.513006	0.227963
654.718261	0.228160
654.923497	0.228320
655.128715	0.228173
655.333915	0.228444
655.539096	0.228701
655.744259	0.228905
655.949404	0.229188
656.154531	0.229512
656.359640	0.229721
656.564730	0.230109
656.769802	0.230396
656.974856	0.230790
657.179892	0.231160
657.384909	0.231335
657.589908	0.231391
657.794889	0.231487
657.999852	0.231467
658.204797	0.231493
658.409723	0.231576
658.614631	0.231731
658.819521	0.232035
659.024393	0.232145
659.229246	0.232565
659.434081	0.232616
659.638898	0.232828
659.843697	0.233221
660.048478	0.233634
660.253240	0.233803
660.457984	0.233773
660.662710	0.233645
660.867417	0.233854
661.072107	0.234122
661.276778	0.234446
661.481431	0.234386
661.686066	0.234559
661.890682	0.234813
662.095281	0.234915
662.299861	0.235082
662.504422	0.235317
662.708966	0.235600
662.913491	0.235631
663.117999	0.235890
663.322488	0.236508
663.526958	0.236406
663.731411	0.236742
663.935845	0.237225
664.140261	0.237556
664.344659	0.238003
664.549038	0.238194
664.753400	0.238492
664.957743	0.238657
665.162068	0.238831
665.366375	0.239436
665.570663	0.239661
665.774933	0.239745
665.979185	0.240269
666.183419	0.240539
666.387635	0.240709
666.591832	0.240690
666.796011	0.240794
667.000172	0.240956
667.204315	0.241293
667.408439	0.241285
667.612545	0.241689
667.816634	0.241662
668.020703	0.241910
668.224755	0.241927
668.428788	0.242427
668.632803	0.242754
668.836800	0.242733
669.040779	0.242603
669.244739	0.242836
669.448681	0.242824
669.652605	0.243151
669.856511	0.243189
670.060399	0.243909
670.264268	0.244000
670.468119	0.244043
670.671952	0.244432
670.875767	0.244717
671.079563	0.245009
671.283341	0.245353
671.487101	0.245474
671.690843	0.245971
671.894567	0.245848
672.098272	0.246149
672.301959	0.246555
672.505628	0.246837
672.709278	0.247065
672.912911	0.247249
673.116525	0.247456
673.320121	0.247687
673.523699	0.247893
673.727258	0.248171
673.930799	0.248487
674.134322	0.248865
674.337827	0.249160
674.541314	0.249290
674.744782	0.249378
674.948232	0.249564
675.151664	0.249842
675.355078	0.249810
675.558474	0.250254
675.761851	0.250204
675.965210	0.250379
676.168551	0.250409
676.371873	0.250921
676.575178	0.251266
676.778464	0.251446
676.981732	0.251690
677.184981	0.251875
677.388213	0.251896
677.591426	0.252191
677.794621	0.252333
677.997798	0.252420
678.200956	0.252420
678.404097	0.252553
678.607219	0.252836
678.810323	0.252957
679.013408	0.253400
679.216476	0.253929
679.419525	0.254099
679.622556	0.254264
679.825569	0.254636
680.028563	0.254938
680.231540	0.255024
680.434498	0.255135
680.637438	0.255452
680.840359	0.255393
681.043263	0.255213
681.246148	0.255420
681.449015	0.255430
681.651864	0.255681
681.854694	0.255862
682.057506	0.256342
682.260301	0.256542
682.463076	0.256515
682.665834	0.256693
682.868573	0.256916
683.071295	0.257139
683.273998	0.257434
683.476682	0.257528
683.679349	0.257869
683.881997	0.257909
684.084627	0.257970
684.287239	0.258044
684.489833	0.258298
684.692408	0.258546
684.894965	0.258705
685.097504	0.258860
685.300025	0.259083
685.502527	0.258988
685.705012	0.259201
685.907478	0.259463
686.109925	0.259746
686.312355	0.259997
686.514766	0.260048
686.717159	0.260312
686.919534	0.260651
687.121891	0.260871
687.324230	0.261155
687.526550	0.261440
687.728852	0.261665
687.931136	0.261890
688.133401	0.262129
688.335649	0.262405
688.537878	0.262480
688.740089	0.262733
688.942281	0.262972
689.144456	0.263107
689.346612	0.263195
689.548750	0.263374
689.750870	0.263649
689.952971	0.263849
690.155055	0.264074
690.357120	0.264477
690.559167	0.264839
690.761195	0.265216
690.963206	0.265350
691.165198	0.265600
691.367172	0.265887
691.569128	0.266168
691.771065	0.266410
691.972984	0.266583
692.174885	0.266723
692.376768	0.266698
692.578633	0.266606
692.780479	0.266739
692.982308	0.267006
693.184118	0.267141
693.385909	0.267146
693.587683	0.267254
693.789438	0.267457
693.991175	0.267563
694.192894	0.267419
694.394595	0.267616
694.596277	0.267749
694.797941	0.267594
694.999587	0.267584
695.201215	0.267637
695.402824	0.267691
695.604416	0.267701
695.805989	0.267754
696.007543	0.268001
696.209080	0.267822
696.410598	0.268169
696.612099	0.268327
696.813580	0.268503
697.015044	0.268709
697.216490	0.268889
697.417917	0.268929
697.619326	0.269066
697.820717	0.269257
698.022089	0.269789
698.223444	0.269935
698.424780	0.270185
698.626098	0.270470
698.827397	0.270647
699.028679	0.270781
699.229942	0.271057
699.431187	0.271386
699.632414	0.271396
699.833622	0.271445
700.034813	0.271686
700.235985	0.271914
700.437139	0.271980
700.638274	0.272193
700.839392	0.272379
701.040491	0.272585
701.241572	0.272795
701.442635	0.273031
701.643679	0.273061
701.844706	0.272891
702.045714	0.272829
702.246704	0.272974
702.447675	0.273091
702.648629	0.273062
702.849564	0.273062
703.050481	0.272815
703.251380	0.272753
703.452260	0.272708
703.653122	0.272890
703.853966	0.273083
704.054792	0.272994
704.255600	0.272894
704.456389	0.272686
704.657160	0.272706
704.857913	0.272761
705.058648	0.272927
705.259365	0.272968
705.460063	0.272723
705.660743	0.272720
705.861405	0.272739
706.062048	0.272872
706.262674	0.273076
706.463281	0.273186
706.663870	0.273269
706.864441	0.273258
707.064993	0.273381
707.265527	0.273657
707.466043	0.273969
707.666541	0.274339
707.867021	0.274305
708.067482	0.274476
708.267925	0.274670
708.468350	0.275102
708.668757	0.275385
708.869145	0.275681
709.069516	0.275843
709.269868	0.275871
709.470201	0.275809
709.670517	0.276030
709.870814	0.276111
710.071093	0.276077
710.271354	0.275665
710.471597	0.275561
710.671821	0.275462
710.872028	0.275430
711.072216	0.275453
711.272385	0.275448
711.472537	0.275347
711.672670	0.275200
711.872785	0.275008
712.072882	0.274859
712.272961	0.274660
712.473021	0.274565
712.673063	0.274223
712.873087	0.273941
713.073093	0.273935
713.273081	0.273617
713.473050	0.273569
713.673001	0.273526
713.872934	0.273645
714.072849	0.273754
714.272745	0.273731
714.472623	0.273838
714.672483	0.273721
714.872325	0.273378
715.072148	0.273743
715.271954	0.273622
715.471741	0.273677
715.671509	0.273391
715.871260	0.273057
716.070992	0.272855
716.270707	0.272755
716.470403	0.272493
716.670080	0.272518
716.869740	0.272148
717.069381	0.272059
717.269004	0.271838
717.468609	0.271980
717.668195	0.271970
717.867764	0.271746
718.067314	0.271585
718.266846	0.271833
718.466360	0.271850
718.665855	0.271808
718.865332	0.271712
719.064791	0.271881
719.264232	0.271647
719.463655	0.271582
719.663059	0.271842
719.862445	0.271615
720.061813	0.271326
720.261163	0.271132
720.460494	0.271166
720.659807	0.271243
720.859102	0.270759
721.058379	0.270723
721.257638	0.270570
721.456878	0.270324
721.656100	0.270280
721.855304	0.270201
722.054490	0.269749
722.253657	0.269406
722.452806	0.269003
722.651937	0.269096
722.851050	0.268936
723.050145	0.268755
723.249221	0.268668
723.448279	0.268670
723.647319	0.268331
723.846340	0.268546
724.045344	0.268546
724.244329	0.268465
724.443296	0.268250
724.642245	0.268400
724.841175	0.268402
725.040088	0.268181
725.238982	0.268119
725.437857	0.268004
725.636715	0.267931
725.835554	0.267745
726.034376	0.267545
726.233179	0.267371
726.431963	0.266872
726.630730	0.266702
726.829478	0.266711
727.028208	0.266726
727.226920	0.266840
727.425614	0.266623
727.624289	0.266404
727.822946	0.266499
728.021585	0.266421
728.220206	0.266279
728.418808	0.265980
728.617392	0.265646
728.815958	0.265220
729.014506	0.264888
729.213036	0.264752
729.411547	0.264733
729.610040	0.264323
729.808515	0.263945
730.006972	0.263720
730.205410	0.263776
730.403831	0.263678
730.602233	0.263557
730.800616	0.263349
730.998982	0.263040
731.197329	0.262561
731.395658	0.262642
731.593969	0.262692
731.792262	0.262487
731.990536	0.262310
732.188793	0.262299
732.387031	0.262044
732.585250	0.261967
732.783452	0.261873
732.981635	0.261850
733.179800	0.261827
733.377947	0.261510
733.576076	0.261488
733.774186	0.260952
733.972278	0.260777
734.170352	0.260669
734.368408	0.260635
734.566446	0.260402
734.764465	0.260332
734.962466	0.259792
735.160449	0.259681
735.358413	0.259541
735.556360	0.259800
735.754288	0.259401
735.952198	0.259294
736.150090	0.259037
736.347963	0.258847
736.545818	0.258497
736.743655	0.258339
736.941474	0.257961
737.139275	0.257808
737.337057	0.257457
737.534821	0.257079
737.732567	0.256710
737.930295	0.256679
738.128005	0.256396
738.325696	0.256307
738.523369	0.256203
738.721024	0.256131
738.918660	0.255734
739.116279	0.255453
739.313879	0.255235
739.511461	0.255066
739.709024	0.254571
739.906570	0.254374
740.104097	0.254197
740.301606	0.253793
740.499097	0.253390
740.696569	0.253276
740.894024	0.252917
741.091460	0.252926
741.288878	0.252714
741.486277	0.252506
741.683659	0.252246
741.881022	0.251852
742.078367	0.251766
742.275694	0.251906
742.473002	0.251647
742.670293	0.251647
742.867565	0.251390
743.064819	0.251231
743.262054	0.251045
743.459272	0.250953
743.656471	0.250891
743.853652	0.250618
744.050815	0.250372
744.247959	0.250298
744.445085	0.250078
744.642194	0.249847
744.839283	0.249724
745.036355	0.249646
745.233408	0.249549
745.430444	0.249115
745.627461	0.248994
745.824459	0.248764
746.021440	0.248287
746.218402	0.247914
746.415346	0.247749
746.612272	0.247338
746.809180	0.246817
747.006069	0.246556
747.202940	0.246404
747.399793	0.246183
747.596628	0.245689
747.793444	0.245777
747.990243	0.245746
748.187023	0.245534
748.383784	0.245396
748.580528	0.245289
748.777253	0.245181
748.973960	0.245270
749.170649	0.245322
749.367320	0.245497
749.563973	0.245148
749.760607	0.245286
749.957223	0.245114
750.153821	0.244677
750.350400	0.244591
750.546962	0.244200
750.743505	0.243840
750.940030	0.243344
751.136536	0.243052
751.333025	0.242737
751.529495	0.241961
751.725947	0.241614
751.922381	0.241356
752.118796	0.241020
752.315194	0.240664
752.511573	0.240358
752.707934	0.240183
752.904276	0.239899
753.100601	0.239570
753.296907	0.239322
753.493195	0.238924
753.689465	0.238959
753.885716	0.238661
754.081949	0.238796
754.278164	0.238670
754.474361	0.238570
754.670540	0.238334
754.866700	0.238108
755.062843	0.237954
755.258967	0.237994
755.455072	0.237917
755.651160	0.238044
755.847229	0.237339
756.043280	0.237039
756.239313	0.236620
756.435328	0.236374
756.631324	0.236328
756.827302	0.236390
757.023262	0.236125
757.219204	0.235725
757.415127	0.235526
757.611033	0.235663
757.806920	0.235199
758.002788	0.235061
758.198639	0.234919
758.394471	0.234871
758.590286	0.234507
758.786081	0.234400
758.981859	0.234479
759.177619	0.234406
759.373360	0.234308
759.569083	0.234331
759.764788	0.234409
759.960474	0.234452
760.156143	0.234303
760.351793	0.234341
760.547425	0.234399
760.743038	0.234056
760.938634	0.233506
761.134211	0.233337
761.329770	0.233248
761.525311	0.232990
761.720833	0.232742
761.916338	0.232269
762.111824	0.232234
762.307292	0.231680
762.502741	0.231505
762.698173	0.231336
762.893586	0.231222
763.088981	0.231353
763.284358	0.231045
763.479716	0.230907
763.675057	0.230792
763.870379	0.230539
764.065683	0.230689
764.260968	0.230431
764.456236	0.230243
764.651485	0.229935
764.846716	0.229741
765.041929	0.229692
765.237123	0.229443
765.432299	0.229561
765.627457	0.229276
765.822597	0.229092
766.017719	0.229187
766.212822	0.229247
766.407907	0.229321
766.602974	0.229259
766.798023	0.229144
766.993054	0.229078
767.188066	0.229156
767.383060	0.229108
767.578036	0.228744
767.772993	0.228445
767.967933	0.228555
768.162854	0.228385
768.357757	0.228034
768.552642	0.227887
768.747508	0.227803
768.942356	0.227613
769.137186	0.227618
769.331998	0.227837
769.526792	0.228169
769.721567	0.227932
769.916324	0.227934
770.111063	0.227910
770.305784	0.227819
770.500486	0.227865
770.695171	0.227862
770.889837	0.227564
771.084484	0.227352
771.279114	0.226976
771.473725	0.226769
771.668318	0.226589
771.862893	0.226481
772.057450	0.226527
772.251988	0.226292
772.446509	0.226163
772.641011	0.226371
772.835494	0.226250
773.029960	0.226341
773.224407	0.226259
773.418836	0.226234
773.613247	0.226206
773.807640	0.225901
774.002014	0.225680
774.196370	0.225801
774.390708	0.225612
774.585028	0.225530
774.779330	0.225501
774.973613	0.225688
775.167878	0.225745
775.362125	0.226072
775.556354	0.226358
775.750564	0.226585
775.944756	0.226313
776.138930	0.226383
776.333086	0.226626
776.527223	0.226769
776.721343	0.226633
776.915444	0.226305
777.109526	0.226018
777.303591	0.226241
777.497637	0.226171
777.691666	0.226358
777.885676	0.226353
778.079667	0.226322
778.273641	0.225894
778.467596	0.225622
778.661533	0.225972
778.855452	0.225918
779.049352	0.225529
779.243235	0.225602
779.437099	0.225549
779.630945	0.225562
779.824773	0.225370
780.018582	0.225560
780.212373	0.225902
780.406146	0.225728
780.599901	0.225929
780.793638	0.225916
780.987356	0.225978
781.181056	0.226019
781.374738	0.225792
781.568402	0.225933
781.762047	0.225778
781.955674	0.225736
782.149283	0.225715
782.342874	0.225595
782.536447	0.225827
782.730001	0.225821
782.923537	0.225857
783.117055	0.225767
783.310555	0.225785
783.504036	0.225987
783.697499	0.226023
783.890944	0.226233
784.084371	0.226336
784.277780	0.226065
784.471170	0.225933
784.664542	0.225709
784.857896	0.226159
785.051231	0.226130
785.244549	0.226144
785.437848	0.226174
785.631129	0.226124
785.824392	0.226175
786.017636	0.226444
786.210863	0.226573
786.404071	0.226624
786.597260	0.226877
786.790432	0.226873
786.983585	0.226957
787.176721	0.227243
787.369838	0.227200
787.562936	0.227260
787.756017	0.227418
787.949079	0.227632
788.142123	0.227670
788.335149	0.227617
788.528156	0.227712
788.721146	0.227807
788.914117	0.227904
789.107070	0.228108
789.300005	0.228040
789.492921	0.227975
789.685819	0.228068
789.878699	0.228268
790.071561	0.228245
790.264405	0.228434
790.457230	0.228652
790.650037	0.228654
790.842826	0.228571
791.035597	0.228854
791.228349	0.229034
791.421084	0.228665
791.613800	0.228897
791.806497	0.228760
791.999177	0.228918
792.191838	0.228824
792.384481	0.228768
792.577106	0.229025
792.769713	0.228992
792.962301	0.229137
793.154871	0.229581
793.347423	0.229433
793.539957	0.229605
793.732473	0.229472
793.924970	0.229465
794.117449	0.229827
794.309910	0.230070
794.502353	0.230302
794.694777	0.230233
794.887183	0.230531
795.079571	0.230757
795.271941	0.230978
795.464293	0.231562
795.656626	0.231789
795.848941	0.231929
796.041238	0.232146
796.233516	0.232098
796.425777	0.232368
796.618019	0.232430
796.810243	0.232625
797.002449	0.232787
797.194636	0.232937
797.386805	0.233157
797.578956	0.233516
797.771089	0.233665
797.963204	0.234159
798.155300	0.234120
798.347378	0.234055
798.539438	0.234284
798.731480	0.234485
798.923503	0.234269
799.115509	0.234605
799.307496	0.234632
799.499465	0.234869
799.691415	0.235065
799.883348	0.235714
800.075262	0.236475
800.267158	0.236897
800.459035	0.237307
800.650895	0.237923
800.842736	0.238067
801.034559	0.238475
801.226364	0.238801
801.418150	0.239254
801.609919	0.239257
801.801669	0.239288
801.993401	0.239387
802.185114	0.239788
802.376810	0.239924
802.568487	0.240417
802.760146	0.240362
802.951787	0.240448
803.143409	0.240410
803.335014	0.240886
803.526600	0.240951
803.718168	0.241175
803.909717	0.241297
804.101249	0.241428
804.292762	0.241536
804.484257	0.242059
804.675734	0.242364
804.867192	0.242682
805.058632	0.242839
805.250054	0.243261
805.441458	0.243624
805.632844	0.243830
805.824211	0.244266
806.015561	0.244640
806.206891	0.244791
806.398204	0.245011
806.589499	0.245424
806.780775	0.245696
806.972033	0.245983
807.163273	0.246073
807.354495	0.246549
807.545698	0.246878
807.736883	0.246987
807.928050	0.247297
808.119199	0.247432
808.310329	0.247446
808.501441	0.247940
808.692535	0.248142
808.883611	0.248655
809.074669	0.248815
809.265708	0.249155
809.456729	0.249453
809.647732	0.249703
809.838717	0.250190
810.029683	0.250382
810.220632	0.250477
810.411562	0.251006
810.602474	0.251218
810.793367	0.251281
810.984242	0.251518
811.175100	0.251919
811.365938	0.252006
811.556759	0.252295
811.747562	0.252869
811.938346	0.253375
812.129112	0.253288
812.319860	0.253510
812.510589	0.253956
812.701300	0.254367
812.891994	0.254517
813.082668	0.254975
813.273325	0.255349
813.463964	0.255717
813.654584	0.255713
813.845186	0.256424
814.035769	0.256911
814.226335	0.257238
814.416882	0.257563
814.607411	0.258164
814.797922	0.258510
814.988415	0.258970
815.178889	0.259350
815.369345	0.259821
815.559783	0.259934
815.750203	0.260676
815.940605	0.261174
816.130988	0.261610
816.321353	0.262071
816.511700	0.262547
816.702028	0.262781
816.892339	0.263390
817.082631	0.264060
817.272905	0.264668
817.463161	0.265018
817.653398	0.265522
817.843617	0.265843
818.033819	0.266233
818.224001	0.266709
818.414166	0.267180
818.604312	0.267087
818.794440	0.267269
818.984550	0.267627
819.174642	0.267831
819.364716	0.268125
819.554771	0.268475
819.744808	0.268712
819.934827	0.268865
820.124827	0.269362
820.314810	0.270180
820.504774	0.270682
820.694720	0.271005
820.884647	0.271385
821.074557	0.271944
821.264448	0.272387
821.454321	0.272809
821.644176	0.273414
821.834012	0.273510
822.023831	0.273793
822.213631	0.274195
822.403413	0.274609
822.593176	0.275083
822.782922	0.275125
822.972649	0.275610
823.162358	0.276437
823.352049	0.276865
823.541721	0.277576
823.731376	0.277691
823.921012	0.278010
824.110629	0.278585
824.300229	0.278787
824.489811	0.279441
824.679374	0.280035
824.868919	0.280218
825.058445	0.280734
825.247954	0.281111
825.437444	0.281558
825.626916	0.282043
825.816370	0.282282
826.005806	0.282703
826.195223	0.282943
826.384622	0.283322
826.574003	0.283782
826.763366	0.284028
826.952711	0.284657
827.142037	0.285368
827.331345	0.285572
827.520635	0.286201
827.709906	0.286809
827.899160	0.287540
828.088395	0.287734
828.277612	0.288201
828.466810	0.288668
828.655991	0.288667
828.845153	0.289148
829.034297	0.289641
829.223423	0.289991
829.412531	0.290458
829.601620	0.290821
829.790691	0.291592
829.979744	0.291988
830.168779	0.292524
830.357795	0.293316
830.546793	0.293697
830.735773	0.294335
830.924735	0.295119
831.113679	0.295407
831.302604	0.295754
831.491511	0.295681
831.680400	0.295862
831.869271	0.296332
832.058123	0.296485
832.246957	0.296768
832.435773	0.297195
832.624571	0.297376
832.813351	0.297952
833.002112	0.298377
833.190855	0.299294
833.379580	0.300287
833.568287	0.300809
833.756975	0.301440
833.945645	0.302012
834.134297	0.302643
834.322931	0.303184
834.511547	0.303523
834.700144	0.304017
834.888723	0.304202
835.077284	0.304225
835.265826	0.304643
835.454351	0.304986
835.642857	0.305558
835.831345	0.305972
836.019815	0.306652
836.208266	0.307072
836.396699	0.307480
836.585114	0.308133
836.773511	0.308885
836.961890	0.309545
837.150250	0.310432
837.338592	0.310891
837.526916	0.310914
837.715222	0.310935
837.903510	0.311515
838.091779	0.312098
838.280030	0.312601
838.468263	0.313064
838.656477	0.313329
838.844674	0.313566
839.032852	0.314134
839.221012	0.314894
839.409153	0.315529
839.597277	0.316232
839.785382	0.317106
839.973469	0.317761
840.161538	0.317924
840.349589	0.318347
840.537621	0.319037
840.725635	0.319620
840.913631	0.320180
841.101609	0.320947
841.289568	0.321530
841.477509	0.321624
841.665432	0.321962
841.853337	0.322886
842.041224	0.323615
842.229092	0.324242
842.416942	0.324606
842.604774	0.324959
842.792588	0.325405
842.980383	0.325790
843.168160	0.326580
843.355919	0.327164
843.543660	0.327396
843.731382	0.327953
843.919087	0.328371
844.106773	0.328937
844.294441	0.329974
844.482090	0.330200
844.669722	0.330692
844.857335	0.331070
845.044930	0.331620
845.232507	0.332034
845.420065	0.332099
845.607605	0.332313
845.795127	0.332858
845.982631	0.333283
846.170117	0.334002
846.357584	0.334220
846.545033	0.334646
846.732464	0.334942
846.919877	0.335544
847.107272	0.336232
847.294648	0.336597
847.482006	0.336917
847.669346	0.337290
847.856667	0.337486
848.043971	0.338193
848.231256	0.338703
848.418523	0.339286
848.605771	0.339454
848.793002	0.339960
848.980214	0.340609
849.167408	0.341237
849.354584	0.341746
849.541742	0.342590
849.728881	0.342926
849.916002	0.343405
850.103105	0.344030
850.290190	0.344549
850.477256	0.345183
850.664304	0.345883
850.851334	0.346057
851.038346	0.346778
851.225340	0.347506
851.412315	0.347933
851.599272	0.348271
851.786211	0.348499
851.973132	0.349338
852.160034	0.349756
852.346918	0.350320
852.533784	0.351018
852.720632	0.351365
852.907462	0.351421
853.094273	0.352465
853.281066	0.353434
853.467841	0.354106
853.654598	0.354544
853.841336	0.354987
854.028056	0.355281
854.214758	0.355736
854.401442	0.356097
854.588107	0.357043
854.774755	0.357294
854.961384	0.358057
855.147995	0.358291
855.334587	0.358641
855.521162	0.359526
855.707718	0.360309
855.894256	0.361055
856.080775	0.361718
856.267277	0.361554
856.453760	0.362098
856.640225	0.362065
856.826672	0.362550
857.013101	0.363434
857.199511	0.363702
857.385903	0.363771
857.572277	0.363924
857.758633	0.363851
857.944970	0.364619
858.131290	0.364845
858.317591	0.365407
858.503873	0.365866
858.690138	0.366159
858.876384	0.366745
859.062612	0.367579
859.248822	0.368138
859.435014	0.368949
859.621188	0.369449
859.807343	0.370019
859.993480	0.370156
860.179599	0.370759
860.365699	0.370970
860.551781	0.371360
860.737846	0.371572
860.923891	0.372186
861.109919	0.372669
861.295929	0.372922
861.481920	0.373183
861.667893	0.373815
861.853848	0.374060
862.039784	0.374420
862.225702	0.374636
862.411603	0.375015
862.597484	0.375180
862.783348	0.375514
862.969193	0.376097
863.155021	0.376853
863.340830	0.377216
863.526620	0.377947
863.712393	0.378754
863.898147	0.379220
864.083883	0.379525
864.269601	0.379978
864.455301	0.380668
864.640982	0.380685
864.826645	0.380752
865.012290	0.381228
865.197917	0.381654
865.383526	0.381754
865.569116	0.381873
865.754688	0.382530
865.940242	0.383223
866.125777	0.383757
866.311295	0.384566
866.496794	0.385417
866.682275	0.385815
866.867737	0.385914
867.053182	0.386491
867.238608	0.387192
867.424016	0.387503
867.609406	0.387451
867.794778	0.387231
867.980131	0.387623
868.165466	0.387729
868.350783	0.388130
868.536082	0.388987
868.721362	0.389269
868.906625	0.389514
869.091869	0.389949
869.277094	0.390682
869.462302	0.391331
869.647491	0.392021
869.832662	0.392791
870.017815	0.393132
870.202950	0.393564
870.388066	0.394095
870.573165	0.394713
870.758245	0.394594
870.943306	0.395223
871.128350	0.395419
871.313375	0.395238
871.498382	0.395191
871.683371	0.395062
871.868342	0.394771
872.053294	0.394613
872.238229	0.394758
872.423144	0.395540
872.608042	0.395510
872.792922	0.395575
872.977783	0.396183
873.162626	0.396078
873.347451	0.396808
873.532258	0.397248
873.717046	0.398070
873.901816	0.398422
874.086568	0.398591
874.271302	0.398948
874.456017	0.399666
874.640715	0.400003
874.825394	0.400712
875.010055	0.400989
875.194697	0.401454
875.379322	0.401572
875.563928	0.402034
875.748516	0.402464
875.933085	0.403098
876.117637	0.403338
876.302170	0.403415
876.486685	0.403801
876.671182	0.404256
876.855661	0.403923
877.040121	0.404460
877.224563	0.404748
877.408987	0.405107
877.593393	0.405112
877.777780	0.405422
877.962150	0.406016
878.146501	0.405969
878.330833	0.406134
878.515148	0.406768
878.699444	0.406749
878.883722	0.406627
879.067982	0.406443
879.252224	0.406417
879.436447	0.406491
879.620653	0.406597
879.804840	0.406917
879.989008	0.407075
880.173159	0.407331
880.357291	0.407699
880.541405	0.407780
880.725501	0.407898
880.909579	0.407866
881.093638	0.408062
881.277680	0.408091
881.461703	0.408481
881.645707	0.408625
881.829694	0.408497
882.013662	0.407883
882.197612	0.407828
882.381544	0.407878
882.565458	0.408484
882.749353	0.408590
882.933230	0.408512
883.117089	0.408377
883.300930	0.408535
883.484753	0.409091
883.668557	0.409781
883.852343	0.410426
884.036111	0.410965
884.219861	0.411007
884.403592	0.411234
884.587305	0.411519
884.771000	0.412034
884.954677	0.412126
885.138335	0.411940
885.321976	0.412546
885.505598	0.412908
885.689201	0.413028
885.872787	0.413264
886.056354	0.413586
886.239904	0.413948
886.423434	0.413543
886.606947	0.413092
886.790442	0.413498
886.973918	0.413357
887.157376	0.413177
887.340816	0.413188
887.524237	0.413143
887.707641	0.412975
887.891026	0.412748
888.074393	0.412814
888.257741	0.413441
888.441072	0.413503
888.624384	0.413563
888.807678	0.413494
888.990954	0.413825
889.174211	0.413282
889.357451	0.413152
889.540672	0.413160
889.723875	0.413182
889.907059	0.413043
890.090226	0.412955
890.273374	0.412197
890.456504	0.412259
890.639616	0.412256
890.822709	0.412708
891.005785	0.412924
891.188842	0.412719
891.371881	0.412830
891.554901	0.412729
891.737904	0.412522
891.920888	0.413140
892.103854	0.412793
892.286802	0.412503
892.469731	0.412459
892.652643	0.412172
892.835536	0.412632
893.018410	0.412525
893.201267	0.412439
893.384106	0.412220
893.566926	0.411706
893.749728	0.411549
893.932511	0.410997
894.115277	0.410470
894.298024	0.410143
894.480753	0.409252
894.663464	0.409035
894.846157	0.408844
895.028831	0.408342
895.211487	0.408531
895.394125	0.408544
895.576745	0.408604
895.759346	0.408691
895.941930	0.408898
896.124495	0.408909
896.307041	0.407878
896.489570	0.408101
896.672080	0.408285
896.854573	0.408700
897.037046	0.408533
897.219502	0.408165
897.401940	0.407453
897.584359	0.406940
897.766760	0.407316
897.949143	0.408666
898.131507	0.407520
898.313854	0.407542
898.496182	0.406447
898.678492	0.405646
898.860783	0.405546
899.043057	0.405597
899.225312	0.405544
899.407549	0.404889
899.589768	0.404054
899.771968	0.404712
899.954151	0.404234
900.136315	0.403861
900.318461	0.404325
900.500588	0.404187
900.682698	0.404778
900.864789	0.404706
901.046862	0.404323
901.228917	0.404175
901.410953	0.403581
901.592971	0.402787
901.774972	0.402231
901.956953	0.401732
902.138917	0.401824
902.320862	0.401068
902.502790	0.400422
902.684699	0.400245
902.866589	0.399857
903.048462	0.398939
903.230316	0.399550
903.412152	0.399784
903.593970	0.399122
903.775770	0.398227
903.957551	0.397963
904.139314	0.397629
904.321059	0.397052
904.502786	0.396965
904.684494	0.397331
904.866185	0.396249
905.047857	0.395384
905.229510	0.394966
905.411146	0.394616
905.592763	0.393695
905.774363	0.393157
905.955943	0.392583
906.137506	0.392053
906.319051	0.391382
906.500577	0.391333
906.682085	0.391058
906.863575	0.391014
907.045046	0.390271
907.226500	0.389502
907.407935	0.388970
907.589352	0.388544
907.770750	0.387717
907.952131	0.387294
908.133493	0.386396
908.314837	0.385874
908.496163	0.385255
908.677470	0.385169
908.858760	0.385306
909.040031	0.384717
909.221284	0.384818
909.402518	0.384598
909.583735	0.383632
909.764933	0.383492
909.946113	0.382984
910.127275	0.382383
910.308418	0.382222
910.489544	0.381310
910.670651	0.381084
910.851740	0.380267
911.032810	0.379090
911.213863	0.378981
911.394897	0.378295
911.575913	0.377755
911.756911	0.377142
911.937890	0.375393
912.118851	0.374411
912.299794	0.373737
912.480719	0.372743
912.661626	0.372116
912.842514	0.371723
913.023384	0.370992
913.204236	0.370257
913.385070	0.369509
913.565886	0.369636
913.746683	0.369333
913.927462	0.368612
914.108223	0.368045
914.288965	0.367825
914.469690	0.366605
914.650396	0.365887
914.831084	0.365763
915.011754	0.365110
915.192405	0.364278
915.373038	0.363630
915.553653	0.362520
915.734250	0.361850
915.914829	0.361093
916.095389	0.360614
916.275931	0.360468
916.456455	0.359962
916.636961	0.359136
916.817448	0.358098
916.997917	0.357606
917.178368	0.357177
917.358801	0.356624
917.539216	0.355374
917.719612	0.354679
917.899990	0.353972
918.080350	0.353134
918.260692	0.352271
918.441015	0.351840
918.621320	0.351029
918.801607	0.350437
918.981876	0.349542
919.162127	0.349254
919.342359	0.348409
919.522573	0.346971
919.702769	0.345051
919.882947	0.344698
920.063106	0.343546
920.243247	0.342677
920.423370	0.341606
920.603475	0.340936
920.783562	0.340022
920.963630	0.339461
921.143680	0.339117
921.323712	0.338705
921.503725	0.338048
921.683721	0.337623
921.863698	0.336558
922.043657	0.336568
922.223598	0.335909
922.403520	0.334923
922.583424	0.333480
922.763311	0.332428
922.943178	0.331555
923.123028	0.329780
923.302859	0.328255
923.482673	0.326794
923.662467	0.325742
923.842244	0.324524
924.022003	0.324266
924.201743	0.323462
924.381465	0.321653
924.561169	0.320997
924.740854	0.321193
924.920522	0.320363
925.100171	0.320232
925.279802	0.319011
925.459414	0.317902
925.639009	0.316162
925.818585	0.315685
925.998143	0.315676
926.177683	0.314657
926.357205	0.313259
926.536708	0.312711
926.716193	0.311736
926.895660	0.310363
927.075109	0.309711
927.254539	0.308805
927.433951	0.307779
927.613345	0.306726
927.792721	0.305249
927.972079	0.303751
928.151418	0.302715
928.330739	0.300993
928.510042	0.300128
928.689327	0.299142
928.868593	0.298732
929.047841	0.297914
929.227071	0.296801
929.406283	0.296770
929.585476	0.296658
929.764652	0.295534
929.943809	0.295315
930.122948	0.294369
930.302068	0.293489
930.481171	0.291761
930.660255	0.289620
930.839321	0.288548
931.018369	0.286942
931.197398	0.285852
931.376409	0.284503
931.555402	0.283158
931.734377	0.282221
931.913334	0.280751
932.092272	0.279879
932.271192	0.279350
932.450094	0.278036
932.628978	0.276929
932.807844	0.274912
932.986691	0.274301
933.165520	0.273578
933.344331	0.271750
933.523123	0.270648
933.701898	0.269227
933.880654	0.268342
934.059392	0.267188
934.238111	0.265633
934.416813	0.264270
934.595496	0.262928
934.774161	0.261556
934.952808	0.260696
935.131437	0.259410
935.310047	0.258985
935.488639	0.257544
935.667213	0.256003
935.845769	0.256496
936.024306	0.256235
936.202825	0.255046
936.381326	0.253882
936.559809	0.253094
936.738274	0.250828
936.916720	0.249178
937.095148	0.248322
937.273558	0.247382
937.451950	0.244558
937.630323	0.242419
937.808678	0.241967
937.987015	0.241378
938.165334	0.241327
938.343635	0.242270
938.521917	0.241083
938.700181	0.239750
938.878427	0.238447
939.056655	0.238044
939.234864	0.237000
939.413055	0.234330
939.591228	0.232372
939.769383	0.229947
939.947519	0.227383
940.125638	0.226667
940.303738	0.225448
940.481820	0.224650
940.659883	0.223553
940.837929	0.223595
941.015956	0.223667
941.193965	0.223030
941.371955	0.221779
941.549928	0.221251
941.727882	0.219406
941.905818	0.219015
942.083736	0.218155
942.261636	0.216807
942.439517	0.215085
942.617380	0.212862
942.795225	0.211189
942.973052	0.210508
943.150860	0.208843
943.328651	0.208112
943.506423	0.206357
943.684176	0.204145
943.861912	0.202198
944.039629	0.199967
944.217328	0.198852
944.395009	0.197899
944.572672	0.194956
944.750317	0.193406
944.927943	0.192079
945.105551	0.189854
945.283141	0.188866
945.460712	0.187350
945.638265	0.188056
945.815801	0.186909
945.993317	0.184197
946.170816	0.183232
946.348297	0.183269
946.525759	0.180892
946.703203	0.180164
946.880629	0.179181
947.058036	0.177567
947.235425	0.175093
947.412797	0.173538
947.590149	0.173861
947.767484	0.173310
947.944800	0.171208
948.122099	0.170531
948.299379	0.168486
948.476640	0.167226
948.653884	0.168291
948.831109	0.166814
949.008316	0.165448
949.185505	0.161915
949.362676	0.159782
949.539828	0.158044
949.716962	0.156740
949.894078	0.156421
950.071176	0.155680
950.248256	0.152909
950.425317	0.151185
950.602360	0.151646
950.779385	0.152557
950.956391	0.151499
951.133380	0.149549
951.310350	0.147659
951.487302	0.146308
951.664235	0.144810
951.841151	0.144967
952.018048	0.144629
952.194927	0.141449
952.371788	0.140017
952.548631	0.139086
952.725455	0.139877
952.902261	0.139362
953.079049	0.138747
953.255819	0.137871
953.432570	0.134346
953.609303	0.133670
953.786018	0.132999
953.962715	0.130791
954.139394	0.131585
954.316054	0.129220
954.492696	0.127396
954.669320	0.125461
954.845926	0.122794
955.022513	0.123109
955.199083	0.119735
955.375634	0.118605
955.552166	0.117528
955.728681	0.115017
955.905177	0.114354
956.081655	0.114585
956.258115	0.111951
956.434557	0.112285
956.610980	0.111198
956.787385	0.111179
956.963772	0.111482
957.140141	0.111201
957.316492	0.110548
957.492824	0.109242
957.669138	0.106877
957.845434	0.107681
958.021712	0.104589
958.197971	0.104419
958.374212	0.104329
958.550435	0.103878
958.726640	0.101914
958.902826	0.100432
959.078995	0.098644
959.255145	0.099364
959.431277	0.100217
959.607390	0.099610
959.783486	0.096947
959.959563	0.097710
960.135622	0.095260
960.311662	0.097414
960.487685	0.098322
960.663689	0.099561
960.839675	0.098894
961.015643	0.098228
961.191593	0.099138
961.367524	0.099072
961.543437	0.095816
961.719332	0.095361
961.895209	0.093550
962.071067	0.091744
962.246907	0.088726
962.422730	0.089016
962.598533	0.084858
962.774319	0.084690
962.950086	0.085810
963.125835	0.086122
963.301566	0.085650
963.477279	0.087344
963.652973	0.085879
963.828650	0.089027
964.004308	0.089037
964.179947	0.093031
964.355569	0.092644
964.531172	0.091094
964.706757	0.091875
964.882324	0.092678
965.057873	0.090391
965.233403	0.092267
965.408916	0.088880
965.584410	0.086228
965.759885	0.085000
965.935343	0.084538
966.110782	0.083156
966.286203	0.082877
966.461606	0.081295
966.636991	0.080088
966.812357	0.078576
966.987705	0.079103
967.163035	0.078750
967.338347	0.077879
967.513641	0.078341
967.688916	0.078877
967.864173	0.079127
968.039412	0.079193
968.214632	0.078325
968.389835	0.078138
968.565019	0.079417
968.740185	0.081141
968.915333	0.080398
969.090462	0.079571
969.265573	0.080299
969.440667	0.078271
969.615741	0.079034
969.790798	0.081270
969.965836	0.081542
970.140856	0.078240
970.315858	0.077081
970.490842	0.077884
970.665808	0.077506
970.840755	0.075892
971.015684	0.076557
971.190595	0.074962
971.365487	0.074677
971.540362	0.074567
971.715218	0.077009
971.890056	0.077753
972.064875	0.077396
972.239677	0.078785
972.414460	0.079958
972.589225	0.080501
972.763972	0.080322
972.938700	0.082205
973.113411	0.082134
973.288103	0.080620
973.462777	0.079949
973.637432	0.081296
973.812070	0.080651
973.986689	0.078383
974.161290	0.079266
974.335873	0.081381
974.510437	0.078367
974.684984	0.074730
974.859512	0.074600
975.034022	0.074752
975.208513	0.073086
975.382987	0.072645
975.557442	0.073611
975.731879	0.073213
975.906298	0.072902
976.080698	0.073866
976.255080	0.078737
976.429445	0.079092
976.603790	0.079796
976.778118	0.080510
976.952427	0.080174
977.126719	0.083689
977.300992	0.081057
977.475246	0.082194
977.649483	0.082111
977.823701	0.079092
977.997901	0.079489
978.172083	0.078890
978.346247	0.078993
978.520392	0.080574
978.694519	0.079471
978.868628	0.080587
979.042719	0.077750
979.216791	0.077023
979.390845	0.076921
979.564882	0.075685
979.738899	0.075236
979.912899	0.074805
980.086880	0.073744
980.260843	0.071164
980.434788	0.071026
980.608715	0.071854
980.782623	0.073440
980.956514	0.074326
981.130386	0.076672
981.304240	0.075951
981.478075	0.075592
981.651892	0.075247
981.825692	0.076135
981.999472	0.076150
982.173235	0.076837
982.346980	0.075968
982.520706	0.077092
982.694414	0.075820
982.868104	0.076241
983.041775	0.076617
983.215428	0.078251
983.389064	0.077898
983.562680	0.078109
983.736279	0.078040
983.909860	0.078009
984.083422	0.075486
984.256966	0.077397
984.430491	0.076882
984.603999	0.075985
984.777488	0.075056
984.950959	0.076094
985.124412	0.077986
985.297847	0.077231
985.471263	0.077362
985.644661	0.079242
985.818041	0.076517
985.991403	0.078190
986.164747	0.078784
986.338072	0.078677
986.511379	0.076738
986.684668	0.076196
986.857938	0.077621
987.031191	0.076674
987.204425	0.078118
987.377641	0.078523
987.550839	0.077813
987.724018	0.077697
987.897179	0.079336
988.070322	0.080186
988.243447	0.077714
988.416554	0.075617
988.589642	0.077276
988.762712	0.076367
988.935764	0.076221
989.108798	0.075898
989.281813	0.077149
989.454811	0.077021
989.627790	0.077574
989.800751	0.079945
989.973693	0.081835
990.146617	0.080075
990.319524	0.079661
990.492412	0.080329
990.665281	0.079180
990.838133	0.078360
991.010966	0.077471
991.183781	0.076712
991.356578	0.074069
991.529356	0.072788
991.702117	0.073146
991.874859	0.073505
992.047583	0.073011
992.220288	0.073913
992.392976	0.072840
992.565645	0.072327
992.738296	0.074580
992.910929	0.076819
993.083543	0.078274
993.256139	0.078358
993.428718	0.079344
993.601277	0.079933
993.773819	0.079453
993.946342	0.079590
994.118848	0.079607
994.291335	0.078641
994.463803	0.078957
994.636254	0.079716
994.808686	0.079446
994.981100	0.078433
995.153496	0.079240
995.325874	0.079458
995.498233	0.080178
995.670574	0.079747
995.842897	0.078815
996.015202	0.079439
996.187488	0.077751
996.359757	0.077126
996.532007	0.077033
996.704239	0.076330
996.876452	0.078059
997.048648	0.077847
997.220825	0.077911
997.392984	0.077971
997.565124	0.074516
997.737247	0.074599
997.909351	0.074866
998.081437	0.074511
998.253505	0.074603
998.425554	0.075450
998.597586	0.075600
998.769599	0.076658
998.941594	0.076761
999.113571	0.078951
999.285529	0.079004
999.457469	0.081712
999.629391	0.081127
999.801295	0.083696
999.973181	0.080648
1000.145048	0.080889
1000.316897	0.079701
1000.488728	0.078204
1000.660541	0.077614
1000.832335	0.078198
1001.004111	0.075469
1001.175869	0.076556
1001.347609	0.074898
1001.519331	0.074754
1001.691034	0.073564
1001.862719	0.072352
1002.034386	0.075303
1002.206035	0.075211
1002.377665	0.075697
1002.549277	0.077307
1002.720871	0.076815
1002.892447	0.077454
1003.064004	0.077617
1003.235544	0.080474
1003.407065	0.082121
1003.578568	0.080428
1003.750052	0.080286
1003.921519	0.079259
1004.092967	0.079194
1004.264397	0.078032
1004.435809	0.076377
1004.607202	0.077053
1004.778577	0.075247
1004.949934	0.074360
1005.121273	0.074250
1005.292594	0.073476
1005.463896	0.072809
1005.635180	0.071904
1005.806446	0.073820
1005.977694	0.073426
1006.148923	0.073129
1006.320135	0.072817
1006.491328	0.073239
1006.662503	0.073174
1006.833659	0.073291
1007.004798	0.073446
1007.175918	0.076053
1007.347020	0.076324
1007.518103	0.077695
1007.689169	0.078059
1007.860216	0.076853
1008.031245	0.077578
1008.202256	0.077413
1008.373248	0.078629
1008.544223	0.078055
1008.715179	0.076225
1008.886117	0.075876
1009.057036	0.074427
1009.227938	0.075965
1009.398821	0.078084
1009.569686	0.077169
1009.740533	0.077631
1009.911361	0.077963
1010.082172	0.080529
1010.252964	0.078451
1010.423738	0.077101
1010.594493	0.078433
1010.765231	0.077498
1010.935950	0.076882
1011.106651	0.077582
1011.277334	0.076194
1011.447998	0.076170
1011.618645	0.074650
1011.789273	0.076499
1011.959882	0.078326
1012.130474	0.076360
1012.301048	0.076208
1012.471603	0.075903
1012.642140	0.076078
1012.812658	0.078062
1012.983159	0.077272
1013.153641	0.075541
1013.324105	0.075136
1013.494551	0.074061
1013.664979	0.075755
1013.835388	0.076334
1014.005779	0.077302
1014.176152	0.076204
1014.346507	0.076361
1014.516843	0.076667
1014.687162	0.077326
1014.857462	0.077407
1015.027744	0.077163
1015.198007	0.078835
1015.368252	0.078812
1015.538480	0.077030
1015.708689	0.079703
1015.878879	0.078289
1016.049052	0.077881
1016.219206	0.078749
1016.389342	0.078059
1016.559460	0.078445
1016.729559	0.076206
1016.899641	0.075614
1017.069704	0.078964
1017.239749	0.076572
1017.409775	0.076079
1017.579784	0.076397
1017.749774	0.076527
1017.919746	0.077338
1018.089700	0.076785
1018.259635	0.076635
1018.429553	0.077305
1018.599452	0.075398
1018.769333	0.074865
1018.939195	0.075619
1019.109040	0.074652
1019.278866	0.073374
1019.448674	0.072780
1019.618464	0.073922
1019.788235	0.074797
1019.957989	0.074703
1020.127724	0.072644
1020.297441	0.074018
1020.467139	0.074748
1020.636820	0.076468
1020.806482	0.077676
1020.976126	0.077566
1021.145752	0.078067
1021.315359	0.075875
1021.484948	0.074846
1021.654519	0.077971
1021.824072	0.075482
1021.993607	0.075982
1022.163123	0.075473
1022.332621	0.075153
1022.502101	0.076180
1022.671563	0.073344
1022.841007	0.075321
1023.010432	0.074495
1023.179839	0.073415
1023.349228	0.075477
1023.518598	0.075347
1023.687951	0.074289
1023.857285	0.076950
1024.026601	0.075193
1024.195899	0.077475
1024.365178	0.077149
1024.534439	0.076842
1024.703682	0.076374
1024.872907	0.074951
1025.042114	0.074064
1025.211302	0.073569
1025.380472	0.069981
1025.549624	0.070850
1025.718758	0.070300
1025.887873	0.069367
1026.056970	0.071592
1026.226049	0.071921
1026.395110	0.074086
1026.564153	0.075059
1026.733177	0.077289
1026.902183	0.079315
1027.071171	0.078493
1027.240141	0.077885
1027.409092	0.077227
1027.578026	0.076666
1027.746940	0.076743
1027.915837	0.077164
1028.084716	0.076255
1028.253576	0.073371
1028.422418	0.072464
1028.591242	0.074225
1028.760048	0.076235
1028.928835	0.078859
1029.097604	0.078332
1029.266355	0.080476
1029.435088	0.080096
1029.603803	0.079770
1029.772499	0.081599
1029.941177	0.080747
1030.109837	0.079236
1030.278478	0.078639
1030.447102	0.078953
1030.615707	0.078854
1030.784294	0.076423
1030.952863	0.076569
1031.121413	0.077931
1031.289945	0.078144
1031.458460	0.077705
1031.626955	0.078538
1031.795433	0.078223
1031.963892	0.077509
1032.132334	0.078108
1032.300756	0.077406
1032.469161	0.076015
1032.637548	0.074250
1032.805916	0.074958
1032.974266	0.075772
1033.142598	0.076376
1033.310911	0.077181
1033.479207	0.076715
1033.647484	0.077145
1033.815743	0.077192
1033.983983	0.077438
1034.152206	0.078798
1034.320410	0.077788
1034.488596	0.079323
1034.656764	0.078192
1034.824914	0.075586
1034.993045	0.075034
1035.161158	0.074185
1035.329253	0.074831
1035.497330	0.073792
1035.665388	0.072480
1035.833428	0.071230
1036.001450	0.068739
1036.169454	0.067564
1036.337440	0.069585
1036.505407	0.068914
1036.673356	0.068985
1036.841287	0.067654
1037.009200	0.068465
1037.177094	0.070281
1037.344970	0.071318
1037.512828	0.071929
1037.680668	0.073420
1037.848489	0.073862
1038.016293	0.077565
1038.184078	0.077537
1038.351845	0.079188
1038.519593	0.079150
1038.687324	0.078397
1038.855036	0.078031
1039.022730	0.078632
1039.190406	0.077848
1039.358063	0.076834
1039.525702	0.074417
1039.693323	0.075244
1039.860926	0.074257
1040.028511	0.073756
1040.196077	0.074843
1040.363625	0.075989
1040.531155	0.075485
1040.698667	0.075400
1040.866161	0.075400
1041.033636	0.076032
1041.201093	0.076330
1041.368532	0.077560
1041.535952	0.079901
1041.703355	0.078974
1041.870739	0.077213
1042.038105	0.078639
1042.205452	0.079022
1042.372782	0.078027
1042.540093	0.076888
1042.707386	0.075887
1042.874661	0.077071
1043.041918	0.075252
1043.209156	0.075546
1043.376376	0.076708
1043.543578	0.076901
1043.710762	0.076728
1043.877927	0.075267
1044.045074	0.075183
1044.212203	0.075062
1044.379314	0.072969
1044.546407	0.073991
1044.713481	0.074815
1044.880537	0.073455
1045.047575	0.072851
1045.214595	0.073968
1045.381596	0.076692
1045.548579	0.077240
1045.715544	0.076127
1045.882491	0.076257
1046.049420	0.075334
1046.216330	0.074512
1046.383222	0.075957
1046.550096	0.074652
1046.716951	0.074942
1046.883789	0.075577
1047.050608	0.075579
1047.217409	0.075857
1047.384192	0.076126
1047.550956	0.075772
1047.717703	0.076628
1047.884431	0.078783
1048.051140	0.081205
1048.217832	0.080010
1048.384505	0.079633
1048.551161	0.080460
1048.717798	0.082597
1048.884416	0.082888
1049.051017	0.084319
1049.217599	0.081970
1049.384163	0.080269
1049.550709	0.079688
1049.717237	0.082762
1049.883746	0.083223
1050.050237	0.082645
1050.216710	0.079686
1050.383165	0.080097
1050.549601	0.080003
1050.716019	0.081149
1050.882420	0.080297
1051.048801	0.078862
1051.215165	0.075953
1051.381510	0.074909
1051.547837	0.074218
1051.714146	0.075021
1051.880437	0.073689
1052.046709	0.074124
1052.212964	0.075636
1052.379200	0.075789
1052.545417	0.078005
1052.711617	0.077993
1052.877798	0.077218
1053.043961	0.076416
1053.210106	0.078103
1053.376233	0.078946
1053.542341	0.078289
1053.708432	0.076203
1053.874504	0.077476
1054.040557	0.075035
1054.206593	0.073450
1054.372610	0.073099
1054.538609	0.075474
1054.704590	0.074043
1054.870553	0.074311
1055.036497	0.073771
1055.202424	0.072801
1055.368331	0.071491
1055.534221	0.073937
1055.700093	0.076108
1055.865946	0.077546
1056.031781	0.076040
1056.197598	0.076632
1056.363397	0.076959
1056.529177	0.077330
1056.694939	0.077175
1056.860683	0.079051
1057.026409	0.078794
1057.192116	0.080168
1057.357806	0.080509
1057.523477	0.081406
1057.689130	0.081773
1057.854764	0.080944
1058.020381	0.079092
1058.185979	0.080705
1058.351559	0.079278
1058.517120	0.076341
1058.682664	0.074408
1058.848189	0.073157
1059.013696	0.072914
1059.179185	0.070958
1059.344656	0.070197
1059.510108	0.070470
1059.675542	0.071013
1059.840958	0.070027
1060.006356	0.071592
1060.171735	0.071965
1060.337096	0.073530
1060.502439	0.074428
1060.667764	0.074398
1060.833071	0.075764
1060.998359	0.078457
1061.163629	0.079135
1061.328881	0.080936
1061.494115	0.082449
1061.659330	0.083073
1061.824527	0.082041
1061.989706	0.079546
1062.154867	0.083527
1062.320010	0.082442
1062.485134	0.080700
1062.650240	0.080601
1062.815328	0.082100
1062.980398	0.081596
1063.145449	0.081221
1063.310482	0.082953
1063.475497	0.083450
1063.640494	0.081489
1063.805473	0.082295
1063.970433	0.083105
1064.135375	0.081530
1064.300299	0.081173
1064.465204	0.081132
1064.630092	0.079716
1064.794961	0.079651
1064.959812	0.079751
1065.124645	0.082660
1065.289459	0.081272
1065.454256	0.078808
1065.619034	0.079571
1065.783793	0.077683
1065.948535	0.076045
1066.113258	0.076021
1066.277964	0.073532
1066.442651	0.073737
1066.607319	0.071805
1066.771970	0.073508
1066.936602	0.077220
1067.101216	0.076910
1067.265812	0.077125
1067.430389	0.077528
1067.594949	0.078664
1067.759490	0.080049
1067.924013	0.081972
1068.088518	0.081028
1068.253004	0.080621
1068.417472	0.081311
1068.581922	0.081634
1068.746354	0.083279
1068.910768	0.082491
1069.075163	0.082628
1069.239540	0.081327
1069.403899	0.079509
1069.568240	0.080414
1069.732562	0.083359
1069.896866	0.081597
1070.061152	0.082483
1070.225420	0.080931
1070.389670	0.081439
1070.553901	0.084062
1070.718114	0.085380
1070.882309	0.084491
1071.046486	0.083327
1071.210644	0.080322
1071.374784	0.079262
1071.538906	0.079531
1071.703010	0.079986
1071.867096	0.080809
1072.031163	0.080100
1072.195212	0.078597
1072.359243	0.078017
1072.523256	0.080911
1072.687250	0.083527
1072.851226	0.084744
1073.015184	0.082010
1073.179124	0.083286
1073.343045	0.084537
1073.506949	0.082437
1073.670834	0.084908
1073.834701	0.086852
1073.998549	0.085378
1074.162380	0.083453
1074.326192	0.083157
1074.489986	0.084453
1074.653761	0.083121
1074.817519	0.084681
1074.981258	0.086015
1075.144979	0.085702
1075.308682	0.086814
1075.472367	0.084861
1075.636033	0.083677
1075.799681	0.083759
1075.963311	0.084923
1076.126923	0.084550
1076.290516	0.083608
1076.454092	0.084197
1076.617649	0.084084
1076.781187	0.085467
1076.944708	0.088155
1077.108210	0.089348
1077.271695	0.087126
1077.435160	0.087682
1077.598608	0.089402
1077.762038	0.089751
1077.925449	0.090654
1078.088842	0.091804
1078.252217	0.087863
1078.415573	0.089224
1078.578912	0.089261
1078.742232	0.092304
1078.905534	0.092449
1079.068817	0.092821
1079.232083	0.092121
1079.395330	0.090633
1079.558559	0.091124
1079.721770	0.093809
1079.884962	0.092651
1080.048136	0.094236
1080.211293	0.095363
1080.374430	0.093469
1080.537550	0.094080
1080.700651	0.093925
1080.863735	0.094061
1081.026800	0.093362
1081.189846	0.093059
1081.352875	0.090546
1081.515885	0.090332
1081.678877	0.089271
1081.841851	0.090865
1082.004807	0.089801
1082.167744	0.090346
1082.330663	0.090449
1082.493564	0.089725
1082.656447	0.091402
1082.819312	0.091274
1082.982158	0.089591
1083.144986	0.089624
1083.307796	0.089511
1083.470587	0.086971
1083.633361	0.087712
1083.796116	0.086691
1083.958853	0.088251
1084.121571	0.085966
1084.284272	0.086207
1084.446954	0.087824
1084.609618	0.086546
1084.772264	0.083986
1084.934892	0.085699
1085.097501	0.085062
1085.260092	0.085322
1085.422665	0.084091
1085.585220	0.086067
1085.747756	0.085872
1085.910274	0.084275
1086.072774	0.083179
1086.235256	0.086205
1086.397720	0.086366
1086.560165	0.084288
1086.722592	0.084564
1086.885001	0.086407
1087.047392	0.088704
1087.209764	0.089614
1087.372119	0.090808
1087.534455	0.093086
1087.696772	0.093110
1087.859072	0.093729
1088.021353	0.093248
1088.183616	0.095184
1088.345861	0.093480
1088.508088	0.089587
1088.670296	0.090160
1088.832486	0.093479
1088.994658	0.095053
1089.156812	0.096166
1089.318948	0.098102
1089.481065	0.099976
1089.643164	0.098390
1089.805245	0.099731
1089.967308	0.101253
1090.129352	0.102976
1090.291378	0.101533
1090.453386	0.100149
1090.615376	0.096171
1090.777347	0.094377
1090.939301	0.094452
1091.101236	0.094568
1091.263153	0.091772
1091.425051	0.093906
1091.586932	0.092543
1091.748794	0.090867
1091.910638	0.090992
1092.072463	0.095278
1092.234271	0.093784
1092.396060	0.095844
1092.557831	0.097956
1092.719584	0.098757
1092.881319	0.096648
1093.043035	0.099101
1093.204733	0.100291
1093.366413	0.097816
1093.528075	0.098332
1093.689718	0.097353
1093.851343	0.097980
1094.012950	0.094474
1094.174539	0.093478
1094.336110	0.092567
1094.497662	0.087414
1094.659196	0.086966
1094.820712	0.092982
1094.982210	0.091050
1095.143689	0.095256
1095.305151	0.090613
1095.466594	0.094724
1095.628018	0.096502
1095.789425	0.097546
1095.950813	0.100361
1096.112183	0.098124
1096.273535	0.094353
1096.434869	0.096767
1096.596184	0.095774
1096.757482	0.099114
1096.918761	0.096382
1097.080021	0.095974
1097.241264	0.096212
1097.402488	0.100528
1097.563694	0.103309
1097.724882	0.104224
1097.886052	0.102635
1098.047203	0.102935
1098.208336	0.105413
1098.369451	0.105354
1098.530548	0.108014
1098.691627	0.112461
1098.852687	0.110354
1099.013729	0.106730
1099.174753	0.106692
1099.335758	0.109265
1099.496746	0.108792
1099.657715	0.106672
1099.818666	0.108805
1099.979599	0.109460
1100.140513	0.103966
1100.301409	0.101811
1100.462287	0.106235
1100.623147	0.105826
1100.783989	0.102498
1100.944812	0.099704
1101.105617	0.100150
1101.266404	0.098896
1101.427173	0.096301
1101.587923	0.099373
1101.748656	0.099602
1101.909370	0.096739
1102.070066	0.097048
1102.230743	0.095271
1102.391403	0.098928
1102.552044	0.097446
1102.712667	0.097915
1102.873271	0.097966
1103.033858	0.099173
1103.194426	0.095910
1103.354976	0.094234
1103.515508	0.091745
1103.676021	0.095048
1103.836517	0.092522
1103.996994	0.090117
1104.157453	0.089467
1104.317893	0.089440
1104.478316	0.087275
1104.638720	0.090939
1104.799106	0.094953
1104.959474	0.098133
1105.119823	0.101221
1105.280155	0.104083
1105.440468	0.110768
1105.600763	0.112106
1105.761039	0.114025
1105.921298	0.111394
1106.081538	0.114197
1106.241760	0.114257
1106.401964	0.116278
1106.562149	0.110042
1106.722316	0.108717
1106.882465	0.108062
1107.042596	0.109419
1107.202709	0.107518
1107.362803	0.104639
1107.522879	0.099818
1107.682937	0.100400
1107.842977	0.099592
1108.002999	0.099414
1108.163002	0.097141
1108.322987	0.092344
1108.482954	0.091761
1108.642902	0.093520
1108.802833	0.096842
1108.962745	0.099896
1109.122639	0.103516
1109.282515	0.101187
1109.442372	0.101489
1109.602211	0.105028
1109.762032	0.109648
1109.921835	0.111779
1110.081620	0.109383
1110.241386	0.116359
1110.401134	0.115587
1110.560864	0.109279
1110.720576	0.114098
1110.880269	0.116589
1111.039945	0.118119
1111.199602	0.120560
1111.359240	0.116188
1111.518861	0.117564
1111.678463	0.114085
1111.838047	0.116380
1111.997613	0.120390
1112.157161	0.120723
1112.316690	0.121271
1112.476202	0.123801
1112.635695	0.120160
1112.795169	0.121644
1112.954626	0.120452
1113.114064	0.114413
1113.273484	0.113044
1113.432886	0.108237
1113.592270	0.107718
1113.751635	0.108427
1113.910983	0.110207
1114.070312	0.108517
1114.229622	0.112101
1114.388915	0.115930
1114.548189	0.120047
1114.707445	0.119556
1114.866683	0.119356
1115.025903	0.116502
1115.185104	0.113005
1115.344287	0.108488
1115.503452	0.114586
1115.662599	0.109943
1115.821727	0.106080
1115.980838	0.113489
1116.139930	0.117197
1116.299004	0.124610
1116.458059	0.129856
1116.617097	0.132290
1116.776116	0.132350
1116.935117	0.125359
1117.094099	0.125145
1117.253064	0.127144
1117.412010	0.121182
1117.570938	0.114848
1117.729848	0.110509
1117.888740	0.109674
1118.047613	0.107137
1118.206468	0.103128
1118.365305	0.107620
1118.524124	0.109175
1118.682924	0.114605
1118.841707	0.116061
1119.000471	0.115928
1119.159216	0.119267
1119.317944	0.115146
1119.476653	0.116188
1119.635344	0.119629
1119.794017	0.113241
1119.952672	0.117435
1120.111308	0.112169
1120.269927	0.108998
1120.428527	0.109439
1120.587108	0.108120
1120.745672	0.108458
1120.904217	0.109346
1121.062744	0.106447
1121.221253	0.116061
1121.379744	0.113015
1121.538216	0.112331
1121.696671	0.109790
1121.855107	0.116303
1122.013524	0.120134
1122.171924	0.120222
1122.330305	0.126185
1122.488668	0.127133
1122.647013	0.125998
1122.805340	0.126170
1122.963648	0.127759
1123.121938	0.133196
1123.280210	0.130984
1123.438464	0.124778
1123.596700	0.127205
1123.754917	0.125735
1123.913116	0.129038
1124.071297	0.131811
1124.229459	0.126953
1124.387604	0.125725
1124.545730	0.124368
1124.703838	0.123797
1124.861928	0.122853
1125.019999	0.123777
1125.178052	0.121566
1125.336088	0.121248
1125.494104	0.114481
1125.652103	0.120099
1125.810083	0.122940
1125.968045	0.123934
1126.125989	0.121088
1126.283915	0.121022
1126.441823	0.121228
1126.599712	0.124750
1126.757583	0.126190
1126.915436	0.128419
1127.073270	0.126030
1127.231087	0.127468
1127.388885	0.127747
1127.546665	0.131181
1127.704426	0.132321
1127.862170	0.128044
1128.019895	0.123364
1128.177602	0.122874
1128.335291	0.121415
1128.492961	0.120781
1128.650614	0.117050
1128.808248	0.113028
1128.965864	0.115332
1129.123461	0.112582
1129.281041	0.114932
1129.438602	0.117893
1129.596145	0.114948
1129.753670	0.111097
1129.911176	0.106664
1130.068665	0.109431
1130.226135	0.116433
1130.383587	0.115330
1130.541020	0.127877
1130.698436	0.130535
1130.855833	0.133836
1131.013212	0.136063
1131.170573	0.139726
1131.327915	0.149761
1131.485239	0.146720
1131.642545	0.151428
1131.799833	0.151160
1131.957103	0.141941
1132.114354	0.140591
1132.271588	0.134242
1132.428803	0.132466
1132.585999	0.130189
1132.743178	0.128752
1132.900338	0.127857
1133.057480	0.123262
1133.214604	0.116882
1133.371710	0.117583
1133.528797	0.114178
1133.685866	0.112436
1133.842917	0.114886
1133.999950	0.123063
1134.156964	0.124145
1134.313960	0.129870
1134.470938	0.120852
1134.627898	0.127546
1134.784840	0.130863
1134.941763	0.129829
1135.098668	0.138392
1135.255555	0.136420
1135.412424	0.136654
1135.569274	0.136625
1135.726107	0.127868
1135.882921	0.137771
1136.039716	0.132227
1136.196494	0.131119
1136.353253	0.141922
1136.509995	0.137225
1136.666717	0.140105
1136.823422	0.139470
1136.980109	0.138281
1137.136777	0.138616
1137.293427	0.133011
1137.450059	0.134453
1137.606672	0.133812
1137.763267	0.135297
1137.919844	0.134144
1138.076403	0.131785
1138.232944	0.125240
1138.389466	0.125545
1138.545971	0.134843
1138.702457	0.130610
1138.858924	0.139534
1139.015374	0.135033
1139.171805	0.120704
1139.328218	0.126579
1139.484613	0.131261
1139.640990	0.133344
1139.797348	0.126028
1139.953688	0.127125
1140.110010	0.133138
1140.266314	0.132477
1140.422600	0.138215
1140.578867	0.143014
1140.735116	0.146285
1140.891347	0.140989
1141.047559	0.142295
1141.203754	0.147241
1141.359930	0.142539
1141.516088	0.139134
1141.672228	0.135773
1141.828349	0.136410
1141.984452	0.140247
1142.140537	0.134094
1142.296604	0.139808
1142.452653	0.135190
1142.608683	0.137331
1142.764695	0.128947
1142.920689	0.135820
1143.076665	0.135773
1143.232622	0.133320
1143.388562	0.128482
1143.544483	0.123529
1143.700385	0.116018
1143.856270	0.119115
1144.012136	0.126129
1144.167985	0.129868
1144.323814	0.125616
1144.479626	0.127945
1144.635420	0.128699
1144.791195	0.127881
1144.946952	0.134492
1145.102691	0.142918
1145.258411	0.147819
1145.414113	0.141991
1145.569798	0.142943
1145.725463	0.139128
1145.881111	0.137194
1146.036741	0.135058
1146.192352	0.137382
1146.347945	0.143646
1146.503519	0.144181
1146.659076	0.145931
1146.814614	0.141952
1146.970134	0.142988
1147.125636	0.144790
1147.281120	0.140814
1147.436585	0.140157
1147.592032	0.145434
1147.747461	0.134839
1147.902872	0.127365
1148.058265	0.117149
1148.213639	0.118966
1148.368995	0.126382
1148.524333	0.133821
1148.679653	0.137445
1148.834954	0.134236
1148.990237	0.134233
1149.145502	0.130081
1149.300749	0.136713
1149.455977	0.139912
1149.611188	0.142244
1149.766380	0.140022
1149.921553	0.136741
1150.076709	0.132863
1150.231846	0.131433
1150.386966	0.130434
1150.542066	0.137569
1150.697149	0.131674
1150.852214	0.137744
1151.007260	0.141701
1151.162288	0.142628
1151.317298	0.142006
1151.472289	0.143979
1151.627263	0.155379
1151.782218	0.157154
1151.937155	0.166600
1152.092073	0.177728
1152.246974	0.170783
1152.401856	0.170886
1152.556720	0.159100
1152.711566	0.166414
1152.866393	0.161804
1153.021203	0.159471
1153.175994	0.144642
1153.330767	0.132216
1153.485521	0.120695
1153.640258	0.112898
1153.794976	0.108399
1153.949676	0.114259
1154.104358	0.107853
1154.259021	0.120119
1154.413667	0.117723
1154.568294	0.119971
1154.722903	0.128119
1154.877493	0.132850
1155.032066	0.137240
1155.186620	0.133997
1155.341156	0.140335
1155.495674	0.141810
1155.650173	0.125075
1155.804654	0.133374
1155.959118	0.145782
1156.113562	0.136668
1156.267989	0.147963
1156.422397	0.151999
1156.576788	0.149123
1156.731160	0.134843
1156.885513	0.123213
1157.039849	0.132531
1157.194166	0.121737
1157.348465	0.117148
1157.502746	0.122586
1157.657009	0.105037
1157.811253	0.114764
1157.965479	0.113626
1158.119687	0.124846
1158.273877	0.141430
1158.428048	0.139261
1158.582201	0.145542
1158.736337	0.145531
1158.890453	0.141662
1159.044552	0.148333
1159.198632	0.142715
1159.352694	0.142552
1159.506738	0.135583
1159.660764	0.132638
1159.814771	0.126485
1159.968761	0.125371
1160.122732	0.124533
1160.276685	0.122995
1160.430619	0.128039
1160.584535	0.127468
1160.738434	0.135621
1160.892313	0.142453
1161.046175	0.140733
1161.200019	0.142733
1161.353844	0.137914
1161.507651	0.138280
1161.661440	0.147750
1161.815210	0.145151
1161.968962	0.139254
1162.122697	0.143021
1162.276412	0.153290
1162.430110	0.144661
1162.583789	0.156909
1162.737451	0.158322
1162.891094	0.151181
1163.044718	0.142406
1163.198325	0.134394
1163.351913	0.124560
1163.505483	0.127158
1163.659035	0.115841
1163.812569	0.116138
1163.966084	0.105621
1164.119581	0.106799
1164.273060	0.109166
1164.426521	0.103570
1164.579964	0.116145
1164.733388	0.129341
1164.886794	0.119430
1165.040182	0.111030
1165.193551	0.118839
1165.346903	0.131763
1165.500236	0.126983
1165.653551	0.147566
1165.806848	0.153674
1165.960126	0.131268
1166.113386	0.131879
1166.266628	0.135363
1166.419852	0.143160
1166.573058	0.144671
1166.726245	0.140563
1166.879414	0.143186
1167.032565	0.133437
1167.185698	0.141981
1167.338812	0.157681
1167.491909	0.149072
1167.644987	0.145419
1167.798046	0.148503
1167.951088	0.139052
1168.104111	0.131609
1168.257117	0.139994
1168.410103	0.125554
1168.563072	0.116556
1168.716023	0.119144
1168.868955	0.131883
1169.021869	0.137559
1169.174765	0.139963
1169.327642	0.141954
1169.480501	0.152482
1169.633343	0.153475
1169.786165	0.161260
1169.938970	0.158328
1170.091757	0.160291
1170.244525	0.140643
1170.397275	0.138997
1170.550007	0.135987
1170.702720	0.134324
1170.855415	0.142002
1171.008092	0.144820
1171.160751	0.157271
1171.313392	0.174143
1171.466014	0.293883
1171.618619	0.254077
1171.771205	0.254077
1171.923772	0.254077
