sample name	sample
index	849
start time	 04-08-2021  10:42:22 AM


Wavelength (nm)	Absorbance
494.344910	-0.076490
494.563924	-0.076490
494.782919	-0.076490
495.001897	-0.028717
495.220856	-0.037043
495.439797	-0.043823
495.658719	-0.030169
495.877624	-0.015875
496.096510	-0.018777
496.315378	-0.017811
496.534227	-0.011524
496.753059	-0.010403
496.971872	-0.010009
497.190667	0.044598
497.409444	0.066019
497.628203	0.073749
497.846943	0.075265
498.065665	0.076706
498.284369	0.078007
498.503055	0.078817
498.721723	0.080559
498.940372	0.081412
499.159003	0.080908
499.377616	0.081019
499.596210	0.080603
499.814787	0.081299
500.033345	0.081670
500.251885	0.081861
500.470406	0.081829
500.688910	0.081601
500.907395	0.082227
501.125862	0.082879
501.344311	0.083281
501.562742	0.082849
501.781154	0.082502
501.999548	0.084118
502.217924	0.083803
502.436282	0.084148
502.654621	0.083910
502.872942	0.083210
503.091245	0.083387
503.309530	0.084215
503.527797	0.084690
503.746045	0.084467
503.964275	0.084283
504.182487	0.083808
504.400681	0.084045
504.618856	0.084267
504.837013	0.084763
505.055152	0.085550
505.273273	0.085647
505.491376	0.085023
505.709460	0.085317
505.927526	0.084465
506.145574	0.085014
506.363604	0.084912
506.581615	0.084945
506.799608	0.085136
507.017583	0.084861
507.235540	0.084164
507.453478	0.084673
507.671399	0.085228
507.889301	0.086235
508.107185	0.087332
508.325050	0.087620
508.542898	0.087455
508.760727	0.087407
508.978538	0.087455
509.196330	0.087977
509.414105	0.088370
509.631861	0.088642
509.849599	0.088175
510.067319	0.087453
510.285021	0.086878
510.502704	0.086671
510.720369	0.086662
510.938016	0.086270
511.155645	0.086092
511.373255	0.086220
511.590848	0.086185
511.808422	0.086848
512.025977	0.086917
512.243515	0.088021
512.461034	0.088721
512.678536	0.088775
512.896018	0.089785
513.113483	0.090583
513.330930	0.090778
513.548358	0.090628
513.765768	0.090452
513.983160	0.090185
514.200533	0.089793
514.417889	0.090169
514.635226	0.090438
514.852545	0.090423
515.069845	0.090526
515.287128	0.090842
515.504392	0.091600
515.721638	0.092191
515.938866	0.092960
516.156075	0.092869
516.373267	0.092933
516.590440	0.093393
516.807594	0.093853
517.024731	0.094223
517.241850	0.094261
517.458950	0.094230
517.676032	0.093975
517.893095	0.094634
518.110141	0.095063
518.327168	0.095519
518.544177	0.096029
518.761168	0.096167
518.978141	0.096370
519.195095	0.096874
519.412031	0.097411
519.628949	0.097589
519.845849	0.098011
520.062731	0.098118
520.279594	0.098406
520.496439	0.098626
520.713266	0.098306
520.930074	0.098533
521.146865	0.098398
521.363637	0.098108
521.580391	0.098387
521.797127	0.098652
522.013844	0.099641
522.230543	0.100249
522.447224	0.100261
522.663887	0.100944
522.880532	0.100856
523.097158	0.101921
523.313766	0.102907
523.530356	0.103452
523.746928	0.103251
523.963481	0.103722
524.180017	0.103092
524.396534	0.103408
524.613032	0.104234
524.829513	0.104280
525.045975	0.104132
525.262420	0.104763
525.478845	0.104847
525.695253	0.105654
525.911643	0.105915
526.128014	0.106998
526.344367	0.106752
526.560702	0.106470
526.777018	0.107141
526.993316	0.107439
527.209597	0.107509
527.425858	0.107540
527.642102	0.107641
527.858328	0.108204
528.074535	0.108355
528.290724	0.108996
528.506894	0.109629
528.723047	0.109899
528.939181	0.109960
529.155297	0.109827
529.371395	0.110201
529.587475	0.110827
529.803536	0.110853
530.019579	0.110914
530.235604	0.111328
530.451611	0.111067
530.667600	0.111429
530.883570	0.111604
531.099522	0.111965
531.315456	0.112846
531.531372	0.113502
531.747269	0.113284
531.963148	0.113795
532.179009	0.114715
532.394852	0.115869
532.610676	0.115846
532.826482	0.116534
533.042271	0.116769
533.258040	0.116992
533.473792	0.116736
533.689525	0.117695
533.905240	0.118206
534.120937	0.118318
534.336616	0.118011
534.552277	0.118816
534.767919	0.119252
534.983543	0.119249
535.199149	0.119238
535.414736	0.119336
535.630306	0.119475
535.845857	0.119938
536.061390	0.119885
536.276904	0.120421
536.492401	0.121020
536.707879	0.121822
536.923339	0.122485
537.138781	0.122618
537.354204	0.122945
537.569610	0.122624
537.784997	0.122808
538.000366	0.123046
538.215716	0.123388
538.431049	0.122978
538.646363	0.122313
538.861659	0.122545
539.076937	0.123459
539.292196	0.123691
539.507438	0.124341
539.722661	0.124630
539.937866	0.124986
540.153052	0.125363
540.368221	0.125605
540.583371	0.126525
540.798503	0.127678
541.013617	0.127004
541.228712	0.127183
541.443789	0.127521
541.658848	0.127731
541.873889	0.128186
542.088912	0.128444
542.303916	0.128726
542.518902	0.128650
542.733870	0.127991
542.948820	0.128793
543.163752	0.129560
543.378665	0.129779
543.593560	0.129953
543.808437	0.130088
544.023295	0.130036
544.238136	0.130040
544.452958	0.130485
544.667762	0.131100
544.882548	0.131198
545.097315	0.131374
545.312064	0.131894
545.526795	0.132500
545.741508	0.133109
545.956203	0.133736
546.170879	0.134674
546.385537	0.134809
546.600177	0.134834
546.814799	0.135163
547.029402	0.135497
547.243988	0.135723
547.458555	0.136181
547.673103	0.136491
547.887634	0.136408
548.102146	0.136752
548.316640	0.136991
548.531116	0.137545
548.745574	0.137572
548.960013	0.137451
549.174435	0.137629
549.388838	0.137324
549.603222	0.137418
549.817589	0.137661
550.031937	0.138009
550.246267	0.138471
550.460579	0.138381
550.674873	0.139083
550.889148	0.139283
551.103405	0.139454
551.317644	0.139828
551.531865	0.140019
551.746068	0.140670
551.960252	0.140595
552.174418	0.140578
552.388566	0.140771
552.602696	0.140674
552.816807	0.140656
553.030900	0.140536
553.244975	0.140679
553.459032	0.140497
553.673070	0.140563
553.887091	0.140776
554.101093	0.141095
554.315077	0.141691
554.529042	0.142110
554.742990	0.143002
554.956919	0.143303
555.170830	0.143385
555.384722	0.144010
555.598597	0.143938
555.812453	0.143728
556.026291	0.143738
556.240111	0.143772
556.453913	0.143778
556.667696	0.144076
556.881461	0.144220
557.095208	0.144426
557.308937	0.144604
557.522647	0.144570
557.736339	0.145046
557.950013	0.144991
558.163669	0.145013
558.377307	0.145237
558.590926	0.144884
558.804527	0.145302
559.018110	0.145004
559.231675	0.144697
559.445221	0.145087
559.658749	0.145362
559.872259	0.145611
560.085751	0.145758
560.299225	0.145920
560.512680	0.146429
560.726117	0.146490
560.939536	0.146998
561.152937	0.147509
561.366319	0.147834
561.579683	0.147994
561.793029	0.148079
562.006357	0.148610
562.219667	0.148809
562.432958	0.148597
562.646231	0.149086
562.859486	0.149418
563.072723	0.149794
563.285941	0.149754
563.499141	0.150044
563.712323	0.150402
563.925487	0.150181
564.138632	0.150455
564.351760	0.150864
564.564869	0.150722
564.777960	0.150947
564.991032	0.151008
565.204087	0.151645
565.417123	0.151349
565.630141	0.151858
565.843140	0.151815
566.056122	0.152063
566.269085	0.152204
566.482030	0.152174
566.694957	0.152224
566.907866	0.152381
567.120756	0.152422
567.333628	0.153229
567.546482	0.152765
567.759318	0.153492
567.972135	0.153487
568.184935	0.153825
568.397716	0.154335
568.610478	0.154614
568.823223	0.154873
569.035949	0.154951
569.248657	0.154828
569.461347	0.155288
569.674019	0.155398
569.886672	0.155946
570.099308	0.155925
570.311925	0.156084
570.524523	0.156491
570.737104	0.156044
570.949666	0.156037
571.162210	0.156237
571.374736	0.156185
571.587244	0.155891
571.799733	0.155656
572.012205	0.155756
572.224658	0.155736
572.437092	0.155553
572.649509	0.156137
572.861907	0.156417
573.074287	0.156473
573.286649	0.157016
573.498993	0.157350
573.711318	0.157580
573.923625	0.157662
574.135914	0.157842
574.348185	0.157934
574.560438	0.157926
574.772672	0.157970
574.984888	0.158196
575.197086	0.158517
575.409266	0.159079
575.621427	0.159584
575.833570	0.159927
576.045695	0.160354
576.257802	0.160738
576.469890	0.161093
576.681961	0.161483
576.894013	0.161473
577.106046	0.161581
577.318062	0.161373
577.530059	0.161405
577.742039	0.161458
577.954000	0.161248
578.165942	0.161419
578.377867	0.161420
578.589773	0.161359
578.801661	0.161376
579.013531	0.161635
579.225382	0.161824
579.437216	0.161805
579.649031	0.162174
579.860828	0.162168
580.072606	0.162603
580.284367	0.162862
580.496109	0.163254
580.707833	0.163651
580.919539	0.163285
581.131227	0.163416
581.342896	0.163008
581.554547	0.162805
581.766180	0.163767
581.977795	0.163097
582.189391	0.163106
582.400969	0.163277
582.612529	0.163820
582.824071	0.164150
583.035595	0.164505
583.247100	0.165070
583.458587	0.165312
583.670056	0.164827
583.881506	0.165629
584.092939	0.166174
584.304353	0.166146
584.515749	0.166140
584.727127	0.166584
584.938486	0.166647
585.149828	0.166824
585.361151	0.167068
585.572456	0.167464
585.783742	0.167068
585.995011	0.166819
586.206261	0.167215
586.417493	0.167335
586.628706	0.167058
586.839902	0.167062
587.051079	0.167408
587.262238	0.167649
587.473379	0.167875
587.684502	0.168375
587.895606	0.168600
588.106692	0.168596
588.317760	0.168479
588.528810	0.168729
588.739841	0.168557
588.950855	0.168636
589.161850	0.168830
589.372827	0.168913
589.583785	0.169134
589.794726	0.169592
590.005648	0.169905
590.216552	0.170485
590.427437	0.170617
590.638305	0.171326
590.849154	0.171530
591.059985	0.171872
591.270798	0.171834
591.481592	0.172141
591.692369	0.172189
591.903127	0.172143
592.113867	0.171915
592.324588	0.172331
592.535292	0.172299
592.745977	0.172459
592.956644	0.172364
593.167293	0.172690
593.377923	0.172510
593.588536	0.172953
593.799130	0.173041
594.009706	0.173357
594.220263	0.173449
594.430803	0.173684
594.641324	0.173730
594.851827	0.173974
595.062312	0.174143
595.272778	0.174359
595.483227	0.174322
595.693657	0.174718
595.904069	0.175066
596.114462	0.175421
596.324838	0.175581
596.535195	0.175964
596.745534	0.176141
596.955855	0.176302
597.166157	0.176750
597.376441	0.176853
597.586707	0.176645
597.796955	0.176957
598.007185	0.176955
598.217396	0.177307
598.427589	0.177359
598.637764	0.177156
598.847921	0.177738
599.058060	0.177889
599.268180	0.177953
599.478282	0.178104
599.688366	0.177771
599.898431	0.178128
600.108479	0.178458
600.318508	0.178509
600.528519	0.178939
600.738511	0.178832
600.948486	0.179034
601.158442	0.179131
601.368380	0.179522
601.578300	0.179670
601.788202	0.179941
601.998085	0.179715
602.207950	0.179898
602.417797	0.180017
602.627626	0.179844
602.837436	0.179841
603.047228	0.179755
603.257002	0.179912
603.466758	0.180157
603.676496	0.180111
603.886215	0.180244
604.095916	0.180484
604.305599	0.180778
604.515264	0.181449
604.724910	0.181686
604.934538	0.181819
605.144148	0.181961
605.353740	0.182255
605.563314	0.182437
605.772869	0.182585
605.982406	0.182777
606.191925	0.182552
606.401425	0.182592
606.610908	0.182471
606.820372	0.182805
607.029818	0.183042
607.239246	0.183058
607.448655	0.183085
607.658047	0.183396
607.867420	0.183411
608.076775	0.183767
608.286111	0.183556
608.495430	0.183579
608.704730	0.183695
608.914012	0.183691
609.123275	0.183787
609.332521	0.184041
609.541748	0.184157
609.750957	0.184519
609.960148	0.184775
610.169321	0.184993
610.378475	0.185383
610.587611	0.185360
610.796729	0.185644
611.005829	0.186029
611.214910	0.185893
611.423974	0.185939
611.633019	0.186125
611.842045	0.186352
612.051054	0.186657
612.260044	0.186668
612.469017	0.186918
612.677970	0.187118
612.886906	0.186865
613.095824	0.187064
613.304723	0.187274
613.513604	0.187048
613.722467	0.187184
613.931311	0.187067
614.140138	0.187619
614.348946	0.187801
614.557736	0.187967
614.766507	0.188467
614.975261	0.188673
615.183996	0.188734
615.392713	0.188845
615.601412	0.188776
615.810092	0.189233
616.018754	0.189365
616.227399	0.189694
616.436024	0.189815
616.644632	0.189873
616.853222	0.190087
617.061793	0.190347
617.270346	0.190463
617.478880	0.190926
617.687397	0.190820
617.895895	0.190670
618.104375	0.190689
618.312837	0.190529
618.521281	0.190712
618.729706	0.191034
618.938113	0.191134
619.146502	0.191419
619.354873	0.191005
619.563226	0.191036
619.771560	0.191031
619.979876	0.191226
620.188174	0.191422
620.396453	0.191511
620.604715	0.191471
620.812958	0.191625
621.021183	0.191775
621.229390	0.192176
621.437578	0.192528
621.645748	0.192864
621.853900	0.193121
622.062034	0.193540
622.270150	0.193755
622.478247	0.194200
622.686326	0.194480
622.894387	0.194768
623.102430	0.195139
623.310454	0.195488
623.518461	0.195618
623.726449	0.195688
623.934418	0.195490
624.142370	0.195682
624.350303	0.195421
624.558218	0.195340
624.766115	0.195520
624.973994	0.195465
625.181855	0.195602
625.389697	0.196020
625.597521	0.196042
625.805327	0.196387
626.013114	0.196584
626.220883	0.196863
626.428634	0.197156
626.636367	0.197292
626.844082	0.197467
627.051778	0.197568
627.259457	0.197181
627.467117	0.197508
627.674758	0.197607
627.882382	0.197623
628.089987	0.197958
628.297574	0.198019
628.505143	0.197953
628.712694	0.198123
628.920226	0.198078
629.127740	0.198630
629.335236	0.198653
629.542714	0.198863
629.750174	0.199034
629.957615	0.198638
630.165038	0.198818
630.372443	0.199022
630.579829	0.199058
630.787198	0.199350
630.994548	0.199295
631.201880	0.199597
631.409194	0.199452
631.616489	0.199417
631.823766	0.199845
632.031025	0.199877
632.238266	0.199979
632.445489	0.199948
632.652693	0.200119
632.859879	0.200090
633.067047	0.200269
633.274197	0.200614
633.481329	0.200920
633.688442	0.201017
633.895537	0.201261
634.102614	0.201428
634.309672	0.201840
634.516713	0.201661
634.723735	0.201885
634.930739	0.202035
635.137724	0.202177
635.344692	0.202230
635.551641	0.202471
635.758572	0.202205
635.965485	0.202496
636.172379	0.202694
636.379256	0.203017
636.586114	0.203412
636.792954	0.203249
636.999775	0.203541
637.206579	0.203623
637.413364	0.203844
637.620131	0.204174
637.826880	0.204379
638.033610	0.204623
638.240323	0.205088
638.447017	0.204990
638.653692	0.205247
638.860350	0.205376
639.066990	0.205894
639.273611	0.206031
639.480214	0.206347
639.686798	0.206625
639.893365	0.206509
640.099913	0.206547
640.306443	0.206722
640.512955	0.206966
640.719449	0.206980
640.925924	0.206959
641.132381	0.207273
641.338820	0.207568
641.545241	0.207514
641.751644	0.207975
641.958028	0.208028
642.164394	0.208639
642.370742	0.209196
642.577071	0.209475
642.783383	0.209672
642.989676	0.209818
643.195951	0.209821
643.402207	0.210141
643.608446	0.210197
643.814666	0.210471
644.020868	0.210363
644.227052	0.210231
644.433218	0.210540
644.639365	0.210668
644.845494	0.210694
645.051605	0.210908
645.257698	0.210992
645.463772	0.211093
645.669828	0.211154
645.875866	0.211412
646.081886	0.211521
646.287888	0.211460
646.493871	0.211753
646.699836	0.211932
646.905783	0.212079
647.111712	0.212062
647.317622	0.212214
647.523514	0.212526
647.729388	0.212638
647.935244	0.212782
648.141082	0.213028
648.346901	0.213058
648.552702	0.213360
648.758485	0.213438
648.964250	0.213781
649.169996	0.214004
649.375724	0.214055
649.581434	0.214481
649.787126	0.214794
649.992800	0.215024
650.198455	0.215345
650.404092	0.215434
650.609711	0.215667
650.815311	0.215965
651.020894	0.216112
651.226458	0.216366
651.432004	0.216310
651.637532	0.216364
651.843041	0.216503
652.048532	0.216495
652.254006	0.216577
652.459460	0.216870
652.664897	0.217004
652.870315	0.217395
653.075716	0.217711
653.281097	0.217990
653.486461	0.218358
653.691807	0.218757
653.897134	0.219066
654.102443	0.219246
654.307734	0.219529
654.513006	0.219688
654.718261	0.219768
654.923497	0.219854
655.128715	0.220160
655.333915	0.220095
655.539096	0.220276
655.744259	0.220242
655.949404	0.220432
656.154531	0.220674
656.359640	0.220760
656.564730	0.220872
656.769802	0.221029
656.974856	0.221156
657.179892	0.221476
657.384909	0.221568
657.589908	0.221845
657.794889	0.222290
657.999852	0.222482
658.204797	0.222770
658.409723	0.223093
658.614631	0.223684
658.819521	0.223865
659.024393	0.223988
659.229246	0.224053
659.434081	0.224358
659.638898	0.224418
659.843697	0.224840
660.048478	0.225163
660.253240	0.225412
660.457984	0.225226
660.662710	0.225369
660.867417	0.225825
661.072107	0.225895
661.276778	0.226253
661.481431	0.226524
661.686066	0.226255
661.890682	0.226400
662.095281	0.226504
662.299861	0.226474
662.504422	0.226619
662.708966	0.226898
662.913491	0.227572
663.117999	0.227517
663.322488	0.227611
663.526958	0.227917
663.731411	0.227954
663.935845	0.228165
664.140261	0.228599
664.344659	0.228714
664.549038	0.228488
664.753400	0.228386
664.957743	0.228690
665.162068	0.228992
665.366375	0.229179
665.570663	0.229411
665.774933	0.229529
665.979185	0.229798
666.183419	0.230199
666.387635	0.230660
666.591832	0.230936
666.796011	0.231270
667.000172	0.231621
667.204315	0.231982
667.408439	0.232466
667.612545	0.232755
667.816634	0.232998
668.020703	0.233076
668.224755	0.233271
668.428788	0.233630
668.632803	0.233925
668.836800	0.234149
669.040779	0.234370
669.244739	0.234565
669.448681	0.234846
669.652605	0.234959
669.856511	0.235237
670.060399	0.235412
670.264268	0.235740
670.468119	0.235686
670.671952	0.235738
670.875767	0.235937
671.079563	0.236031
671.283341	0.236356
671.487101	0.236656
671.690843	0.236878
671.894567	0.237239
672.098272	0.237545
672.301959	0.237821
672.505628	0.238087
672.709278	0.238303
672.912911	0.238616
673.116525	0.238807
673.320121	0.239265
673.523699	0.239377
673.727258	0.239359
673.930799	0.239179
674.134322	0.239524
674.337827	0.239649
674.541314	0.239892
674.744782	0.240065
674.948232	0.240198
675.151664	0.240123
675.355078	0.240411
675.558474	0.240896
675.761851	0.241133
675.965210	0.241341
676.168551	0.241796
676.371873	0.242151
676.575178	0.242365
676.778464	0.242678
676.981732	0.242879
677.184981	0.243284
677.388213	0.243369
677.591426	0.243753
677.794621	0.244050
677.997798	0.244042
678.200956	0.244259
678.404097	0.244712
678.607219	0.244889
678.810323	0.245200
679.013408	0.245128
679.216476	0.245396
679.419525	0.245680
679.622556	0.245831
679.825569	0.246143
680.028563	0.246226
680.231540	0.246359
680.434498	0.246492
680.637438	0.246696
680.840359	0.247271
681.043263	0.247581
681.246148	0.247670
681.449015	0.247729
681.651864	0.247825
681.854694	0.248021
682.057506	0.248251
682.260301	0.248465
682.463076	0.248714
682.665834	0.248694
682.868573	0.248747
683.071295	0.248896
683.273998	0.249217
683.476682	0.249609
683.679349	0.249731
683.881997	0.249812
684.084627	0.249796
684.287239	0.250007
684.489833	0.250265
684.692408	0.250397
684.894965	0.250596
685.097504	0.250711
685.300025	0.250932
685.502527	0.251097
685.705012	0.251053
685.907478	0.251491
686.109925	0.251752
686.312355	0.251750
686.514766	0.252090
686.717159	0.252195
686.919534	0.252333
687.121891	0.252183
687.324230	0.252241
687.526550	0.252334
687.728852	0.252371
687.931136	0.252211
688.133401	0.252664
688.335649	0.252735
688.537878	0.253096
688.740089	0.253272
688.942281	0.253593
689.144456	0.254022
689.346612	0.254438
689.548750	0.254636
689.750870	0.254879
689.952971	0.254856
690.155055	0.255049
690.357120	0.255153
690.559167	0.255325
690.761195	0.255471
690.963206	0.255458
691.165198	0.255680
691.367172	0.255913
691.569128	0.256079
691.771065	0.256481
691.972984	0.256595
692.174885	0.256875
692.376768	0.257079
692.578633	0.257533
692.780479	0.257820
692.982308	0.257666
693.184118	0.257929
693.385909	0.258164
693.587683	0.258199
693.789438	0.258360
693.991175	0.258555
694.192894	0.258949
694.394595	0.258913
694.596277	0.259105
694.797941	0.259579
694.999587	0.259725
695.201215	0.259955
695.402824	0.260200
695.604416	0.260628
695.805989	0.260550
696.007543	0.260468
696.209080	0.260523
696.410598	0.260696
696.612099	0.260750
696.813580	0.260692
697.015044	0.260643
697.216490	0.260774
697.417917	0.260773
697.619326	0.260851
697.820717	0.260945
698.022089	0.261162
698.223444	0.261353
698.424780	0.261646
698.626098	0.261875
698.827397	0.262234
699.028679	0.262372
699.229942	0.262388
699.431187	0.262562
699.632414	0.262960
699.833622	0.262954
700.034813	0.263246
700.235985	0.263201
700.437139	0.263323
700.638274	0.263542
700.839392	0.263697
701.040491	0.263976
701.241572	0.264140
701.442635	0.264142
701.643679	0.264133
701.844706	0.264134
702.045714	0.263974
702.246704	0.264223
702.447675	0.264342
702.648629	0.264113
702.849564	0.264067
703.050481	0.264520
703.251380	0.264443
703.452260	0.264808
703.653122	0.264697
703.853966	0.264954
704.054792	0.264923
704.255600	0.264767
704.456389	0.264994
704.657160	0.265127
704.857913	0.264740
705.058648	0.264975
705.259365	0.264978
705.460063	0.264920
705.660743	0.265032
705.861405	0.265079
706.062048	0.265077
706.262674	0.265281
706.463281	0.265604
706.663870	0.265907
706.864441	0.265958
707.064993	0.266199
707.265527	0.266429
707.466043	0.266533
707.666541	0.266808
707.867021	0.267236
708.067482	0.267064
708.267925	0.267004
708.468350	0.267059
708.668757	0.267096
708.869145	0.267045
709.069516	0.267328
709.269868	0.267347
709.470201	0.267315
709.670517	0.267135
709.870814	0.267245
710.071093	0.267192
710.271354	0.267396
710.471597	0.267676
710.671821	0.267856
710.872028	0.267648
711.072216	0.267689
711.272385	0.267649
711.472537	0.267474
711.672670	0.267567
711.872785	0.267546
712.072882	0.267451
712.272961	0.266999
712.473021	0.266824
712.673063	0.266949
712.873087	0.266628
713.073093	0.266467
713.273081	0.266685
713.473050	0.266665
713.673001	0.266456
713.872934	0.266358
714.072849	0.266625
714.272745	0.266535
714.472623	0.266174
714.672483	0.266322
714.872325	0.266249
715.072148	0.266096
715.271954	0.266048
715.471741	0.266034
715.671509	0.265966
715.871260	0.265718
716.070992	0.265442
716.270707	0.265575
716.470403	0.265723
716.670080	0.265591
716.869740	0.265437
717.069381	0.265197
717.269004	0.264848
717.468609	0.264588
717.668195	0.264619
717.867764	0.264767
718.067314	0.264750
718.266846	0.264652
718.466360	0.264769
718.665855	0.264753
718.865332	0.264764
719.064791	0.265029
719.264232	0.265054
719.463655	0.265058
719.663059	0.264813
719.862445	0.264667
720.061813	0.264381
720.261163	0.264292
720.460494	0.264411
720.659807	0.264245
720.859102	0.264067
721.058379	0.264082
721.257638	0.263826
721.456878	0.263961
721.656100	0.264005
721.855304	0.263862
722.054490	0.263751
722.253657	0.263382
722.452806	0.263454
722.651937	0.263600
722.851050	0.263290
723.050145	0.263016
723.249221	0.263153
723.448279	0.263163
723.647319	0.263299
723.846340	0.263296
724.045344	0.263217
724.244329	0.263106
724.443296	0.262843
724.642245	0.262614
724.841175	0.262681
725.040088	0.262463
725.238982	0.262123
725.437857	0.261860
725.636715	0.261688
725.835554	0.261601
726.034376	0.261479
726.233179	0.261257
726.431963	0.261281
726.630730	0.261006
726.829478	0.260633
727.028208	0.260540
727.226920	0.260369
727.425614	0.260290
727.624289	0.260049
727.822946	0.259735
728.021585	0.259759
728.220206	0.259611
728.418808	0.259737
728.617392	0.259837
728.815958	0.259554
729.014506	0.259579
729.213036	0.259241
729.411547	0.259238
729.610040	0.259074
729.808515	0.258802
730.006972	0.258523
730.205410	0.258145
730.403831	0.257782
730.602233	0.257678
730.800616	0.257384
730.998982	0.257502
731.197329	0.257222
731.395658	0.257206
731.593969	0.257096
731.792262	0.257046
731.990536	0.256843
732.188793	0.256744
732.387031	0.256700
732.585250	0.256703
732.783452	0.256422
732.981635	0.256211
733.179800	0.255967
733.377947	0.255854
733.576076	0.255667
733.774186	0.255897
733.972278	0.255545
734.170352	0.255088
734.368408	0.254756
734.566446	0.254320
734.764465	0.254283
734.962466	0.254121
735.160449	0.253721
735.358413	0.253692
735.556360	0.253427
735.754288	0.253291
735.952198	0.253287
736.150090	0.253193
736.347963	0.253367
736.545818	0.253052
736.743655	0.252659
736.941474	0.252656
737.139275	0.252331
737.337057	0.252094
737.534821	0.251951
737.732567	0.251697
737.930295	0.251466
738.128005	0.251075
738.325696	0.251006
738.523369	0.251084
738.721024	0.250830
738.918660	0.250790
739.116279	0.250533
739.313879	0.250292
739.511461	0.250077
739.709024	0.249944
739.906570	0.249538
740.104097	0.249593
740.301606	0.249534
740.499097	0.249292
740.696569	0.248756
740.894024	0.248528
741.091460	0.248204
741.288878	0.248020
741.486277	0.247644
741.683659	0.247884
741.881022	0.247330
742.078367	0.246855
742.275694	0.246659
742.473002	0.246643
742.670293	0.246191
742.867565	0.246139
743.064819	0.245934
743.262054	0.245761
743.459272	0.245343
743.656471	0.245505
743.853652	0.245485
744.050815	0.245322
744.247959	0.245106
744.445085	0.245397
744.642194	0.245214
744.839283	0.245146
745.036355	0.245169
745.233408	0.245125
745.430444	0.244599
745.627461	0.244342
745.824459	0.243976
746.021440	0.243829
746.218402	0.243493
746.415346	0.243158
746.612272	0.242980
746.809180	0.242927
747.006069	0.242638
747.202940	0.242362
747.399793	0.242272
747.596628	0.242245
747.793444	0.242089
747.990243	0.241586
748.187023	0.241587
748.383784	0.241158
748.580528	0.240576
748.777253	0.240591
748.973960	0.240349
749.170649	0.240054
749.367320	0.240103
749.563973	0.239963
749.760607	0.239988
749.957223	0.239814
750.153821	0.239780
750.350400	0.239742
750.546962	0.239163
750.743505	0.239065
750.940030	0.238754
751.136536	0.238322
751.333025	0.237940
751.529495	0.237820
751.725947	0.237462
751.922381	0.237348
752.118796	0.237041
752.315194	0.236970
752.511573	0.236819
752.707934	0.236598
752.904276	0.236294
753.100601	0.236260
753.296907	0.235826
753.493195	0.235741
753.689465	0.235429
753.885716	0.235338
754.081949	0.234973
754.278164	0.234946
754.474361	0.234850
754.670540	0.234618
754.866700	0.234385
755.062843	0.234125
755.258967	0.233819
755.455072	0.233730
755.651160	0.233428
755.847229	0.233354
756.043280	0.233306
756.239313	0.232989
756.435328	0.232834
756.631324	0.232788
756.827302	0.232785
757.023262	0.232692
757.219204	0.232445
757.415127	0.232445
757.611033	0.232154
757.806920	0.231950
758.002788	0.232072
758.198639	0.232044
758.394471	0.231571
758.590286	0.231468
758.786081	0.231358
758.981859	0.231255
759.177619	0.230970
759.373360	0.230777
759.569083	0.230400
759.764788	0.230051
759.960474	0.229871
760.156143	0.229962
760.351793	0.229692
760.547425	0.229483
760.743038	0.229210
760.938634	0.229253
761.134211	0.229365
761.329770	0.229275
761.525311	0.229072
761.720833	0.228904
761.916338	0.228529
762.111824	0.228408
762.307292	0.228192
762.502741	0.227901
762.698173	0.227921
762.893586	0.227750
763.088981	0.227458
763.284358	0.227517
763.479716	0.227580
763.675057	0.227675
763.870379	0.227502
764.065683	0.227575
764.260968	0.227569
764.456236	0.227065
764.651485	0.227018
764.846716	0.226944
765.041929	0.226950
765.237123	0.226663
765.432299	0.226592
765.627457	0.226716
765.822597	0.226496
766.017719	0.226170
766.212822	0.226078
766.407907	0.225921
766.602974	0.226052
766.798023	0.225733
766.993054	0.225823
767.188066	0.225683
767.383060	0.225370
767.578036	0.225190
767.772993	0.225384
767.967933	0.225435
768.162854	0.225281
768.357757	0.225047
768.552642	0.225153
768.747508	0.225035
768.942356	0.225138
769.137186	0.225107
769.331998	0.225263
769.526792	0.225315
769.721567	0.225305
769.916324	0.225264
770.111063	0.225278
770.305784	0.225004
770.500486	0.224820
770.695171	0.224751
770.889837	0.224792
771.084484	0.224507
771.279114	0.224504
771.473725	0.224234
771.668318	0.224212
771.862893	0.223981
772.057450	0.223947
772.251988	0.224145
772.446509	0.223993
772.641011	0.223708
772.835494	0.223665
773.029960	0.223578
773.224407	0.223749
773.418836	0.223680
773.613247	0.223833
773.807640	0.223759
774.002014	0.223512
774.196370	0.223469
774.390708	0.223658
774.585028	0.223576
774.779330	0.223406
774.973613	0.223337
775.167878	0.223328
775.362125	0.223050
775.556354	0.223132
775.750564	0.222925
775.944756	0.222651
776.138930	0.222509
776.333086	0.222459
776.527223	0.222543
776.721343	0.222256
776.915444	0.222419
777.109526	0.222634
777.303591	0.222603
777.497637	0.222854
777.691666	0.222917
777.885676	0.222964
778.079667	0.223135
778.273641	0.223003
778.467596	0.223169
778.661533	0.222845
778.855452	0.222732
779.049352	0.222581
779.243235	0.222445
779.437099	0.222320
779.630945	0.222350
779.824773	0.222473
780.018582	0.222482
780.212373	0.222574
780.406146	0.222860
780.599901	0.222936
780.793638	0.223086
780.987356	0.223284
781.181056	0.223336
781.374738	0.223361
781.568402	0.223349
781.762047	0.223468
781.955674	0.223506
782.149283	0.223455
782.342874	0.223474
782.536447	0.223609
782.730001	0.223427
782.923537	0.223751
783.117055	0.224012
783.310555	0.223748
783.504036	0.223773
783.697499	0.223781
783.890944	0.223745
784.084371	0.223642
784.277780	0.223535
784.471170	0.223875
784.664542	0.223837
784.857896	0.223587
785.051231	0.223671
785.244549	0.223647
785.437848	0.223615
785.631129	0.223652
785.824392	0.223787
786.017636	0.223818
786.210863	0.223557
786.404071	0.223608
786.597260	0.223792
786.790432	0.223898
786.983585	0.223967
787.176721	0.224199
787.369838	0.224566
787.562936	0.224725
787.756017	0.224865
787.949079	0.224916
788.142123	0.225003
788.335149	0.225019
788.528156	0.225191
788.721146	0.225226
788.914117	0.225296
789.107070	0.225376
789.300005	0.225563
789.492921	0.225843
789.685819	0.226233
789.878699	0.226477
790.071561	0.226865
790.264405	0.227216
790.457230	0.227505
790.650037	0.227869
790.842826	0.227975
791.035597	0.228138
791.228349	0.228280
791.421084	0.228348
791.613800	0.228471
791.806497	0.228379
791.999177	0.228424
792.191838	0.228537
792.384481	0.228529
792.577106	0.228559
792.769713	0.228498
792.962301	0.228645
793.154871	0.228786
793.347423	0.228742
793.539957	0.228964
793.732473	0.228962
793.924970	0.229089
794.117449	0.229236
794.309910	0.229188
794.502353	0.229465
794.694777	0.229678
794.887183	0.230008
795.079571	0.230243
795.271941	0.230337
795.464293	0.230615
795.656626	0.230644
795.848941	0.230470
796.041238	0.230786
796.233516	0.230845
796.425777	0.230728
796.618019	0.230878
796.810243	0.230781
797.002449	0.230829
797.194636	0.231035
797.386805	0.231325
797.578956	0.231802
797.771089	0.231858
797.963204	0.232166
798.155300	0.232617
798.347378	0.232682
798.539438	0.233368
798.731480	0.233713
798.923503	0.233741
799.115509	0.234042
799.307496	0.234312
799.499465	0.234526
799.691415	0.234685
799.883348	0.234720
800.075262	0.234738
800.267158	0.234747
800.459035	0.234884
800.650895	0.235090
800.842736	0.234908
801.034559	0.235126
801.226364	0.235237
801.418150	0.235453
801.609919	0.235442
801.801669	0.235762
801.993401	0.236105
802.185114	0.236430
802.376810	0.236912
802.568487	0.237461
802.760146	0.237807
802.951787	0.237896
803.143409	0.238066
803.335014	0.238764
803.526600	0.238978
803.718168	0.238956
803.909717	0.239016
804.101249	0.239240
804.292762	0.239367
804.484257	0.239359
804.675734	0.239804
804.867192	0.240208
805.058632	0.240078
805.250054	0.240401
805.441458	0.240645
805.632844	0.241036
805.824211	0.241145
806.015561	0.241501
806.206891	0.241886
806.398204	0.242356
806.589499	0.242529
806.780775	0.242784
806.972033	0.243167
807.163273	0.243336
807.354495	0.243456
807.545698	0.243612
807.736883	0.243987
807.928050	0.243744
808.119199	0.243924
808.310329	0.244143
808.501441	0.244714
808.692535	0.244602
808.883611	0.245144
809.074669	0.245447
809.265708	0.245942
809.456729	0.246267
809.647732	0.246981
809.838717	0.247220
810.029683	0.247636
810.220632	0.247811
810.411562	0.248381
810.602474	0.248756
810.793367	0.249086
810.984242	0.249367
811.175100	0.249697
811.365938	0.249766
811.556759	0.250108
811.747562	0.250419
811.938346	0.250771
812.129112	0.250896
812.319860	0.251073
812.510589	0.251719
812.701300	0.252054
812.891994	0.252291
813.082668	0.253008
813.273325	0.253474
813.463964	0.253713
813.654584	0.253994
813.845186	0.254310
814.035769	0.254848
814.226335	0.255180
814.416882	0.255545
814.607411	0.255665
814.797922	0.255924
814.988415	0.256449
815.178889	0.256687
815.369345	0.257100
815.559783	0.257640
815.750203	0.257944
815.940605	0.258040
816.130988	0.258294
816.321353	0.258874
816.511700	0.259236
816.702028	0.259410
816.892339	0.260060
817.082631	0.260283
817.272905	0.260654
817.463161	0.261028
817.653398	0.261429
817.843617	0.261979
818.033819	0.262481
818.224001	0.262733
818.414166	0.263221
818.604312	0.263316
818.794440	0.263700
818.984550	0.264159
819.174642	0.264582
819.364716	0.265153
819.554771	0.265416
819.744808	0.265801
819.934827	0.266245
820.124827	0.266459
820.314810	0.267140
820.504774	0.267543
820.694720	0.268008
820.884647	0.268416
821.074557	0.268937
821.264448	0.269497
821.454321	0.269959
821.644176	0.270377
821.834012	0.270886
822.023831	0.271276
822.213631	0.271762
822.403413	0.272184
822.593176	0.272482
822.782922	0.272422
822.972649	0.272967
823.162358	0.273010
823.352049	0.273268
823.541721	0.273415
823.731376	0.273578
823.921012	0.273955
824.110629	0.274266
824.300229	0.274441
824.489811	0.275175
824.679374	0.275552
824.868919	0.276184
825.058445	0.276881
825.247954	0.277641
825.437444	0.278055
825.626916	0.278340
825.816370	0.278773
826.005806	0.279489
826.195223	0.280008
826.384622	0.280253
826.574003	0.280744
826.763366	0.281165
826.952711	0.281358
827.142037	0.282102
827.331345	0.282620
827.520635	0.282818
827.709906	0.282890
827.899160	0.283241
828.088395	0.283529
828.277612	0.283645
828.466810	0.283712
828.655991	0.284192
828.845153	0.284225
829.034297	0.284732
829.223423	0.285638
829.412531	0.286313
829.601620	0.286595
829.790691	0.286968
829.979744	0.287449
830.168779	0.288051
830.357795	0.288370
830.546793	0.289032
830.735773	0.289541
830.924735	0.289656
831.113679	0.290327
831.302604	0.290589
831.491511	0.291065
831.680400	0.291844
831.869271	0.292396
832.058123	0.293040
832.246957	0.293390
832.435773	0.293628
832.624571	0.294503
832.813351	0.294609
833.002112	0.295396
833.190855	0.295747
833.379580	0.296021
833.568287	0.296474
833.756975	0.297119
833.945645	0.297738
834.134297	0.298546
834.322931	0.298581
834.511547	0.299221
834.700144	0.299701
834.888723	0.300268
835.077284	0.300588
835.265826	0.301088
835.454351	0.301492
835.642857	0.301749
835.831345	0.302191
836.019815	0.302689
836.208266	0.303204
836.396699	0.303563
836.585114	0.304256
836.773511	0.304768
836.961890	0.305300
837.150250	0.305655
837.338592	0.306424
837.526916	0.306918
837.715222	0.307531
837.903510	0.308060
838.091779	0.308770
838.280030	0.309253
838.468263	0.309873
838.656477	0.310229
838.844674	0.310779
839.032852	0.311116
839.221012	0.311579
839.409153	0.312090
839.597277	0.312671
839.785382	0.312800
839.973469	0.313271
840.161538	0.313823
840.349589	0.314424
840.537621	0.315094
840.725635	0.316010
840.913631	0.316505
841.101609	0.316723
841.289568	0.317067
841.477509	0.317868
841.665432	0.318187
841.853337	0.318536
842.041224	0.318982
842.229092	0.319258
842.416942	0.319488
842.604774	0.319693
842.792588	0.320268
842.980383	0.320811
843.168160	0.321193
843.355919	0.322107
843.543660	0.322873
843.731382	0.323206
843.919087	0.323712
844.106773	0.324068
844.294441	0.324687
844.482090	0.325182
844.669722	0.325583
844.857335	0.325895
845.044930	0.326334
845.232507	0.326852
845.420065	0.327472
845.607605	0.327912
845.795127	0.328629
845.982631	0.329351
846.170117	0.329932
846.357584	0.330372
846.545033	0.330959
846.732464	0.331648
846.919877	0.332135
847.107272	0.332873
847.294648	0.333597
847.482006	0.333733
847.669346	0.334250
847.856667	0.334483
848.043971	0.335047
848.231256	0.335647
848.418523	0.335629
848.605771	0.335823
848.793002	0.335937
848.980214	0.336067
849.167408	0.336688
849.354584	0.337002
849.541742	0.337913
849.728881	0.338460
849.916002	0.339029
850.103105	0.339627
850.290190	0.340572
850.477256	0.341187
850.664304	0.341959
850.851334	0.342342
851.038346	0.342781
851.225340	0.342960
851.412315	0.343192
851.599272	0.343692
851.786211	0.343957
851.973132	0.343980
852.160034	0.344072
852.346918	0.344705
852.533784	0.345275
852.720632	0.345937
852.907462	0.346479
853.094273	0.346925
853.281066	0.347289
853.467841	0.348100
853.654598	0.348625
853.841336	0.349212
854.028056	0.349124
854.214758	0.349575
854.401442	0.349945
854.588107	0.350470
854.774755	0.350862
854.961384	0.351334
855.147995	0.351973
855.334587	0.352168
855.521162	0.352627
855.707718	0.353290
855.894256	0.353778
856.080775	0.353972
856.267277	0.354628
856.453760	0.355477
856.640225	0.355877
856.826672	0.355883
857.013101	0.356546
857.199511	0.357190
857.385903	0.357456
857.572277	0.357949
857.758633	0.358722
857.944970	0.359158
858.131290	0.359007
858.317591	0.359485
858.503873	0.359864
858.690138	0.360174
858.876384	0.360750
859.062612	0.361396
859.248822	0.361861
859.435014	0.362141
859.621188	0.362516
859.807343	0.363688
859.993480	0.364130
860.179599	0.365026
860.365699	0.365913
860.551781	0.366469
860.737846	0.367046
860.923891	0.367217
861.109919	0.367618
861.295929	0.367570
861.481920	0.367964
861.667893	0.368424
861.853848	0.368653
862.039784	0.369019
862.225702	0.369407
862.411603	0.369631
862.597484	0.370494
862.783348	0.371142
862.969193	0.371927
863.155021	0.372307
863.340830	0.372538
863.526620	0.373008
863.712393	0.373449
863.898147	0.373784
864.083883	0.374648
864.269601	0.374779
864.455301	0.375134
864.640982	0.375737
864.826645	0.376162
865.012290	0.376836
865.197917	0.377508
865.383526	0.377658
865.569116	0.378267
865.754688	0.378791
865.940242	0.379414
866.125777	0.379884
866.311295	0.380226
866.496794	0.380816
866.682275	0.380979
866.867737	0.381189
867.053182	0.381744
867.238608	0.382113
867.424016	0.382671
867.609406	0.383366
867.794778	0.383726
867.980131	0.384181
868.165466	0.384303
868.350783	0.384931
868.536082	0.385014
868.721362	0.385516
868.906625	0.385643
869.091869	0.385437
869.277094	0.385241
869.462302	0.385526
869.647491	0.385676
869.832662	0.385686
870.017815	0.385805
870.202950	0.386887
870.388066	0.387219
870.573165	0.387635
870.758245	0.387881
870.943306	0.387770
871.128350	0.388096
871.313375	0.388618
871.498382	0.389178
871.683371	0.389647
871.868342	0.389069
872.053294	0.389247
872.238229	0.389560
872.423144	0.389920
872.608042	0.390718
872.792922	0.391005
872.977783	0.391060
873.162626	0.391375
873.347451	0.391627
873.532258	0.392166
873.717046	0.392490
873.901816	0.393032
874.086568	0.393396
874.271302	0.393660
874.456017	0.393933
874.640715	0.394265
874.825394	0.394178
875.010055	0.394154
875.194697	0.393856
875.379322	0.393805
875.563928	0.393818
875.748516	0.394079
875.933085	0.394239
876.117637	0.394374
876.302170	0.394896
876.486685	0.395505
876.671182	0.395621
876.855661	0.396525
877.040121	0.397625
877.224563	0.398229
877.408987	0.397872
877.593393	0.398683
877.777780	0.399111
877.962150	0.398856
878.146501	0.399089
878.330833	0.399288
878.515148	0.399326
878.699444	0.399062
878.883722	0.398417
879.067982	0.399059
879.252224	0.399004
879.436447	0.399122
879.620653	0.399627
879.804840	0.399975
879.989008	0.400542
880.173159	0.400534
880.357291	0.400494
880.541405	0.401259
880.725501	0.401507
880.909579	0.401783
881.093638	0.402118
881.277680	0.402192
881.461703	0.402277
881.645707	0.402433
881.829694	0.402655
882.013662	0.402556
882.197612	0.402211
882.381544	0.402009
882.565458	0.401703
882.749353	0.401576
882.933230	0.401700
883.117089	0.401848
883.300930	0.402078
883.484753	0.402220
883.668557	0.402588
883.852343	0.402851
884.036111	0.403406
884.219861	0.403443
884.403592	0.403636
884.587305	0.403963
884.771000	0.403678
884.954677	0.403886
885.138335	0.404233
885.321976	0.404082
885.505598	0.404359
885.689201	0.404498
885.872787	0.404712
886.056354	0.404698
886.239904	0.404504
886.423434	0.404828
886.606947	0.404749
886.790442	0.404904
886.973918	0.405594
887.157376	0.406097
887.340816	0.406111
887.524237	0.406639
887.707641	0.406829
887.891026	0.406870
888.074393	0.406790
888.257741	0.407120
888.441072	0.406741
888.624384	0.406706
888.807678	0.406509
888.990954	0.406701
889.174211	0.406043
889.357451	0.405960
889.540672	0.405773
889.723875	0.405557
889.907059	0.405066
890.090226	0.405178
890.273374	0.405055
890.456504	0.404560
890.639616	0.403737
890.822709	0.404163
891.005785	0.403629
891.188842	0.404261
891.371881	0.404856
891.554901	0.405016
891.737904	0.404780
891.920888	0.404428
892.103854	0.404783
892.286802	0.405227
892.469731	0.404827
892.652643	0.405087
892.835536	0.404768
893.018410	0.404130
893.201267	0.403911
893.384106	0.404710
893.566926	0.404781
893.749728	0.404241
893.932511	0.403817
894.115277	0.403777
894.298024	0.403612
894.480753	0.403275
894.663464	0.403042
894.846157	0.403034
895.028831	0.402060
895.211487	0.402375
895.394125	0.402530
895.576745	0.402523
895.759346	0.402575
895.941930	0.402755
896.124495	0.402460
896.307041	0.402344
896.489570	0.402371
896.672080	0.402522
896.854573	0.401257
897.037046	0.401099
897.219502	0.400629
897.401940	0.400358
897.584359	0.400228
897.766760	0.399439
897.949143	0.399426
898.131507	0.399039
898.313854	0.398688
898.496182	0.399218
898.678492	0.398754
898.860783	0.399136
899.043057	0.398824
899.225312	0.398116
899.407549	0.398717
899.589768	0.398457
899.771968	0.397337
899.954151	0.396936
900.136315	0.396326
900.318461	0.396357
900.500588	0.395722
900.682698	0.395659
900.864789	0.395309
901.046862	0.394636
901.228917	0.394067
901.410953	0.394461
901.592971	0.394479
901.774972	0.394576
901.956953	0.393918
902.138917	0.393602
902.320862	0.393127
902.502790	0.393811
902.684699	0.393644
902.866589	0.394074
903.048462	0.394039
903.230316	0.393697
903.412152	0.393447
903.593970	0.393020
903.775770	0.392515
903.957551	0.392539
904.139314	0.391412
904.321059	0.391339
904.502786	0.390584
904.684494	0.389904
904.866185	0.388955
905.047857	0.388433
905.229510	0.387953
905.411146	0.388110
905.592763	0.387003
905.774363	0.387035
905.955943	0.386320
906.137506	0.385918
906.319051	0.385745
906.500577	0.385596
906.682085	0.385165
906.863575	0.385159
907.045046	0.384379
907.226500	0.383998
907.407935	0.382962
907.589352	0.382240
907.770750	0.381595
907.952131	0.380849
908.133493	0.380670
908.314837	0.380187
908.496163	0.379437
908.677470	0.378846
908.858760	0.378126
909.040031	0.377598
909.221284	0.377163
909.402518	0.377121
909.583735	0.376334
909.764933	0.375493
909.946113	0.375258
910.127275	0.375031
910.308418	0.374465
910.489544	0.374799
910.670651	0.374610
910.851740	0.374344
911.032810	0.372993
911.213863	0.372379
911.394897	0.372115
911.575913	0.371289
911.756911	0.370677
911.937890	0.370054
912.118851	0.368563
912.299794	0.367964
912.480719	0.367343
912.661626	0.367230
912.842514	0.367587
913.023384	0.367029
913.204236	0.366314
913.385070	0.365589
913.565886	0.365513
913.746683	0.365826
913.927462	0.364785
914.108223	0.364365
914.288965	0.363684
914.469690	0.362227
914.650396	0.361164
914.831084	0.360163
915.011754	0.358893
915.192405	0.358465
915.373038	0.357586
915.553653	0.357535
915.734250	0.356947
915.914829	0.356584
916.095389	0.356000
916.275931	0.355643
916.456455	0.355515
916.636961	0.355435
916.817448	0.354187
916.997917	0.353328
917.178368	0.352283
917.358801	0.351339
917.539216	0.349840
917.719612	0.348992
917.899990	0.347873
918.080350	0.346949
918.260692	0.346276
918.441015	0.346171
918.621320	0.345264
918.801607	0.344405
918.981876	0.343843
919.162127	0.343167
919.342359	0.342627
919.522573	0.342377
919.702769	0.341331
919.882947	0.340466
920.063106	0.338512
920.243247	0.337699
920.423370	0.337167
920.603475	0.336144
920.783562	0.336062
920.963630	0.335439
921.143680	0.335163
921.323712	0.334067
921.503725	0.333257
921.683721	0.333095
921.863698	0.332359
922.043657	0.331658
922.223598	0.331158
922.403520	0.330279
922.583424	0.329778
922.763311	0.328411
922.943178	0.328429
923.123028	0.328279
923.302859	0.326744
923.482673	0.325837
923.662467	0.324801
923.842244	0.324166
924.022003	0.323390
924.201743	0.322099
924.381465	0.321489
924.561169	0.320051
924.740854	0.318663
924.920522	0.318605
925.100171	0.318209
925.279802	0.317428
925.459414	0.316049
925.639009	0.315023
925.818585	0.313811
925.998143	0.312598
926.177683	0.311784
926.357205	0.310564
926.536708	0.310212
926.716193	0.309345
926.895660	0.308218
927.075109	0.306881
927.254539	0.305701
927.433951	0.304526
927.613345	0.303152
927.792721	0.302508
927.972079	0.301613
928.151418	0.299840
928.330739	0.298825
928.510042	0.298016
928.689327	0.297762
928.868593	0.296568
929.047841	0.295713
929.227071	0.294584
929.406283	0.292943
929.585476	0.292511
929.764652	0.292030
929.943809	0.290731
930.122948	0.289700
930.302068	0.288640
930.481171	0.288002
930.660255	0.287474
930.839321	0.286730
931.018369	0.286265
931.197398	0.285518
931.376409	0.284570
931.555402	0.283722
931.734377	0.283090
931.913334	0.282119
932.092272	0.280932
932.271192	0.279923
932.450094	0.277943
932.628978	0.277415
932.807844	0.275664
932.986691	0.274899
933.165520	0.274170
933.344331	0.273070
933.523123	0.271597
933.701898	0.270132
933.880654	0.269182
934.059392	0.270115
934.238111	0.268493
934.416813	0.268210
934.595496	0.266929
934.774161	0.265093
934.952808	0.264033
935.131437	0.262599
935.310047	0.262695
935.488639	0.261264
935.667213	0.258981
935.845769	0.257781
936.024306	0.256222
936.202825	0.255097
936.381326	0.254040
936.559809	0.252146
936.738274	0.251453
936.916720	0.249596
937.095148	0.249178
937.273558	0.248338
937.451950	0.247669
937.630323	0.245395
937.808678	0.243399
937.987015	0.242294
938.165334	0.241026
938.343635	0.239412
938.521917	0.238697
938.700181	0.236779
938.878427	0.235886
939.056655	0.234830
939.234864	0.234722
939.413055	0.233378
939.591228	0.233034
939.769383	0.231983
939.947519	0.231638
940.125638	0.231104
940.303738	0.230504
940.481820	0.229959
940.659883	0.227975
940.837929	0.226156
941.015956	0.225761
941.193965	0.223639
941.371955	0.222802
941.549928	0.221349
941.727882	0.219653
941.905818	0.217265
942.083736	0.214410
942.261636	0.213037
942.439517	0.212888
942.617380	0.210122
942.795225	0.208841
942.973052	0.207590
943.150860	0.205976
943.328651	0.203635
943.506423	0.203607
943.684176	0.202848
943.861912	0.200628
944.039629	0.198542
944.217328	0.197573
944.395009	0.196544
944.572672	0.195114
944.750317	0.194602
944.927943	0.194382
945.105551	0.192641
945.283141	0.192202
945.460712	0.191348
945.638265	0.189128
945.815801	0.188455
945.993317	0.186120
946.170816	0.184862
946.348297	0.182642
946.525759	0.179996
946.703203	0.179132
946.880629	0.176671
947.058036	0.175611
947.235425	0.175294
947.412797	0.174215
947.590149	0.173560
947.767484	0.172231
947.944800	0.170871
948.122099	0.169532
948.299379	0.167313
948.476640	0.166548
948.653884	0.166046
948.831109	0.164463
949.008316	0.161919
949.185505	0.160985
949.362676	0.159493
949.539828	0.157599
949.716962	0.156291
949.894078	0.155674
950.071176	0.154249
950.248256	0.153500
950.425317	0.153076
950.602360	0.152800
950.779385	0.150700
950.956391	0.151229
951.133380	0.150979
951.310350	0.149784
951.487302	0.149365
951.664235	0.148013
951.841151	0.145677
952.018048	0.143801
952.194927	0.144286
952.371788	0.143800
952.548631	0.141549
952.725455	0.140891
952.902261	0.141667
953.079049	0.137815
953.255819	0.136470
953.432570	0.135186
953.609303	0.132723
953.786018	0.130010
953.962715	0.129288
954.139394	0.126923
954.316054	0.125123
954.492696	0.124400
954.669320	0.125409
954.845926	0.125346
955.022513	0.126099
955.199083	0.125768
955.375634	0.124322
955.552166	0.122115
955.728681	0.121546
955.905177	0.121261
956.081655	0.118308
956.258115	0.117553
956.434557	0.116140
956.610980	0.112394
956.787385	0.112843
956.963772	0.111495
957.140141	0.111147
957.316492	0.109970
957.492824	0.108355
957.669138	0.105670
957.845434	0.104976
958.021712	0.103935
958.197971	0.104448
958.374212	0.101383
958.550435	0.100311
958.726640	0.098921
958.902826	0.096983
959.078995	0.095075
959.255145	0.096603
959.431277	0.094425
959.607390	0.092972
959.783486	0.091572
959.959563	0.092332
960.135622	0.092897
960.311662	0.091785
960.487685	0.092543
960.663689	0.094996
960.839675	0.095093
961.015643	0.094323
961.191593	0.094693
961.367524	0.094342
961.543437	0.093433
961.719332	0.091209
961.895209	0.090852
962.071067	0.091578
962.246907	0.089033
962.422730	0.087379
962.598533	0.087495
962.774319	0.087082
962.950086	0.086935
963.125835	0.088712
963.301566	0.089232
963.477279	0.091121
963.652973	0.088137
963.828650	0.087564
964.004308	0.085986
964.179947	0.084427
964.355569	0.083475
964.531172	0.083502
964.706757	0.079979
964.882324	0.079046
965.057873	0.078105
965.233403	0.077291
965.408916	0.076841
965.584410	0.077265
965.759885	0.078036
965.935343	0.076197
966.110782	0.075389
966.286203	0.075125
966.461606	0.076944
966.636991	0.075728
966.812357	0.076964
966.987705	0.077302
967.163035	0.078192
967.338347	0.077265
967.513641	0.076880
967.688916	0.077906
967.864173	0.079039
968.039412	0.076746
968.214632	0.075979
968.389835	0.076535
968.565019	0.076903
968.740185	0.075780
968.915333	0.075963
969.090462	0.078449
969.265573	0.077748
969.440667	0.077030
969.615741	0.077917
969.790798	0.080579
969.965836	0.078724
970.140856	0.077460
970.315858	0.077599
970.490842	0.078529
970.665808	0.075560
970.840755	0.076298
971.015684	0.075707
971.190595	0.076612
971.365487	0.075562
971.540362	0.076129
971.715218	0.075183
971.890056	0.075200
972.064875	0.073251
972.239677	0.076607
972.414460	0.075039
972.589225	0.075413
972.763972	0.073807
972.938700	0.071921
973.113411	0.071329
973.288103	0.072413
973.462777	0.073274
973.637432	0.075341
973.812070	0.074623
973.986689	0.075828
974.161290	0.076263
974.335873	0.078035
974.510437	0.077983
974.684984	0.078329
974.859512	0.078278
975.034022	0.077844
975.208513	0.077131
975.382987	0.078261
975.557442	0.078143
975.731879	0.075782
975.906298	0.074640
976.080698	0.075933
976.255080	0.075583
976.429445	0.075780
976.603790	0.074447
976.778118	0.073611
976.952427	0.072410
977.126719	0.071849
977.300992	0.073189
977.475246	0.073606
977.649483	0.075100
977.823701	0.076146
977.997901	0.076134
978.172083	0.076361
978.346247	0.075704
978.520392	0.075222
978.694519	0.075557
978.868628	0.075993
979.042719	0.075954
979.216791	0.075799
979.390845	0.076877
979.564882	0.076311
979.738899	0.077714
979.912899	0.079458
980.086880	0.078465
980.260843	0.078151
980.434788	0.079082
980.608715	0.079929
980.782623	0.077604
980.956514	0.077116
981.130386	0.075794
981.304240	0.074594
981.478075	0.074026
981.651892	0.075732
981.825692	0.073911
981.999472	0.072920
982.173235	0.071447
982.346980	0.072498
982.520706	0.071643
982.694414	0.072238
982.868104	0.071972
983.041775	0.074005
983.215428	0.074330
983.389064	0.075193
983.562680	0.074253
983.736279	0.075436
983.909860	0.075561
984.083422	0.076608
984.256966	0.077974
984.430491	0.078159
984.603999	0.075802
984.777488	0.075619
984.950959	0.076862
985.124412	0.079209
985.297847	0.079818
985.471263	0.078985
985.644661	0.077277
985.818041	0.076371
985.991403	0.077400
986.164747	0.077099
986.338072	0.074624
986.511379	0.074181
986.684668	0.071977
986.857938	0.069945
987.031191	0.069907
987.204425	0.070285
987.377641	0.071253
987.550839	0.070276
987.724018	0.070995
987.897179	0.074132
988.070322	0.074430
988.243447	0.075697
988.416554	0.077544
988.589642	0.077069
988.762712	0.079156
988.935764	0.079814
989.108798	0.079835
989.281813	0.079655
989.454811	0.078957
989.627790	0.078197
989.800751	0.078538
989.973693	0.079404
990.146617	0.077687
990.319524	0.075101
990.492412	0.074748
990.665281	0.074660
990.838133	0.075474
991.010966	0.074724
991.183781	0.074425
991.356578	0.075047
991.529356	0.074285
991.702117	0.076913
991.874859	0.079149
992.047583	0.079210
992.220288	0.079698
992.392976	0.078389
992.565645	0.078035
992.738296	0.078062
992.910929	0.075745
993.083543	0.074079
993.256139	0.074581
993.428718	0.073386
993.601277	0.073239
993.773819	0.073542
993.946342	0.075616
994.118848	0.075832
994.291335	0.076605
994.463803	0.078282
994.636254	0.078116
994.808686	0.076580
994.981100	0.077856
995.153496	0.076870
995.325874	0.076350
995.498233	0.076134
995.670574	0.077175
995.842897	0.077178
996.015202	0.076383
996.187488	0.076499
996.359757	0.077048
996.532007	0.075203
996.704239	0.076891
996.876452	0.077468
997.048648	0.075964
997.220825	0.074956
997.392984	0.075392
997.565124	0.076276
997.737247	0.077362
997.909351	0.078277
998.081437	0.078364
998.253505	0.076215
998.425554	0.075945
998.597586	0.077375
998.769599	0.080103
998.941594	0.080131
999.113571	0.079038
999.285529	0.079345
999.457469	0.079943
999.629391	0.081395
999.801295	0.082723
999.973181	0.082900
1000.145048	0.083056
1000.316897	0.080987
1000.488728	0.080945
1000.660541	0.082730
1000.832335	0.081692
1001.004111	0.080517
1001.175869	0.079543
1001.347609	0.079732
1001.519331	0.080694
1001.691034	0.079863
1001.862719	0.078829
1002.034386	0.078060
1002.206035	0.075646
1002.377665	0.076993
1002.549277	0.077517
1002.720871	0.075971
1002.892447	0.077565
1003.064004	0.077343
1003.235544	0.078295
1003.407065	0.078468
1003.578568	0.078818
1003.750052	0.081531
1003.921519	0.081520
1004.092967	0.081459
1004.264397	0.082869
1004.435809	0.082411
1004.607202	0.081581
1004.778577	0.081289
1004.949934	0.082773
1005.121273	0.083410
1005.292594	0.081965
1005.463896	0.081358
1005.635180	0.080252
1005.806446	0.080974
1005.977694	0.079995
1006.148923	0.077987
1006.320135	0.077570
1006.491328	0.077062
1006.662503	0.076233
1006.833659	0.078301
1007.004798	0.078809
1007.175918	0.079660
1007.347020	0.079693
1007.518103	0.079959
1007.689169	0.082675
1007.860216	0.081303
1008.031245	0.080949
1008.202256	0.080945
1008.373248	0.080579
1008.544223	0.078337
1008.715179	0.078966
1008.886117	0.079359
1009.057036	0.078047
1009.227938	0.077438
1009.398821	0.079282
1009.569686	0.079633
1009.740533	0.078073
1009.911361	0.076357
1010.082172	0.076540
1010.252964	0.077692
1010.423738	0.078229
1010.594493	0.078578
1010.765231	0.079948
1010.935950	0.080509
1011.106651	0.078933
1011.277334	0.083067
1011.447998	0.083862
1011.618645	0.086128
1011.789273	0.083276
1011.959882	0.081892
1012.130474	0.082690
1012.301048	0.080582
1012.471603	0.079090
1012.642140	0.081917
1012.812658	0.080141
1012.983159	0.078691
1013.153641	0.077907
1013.324105	0.077970
1013.494551	0.078923
1013.664979	0.077797
1013.835388	0.078133
1014.005779	0.079610
1014.176152	0.077761
1014.346507	0.076963
1014.516843	0.079028
1014.687162	0.079088
1014.857462	0.078908
1015.027744	0.078913
1015.198007	0.080442
1015.368252	0.081167
1015.538480	0.080669
1015.708689	0.081398
1015.878879	0.081312
1016.049052	0.080919
1016.219206	0.080331
1016.389342	0.082833
1016.559460	0.081852
1016.729559	0.080475
1016.899641	0.080948
1017.069704	0.080068
1017.239749	0.079104
1017.409775	0.079662
1017.579784	0.078738
1017.749774	0.079590
1017.919746	0.077943
1018.089700	0.078160
1018.259635	0.078721
1018.429553	0.077681
1018.599452	0.078034
1018.769333	0.078333
1018.939195	0.079257
1019.109040	0.078745
1019.278866	0.078177
1019.448674	0.077859
1019.618464	0.077476
1019.788235	0.077739
1019.957989	0.078568
1020.127724	0.078105
1020.297441	0.078537
1020.467139	0.076041
1020.636820	0.077027
1020.806482	0.077665
1020.976126	0.079074
1021.145752	0.078572
1021.315359	0.078578
1021.484948	0.077108
1021.654519	0.076847
1021.824072	0.077050
1021.993607	0.078704
1022.163123	0.078491
1022.332621	0.077817
1022.502101	0.075866
1022.671563	0.075625
1022.841007	0.076150
1023.010432	0.076952
1023.179839	0.075643
1023.349228	0.073099
1023.518598	0.073227
1023.687951	0.073019
1023.857285	0.072992
1024.026601	0.073390
1024.195899	0.074491
1024.365178	0.074093
1024.534439	0.074920
1024.703682	0.075586
1024.872907	0.076752
1025.042114	0.074646
1025.211302	0.074307
1025.380472	0.073970
1025.549624	0.074514
1025.718758	0.074205
1025.887873	0.073455
1026.056970	0.072541
1026.226049	0.073142
1026.395110	0.073439
1026.564153	0.075246
1026.733177	0.076985
1026.902183	0.077396
1027.071171	0.078191
1027.240141	0.077919
1027.409092	0.079214
1027.578026	0.079434
1027.746940	0.079436
1027.915837	0.080473
1028.084716	0.079666
1028.253576	0.078679
1028.422418	0.078374
1028.591242	0.078843
1028.760048	0.078968
1028.928835	0.078586
1029.097604	0.077920
1029.266355	0.078316
1029.435088	0.077329
1029.603803	0.078106
1029.772499	0.078149
1029.941177	0.077782
1030.109837	0.076629
1030.278478	0.076185
1030.447102	0.074555
1030.615707	0.075320
1030.784294	0.076217
1030.952863	0.076460
1031.121413	0.076260
1031.289945	0.077760
1031.458460	0.078983
1031.626955	0.078260
1031.795433	0.077077
1031.963892	0.079188
1032.132334	0.079341
1032.300756	0.077678
1032.469161	0.077196
1032.637548	0.077860
1032.805916	0.075553
1032.974266	0.075475
1033.142598	0.076732
1033.310911	0.079565
1033.479207	0.077788
1033.647484	0.077370
1033.815743	0.077689
1033.983983	0.077940
1034.152206	0.076972
1034.320410	0.077504
1034.488596	0.077976
1034.656764	0.077892
1034.824914	0.076445
1034.993045	0.076645
1035.161158	0.076791
1035.329253	0.077877
1035.497330	0.079638
1035.665388	0.080827
1035.833428	0.080720
1036.001450	0.078731
1036.169454	0.079618
1036.337440	0.078664
1036.505407	0.078591
1036.673356	0.077833
1036.841287	0.076712
1037.009200	0.076138
1037.177094	0.074727
1037.344970	0.074122
1037.512828	0.074555
1037.680668	0.073203
1037.848489	0.073931
1038.016293	0.075458
1038.184078	0.077897
1038.351845	0.078218
1038.519593	0.077794
1038.687324	0.078021
1038.855036	0.078177
1039.022730	0.078773
1039.190406	0.077936
1039.358063	0.078465
1039.525702	0.075637
1039.693323	0.073207
1039.860926	0.074250
1040.028511	0.073523
1040.196077	0.074963
1040.363625	0.074744
1040.531155	0.075653
1040.698667	0.075386
1040.866161	0.074842
1041.033636	0.076709
1041.201093	0.077003
1041.368532	0.074831
1041.535952	0.074458
1041.703355	0.072576
1041.870739	0.072820
1042.038105	0.070757
1042.205452	0.071484
1042.372782	0.071892
1042.540093	0.071423
1042.707386	0.070943
1042.874661	0.071843
1043.041918	0.073436
1043.209156	0.074102
1043.376376	0.074860
1043.543578	0.076821
1043.710762	0.076835
1043.877927	0.076105
1044.045074	0.077636
1044.212203	0.078170
1044.379314	0.077012
1044.546407	0.076918
1044.713481	0.074725
1044.880537	0.073847
1045.047575	0.072210
1045.214595	0.072485
1045.381596	0.073988
1045.548579	0.072338
1045.715544	0.071117
1045.882491	0.071581
1046.049420	0.070078
1046.216330	0.072729
1046.383222	0.073216
1046.550096	0.074212
1046.716951	0.074328
1046.883789	0.072889
1047.050608	0.074294
1047.217409	0.075526
1047.384192	0.075666
1047.550956	0.075564
1047.717703	0.074348
1047.884431	0.074918
1048.051140	0.074273
1048.217832	0.074114
1048.384505	0.075097
1048.551161	0.075384
1048.717798	0.075739
1048.884416	0.077028
1049.051017	0.077022
1049.217599	0.076837
1049.384163	0.077092
1049.550709	0.076783
1049.717237	0.075833
1049.883746	0.075382
1050.050237	0.073329
1050.216710	0.074188
1050.383165	0.072501
1050.549601	0.072141
1050.716019	0.073200
1050.882420	0.072641
1051.048801	0.072126
1051.215165	0.071324
1051.381510	0.071809
1051.547837	0.072263
1051.714146	0.071396
1051.880437	0.071498
1052.046709	0.072425
1052.212964	0.072108
1052.379200	0.071354
1052.545417	0.072285
1052.711617	0.073812
1052.877798	0.073861
1053.043961	0.073016
1053.210106	0.071700
1053.376233	0.070557
1053.542341	0.071020
1053.708432	0.072064
1053.874504	0.072122
1054.040557	0.071725
1054.206593	0.070941
1054.372610	0.070495
1054.538609	0.071397
1054.704590	0.073876
1054.870553	0.076153
1055.036497	0.077170
1055.202424	0.076170
1055.368331	0.078864
1055.534221	0.078263
1055.700093	0.079216
1055.865946	0.081177
1056.031781	0.081726
1056.197598	0.079531
1056.363397	0.079506
1056.529177	0.077790
1056.694939	0.076565
1056.860683	0.074956
1057.026409	0.076023
1057.192116	0.074676
1057.357806	0.074541
1057.523477	0.072637
1057.689130	0.073043
1057.854764	0.072252
1058.020381	0.074144
1058.185979	0.076300
1058.351559	0.075173
1058.517120	0.076868
1058.682664	0.080062
1058.848189	0.079521
1059.013696	0.082417
1059.179185	0.082480
1059.344656	0.083744
1059.510108	0.083206
1059.675542	0.083262
1059.840958	0.082613
1060.006356	0.082012
1060.171735	0.081350
1060.337096	0.079310
1060.502439	0.078898
1060.667764	0.080106
1060.833071	0.081196
1060.998359	0.080155
1061.163629	0.079525
1061.328881	0.080805
1061.494115	0.080200
1061.659330	0.077949
1061.824527	0.077368
1061.989706	0.076623
1062.154867	0.076914
1062.320010	0.075503
1062.485134	0.076105
1062.650240	0.074354
1062.815328	0.076140
1062.980398	0.075244
1063.145449	0.079250
1063.310482	0.080415
1063.475497	0.079540
1063.640494	0.078827
1063.805473	0.079251
1063.970433	0.079567
1064.135375	0.080629
1064.300299	0.078534
1064.465204	0.077815
1064.630092	0.075163
1064.794961	0.076936
1064.959812	0.077209
1065.124645	0.077048
1065.289459	0.077074
1065.454256	0.075977
1065.619034	0.077356
1065.783793	0.079441
1065.948535	0.083255
1066.113258	0.081373
1066.277964	0.081202
1066.442651	0.081587
1066.607319	0.080594
1066.771970	0.080358
1066.936602	0.079835
1067.101216	0.079053
1067.265812	0.079002
1067.430389	0.076599
1067.594949	0.079370
1067.759490	0.079502
1067.924013	0.081252
1068.088518	0.082965
1068.253004	0.081889
1068.417472	0.082495
1068.581922	0.083542
1068.746354	0.085168
1068.910768	0.087050
1069.075163	0.086522
1069.239540	0.084409
1069.403899	0.082576
1069.568240	0.083863
1069.732562	0.086156
1069.896866	0.087521
1070.061152	0.087016
1070.225420	0.085062
1070.389670	0.084088
1070.553901	0.083525
1070.718114	0.083851
1070.882309	0.085060
1071.046486	0.084256
1071.210644	0.082739
1071.374784	0.081474
1071.538906	0.081294
1071.703010	0.079483
1071.867096	0.079627
1072.031163	0.079847
1072.195212	0.079862
1072.359243	0.079337
1072.523256	0.079997
1072.687250	0.081607
1072.851226	0.082774
1073.015184	0.083579
1073.179124	0.086067
1073.343045	0.085000
1073.506949	0.084292
1073.670834	0.085878
1073.834701	0.086382
1073.998549	0.083547
1074.162380	0.083061
1074.326192	0.082001
1074.489986	0.081865
1074.653761	0.082036
1074.817519	0.081622
1074.981258	0.084325
1075.144979	0.084681
1075.308682	0.084853
1075.472367	0.085876
1075.636033	0.086797
1075.799681	0.087146
1075.963311	0.086425
1076.126923	0.085270
1076.290516	0.085223
1076.454092	0.084640
1076.617649	0.084184
1076.781187	0.084564
1076.944708	0.084582
1077.108210	0.084673
1077.271695	0.082421
1077.435160	0.083448
1077.598608	0.081735
1077.762038	0.083587
1077.925449	0.083272
1078.088842	0.083290
1078.252217	0.082868
1078.415573	0.084923
1078.578912	0.084235
1078.742232	0.087139
1078.905534	0.088235
1079.068817	0.089036
1079.232083	0.090903
1079.395330	0.091339
1079.558559	0.092590
1079.721770	0.092130
1079.884962	0.092158
1080.048136	0.092075
1080.211293	0.091229
1080.374430	0.088416
1080.537550	0.090827
1080.700651	0.089914
1080.863735	0.089281
1081.026800	0.088136
1081.189846	0.087728
1081.352875	0.086099
1081.515885	0.087142
1081.678877	0.088203
1081.841851	0.088597
1082.004807	0.086447
1082.167744	0.086230
1082.330663	0.086594
1082.493564	0.088885
1082.656447	0.090635
1082.819312	0.091360
1082.982158	0.090504
1083.144986	0.090688
1083.307796	0.094832
1083.470587	0.095480
1083.633361	0.093433
1083.796116	0.096665
1083.958853	0.093818
1084.121571	0.094439
1084.284272	0.095079
1084.446954	0.094709
1084.609618	0.092724
1084.772264	0.088585
1084.934892	0.089193
1085.097501	0.090678
1085.260092	0.086633
1085.422665	0.088101
1085.585220	0.088458
1085.747756	0.089591
1085.910274	0.089272
1086.072774	0.091518
1086.235256	0.095134
1086.397720	0.092520
1086.560165	0.092820
1086.722592	0.094668
1086.885001	0.091715
1087.047392	0.089946
1087.209764	0.088361
1087.372119	0.088676
1087.534455	0.090028
1087.696772	0.089054
1087.859072	0.090699
1088.021353	0.091008
1088.183616	0.088961
1088.345861	0.092184
1088.508088	0.090515
1088.670296	0.090608
1088.832486	0.088997
1088.994658	0.087922
1089.156812	0.087318
1089.318948	0.086853
1089.481065	0.087365
1089.643164	0.089853
1089.805245	0.090014
1089.967308	0.090650
1090.129352	0.090650
1090.291378	0.094391
1090.453386	0.094978
1090.615376	0.096068
1090.777347	0.097067
1090.939301	0.095822
1091.101236	0.094322
1091.263153	0.094641
1091.425051	0.097096
1091.586932	0.097325
1091.748794	0.093864
1091.910638	0.092699
1092.072463	0.091877
1092.234271	0.093431
1092.396060	0.093823
1092.557831	0.092134
1092.719584	0.093314
1092.881319	0.092934
1093.043035	0.092955
1093.204733	0.093939
1093.366413	0.092895
1093.528075	0.091868
1093.689718	0.090349
1093.851343	0.089845
1094.012950	0.092492
1094.174539	0.091743
1094.336110	0.091529
1094.497662	0.091679
1094.659196	0.094251
1094.820712	0.096052
1094.982210	0.097444
1095.143689	0.098679
1095.305151	0.099653
1095.466594	0.097941
1095.628018	0.097399
1095.789425	0.095142
1095.950813	0.093458
1096.112183	0.092657
1096.273535	0.092823
1096.434869	0.090751
1096.596184	0.090045
1096.757482	0.091254
1096.918761	0.090133
1097.080021	0.090074
1097.241264	0.089751
1097.402488	0.092754
1097.563694	0.091566
1097.724882	0.092801
1097.886052	0.094470
1098.047203	0.091998
1098.208336	0.090375
1098.369451	0.092121
1098.530548	0.091205
1098.691627	0.093595
1098.852687	0.092159
1099.013729	0.090344
1099.174753	0.088552
1099.335758	0.087676
1099.496746	0.089918
1099.657715	0.090223
1099.818666	0.091102
1099.979599	0.091459
1100.140513	0.092644
1100.301409	0.093734
1100.462287	0.096500
1100.623147	0.096877
1100.783989	0.098858
1100.944812	0.096702
1101.105617	0.092707
1101.266404	0.093274
1101.427173	0.093770
1101.587923	0.096283
1101.748656	0.094504
1101.909370	0.094038
1102.070066	0.095169
1102.230743	0.094969
1102.391403	0.097195
1102.552044	0.099642
1102.712667	0.099900
1102.873271	0.098561
1103.033858	0.094738
1103.194426	0.097130
1103.354976	0.096853
1103.515508	0.092825
1103.676021	0.094219
1103.836517	0.094871
1103.996994	0.095020
1104.157453	0.097528
1104.317893	0.097411
1104.478316	0.097637
1104.638720	0.093706
1104.799106	0.093499
1104.959474	0.095821
1105.119823	0.093814
1105.280155	0.095972
1105.440468	0.096324
1105.600763	0.093864
1105.761039	0.096442
1105.921298	0.096356
1106.081538	0.100131
1106.241760	0.100573
1106.401964	0.100989
1106.562149	0.101498
1106.722316	0.100035
1106.882465	0.102631
1107.042596	0.102163
1107.202709	0.100202
1107.362803	0.101141
1107.522879	0.101345
1107.682937	0.101395
1107.842977	0.103036
1108.002999	0.103833
1108.163002	0.102271
1108.322987	0.102409
1108.482954	0.103162
1108.642902	0.104034
1108.802833	0.105717
1108.962745	0.105568
1109.122639	0.102936
1109.282515	0.101466
1109.442372	0.098119
1109.602211	0.098906
1109.762032	0.099453
1109.921835	0.099029
1110.081620	0.099871
1110.241386	0.100350
1110.401134	0.100024
1110.560864	0.099335
1110.720576	0.099532
1110.880269	0.102057
1111.039945	0.101132
1111.199602	0.098711
1111.359240	0.100536
1111.518861	0.097863
1111.678463	0.093944
1111.838047	0.091808
1111.997613	0.096183
1112.157161	0.098378
1112.316690	0.100987
1112.476202	0.098583
1112.635695	0.101238
1112.795169	0.100062
1112.954626	0.098027
1113.114064	0.102280
1113.273484	0.106562
1113.432886	0.104584
1113.592270	0.100847
1113.751635	0.097437
1113.910983	0.102913
1114.070312	0.102503
1114.229622	0.101880
1114.388915	0.105816
1114.548189	0.102146
1114.707445	0.096194
1114.866683	0.093517
1115.025903	0.094379
1115.185104	0.092738
1115.344287	0.092754
1115.503452	0.092839
1115.662599	0.090248
1115.821727	0.088101
1115.980838	0.092809
1116.139930	0.096890
1116.299004	0.102702
1116.458059	0.104824
1116.617097	0.105370
1116.776116	0.105389
1116.935117	0.101622
1117.094099	0.104874
1117.253064	0.106308
1117.412010	0.105692
1117.570938	0.103532
1117.729848	0.104002
1117.888740	0.104600
1118.047613	0.106689
1118.206468	0.108248
1118.365305	0.110066
1118.524124	0.111650
1118.682924	0.110572
1118.841707	0.105310
1119.000471	0.106534
1119.159216	0.104390
1119.317944	0.102978
1119.476653	0.100341
1119.635344	0.097577
1119.794017	0.099045
1119.952672	0.099233
1120.111308	0.103883
1120.269927	0.104982
1120.428527	0.106034
1120.587108	0.105923
1120.745672	0.106001
1120.904217	0.106620
1121.062744	0.106135
1121.221253	0.108512
1121.379744	0.102516
1121.538216	0.096816
1121.696671	0.098682
1121.855107	0.098824
1122.013524	0.098823
1122.171924	0.100016
1122.330305	0.102334
1122.488668	0.102155
1122.647013	0.096586
1122.805340	0.101351
1122.963648	0.107655
1123.121938	0.109236
1123.280210	0.110294
1123.438464	0.113540
1123.596700	0.113484
1123.754917	0.113551
1123.913116	0.113816
1124.071297	0.117888
1124.229459	0.117351
1124.387604	0.114255
1124.545730	0.111582
1124.703838	0.111105
1124.861928	0.105181
1125.019999	0.107603
1125.178052	0.110752
1125.336088	0.110009
1125.494104	0.108278
1125.652103	0.106819
1125.810083	0.103721
1125.968045	0.103295
1126.125989	0.104961
1126.283915	0.111777
1126.441823	0.110386
1126.599712	0.102305
1126.757583	0.104828
1126.915436	0.104058
1127.073270	0.103845
1127.231087	0.110157
1127.388885	0.110263
1127.546665	0.109436
1127.704426	0.106461
1127.862170	0.106241
1128.019895	0.109597
1128.177602	0.109049
1128.335291	0.110614
1128.492961	0.112669
1128.650614	0.108978
1128.808248	0.113046
1128.965864	0.109775
1129.123461	0.111967
1129.281041	0.110618
1129.438602	0.108958
1129.596145	0.108271
1129.753670	0.109031
1129.911176	0.108401
1130.068665	0.109780
1130.226135	0.108475
1130.383587	0.109470
1130.541020	0.106832
1130.698436	0.106492
1130.855833	0.110884
1131.013212	0.109665
1131.170573	0.109826
1131.327915	0.111233
1131.485239	0.113994
1131.642545	0.111492
1131.799833	0.113957
1131.957103	0.114678
1132.114354	0.112782
1132.271588	0.108001
1132.428803	0.111330
1132.585999	0.107776
1132.743178	0.105267
1132.900338	0.103188
1133.057480	0.102014
1133.214604	0.102156
1133.371710	0.101594
1133.528797	0.106782
1133.685866	0.111971
1133.842917	0.109966
1133.999950	0.108699
1134.156964	0.109540
1134.313960	0.111530
1134.470938	0.111154
1134.627898	0.106399
1134.784840	0.105372
1134.941763	0.101850
1135.098668	0.098718
1135.255555	0.102924
1135.412424	0.107912
1135.569274	0.111781
1135.726107	0.107591
1135.882921	0.107637
1136.039716	0.108526
1136.196494	0.111318
1136.353253	0.110465
1136.509995	0.111365
1136.666717	0.110297
1136.823422	0.106737
1136.980109	0.104101
1137.136777	0.109309
1137.293427	0.110862
1137.450059	0.112672
1137.606672	0.110633
1137.763267	0.109394
1137.919844	0.113263
1138.076403	0.111817
1138.232944	0.116606
1138.389466	0.113841
1138.545971	0.109050
1138.702457	0.108617
1138.858924	0.111206
1139.015374	0.111318
1139.171805	0.113306
1139.328218	0.114893
1139.484613	0.115040
1139.640990	0.110577
1139.797348	0.113666
1139.953688	0.112525
1140.110010	0.109824
1140.266314	0.108035
1140.422600	0.108454
1140.578867	0.110311
1140.735116	0.108742
1140.891347	0.103740
1141.047559	0.113456
1141.203754	0.113163
1141.359930	0.115438
1141.516088	0.122551
1141.672228	0.124770
1141.828349	0.124536
1141.984452	0.122256
1142.140537	0.116831
1142.296604	0.120922
1142.452653	0.110793
1142.608683	0.110891
1142.764695	0.111478
1142.920689	0.108174
1143.076665	0.105677
1143.232622	0.106022
1143.388562	0.106344
1143.544483	0.107415
1143.700385	0.106350
1143.856270	0.112589
1144.012136	0.111293
1144.167985	0.104704
1144.323814	0.101877
1144.479626	0.100974
1144.635420	0.099177
1144.791195	0.098667
1144.946952	0.098949
1145.102691	0.096431
1145.258411	0.087330
1145.414113	0.091639
1145.569798	0.092382
1145.725463	0.094760
1145.881111	0.096971
1146.036741	0.096379
1146.192352	0.096326
1146.347945	0.093942
1146.503519	0.096295
1146.659076	0.099675
1146.814614	0.095415
1146.970134	0.099365
1147.125636	0.099131
1147.281120	0.094826
1147.436585	0.098186
1147.592032	0.097720
1147.747461	0.101050
1147.902872	0.093172
1148.058265	0.092524
1148.213639	0.090152
1148.368995	0.090953
1148.524333	0.090414
1148.679653	0.090825
1148.834954	0.093181
1148.990237	0.092484
1149.145502	0.087345
1149.300749	0.098578
1149.455977	0.099976
1149.611188	0.096864
1149.766380	0.097185
1149.921553	0.097484
1150.076709	0.099946
1150.231846	0.100079
1150.386966	0.106183
1150.542066	0.115103
1150.697149	0.116672
1150.852214	0.115531
1151.007260	0.121875
1151.162288	0.119633
1151.317298	0.122173
1151.472289	0.119494
1151.627263	0.115826
1151.782218	0.113949
1151.937155	0.111019
1152.092073	0.110231
1152.246974	0.115603
1152.401856	0.117582
1152.556720	0.112895
1152.711566	0.115857
1152.866393	0.115495
1153.021203	0.111769
1153.175994	0.103695
1153.330767	0.105030
1153.485521	0.102675
1153.640258	0.095001
1153.794976	0.091941
1153.949676	0.095109
1154.104358	0.083213
1154.259021	0.080002
1154.413667	0.083548
1154.568294	0.086631
1154.722903	0.083678
1154.877493	0.081705
1155.032066	0.089532
1155.186620	0.092428
1155.341156	0.090006
1155.495674	0.101814
1155.650173	0.107849
1155.804654	0.104832
1155.959118	0.109908
1156.113562	0.115572
1156.267989	0.116323
1156.422397	0.116591
1156.576788	0.111737
1156.731160	0.114493
1156.885513	0.111016
1157.039849	0.111509
1157.194166	0.111837
1157.348465	0.108345
1157.502746	0.102581
1157.657009	0.101702
1157.811253	0.096240
1157.965479	0.097825
1158.119687	0.095565
1158.273877	0.093918
1158.428048	0.094596
1158.582201	0.091408
1158.736337	0.089653
1158.890453	0.086476
1159.044552	0.088469
1159.198632	0.088689
1159.352694	0.088111
1159.506738	0.088320
1159.660764	0.084241
1159.814771	0.081452
1159.968761	0.085861
1160.122732	0.088521
1160.276685	0.091159
1160.430619	0.083179
1160.584535	0.083515
1160.738434	0.086723
1160.892313	0.094556
1161.046175	0.101947
1161.200019	0.102621
1161.353844	0.102064
1161.507651	0.104559
1161.661440	0.110071
1161.815210	0.108729
1161.968962	0.111823
1162.122697	0.099182
1162.276412	0.090929
1162.430110	0.085903
1162.583789	0.082757
1162.737451	0.084571
1162.891094	0.078919
1163.044718	0.077753
1163.198325	0.084591
1163.351913	0.081368
1163.505483	0.083720
1163.659035	0.087591
1163.812569	0.095587
1163.966084	0.100486
1164.119581	0.103351
1164.273060	0.102034
1164.426521	0.097651
1164.579964	0.095159
1164.733388	0.089908
1164.886794	0.097437
1165.040182	0.099481
1165.193551	0.094609
1165.346903	0.092915
1165.500236	0.089133
1165.653551	0.086523
1165.806848	0.086610
1165.960126	0.086044
1166.113386	0.087830
1166.266628	0.085343
1166.419852	0.074504
1166.573058	0.075943
1166.726245	0.076458
1166.879414	0.074198
1167.032565	0.075847
1167.185698	0.076724
1167.338812	0.076919
1167.491909	0.080109
1167.644987	0.083494
1167.798046	0.094172
1167.951088	0.093696
1168.104111	0.093392
1168.257117	0.096995
1168.410103	0.103497
1168.563072	0.102218
1168.716023	0.103434
1168.868955	0.099213
1169.021869	0.100725
1169.174765	0.104466
1169.327642	0.105812
1169.480501	0.106140
1169.633343	0.100082
1169.786165	0.098239
1169.938970	0.095851
1170.091757	0.096884
1170.244525	0.093442
1170.397275	0.079754
1170.550007	0.068390
1170.702720	0.068820
1170.855415	0.063986
1171.008092	0.068494
1171.160751	0.068730
1171.313392	0.071854
1171.466014	0.067708
1171.618619	0.098713
1171.771205	0.098713
1171.923772	0.098713
