sample name	sample
index	801
start time	 03-31-2021  02:48:10 PM
880	0.416775
Peak Time (s)	91.535
Peak Height 	0.4168
calc peak height	90,93
Baseline Time (s)	10.536
Baseline Value 	-0.00256
subtract baseline	10,4
Abs	0.299136
Peak Time (s)	92.035
Peak Height 	0.2991
calc peak height	90,93
Baseline Time (s)	11.038
Baseline Value 	0.001893
subtract baseline	10,3
PK_550	0.167406
Peak Time (s)	91.535
Peak Height 	0.1674
calc peak height	90,93
Baseline Time (s)	11.536
Baseline Value 	4.5069E-4
subtract baseline	10,2
PK_880	0.282415
Peak Time (s)	91.535
Peak Height 	0.2824
calc peak height	90,93
Baseline Time (s)	11.536
Baseline Value 	0.00189
subtract baseline	10,1


Time (s)	A880-A510	A880-A775	A880-A975	A880	I510	I775	I975	I880	
0.034000	-0.001439	0.000184	0.000554	0.002743	6738.213370	40390.568643	4077.203341	22107.828017
0.535000	-0.003564	-0.000579	0.000885	0.003647	6713.238385	40248.078185	4075.939833	22068.399864
1.035000	-0.004190	0.000406	0.001470	0.004324	6702.545705	40274.376018	4075.735850	22038.890224
1.539000	-0.000158	-0.001040	0.000835	0.001373	6760.223452	40403.173568	4080.861921	22167.777624
2.036000	-0.000906	-0.000932	-0.001891	0.000584	6760.574400	40480.136371	4076.572973	22202.404218
2.536000	0.001335	-0.000118	-0.000376	0.001724	6769.746239	40452.142126	4077.401385	22152.393157
3.036500	-0.000688	0.000298	0.004160	-0.001287	6778.004664	40747.431314	4094.236194	22284.711581
3.537000	0.000636	0.000021	-0.002414	0.000702	6772.443298	40551.853786	4075.155901	22197.195484
4.039500	-0.002695	-0.000082	0.002513	0.000654	6745.120128	40547.147264	4086.196933	22199.320021
4.537000	-0.001373	-0.000652	0.002381	-0.000029	6761.788217	40556.939229	4087.427081	22229.341780
5.035000	-0.000784	-0.000328	0.001472	0.000266	6764.236456	40559.424995	4084.740786	22216.376067
5.534500	-0.000113	-0.000630	0.003646	0.000355	6769.094047	40525.800071	4089.399675	22212.470549
6.038000	-0.002091	-0.000285	0.003835	0.000028	6755.337549	40583.648430	4090.554100	22226.831130
6.535500	-0.001406	-0.000447	-0.004736	0.000075	6760.646685	40565.642093	4071.425798	22224.749432
7.036000	-0.000256	-0.001148	0.007134	0.000008	6770.793402	40511.093118	4098.023103	22227.710840
7.536500	-0.001108	-0.000172	0.001154	0.000758	6757.444622	40530.550081	4082.938436	22194.777875
8.036000	-0.000834	0.000146	0.004767	0.001400	6754.371169	40502.621792	4089.566856	22166.587276
8.537000	-0.000946	-0.000132	0.001141	-0.000165	6766.480835	40613.435399	4084.963636	22235.321931
9.037000	-0.001473	-0.000662	-0.000414	-0.000205	6762.414074	40571.145350	4081.591079	22237.047715
9.534500	-0.000831	-0.000813	0.003702	-0.000533	6770.514738	40586.456702	4091.515420	22251.513703
10.037000	0.000086	0.000033	-0.001170	0.000993	6765.424185	40527.938063	4077.263142	22184.444311
10.535500	0.000403	0.000340	0.003278	0.000000	6776.369541	40639.894970	4089.369035	22228.050028
11.038000	0.000774	0.000320	0.000000	0.000071	6778.878502	40632.067522	4081.900101	22224.947812
11.535500	0.000000	0.000000	-0.001553	0.000082	6772.316664	40603.552211	4078.431458	22224.466825
12.036000	-0.000977	-0.000592	0.003511	-0.000506	6769.059363	40603.142473	4091.023451	22250.290262
12.536500	-0.000814	0.000610	-0.003769	0.000809	6759.459054	40593.381032	4071.935721	22192.503656
13.039000	-0.000210	0.000355	0.003190	0.000792	6764.632613	40572.944374	4087.400554	22193.264127
13.536500	-0.001299	-0.000102	0.000806	0.001427	6750.290228	40478.943888	4080.676340	22165.400503
14.038000	-0.001548	-0.000351	0.005028	0.002466	6739.612666	40368.533078	4087.766605	22119.955202
14.537000	-0.002256	0.000297	0.002631	0.003111	6728.426099	40368.798950	4080.991369	22091.771339
15.036000	0.000209	0.000247	0.000446	0.001701	6760.549449	40485.398475	4079.271214	22153.407839
15.538000	-0.001373	0.000232	-0.001935	0.001564	6748.543788	40495.928543	4074.312839	22159.428508
16.038000	-0.001776	0.000063	-0.002643	0.000973	6750.094719	40532.204158	4074.054753	22185.310748
16.538000	0.000203	-0.000335	0.001512	0.000647	6769.295387	40526.060944	4083.982554	22199.650096
17.036000	-0.001030	-0.000073	0.004817	-0.003170	6790.923887	40878.471044	4099.968431	22367.905907
17.536000	-0.002571	-0.000951	-0.003312	0.001202	6741.605112	40425.420768	4072.077873	22175.267637
18.038000	-0.000321	0.000267	-0.000894	0.002147	6752.433270	40448.852027	4075.322392	22133.879163
18.534500	-0.001710	-0.000398	0.001119	0.001426	6746.888407	40453.669237	4081.374547	22165.450888
19.038000	-0.001268	-0.000175	0.005205	0.002066	6745.246218	40417.860252	4089.056554	22137.428317
19.534500	-0.001475	-0.000630	0.004450	0.001380	6749.220684	40437.717139	4088.902232	22167.480727
20.037000	0.000038	0.000054	0.003913	0.002049	6756.229717	40439.045432	4086.208501	22138.187399
20.535500	-0.002410	0.000157	0.000846	0.002266	6734.130255	40429.219025	4078.905766	22128.686344
21.035500	-0.001622	0.000021	-0.003677	0.001915	6743.566479	40447.707060	4069.710669	22144.053604
21.536000	-0.000724	-0.001011	0.000082	0.001256	6756.486048	40415.667804	4079.451236	22172.905828
22.036500	-0.002049	-0.000612	0.004558	0.001613	6742.532854	40419.343874	4088.624918	22157.288329
22.536500	-0.002694	-0.000474	0.001521	0.001456	6738.481114	40444.545338	4082.200326	22164.135794
23.036500	-0.000173	0.000537	-0.000944	0.001904	6755.686372	40492.978327	4075.748399	22144.537753
23.536000	-0.000644	-0.000312	-0.001475	0.001197	6757.643145	40480.697849	4076.136380	22175.496314
24.038000	-0.001258	-0.000320	0.002490	0.001833	6747.259267	40425.455228	4083.517559	22147.638104
24.540500	-0.001998	-0.000394	0.001578	0.001829	6741.164092	40419.469467	4081.499347	22147.834109
25.036500	0.000764	0.000791	0.002225	0.002196	6761.045114	40489.628535	4082.120317	22131.740641
25.535000	0.000073	0.000211	-0.000891	0.002247	6754.880669	40435.516635	4075.109321	22129.537054
26.035500	-0.002478	-0.000676	0.000600	0.001981	6735.929365	40382.248857	4078.991043	22141.144147
26.536000	-0.001597	-0.000246	0.003754	0.001734	6745.271070	40440.278436	4086.555685	22151.974585
27.036500	0.000002	-0.000702	0.002214	-0.000575	6777.821853	40599.613053	4088.273671	22253.330330
27.537000	-0.001198	-0.000201	0.000151	-0.000498	6767.155309	40636.162412	4083.499897	22249.962263
28.037000	-0.001546	0.000303	0.005986	0.001326	6749.073249	40522.473497	4092.466894	22169.838028
28.537000	-0.001290	-0.000371	0.005127	0.000992	6753.975111	40493.261904	4091.288215	22184.473036
29.037500	0.001009	-0.000242	0.007530	0.001434	6769.448010	40466.355461	4095.697075	22165.102704
29.535000	-0.001835	0.000009	-0.000961	0.001649	6743.999445	40469.477560	4076.274245	22155.678263
30.035500	-0.000715	0.000075	0.007840	0.001786	6752.156583	40463.330555	4095.602399	22149.682141
30.535000	-0.004028	-0.001270	-0.003926	0.001849	6724.220303	40342.641816	4069.309158	22146.926064
31.036000	-0.000509	0.000254	0.003007	0.003120	6742.799512	40364.360167	4081.805356	22091.386785
31.536500	-0.003724	-0.000461	-0.000981	0.001528	6729.381510	40439.510102	4076.499126	22161.007016
32.036500	-0.001854	-0.000507	-0.003398	0.000887	6750.169326	40490.604897	4072.581857	22189.112280
32.537000	-0.001019	0.000144	-0.002728	0.001028	6755.938405	40534.489715	4073.746713	22182.924155
33.037000	-0.001212	-0.000240	-0.000294	-0.000345	6765.762782	40619.636146	4082.170271	22243.217311
33.539000	-0.001900	-0.000686	0.000489	0.001073	6748.241655	40459.272103	4080.761840	22180.954776
34.037500	0.000083	-0.000089	0.005203	0.001997	6757.037249	40431.234115	4089.207346	22140.462099
34.535000	-0.001461	-0.000167	0.001784	0.002146	6742.977926	40411.731869	4081.251555	22133.931236
35.035500	-0.002579	0.000414	0.000161	0.002778	6728.507079	40407.319929	4076.258322	22106.307831
35.536000	-0.002551	-0.001017	0.006493	0.001616	6738.347217	40384.300623	4092.954577	22157.149179
36.036000	-0.003383	-0.000471	0.003194	0.001944	6728.753677	40402.968269	4084.837562	22142.780624
36.535500	-0.002644	-0.000625	-0.001533	0.002043	6734.040233	40381.240177	4074.141459	22138.432589
37.036000	-0.000299	-0.000064	0.000774	0.002431	6750.254704	40396.125128	4078.381865	22121.477886
37.537000	-0.002521	-0.000204	0.000771	0.002068	6734.854830	40415.299632	4079.179103	22137.360334
38.037000	-0.002108	-0.000511	-0.003472	0.002031	6738.576719	40392.083541	4069.905116	22138.958639
38.537000	-0.002266	-0.000211	-0.000962	0.002275	6735.249307	40396.907983	4074.891515	22128.305975
39.035500	-0.001954	0.000039	0.004988	0.002561	6735.471201	40393.827157	4087.466896	22115.819057
39.535500	-0.001739	-0.000922	0.001422	0.001775	6743.754132	40378.827836	4081.272969	22150.182834
40.035500	-0.001201	-0.000193	0.003723	0.002075	6745.727654	40415.586835	4085.725930	22137.057419
40.535500	-0.002725	-0.000265	0.001630	0.002132	6732.641529	40404.495855	4080.942757	22134.559439
41.038500	-0.000528	0.000052	-0.003712	0.002621	6746.776102	40389.790257	4068.086447	22113.161582
41.536500	-0.001272	-0.001244	0.001889	0.001606	6749.029325	40365.717867	4082.686581	22157.592597
42.036500	0.001528	-0.000346	0.002012	0.002136	6767.917435	40397.206722	4081.782066	22134.381993
42.536500	-0.000992	0.000008	-0.003222	0.002681	6742.436804	40380.934224	4069.029968	22110.566528
43.037000	-0.002916	-0.000649	0.001659	0.001741	6734.286584	40405.080735	4081.874177	22151.654529
43.534500	0.001637	0.000157	0.008969	-0.002116	6804.489571	40806.952848	4107.004370	22321.275880
44.037500	-0.001782	-0.000378	0.002613	0.000576	6753.348809	40528.433824	4086.592953	22202.745361
44.535500	-0.001242	0.000168	0.002170	0.001731	6748.241111	40476.046571	4083.032423	22152.088652
45.035500	-0.001006	-0.000495	0.003350	0.001086	6755.559986	40474.509756	4087.100106	22180.358698
45.538500	-0.003420	-0.000368	-0.003412	0.005014	6703.200910	40149.553039	4063.514866	22008.898335
46.039000	-0.000353	0.000483	0.000405	0.002147	6752.167848	40467.404333	4078.193512	22133.913547
46.536500	-0.001315	-0.000367	0.003332	0.000833	6755.094014	40507.354205	4087.627088	22191.483054
47.036500	-0.002657	-0.000329	0.000147	0.002155	6733.008634	40397.073805	4077.605369	22133.533957
47.540000	-0.002030	0.000366	0.000909	0.003160	6729.884241	40370.549340	4077.068695	22089.638561
48.038500	-0.002504	-0.000254	0.002354	0.000707	6746.267689	40527.850538	4085.723744	22196.994521
48.535000	-0.001734	-0.000630	-0.005172	0.000762	6752.205547	40490.770169	4068.961147	22194.590654
49.035000	0.000816	0.000225	0.000652	0.001076	6770.827247	40537.263252	4081.114293	22180.799679
49.535500	0.000930	-0.000883	0.003090	-0.002581	6802.447569	40757.199365	4094.739352	22341.831749
50.036000	0.001836	-0.000039	0.005658	0.001215	6778.198148	40502.654641	4091.982137	22174.733230
50.536000	0.002994	0.003000	-0.000975	0.022421	6614.243611	38973.413724	4031.445044	21267.440853
51.036500	-0.045060	0.006932	-0.013028	0.089077	5808.726402	34159.245283	3879.867698	18687.699015
51.536500	-0.053880	-0.016388	-0.016281	-0.127644	7444.803593	51540.846378	4364.138480	28751.010773
52.037500	-0.038193	-0.111615	-0.000783	-0.333238	10302.602342	65535.000000	5191.941554	44259.176025
52.537500	-0.034306	-0.138824	0.001033	-0.360448	10833.965935	65535.000000	5335.354995	46918.053797
53.037000	-0.031375	-0.092779	0.002473	-0.314403	10107.235789	65535.000000	5118.825310	42513.796748
53.535000	-0.020721	-0.084719	0.012675	-0.306280	10147.928244	65526.035714	5128.431833	41784.129724
54.035000	-0.004475	-0.051895	0.024095	-0.263385	9731.086773	64096.752131	4987.816336	38149.393612
54.535500	0.010671	-0.029591	0.023739	-0.232796	9500.963844	62945.564357	4859.151343	35768.088237
55.035500	0.029196	-0.024180	0.037817	-0.228664	9715.176016	63121.775559	4899.509181	35459.092025
55.536000	0.039862	0.003067	0.051317	-0.166528	8980.784052	58494.387171	4710.662250	31150.176223
56.036500	0.060791	0.019601	0.073807	-0.107671	8492.672965	53357.807454	4582.646027	27599.672935
56.536500	0.077448	0.033328	0.090071	-0.050412	8015.291021	48571.560893	4450.628102	24577.905267
57.037000	0.097795	0.047308	0.108804	0.003881	7649.053143	44547.438002	4345.782319	22058.219947
57.534500	0.114314	0.058205	0.125934	0.050956	7342.976825	41240.666004	4263.911100	20114.420727
58.034500	0.135653	0.070122	0.144646	0.090677	7168.959713	38880.047538	4209.752604	18630.499139
58.535500	0.149768	0.080835	0.154975	0.127534	6963.620756	36794.107925	4145.001167	17369.830194
59.035500	0.164597	0.090370	0.170318	0.177348	6667.997190	33816.342270	4066.561255	15827.375010
59.536000	0.173200	0.095184	0.184367	0.215706	6434.653424	31538.803875	4014.872075	14754.556909
60.036000	0.184915	0.102035	0.199389	0.206018	6600.881194	32639.819823	4067.440087	15016.639945
60.536000	0.193527	0.106724	0.212503	0.240974	6397.422772	30656.267829	4020.819793	14097.860408
61.036500	0.201193	0.113167	0.211678	0.259091	6320.067960	29927.425410	3982.248005	13650.008380
61.540000	0.218677	0.125785	0.219560	0.286462	6248.585393	29033.939450	3944.280213	13007.854687
62.034000	0.224277	0.127024	0.228532	0.297517	6209.829156	28455.989272	3940.318842	12759.727109
62.537500	0.228262	0.129509	0.231779	0.308156	6163.219594	27985.811736	3926.425781	12526.863492
63.046000	0.233381	0.134094	0.243388	0.317234	6135.816283	27730.441072	3931.156280	12332.602888
63.535000	0.237942	0.135206	0.241736	0.324772	6115.377983	27369.765697	3914.108244	12174.356499
64.035500	0.240462	0.136896	0.246915	0.332143	6082.380746	27055.405699	3910.097591	12022.268272
64.539000	0.241987	0.138125	0.249025	0.338533	6049.642804	26773.249827	3902.317690	11892.467716
65.036500	0.247371	0.140911	0.250666	0.346230	6034.208246	26507.915847	3891.443975	11738.655630
65.539500	0.250478	0.143406	0.262974	0.353309	6007.904422	26262.941034	3900.824877	11599.584585
66.040000	0.254012	0.145805	0.260103	0.359521	5990.290210	26061.107150	3884.601657	11479.375414
66.537000	0.255595	0.146696	0.258686	0.364727	5966.648760	25834.901258	3872.985857	11379.976178
67.037500	0.259268	0.148420	0.269328	0.370679	5951.878251	25615.363146	3881.194690	11267.771405
67.534500	0.261047	0.149553	0.269633	0.380916	5897.719918	25149.841302	3863.915026	11078.329146
68.035500	0.261563	0.151586	0.274880	0.379527	5909.832548	25323.694473	3875.416768	11103.780486
68.535000	0.264507	0.152939	0.270165	0.384374	5897.733406	25146.210606	3858.899777	11015.351983
69.035500	0.271108	0.154133	0.272733	0.388241	5915.130715	25011.428906	3856.684641	10945.512558
69.535500	0.263523	0.154198	0.272437	0.396875	5813.543084	24584.764885	3841.630252	10791.784486
70.036000	0.272848	0.156001	0.276299	0.394486	5886.528557	24792.441450	3852.136642	10834.021026
70.539500	0.269995	0.157878	0.281632	0.397957	5846.881189	24713.199463	3855.293183	10772.737882
71.036500	0.273111	0.158515	0.279957	0.400064	5853.173109	24640.444014	3848.893464	10735.783558
71.537000	0.270359	0.159122	0.276996	0.407778	5788.666323	24292.040144	3831.122210	10601.993020
72.034500	0.276842	0.160166	0.283838	0.404689	5847.597019	24493.980340	3847.639958	10655.279075
72.535000	0.277888	0.161318	0.289767	0.406761	5841.222983	24448.859734	3854.158606	10619.496303
73.035000	0.279246	0.161815	0.288447	0.408323	5839.953038	24396.732803	3849.281979	10592.622783
73.535500	0.279523	0.162775	0.287672	0.409370	5835.177266	24392.473721	3846.215897	10574.674967
74.036000	0.282516	0.163465	0.293455	0.411237	5842.168019	24335.068572	3852.822301	10542.771753
74.536000	0.282325	0.164387	0.284425	0.413036	5829.827368	24292.400718	3834.700247	10512.148591
75.039000	0.282033	0.161445	0.292112	0.410826	5841.716277	24256.835942	3851.244211	10549.778975
75.536500	0.281883	0.163382	0.286810	0.412220	5832.146305	24283.214800	3840.010471	10526.026229
76.036500	0.282724	0.164201	0.293987	0.413161	5831.521683	24277.270989	3850.466734	10510.023122
76.534500	0.280707	0.164136	0.290469	0.413781	5815.261608	24244.036247	3843.511872	10499.514367
77.034500	0.283419	0.165332	0.293572	0.415191	5823.279661	24233.655392	3846.350302	10475.644727
77.535500	0.282955	0.166567	0.300265	0.415430	5818.945552	24281.977218	3857.268274	10471.602281
78.035500	0.284269	0.164726	0.292180	0.413715	5837.662116	24275.853266	3846.490130	10500.619860
78.535500	0.283797	0.165351	0.286766	0.416096	5820.023990	24190.727014	3833.513753	10460.361360
79.036000	0.286840	0.166631	0.294048	0.418097	5826.451832	24155.856524	3842.279401	10426.687300
79.536000	0.283908	0.166333	0.293957	0.418221	5807.649001	24135.490069	3841.921612	10424.620251
80.036500	0.283462	0.166352	0.293111	0.417931	5806.692602	24150.388040	3840.993050	10429.482964
80.537000	0.284342	0.166342	0.293544	0.418200	5810.443197	24136.923887	3841.266990	10424.971804
81.037000	0.286021	0.165090	0.289353	0.417778	5823.372105	24096.945707	3835.009716	10432.058557
81.537000	0.285189	0.166067	0.295938	0.417707	5818.681217	24147.477118	3846.098310	10433.248308
82.035000	0.284372	0.166360	0.291493	0.418081	5811.354388	24143.504360	3838.050787	10426.958719
82.535000	0.284879	0.165645	0.298150	0.417309	5819.218781	24146.260337	3850.491316	10439.928945
83.035500	0.284769	0.166776	0.291169	0.418090	5813.736864	24163.218900	3837.499619	10426.815444
83.535500	0.284016	0.165991	0.290219	0.416743	5817.390569	24190.377426	3838.157323	10449.451239
84.036000	0.286497	0.167383	0.298630	0.418107	5824.278552	24191.726301	3849.956294	10426.533318
84.539000	0.283075	0.166730	0.299389	0.417411	5807.508978	24193.822032	3852.416211	10438.224875
85.037000	0.285042	0.167756	0.289925	0.417569	5818.621235	24235.866792	3836.299372	10435.556966
85.537000	0.285542	0.165813	0.293344	0.416808	5826.400052	24178.647038	3843.257470	10448.368276
86.037500	0.282243	0.166581	0.295710	0.416890	5805.596525	24211.834557	3847.087051	10446.986942
86.534500	0.284350	0.167350	0.302354	0.416911	5818.414312	24248.093069	3858.307056	10446.638666
87.035500	0.283091	0.166784	0.298503	0.416693	5812.008852	24231.206742	3852.130324	10450.296863
87.535000	0.284666	0.166637	0.296672	0.415900	5826.598328	24262.540781	3850.374933	10463.667584
88.036000	0.283513	0.168527	0.299909	0.417007	5812.674730	24300.631203	3853.982578	10445.023100
88.536000	0.281996	0.166906	0.296935	0.416438	5806.856243	24249.472340	3849.911814	10454.595505
89.039000	0.284417	0.167216	0.300507	0.416119	5823.711195	24280.042878	3856.507098	10459.980479
89.536000	0.282238	0.166771	0.292509	0.421193	5779.329707	24013.547104	3834.581541	10374.915291
90.037000	0.282053	0.165923	0.298163	0.416027	5809.728998	24221.756033	3852.683007	10461.526443
90.534000	0.278991	0.166047	0.291905	0.415430	5794.637730	24256.744261	3843.155891	10471.603755
91.035000	0.281433	0.166108	0.294806	0.415058	5811.870015	24277.744686	3848.647859	10477.884982
91.534500	0.282415	0.167406	0.297243	0.416775	5807.363272	24257.407071	3849.862445	10448.927053
92.035000	0.279352	0.165471	0.299136	0.414958	5799.733125	24251.702946	3856.149998	10479.586311
92.535500	0.281249	0.167138	0.297896	0.416526	5801.739404	24256.461013	3851.384934	10453.110093
93.056500	0.277523	0.164124	0.294638	0.413888	5795.093276	24238.266937	3850.338492	10497.695060
93.536000	0.279394	0.165993	0.290659	0.415651	5795.745665	24243.341632	3840.705442	10467.862026
94.036000	0.280554	0.165821	0.297137	0.415590	5803.219632	24237.998740	3851.685917	10468.904891
94.536500	0.278170	0.164634	0.293859	0.415013	5792.173977	24208.392589	3847.130413	10478.640726
95.037000	0.282920	0.165898	0.290210	0.416963	5809.305518	24175.264488	3837.777536	10445.757726
95.534500	0.280196	0.165104	0.294845	0.415224	5803.263161	24220.999290	3848.433805	10475.081766
96.035000	0.279482	0.164641	0.295800	0.415852	5795.056071	24168.157400	3848.985507	10464.471910
