sample name	sample
index	42
start time	 02-11-2021  01:58:42 PM
880	0.020931
Peak Time (s)	81.537
Peak Height 	0.02093
calc peak height	80,83
Baseline Time (s)	11.035
Baseline Value 	2.3446E-4
subtract baseline	10,4
Abs	0.011339
Peak Time (s)	82.037
Peak Height 	0.01134
calc peak height	80,83
Baseline Time (s)	8.537
Baseline Value 	-0.001176
subtract baseline	10,3
PK_550	0.007714
Peak Time (s)	82.037
Peak Height 	0.007714
calc peak height	80,83
Baseline Time (s)	11.035
Baseline Value 	8.1293E-6
subtract baseline	10,2
PK_880	-0.004523
Peak Time (s)	80.537
Peak Height 	-0.004523
calc peak height	80,83
Baseline Time (s)	11.035
Baseline Value 	1.0551E-4
subtract baseline	10,1


Time (s)	A880-A510	A880-A775	A880-A975	A880	I510	I775	I975	I880	
0.036500	0.001515	0.000981	0.003643	-0.000121	4632.351131	20231.108303	3310.826330	10955.837492
0.537500	-0.000341	-0.000491	-0.008523	0.000914	4621.265455	20131.971288	3298.836148	10936.758580
1.066000	-0.001424	0.000117	0.008435	-0.001111	4624.868764	20236.096773	3316.193876	10974.124587
1.535000	-0.003481	-0.000158	0.011335	0.002608	4602.893070	20078.382597	3315.428432	10905.646037
2.035500	0.001175	0.000827	0.000693	-0.000564	4632.745361	20242.569397	3308.521045	10964.015509
2.536000	0.000823	0.001183	0.001457	0.000366	4627.822401	20219.837092	3308.369805	10946.865490
3.036000	-0.003617	0.000148	0.000298	0.001442	4606.795152	20136.361914	3306.326496	10927.059383
3.536500	-0.001925	0.000260	-0.005505	0.004097	4603.150143	20036.375740	3298.688747	10878.397861
4.039000	-0.001077	0.000165	0.005929	0.000737	4619.132739	20164.856991	3312.145060	10940.026960
4.537000	0.002326	0.000748	-0.004041	0.001290	4630.045189	20166.054070	3302.526814	10929.848761
5.037000	-0.001874	-0.000513	-0.002091	-0.000169	4619.546535	20173.837775	3305.616789	10956.718401
5.537000	0.003169	-0.000445	0.008632	-0.003294	4651.024561	20300.513410	3318.423885	11014.588296
6.034000	0.001041	-0.000573	0.001275	-0.001404	4635.465098	20220.360594	3309.827139	10979.536392
6.535500	0.002809	-0.000206	-0.000770	0.000509	4634.906141	20159.185350	3306.203125	10944.220142
7.035500	-0.000969	-0.000891	-0.011185	0.000189	4621.638291	20144.792095	3297.108178	10950.119464
7.535000	0.000183	-0.000403	-0.008198	-0.002235	4635.362674	20260.077628	3301.957004	10994.937615
8.058000	0.000526	-0.001234	0.008588	-0.002382	4637.250324	20232.932688	3317.526273	10997.655971
8.536500	-0.002025	-0.001157	0.000000	-0.003193	4630.551872	20268.212074	3310.300484	11012.718183
9.036500	0.001762	-0.000439	-0.000182	-0.001373	4638.129004	20224.456473	3308.461158	10978.975660
9.537000	-0.002564	-0.001423	-0.013662	0.003882	4601.545208	19978.916941	3291.652274	10882.327116
10.037000	0.003277	0.001553	0.000109	-0.003575	4652.537052	20391.534401	3310.752552	11019.817782
10.534500	0.001601	0.002114	0.003773	0.000337	4630.922090	20257.902960	3310.524074	10947.398069
11.035000	0.000000	0.000000	0.006552	0.000000	4626.068599	20187.463556	3313.405108	10953.604424
11.535500	-0.002705	0.000593	-0.001365	0.001775	4608.987949	20140.781159	3304.510460	10920.929703
12.036000	0.000309	-0.000848	-0.009662	-0.001504	4633.034104	20213.433738	3299.982447	10981.397843
12.536000	0.001879	-0.000433	0.006595	-0.001354	4638.504064	20223.901349	3314.703474	10978.607984
13.036000	0.000361	0.000106	0.008786	-0.000858	4630.747727	20225.615283	3316.284868	10969.442627
13.539500	0.000797	-0.001003	0.006437	0.000964	4625.428760	20109.834556	3312.405693	10935.849725
14.036500	0.001342	0.000835	-0.003155	-0.000427	4632.863052	20237.435705	3304.884550	10961.482810
14.537000	-0.000876	-0.000451	-0.008893	-0.001398	4628.069987	20224.961793	3300.577871	10979.425875
15.034500	-0.000929	-0.000560	0.008354	-0.001089	4626.681708	20208.419798	3316.097410	10973.721626
15.537500	-0.000971	-0.000449	0.000614	0.000438	4620.675815	20152.387767	3307.531546	10945.527177
16.035000	-0.001353	-0.000130	-0.000618	-0.001321	4625.946165	20234.619779	3308.013290	10977.998371
16.535500	0.002775	0.000618	-0.001848	-0.000667	4639.309619	20238.361676	3306.291707	10965.910467
17.035500	-0.002693	-0.000452	-0.002386	-0.001275	4620.645626	20220.051657	3306.356620	10977.162280
17.536000	-0.000225	0.000045	0.001730	0.001396	4619.867838	20134.124862	3307.676021	10927.898934
18.036500	0.004741	-0.000395	-0.002059	-0.001222	4649.077077	20220.192667	3306.605910	10976.166310
18.537000	0.001750	0.001547	-0.008089	-0.000033	4632.915622	20250.080766	3300.073732	10954.216114
19.036500	0.002247	-0.000366	-0.002409	-0.001294	4639.696191	20224.199410	3306.352041	10977.505408
19.534000	0.001453	0.000645	0.000257	0.001622	4625.421200	20148.831870	3306.123787	10923.738090
20.038000	0.006034	0.002745	0.003935	0.002085	4641.272518	20213.612945	3309.065603	10915.246059
20.535000	-0.001816	-0.000274	-0.008421	-0.002190	4627.503025	20263.420389	3301.714479	10994.090152
21.035000	0.001434	0.000450	0.007004	-0.001179	4636.112497	20252.019281	3314.921882	10975.383491
21.565500	0.000912	0.000105	-0.001676	0.000857	4626.279128	20157.746863	3305.061938	10937.821899
22.036000	0.001391	-0.000187	0.001199	-0.002164	4639.749849	20265.819087	3310.456234	10993.612532
22.535500	0.001070	0.000824	0.014572	-0.001064	4634.265165	20262.270203	3321.923789	10973.243464
23.039000	0.002672	0.001098	0.006400	-0.001212	4641.021474	20279.084149	3314.390699	10975.992233
23.536500	-0.002239	0.001101	0.009273	0.003606	4603.820121	20088.678527	3312.584579	10887.376478
24.037000	-0.000851	0.000747	-0.001980	0.000842	4619.592238	20183.734459	3304.799652	10938.096747
24.537000	-0.001288	0.000068	-0.000279	0.000033	4621.010260	20188.824589	3307.084659	10952.988013
25.035000	-0.002736	0.000394	-0.008221	-0.002094	4623.612604	20286.184224	3301.809224	10992.323667
25.562500	-0.000224	0.000854	-0.002267	0.004692	4607.335434	20036.319855	3301.059323	10867.539867
26.035500	0.003307	0.001704	0.005784	-0.000375	4640.240573	20269.919929	3313.041019	10960.531932
26.536000	-0.003245	-0.000467	0.008532	-0.002255	4622.278131	20258.320663	3317.354377	10995.293377
27.036000	-0.000911	0.000122	0.006178	-0.002355	4631.609164	20285.721257	3315.247584	10997.147457
27.542000	-0.002824	-0.000854	0.008609	0.002884	4604.333574	20040.219298	3312.638750	10900.585395
28.036500	-0.000795	0.001578	0.007631	0.000405	4621.474058	20233.908684	3314.030966	10946.132246
28.537000	0.001007	0.000530	0.005634	-0.000196	4630.685275	20216.178966	3312.735527	10957.211723
29.037000	0.001827	-0.000268	0.003887	-0.000788	4636.120057	20208.070357	3311.667068	10968.155358
29.537500	0.000340	0.001406	0.007664	0.003171	4615.255213	20117.803968	3311.499148	10895.343001
30.035000	-0.001947	0.000955	-0.009235	0.000530	4616.602434	20204.314343	3298.543738	10943.842659
30.535000	0.002006	0.000096	0.002943	-0.000638	4636.231670	20216.509291	3310.656912	10965.370822
31.035500	0.000293	0.000104	0.002908	-0.000118	4627.645667	20196.273867	3310.146076	10955.784700
31.536000	-0.003376	0.000016	0.002018	-0.000424	4614.792997	20204.890323	3309.608731	10961.426291
32.035500	0.000571	0.001134	0.005575	0.000973	4624.527698	20193.833146	3311.600192	10935.680612
32.536000	0.000499	0.000117	0.007196	-0.000521	4629.982934	20212.719054	3314.488078	10963.219065
33.037000	-0.001295	-0.000251	-0.009035	-0.000632	4623.528906	20202.546959	3299.763213	10965.271258
33.537000	0.000005	-0.000517	0.005215	0.001021	4622.178820	20126.750474	3311.222884	10934.795640
34.037500	0.001452	0.000941	0.009776	0.000395	4630.124736	20209.080942	3316.039933	10946.324913
34.537000	0.000303	0.000282	0.004359	0.000333	4625.953230	20185.448503	3311.067960	10947.461599
35.035500	-0.003091	0.000479	0.006600	-0.000309	4615.441236	20218.695018	3313.737420	10959.314478
35.535500	-0.000182	-0.000543	0.016173	0.001306	4620.374324	20114.465217	3321.196663	10929.554422
36.035500	0.003448	0.001441	0.003954	0.000814	4636.195059	20212.302028	3310.252096	10938.614074
36.536000	0.001243	0.000778	0.010782	0.000177	4630.156407	20211.234387	3317.183978	10950.334930
37.039000	-0.003308	-0.000308	0.006315	-0.000542	4615.500724	20196.721289	3313.688584	10963.605513
37.536500	0.000967	0.000051	-0.000219	0.001902	4622.490192	20114.396314	3305.436320	10918.600079
38.037000	-0.004056	-0.000370	0.002320	-0.003098	4622.398737	20295.684921	3312.354156	11010.938432
38.536500	0.003459	0.000472	-0.002639	-0.002303	4648.298203	20297.593992	3307.063693	10996.193029
39.037500	-0.000210	0.000013	-0.005384	-0.002056	4633.156488	20269.485709	3304.339011	10991.606875
39.535000	-0.002522	-0.000431	-0.002551	0.004414	4599.697628	19996.881255	3301.054434	10872.615371
40.035500	0.002524	0.000787	0.012839	-0.001317	4640.854424	20270.874061	3320.524224	10977.922659
40.535500	0.001006	0.001031	0.001567	-0.000542	4632.013473	20249.819455	3309.303325	10963.613754
41.052000	-0.001518	0.000654	-0.001937	-0.002348	4629.249515	20306.583748	3307.745823	10997.018351
41.536000	-0.000793	-0.000176	0.005966	0.002259	4614.416505	20091.435932	3310.774034	10912.058807
42.036500	0.001930	0.000159	0.010816	0.000262	4632.473170	20183.418233	3317.137019	10948.778830
42.537000	0.001608	0.001484	0.002635	-0.001409	4637.672322	20302.287568	3311.084709	10979.637132
43.037000	0.001453	-0.000665	0.001618	-0.002456	4641.116684	20258.450339	3311.112061	10999.021030
43.537500	-0.003421	0.000394	-0.007906	0.003848	4598.442752	20051.384673	3296.769859	10882.947919
44.037500	0.005495	0.002147	0.012260	-0.002166	4655.691288	20358.914843	3320.778919	10993.650224
44.535000	0.005012	0.000588	0.001897	-0.006365	4670.245042	20464.696401	3314.995212	11071.855314
45.038500	-0.000855	0.000868	0.009734	-0.004765	4641.122712	20411.722345	3320.848721	11041.974148
45.535500	-0.066301	-0.035193	0.016881	0.329136	3631.257481	10433.216462	3103.799645	6697.773045
46.035500	-0.063777	-0.032280	-0.007369	0.157289	3962.097810	14111.298861	3182.093877	8519.958273
46.539000	-0.043439	-0.017755	0.000018	-0.082444	4782.475056	22946.653196	3390.385791	12628.036676
47.036500	-0.028773	-0.013944	-0.007284	-0.154522	5185.025132	26753.518972	3467.597295	14376.340783
47.536500	-0.031385	-0.011813	-0.007809	-0.173180	5268.709462	27917.828271	3491.356462	14878.205619
48.037000	-0.038512	-0.012162	-0.009281	-0.076975	4780.202020	22952.345309	3374.337325	12506.848657
48.537500	-0.028875	-0.010716	-0.011686	-0.067880	4782.474167	22604.146042	3362.211980	12308.654138
49.034500	-0.031434	-0.008208	-0.010290	-0.067407	4769.804011	22696.173461	3363.173455	12298.461046
49.534500	-0.044323	-0.009898	-0.020651	-0.070781	4730.621182	22772.697155	3355.946822	12371.423834
50.035500	-0.030008	-0.004356	-0.018789	-0.080618	4831.784345	23485.108578	3368.113274	12587.406833
50.535500	-0.030713	-0.003900	-0.021051	-0.063793	4757.803439	22727.670282	3348.430791	12220.947720
51.036000	-0.028960	-0.001687	-0.014881	-0.061485	4755.507132	22723.372399	3352.343240	12171.769802
51.535500	-0.033399	-0.002469	-0.014660	-0.060294	4732.401270	22633.999461	3351.356977	12146.491065
52.036500	-0.029244	0.000643	-0.014437	-0.041645	4674.276821	21944.298571	3333.037705	11759.687193
52.536500	-0.020575	0.001791	-0.000946	-0.025190	4643.850256	21288.537952	3330.163281	11431.918171
53.042500	-0.016055	0.001942	-0.012166	-0.027164	4669.195260	21378.216422	3321.320929	11470.593948
53.537500	-0.016661	0.001141	-0.001522	-0.023478	4652.400438	21189.386233	3327.957164	11398.519951
54.061000	-0.014997	0.002288	-0.012647	-0.022592	4655.430560	21200.329115	3316.566090	11381.288415
54.535500	-0.010795	0.001786	0.001314	-0.020552	4663.885729	21094.150398	3327.871061	11341.757628
55.036500	-0.010970	0.002394	-0.001144	-0.018725	4656.058343	21043.465323	3323.771601	11306.505236
55.536500	-0.010473	0.003099	-0.003689	-0.015887	4646.947771	20955.112382	3318.679269	11252.029100
56.039000	-0.007833	0.003438	-0.006691	-0.013579	4648.238270	20873.917304	3313.717434	11207.999572
56.536000	-0.005208	0.004026	-0.009256	-0.011152	4649.005732	20798.446400	3309.107449	11161.943032
57.037000	-0.006177	0.004043	0.003755	-0.008935	4636.670912	20708.560195	3319.142010	11120.098203
57.537000	-0.014242	0.004419	-0.021029	-0.000818	4575.407593	20395.867733	3289.317604	10968.708330
58.034500	-0.007816	0.005021	-0.013128	-0.003112	4608.138469	20512.200215	3298.319012	11011.203985
58.538000	-0.007629	0.006001	-0.004027	0.000427	4595.479036	20409.359114	3303.319233	10945.730369
59.035000	-0.010690	0.005192	0.008859	0.001893	4578.538261	20318.446596	3313.789491	10918.769162
59.535500	-0.013611	0.003265	-0.005837	0.007447	4547.289737	20022.841347	3295.411314	10817.434175
60.036000	-0.010594	0.003760	0.000156	0.002677	4575.979298	20230.381662	3305.072834	10904.390892
60.539000	-0.009304	0.005284	-0.002978	0.004338	4574.599567	20224.935664	3300.738063	10873.996072
61.036000	-0.009908	0.003869	0.004632	0.004383	4572.190559	20167.135938	3307.598714	10873.179113
61.536500	-0.011410	0.004483	0.011490	0.012377	4537.356119	19878.034057	3306.560603	10728.558855
62.036500	-0.011586	0.004224	0.007682	0.007540	4554.357616	20056.810951	3307.500441	10815.745418
62.537000	-0.012750	0.004031	-0.002138	0.008424	4546.867097	20014.596799	3297.831552	10799.741593
63.035000	-0.014314	0.006069	-0.004413	0.011854	4528.740421	19960.127933	3292.774457	10737.930955
63.534500	-0.018663	0.003823	0.006304	0.017544	4492.930262	19653.192384	3297.227487	10636.485933
64.035500	-0.011150	0.004865	0.000871	0.013374	4534.686135	19854.190514	3296.104185	10710.712741
64.535000	-0.014083	0.004932	0.000553	0.013670	4523.032361	19845.300405	3295.558938	10705.421076
65.036000	-0.009992	0.003854	0.001752	0.014372	4535.266981	19776.439436	3296.000128	10692.886630
65.536500	-0.015878	0.004048	0.002913	0.021128	4490.115265	19524.956477	3291.063391	10573.258560
66.036500	-0.013024	0.003222	0.000422	0.015221	4521.264527	19719.349726	3294.069965	10677.748163
66.536500	-0.007371	0.004881	-0.006298	0.017012	4535.198649	19714.266205	3286.623202	10645.923098
67.037000	-0.009192	0.004785	-0.002500	0.017084	4528.352219	19707.795413	3289.865019	10644.638807
67.534500	-0.016459	0.003766	-0.003179	0.022022	4484.935381	19480.328685	3284.988996	10557.585261
68.034500	-0.015539	0.003843	-0.005166	0.017048	4505.749976	19673.010855	3287.574228	10645.276695
68.535000	-0.011761	0.004466	0.006558	0.017670	4517.011793	19673.022428	3297.340788	10634.254973
69.035500	-0.013064	0.003154	-0.004330	0.017106	4514.366366	19644.362279	3288.249972	10644.243667
69.535500	-0.009560	0.004703	0.004972	0.020067	4516.307476	19590.355775	3293.807679	10591.919709
70.039000	-0.007254	0.005223	-0.003790	0.019530	4526.518869	19630.744609	3286.614113	10601.387134
70.536500	-0.008188	0.004742	0.013090	0.019684	4522.604533	19606.488655	3301.388106	10598.678402
71.036500	-0.007656	0.005146	0.003166	0.019468	4525.295812	19630.210981	3292.744178	10602.490130
71.536500	-0.011729	0.005484	0.001304	0.020159	4508.236951	19616.672945	3290.502893	10590.309100
72.037000	-0.008619	0.005101	0.001222	0.019025	4523.423726	19645.439203	3291.424845	10610.296745
72.537500	-0.006353	0.005180	0.001381	0.019472	4529.979733	19631.358804	3291.172474	10602.414388
73.035000	-0.007333	0.005589	0.006185	0.019666	4525.745182	19639.584236	3295.236473	10598.993829
73.535500	-0.012750	0.004030	-0.002171	0.024341	4489.817875	19402.529890	3283.859066	10517.026135
74.035500	-0.008037	0.006225	0.000913	0.018938	4525.830955	19691.906212	3291.229951	10611.835820
74.536000	-0.004501	0.007146	-0.004152	0.018914	4538.708873	19728.228244	3286.834845	10612.261793
75.035500	-0.005588	0.006247	0.000980	0.018501	4536.261277	19709.508176	3291.672414	10619.548644
75.536500	-0.007463	0.005927	0.000743	0.018138	4530.787957	19711.151742	3291.782255	10625.967249
76.037000	-0.007949	0.005652	-0.000838	0.017547	4531.169439	19723.340392	3290.915077	10636.440390
76.536500	-0.009017	0.005515	0.006779	0.016624	4530.643980	19753.631784	3298.471680	10652.802267
77.037000	-0.004069	0.006628	-0.002558	0.016681	4548.413829	19794.369308	3290.166829	10651.790716
77.534500	-0.011405	0.006339	-0.005440	0.023000	4499.298863	19540.900244	3282.204272	10540.443573
78.034500	-0.006373	0.007880	0.001772	0.016545	4540.515690	19848.122190	3294.093479	10654.208898
78.535000	-0.008768	0.005787	0.008523	0.015656	4535.047756	19801.516643	3300.902971	10670.007905
79.035500	-0.007465	0.007135	0.011454	0.016678	4536.067596	19814.108384	3302.624262	10651.849855
79.538500	-0.008031	0.006599	0.004950	0.015905	4536.818406	19823.276193	3297.481131	10665.577330
80.036500	-0.004860	0.007131	0.007596	0.015967	4548.134918	19841.480724	3299.791237	10664.477312
80.536500	-0.004523	0.007274	-0.002635	0.015954	4549.409706	19847.511438	3290.735881	10664.698223
81.036500	-0.006752	0.006633	-0.003608	0.015120	4544.320190	19855.020409	3290.614094	10679.546834
81.537000	-0.011672	0.005884	-0.001572	0.020931	4505.690933	19602.442727	3287.323286	10576.722975
82.037000	-0.005633	0.007714	0.011339	0.016087	4544.874652	19859.458368	3303.053642	10662.339722
82.537500	-0.006721	0.007040	-0.000159	0.016040	4541.085320	19835.138345	3292.834860	10663.176295
83.035000	-0.007496	0.006915	-0.005211	0.015079	4541.761426	19867.555606	3289.248629	10680.271897
83.535500	-0.006711	0.006071	0.004731	0.014796	4545.650118	19845.786187	3298.275134	10685.314132
84.036000	-0.006940	0.008579	0.004410	0.016302	4539.335372	19884.683781	3296.647090	10658.523663
84.550000	-0.005526	0.005959	0.000042	0.014652	4550.505733	19847.032650	3294.237214	10687.887349
85.044000	-0.008524	0.005740	0.005808	0.014526	4540.031636	19843.421711	3299.479960	10690.132568
85.536500	-0.007310	0.006395	0.001827	0.015322	4541.553861	19837.970402	3295.223700	10675.949853
86.034000	-0.005699	0.007349	0.008957	0.015435	4547.012803	19870.581208	3301.492990	10673.938391
86.537000	-0.005115	0.006962	0.003054	0.015422	4549.195471	19856.079040	3296.224388	10674.173530
87.035000	-0.006921	0.007849	0.000472	0.016281	4539.480188	19857.156496	3293.178515	10658.885924
87.535000	-0.003931	0.008443	0.004277	0.016808	4548.456073	19859.770217	3296.079087	10649.537646
