sample name	sample
index	5
start time	 02-11-2021  11:16:54 AM
880	0.015444
Peak Time (s)	80.537
Peak Height 	0.01544
calc peak height	80,83
Baseline Time (s)	9.54
Baseline Value 	-0.001549
subtract baseline	10,4
Abs	0.013652
Peak Time (s)	82.035
Peak Height 	0.01365
calc peak height	80,83
Baseline Time (s)	11.536
Baseline Value 	0.004444
subtract baseline	10,3
PK_550	0.010296
Peak Time (s)	80.038
Peak Height 	0.0103
calc peak height	80,83
Baseline Time (s)	8.537
Baseline Value 	3.094E-4
subtract baseline	10,2
PK_880	0.007912
Peak Time (s)	80.038
Peak Height 	0.007912
calc peak height	80,83
Baseline Time (s)	10.037
Baseline Value 	0.004627
subtract baseline	10,1


Time (s)	A880-A510	A880-A775	A880-A975	A880	I510	I775	I975	I880	
0.037000	-0.006363	-0.000680	0.000065	0.003833	4286.017102	17984.816348	3135.208284	9751.393388
0.537500	-0.005702	-0.000890	-0.005796	0.002452	4292.962596	18025.614536	3131.358494	9773.539320
1.046000	0.001960	0.000312	-0.015715	0.000127	4327.400188	18149.265265	3124.923092	9810.985370
1.535000	-0.004570	-0.001174	-0.003695	-0.001922	4311.852831	18169.096481	3136.934757	9844.164725
2.035500	-0.000591	-0.000000	0.009627	0.003298	4307.574108	18027.153072	3144.031632	9759.966339
2.536000	-0.006528	-0.001505	0.001202	0.000691	4296.154827	18065.711461	3138.922620	9801.893319
3.036000	-0.004242	0.001154	0.007914	0.002794	4296.777373	18085.196000	3142.963776	9768.054508
3.536500	-0.004056	-0.001113	0.009987	0.000595	4304.948988	18082.773369	3146.748430	9803.431583
4.035500	-0.004371	0.001119	-0.006731	0.002465	4297.460346	18095.468364	3130.548792	9773.333898
4.537000	-0.003655	0.000081	0.003838	0.001890	4301.882452	18079.229392	3140.177555	9782.575510
5.036500	-0.005749	-0.000557	-0.002120	0.000976	4297.841384	18088.942438	3135.789594	9797.297541
5.534500	-0.002799	0.000157	-0.005517	-0.001951	4318.079234	18217.137530	3135.383056	9844.643154
6.035000	-0.006378	0.000399	-0.001581	-0.000645	4301.237870	18179.517216	3137.662349	9823.470095
6.535000	-0.007878	-0.000531	0.010283	0.001200	4289.815722	18081.997472	3146.473371	9793.687233
7.035500	-0.006420	0.000053	-0.002183	0.001265	4294.559428	18100.171150	3135.484324	9792.631223
7.536000	-0.002287	0.000900	-0.000653	-0.000188	4313.748534	18181.084903	3138.072501	9816.087797
8.063000	0.000050	0.000484	0.005579	-0.001054	4324.862966	18196.980110	3144.300460	9830.097727
8.536500	0.000841	0.000000	-0.008115	-0.001376	4328.744938	18191.256851	3132.650852	9835.312534
9.037000	0.000925	0.001092	0.005529	-0.000230	4325.039848	18189.329835	3143.527269	9816.757029
9.540000	0.002175	0.001099	0.006193	0.000000	4328.596861	18181.488434	3143.910827	9813.044208
10.037000	0.000000	-0.000051	0.008975	-0.001832	4327.400781	18205.555001	3148.010888	9842.711047
10.535000	-0.004851	-0.000601	-0.004885	0.001427	4299.370181	18071.589079	3133.017127	9790.026570
11.037500	-0.004636	-0.001380	-0.002194	0.000587	4302.986039	18073.684809	3136.061795	9803.563126
11.535500	-0.001255	0.001084	0.000000	0.002100	4309.413733	18107.034871	3136.651435	9779.196102
12.037500	-0.004163	-0.000514	0.008085	0.001287	4302.205682	18079.511706	3144.445916	9792.274920
12.536000	-0.006242	-0.000463	-0.001675	0.002111	4292.283082	18052.461048	3135.192964	9779.026959
13.036000	-0.002292	0.001030	0.002253	0.002062	4305.973126	18106.500603	3138.643206	9779.811160
13.537000	-0.007347	-0.000036	0.004079	0.001115	4291.913951	18102.320421	3141.068334	9795.057378
14.037000	-0.001264	0.000235	-0.004104	0.001882	4310.134800	18084.924563	3133.297746	9782.710902
14.537500	-0.005014	-0.001630	-0.004945	0.001438	4298.775254	18035.174980	3132.955742	9789.847322
15.035000	-0.004881	0.000530	-0.001825	0.001746	4298.177757	18100.044642	3135.378546	9784.891598
15.535000	-0.002277	-0.001048	0.005626	0.000297	4312.106395	18095.490520	3143.148222	9808.243040
16.037500	-0.002891	0.001063	-0.005024	0.002071	4303.885669	18107.341118	3132.345962	9779.672430
16.535500	-0.001681	0.000078	-0.003757	0.002173	4307.693084	18069.237035	3133.345755	9778.025184
17.036000	-0.001083	0.000267	0.010971	0.001616	4311.673577	18095.367930	3146.715070	9786.979765
17.539000	-0.001243	-0.000540	0.002176	0.001273	4312.306746	18079.101584	3139.264107	9792.501185
18.036000	-0.001396	0.000115	-0.007050	0.001535	4310.874692	18092.874821	3131.070439	9788.286648
18.536500	-0.003091	-0.000093	0.009288	0.001654	4304.628722	18081.415266	3145.186418	9786.375506
19.039500	-0.002201	0.000042	0.004293	0.001303	4308.897415	18098.430153	3141.090195	9792.019442
19.537500	-0.002293	-0.001045	-0.007081	0.000917	4309.913055	18073.859182	3131.571876	9798.240903
20.035000	-0.002043	0.000887	-0.002154	0.002651	4304.804419	18080.802976	3134.313393	9770.342139
20.535000	-0.007246	-0.000333	-0.005586	0.005648	4276.891459	17933.783059	3128.815039	9722.389258
21.035500	-0.002505	-0.000549	-0.002524	-0.001146	4316.308386	18163.759870	3137.278188	9831.577273
21.535500	-0.002510	-0.000092	0.004175	-0.000122	4312.748309	18143.819724	3142.239042	9815.014549
22.038500	-0.008112	-0.001056	0.008929	0.004931	4276.388037	17933.563038	3141.975706	9733.828109
22.536000	-0.003933	-0.000275	-0.002550	0.005645	4288.113404	17935.872418	3131.404179	9722.431281
23.035500	0.001928	-0.000016	0.010010	-0.000245	4328.591772	18150.841851	3147.517714	9817.009407
23.536500	-0.002622	0.000120	-0.004852	0.000231	4311.142584	18138.839861	3134.073863	9809.312255
24.037500	-0.001330	-0.000871	-0.000049	0.003707	4303.627707	17982.534490	3135.218510	9753.416252
24.538000	-0.001633	0.000059	0.002243	0.004990	4298.191394	17970.249105	3136.090800	9732.889803
25.055500	-0.003541	-0.000898	0.004227	-0.000841	4311.673330	18140.761585	3142.918625	9826.647510
25.535500	-0.000918	0.000320	-0.002963	0.000049	4317.663512	18152.290263	3135.861272	9812.244754
26.035500	-0.006849	-0.001477	-0.006574	0.004651	4281.596972	17928.680514	3128.822096	9738.302723
26.535500	-0.006252	-0.001432	-0.005935	0.004411	4284.434796	17938.575202	3129.569519	9742.144589
27.036000	-0.001129	0.000577	0.021657	-0.000112	4317.492015	18167.032959	3157.926054	9814.855030
27.536500	-0.002558	0.000171	0.004647	0.001368	4307.448710	18100.706610	3141.344443	9790.985482
28.036500	-0.003973	-0.000165	0.004333	0.004203	4292.883790	17989.826443	3138.589258	9745.461430
28.537500	-0.003260	-0.000242	0.010502	0.004120	4295.600069	17990.037107	3144.077542	9746.789308
29.037000	-0.001448	-0.000390	0.005453	0.002736	4306.556442	18033.154891	3140.850820	9768.973651
29.534500	-0.003616	0.000403	0.007972	0.003967	4294.909981	18017.876644	3141.982247	9749.240820
30.035500	-0.004784	-0.001095	-0.007679	0.002818	4294.843823	18005.713904	3129.441190	9767.665416
30.535000	-0.002509	0.000268	-0.007751	0.003390	4300.669969	18033.321976	3128.893327	9758.488236
31.036000	0.002863	0.000277	0.005941	0.002981	4320.613690	18047.912859	3141.064426	9765.050657
31.538500	-0.003253	-0.000276	0.007311	0.002406	4301.494497	18048.701939	3142.775045	9774.288236
32.035500	-0.000600	0.001338	0.001616	0.004572	4303.162378	18029.397723	3135.910400	9739.568875
32.536500	-0.006641	-0.000723	0.001166	0.002349	4290.116323	18035.050486	3137.447469	9775.198206
33.036500	-0.003448	-0.001794	-0.002365	0.001546	4303.771189	18025.690012	3135.084621	9788.106407
33.536500	-0.000934	0.000572	0.000064	0.002973	4307.511804	18058.515328	3135.950904	9765.181268
34.039000	-0.003962	-0.000974	0.001638	0.002537	4298.614034	18019.714762	3137.693833	9772.169809
34.535000	-0.004870	-0.000531	0.003565	0.003118	4293.528175	18014.900353	3138.866504	9762.848453
35.035000	0.000872	-0.000220	0.003160	0.002335	4315.949780	18053.142919	3139.196250	9775.420171
35.535000	-0.003178	-0.000317	0.002781	0.002545	4301.271665	18042.396657	3138.682798	9772.049516
36.038500	-0.006816	-0.001000	0.008094	0.003421	4285.876831	17987.987465	3142.569701	9757.985138
36.536000	-0.000337	0.000135	0.004684	0.003183	4308.843263	18035.889280	3139.787096	9761.811484
37.039500	-0.000855	-0.001046	-0.015051	0.002967	4307.805142	18002.215704	3123.099930	9765.279121
37.536500	0.001843	0.000698	0.002367	-0.000554	4329.374254	18186.880745	3141.030240	9822.006068
38.036500	-0.006713	-0.001833	0.004664	0.004713	4281.851426	17914.188674	3138.434713	9737.319447
38.596000	-0.001367	-0.000868	0.004264	0.006570	4293.700758	17883.291986	3136.473221	9707.701458
39.034500	-0.005846	0.000113	0.001747	0.000786	4298.157994	18119.100400	3139.315111	9800.356589
39.535500	0.000794	0.000563	0.011063	0.001144	4319.807394	18122.327932	3147.218383	9794.591307
40.035000	-0.004088	-0.000019	0.000977	0.005465	4288.201301	17951.047411	3134.587023	9725.309935
40.535500	-0.003863	0.000553	-0.002839	0.007092	4283.445244	17914.411002	3129.923313	9699.401521
41.039000	-0.003301	-0.000192	0.003403	0.002334	4301.575329	18054.148414	3139.408875	9775.435965
41.538500	-0.009667	-0.002067	0.004607	0.003090	4277.352885	17962.372620	3139.800471	9763.297018
42.039000	-0.005360	-0.000183	0.001426	0.004459	4287.298362	17980.321772	3135.843542	9741.379039
42.551500	-0.004390	-0.000165	0.000751	0.005728	4286.278967	17936.816864	3134.165079	9721.107160
43.037000	-0.002712	0.000989	0.002653	0.001283	4307.208832	18132.413252	3139.671850	9792.347714
43.537500	0.000489	-0.000228	-0.002628	0.000796	4319.957003	18106.795185	3135.505894	9800.202156
44.035000	-0.002002	0.000178	-0.003857	0.004860	4297.372646	17978.913480	3130.958187	9734.966750
44.535000	-0.002038	-0.000901	0.008580	-0.000454	4315.526942	18127.045220	3146.429494	9820.377985
45.038500	0.005050	-0.000844	0.008333	-0.014059	4388.884165	18614.864289	3158.497585	10043.898288
45.536000	-0.031926	-0.020015	0.045120	0.181244	3735.844848	12475.739168	3036.668164	7419.058883
46.036000	-0.034400	-0.028389	0.040451	0.205923	3679.875991	11771.247095	3018.596218	7163.703982
46.536000	-0.031600	-0.023384	-0.003253	-0.042332	4358.765711	18824.193795	3174.101867	10531.394178
47.036500	-0.024988	-0.014428	-0.015288	-0.209643	5120.397246	26814.764255	3352.039710	14166.583935
47.537000	-0.028361	-0.010501	-0.006627	-0.169809	4901.831498	24914.085201	3311.040986	13170.120120
48.037000	-0.021885	-0.007818	-0.014971	-0.151284	4844.657124	24124.180186	3277.987380	12736.929572
48.534500	-0.032793	-0.008776	-0.021994	-0.124932	4677.573698	22828.298739	3239.680064	12151.708461
49.034500	-0.026666	-0.007678	-0.022065	-0.094892	4577.654245	21541.152859	3207.556984	11526.506164
49.535500	-0.023634	-0.003132	-0.013289	-0.100425	4612.810928	21979.727481	3222.544273	11638.431277
50.035500	-0.021233	-0.003809	-0.006706	-0.095949	4604.227790	21754.216920	3224.793149	11547.771485
50.538000	-0.022319	-0.004116	-0.010923	-0.080951	4539.084920	21100.052259	3204.681957	11250.720865
51.036000	-0.014615	-0.003264	-0.006609	-0.074404	4543.689788	20862.434879	3202.401684	11124.228122
51.536000	-0.014266	-0.001112	-0.007745	-0.062822	4499.483354	20475.804941	3189.637037	10905.075498
52.037000	-0.011505	0.000874	0.007931	-0.044594	4440.455620	19829.274478	3187.120848	10571.790684
52.537000	-0.015002	0.000696	-0.008189	-0.029669	4372.841043	19249.382104	3157.661736	10309.126073
53.034500	-0.009356	0.001261	-0.002813	-0.026125	4380.413728	19137.359681	3159.342833	10248.081046
53.535000	-0.012099	0.004113	0.007162	-0.021311	4353.364231	19064.012211	3164.115403	10165.939337
54.078000	-0.008732	0.004145	-0.003057	-0.024667	4377.402085	19190.857642	3157.779995	10223.098214
54.538000	-0.007187	0.005724	-0.001939	-0.022812	4376.289654	19180.510534	3157.106506	10191.448426
55.038000	-0.006016	0.004353	-0.010196	-0.022618	4379.811044	19121.828966	3149.455382	10188.146959
55.536000	-0.007043	0.006160	-0.003586	-0.020813	4369.620155	19121.890636	3153.787227	10157.485174
56.036500	-0.004849	0.005789	0.002160	-0.018992	4370.959569	19040.026889	3157.360977	10126.688989
56.537000	-0.005810	0.006505	0.014229	-0.017409	4361.857643	19007.763053	3167.069389	10100.013429
57.040000	-0.004802	0.006092	0.006284	-0.015412	4358.330126	18918.405843	3157.858662	10066.504541
57.537500	-0.004859	0.006902	-0.000989	-0.013738	4352.182974	18886.503643	3149.748773	10038.539122
58.034500	-0.009140	0.007018	-0.008668	-0.010512	4325.795846	18772.154152	3140.086873	9984.943834
58.535000	-0.004063	0.004584	0.004302	-0.012364	4350.135142	18750.864930	3153.278353	10015.664551
59.035000	-0.007921	0.006286	0.001839	-0.010764	4330.930225	18754.582913	3149.617294	9989.114966
59.535500	-0.004401	0.007297	0.002395	-0.007509	4331.854805	18672.680879	3147.204784	9935.409735
60.036000	-0.005722	0.005686	-0.001875	-0.005497	4320.238878	18541.333750	3141.644978	9902.413423
60.536500	-0.012729	0.004687	-0.009919	-0.002351	4285.398557	18392.412325	3131.940027	9851.126885
61.036000	-0.003158	0.006402	0.002981	-0.005496	4329.164762	18567.176745	3145.934306	9902.396338
61.536500	-0.005735	0.006669	0.004842	-0.004661	4317.295863	18546.658550	3146.848132	9888.760576
62.037000	-0.005364	0.005166	0.010099	-0.002318	4310.476657	18408.375885	3149.450871	9850.592411
62.537500	-0.009365	0.004783	-0.001896	0.002413	4280.656087	18226.379973	3134.740673	9774.164246
63.034500	-0.004341	0.006719	-0.003385	-0.000788	4308.730315	18409.183404	3136.220850	9825.793219
63.535000	-0.007295	0.005919	0.007435	0.000368	4294.637147	18339.332634	3144.683862	9807.101267
64.035000	-0.003235	0.005558	0.000662	0.001906	4303.269298	18271.801168	3137.394502	9782.317930
64.538500	-0.006543	0.004544	0.009090	0.006965	4274.823024	18057.813827	3140.332703	9701.421706
65.035500	-0.003775	0.005688	0.012508	0.002985	4297.722261	18238.156358	3146.865036	9764.984149
65.536500	-0.005442	0.006835	0.007657	0.003549	4290.109851	18258.828784	3142.073085	9755.943446
66.036000	-0.002905	0.005606	0.012293	0.004455	4295.670525	18183.314521	3145.367421	9741.438086
66.537000	-0.001681	0.004528	0.003099	0.007762	4288.574236	18029.376245	3134.436075	9688.753219
67.039500	-0.005514	0.005288	0.001138	0.003577	4289.770711	18203.079141	3136.357820	9755.492566
67.537500	-0.001452	0.005561	0.005149	0.003646	4303.418018	18210.285381	3139.788301	9754.390593
68.035500	0.000160	0.005321	0.007362	0.004726	4305.244055	18163.710376	3140.780347	9737.108159
68.535500	-0.004189	0.004946	0.007497	0.009607	4273.854470	17979.641659	3136.643173	9659.543095
69.035500	0.001753	0.004940	0.005314	0.003906	4313.560140	18179.178432	3139.704831	9750.216696
69.536000	0.005465	0.006663	-0.005744	0.005467	4321.017753	18184.923554	3128.835093	9725.280247
70.036000	-0.002854	0.006633	0.009002	0.004730	4294.903755	18209.850869	3142.216733	9737.037351
70.536500	-0.004410	0.006218	-0.002893	0.009943	4271.975912	18012.251641	3127.456786	9654.222736
71.036500	-0.000519	0.007172	-0.000431	0.005485	4300.310967	18202.244009	3133.357925	9724.988192
71.536500	0.004185	0.007446	-0.000547	0.006153	4314.203240	18188.318024	3132.684367	9714.342868
72.037500	-0.000104	0.005536	0.004074	0.005252	4302.530493	18152.754713	3137.451377	9728.699813
72.534500	-0.002252	0.007331	0.005397	0.012390	4271.008148	17965.806000	3132.433270	9615.699528
73.035000	-0.000945	0.006970	0.015239	0.005974	4297.178866	18177.838749	3146.635129	9717.190002
73.535000	0.001967	0.006036	0.008276	0.005095	4310.192806	18175.891683	3141.257513	9731.203635
74.037500	-0.000010	0.005601	0.022248	0.005491	4302.033543	18146.604046	3153.360773	9724.883785
74.536000	0.002367	0.006032	0.002367	0.005464	4310.303579	18162.765710	3135.788165	9725.327563
75.036000	0.001906	0.007132	0.003532	0.006441	4305.351568	18167.093805	3135.950525	9709.753018
75.536500	-0.000395	0.008156	0.012507	0.007187	4294.913044	18176.907249	3143.141009	9697.893700
76.037000	0.001530	0.007666	0.017635	0.007142	4301.650430	18161.210291	3147.729891	9698.597317
76.537000	0.001022	0.007960	0.003461	0.008096	4296.647726	18137.989366	3134.460346	9683.457224
77.036500	0.005844	0.007400	-0.001309	0.008605	4311.459441	18100.405509	3129.936912	9675.388577
77.537000	0.001520	0.006645	0.020155	0.007680	4299.775824	18106.383689	3149.502788	9690.056283
78.035000	0.006459	0.007642	0.004245	0.008765	4313.032408	18103.287042	3134.558775	9672.852058
78.536000	0.001632	0.007943	0.003542	0.014792	4275.994943	17903.666113	3128.801061	9578.088995
79.035500	0.003085	0.008015	-0.001068	0.009552	4298.724511	18088.792144	3129.336754	9660.407583
79.536000	0.000234	0.007712	0.008247	0.008583	4292.295434	18112.146224	3138.184442	9675.737273
80.038500	0.007912	0.010296	0.010916	0.011214	4309.597780	18110.501193	3138.217802	9634.195414
80.537000	-0.000970	0.007565	0.005201	0.015444	4265.069598	17868.031006	3129.656672	9567.914256
81.037000	0.003640	0.007793	0.003986	0.009117	4302.113881	18096.239298	3134.032240	9667.283262
81.537500	0.001888	0.009890	0.005242	0.010797	4290.388811	18110.863067	3133.667618	9640.751007
82.035000	0.003382	0.007537	0.013652	0.010205	4297.505802	18049.186879	3141.492154	9650.093206
82.535000	0.004903	0.007798	0.010721	0.014839	4286.899191	17897.000733	3134.905580	9577.349374
83.035000	0.002770	0.008979	0.013274	0.011359	4291.478020	18059.243671	3140.149084	9631.905766
83.538500	-0.001434	0.007578	0.005544	0.009721	4282.765037	18067.542126	3134.854645	9657.734588
84.035500	0.005283	0.010146	0.003562	0.013183	4293.830505	18036.290137	3130.186959	9603.265158
84.536000	0.001434	0.007895	0.004414	0.010577	4289.592198	18048.665757	3133.145077	9644.220325
85.066500	0.003007	0.008861	0.011252	0.011657	4291.271691	18044.709955	3138.124263	9627.224799
85.537000	0.000283	0.008126	0.013491	0.011435	4282.777093	18026.790759	3140.272300	9630.715594
86.037000	-0.000046	0.008496	-0.002707	0.011509	4281.409270	18037.102234	3126.291259	9629.539895
86.537500	0.007473	0.009259	0.004617	0.012847	4302.470215	18017.069803	3131.374658	9608.535223
87.036500	0.003308	0.008231	-0.000838	0.011464	4292.953752	18029.427643	3127.909388	9630.257229
87.535000	0.007077	0.007571	0.011088	0.012397	4302.654410	17973.898240	3137.337852	9615.590547
