sample name	sample
index	1397
start time	 05-10-2021  10:55:43 AM


Wavelength (nm)	Absorbance
494.344910	-0.004596
494.563924	-0.004596
494.782919	-0.004596
495.001897	-0.045707
495.220856	-0.005051
495.439797	0.004271
495.658719	0.013366
495.877624	0.018128
496.096510	0.016661
496.315378	0.029781
496.534227	0.005210
496.753059	-0.008465
496.971872	-0.006100
497.190667	0.106954
497.409444	0.138782
497.628203	0.144907
497.846943	0.149518
498.065665	0.153406
498.284369	0.157257
498.503055	0.159186
498.721723	0.162390
498.940372	0.162697
499.159003	0.162328
499.377616	0.161677
499.596210	0.162350
499.814787	0.163813
500.033345	0.164292
500.251885	0.163926
500.470406	0.164236
500.688910	0.162951
500.907395	0.163871
501.125862	0.164708
501.344311	0.164820
501.562742	0.166662
501.781154	0.165529
501.999548	0.165655
502.217924	0.165673
502.436282	0.165765
502.654621	0.166051
502.872942	0.165492
503.091245	0.165161
503.309530	0.165587
503.527797	0.163925
503.746045	0.164546
503.964275	0.165160
504.182487	0.164759
504.400681	0.164565
504.618856	0.165569
504.837013	0.166770
505.055152	0.166680
505.273273	0.167354
505.491376	0.168120
505.709460	0.167573
505.927526	0.167191
506.145574	0.167313
506.363604	0.167624
506.581615	0.167571
506.799608	0.166621
507.017583	0.166960
507.235540	0.166736
507.453478	0.166620
507.671399	0.167188
507.889301	0.167447
508.107185	0.167493
508.325050	0.167159
508.542898	0.167549
508.760727	0.168787
508.978538	0.168896
509.196330	0.169699
509.414105	0.169374
509.631861	0.169279
509.849599	0.169340
510.067319	0.169551
510.285021	0.170393
510.502704	0.170848
510.720369	0.169576
510.938016	0.170434
511.155645	0.169393
511.373255	0.169178
511.590848	0.170169
511.808422	0.170171
512.025977	0.170587
512.243515	0.169801
512.461034	0.169289
512.678536	0.169599
512.896018	0.169251
513.113483	0.169685
513.330930	0.170811
513.548358	0.171064
513.765768	0.171432
513.983160	0.171535
514.200533	0.172702
514.417889	0.172983
514.635226	0.174103
514.852545	0.174672
515.069845	0.174572
515.287128	0.174600
515.504392	0.174448
515.721638	0.174531
515.938866	0.175246
516.156075	0.175090
516.373267	0.175101
516.590440	0.174946
516.807594	0.174601
517.024731	0.175639
517.241850	0.175688
517.458950	0.175835
517.676032	0.176128
517.893095	0.175692
518.110141	0.175869
518.327168	0.176206
518.544177	0.176696
518.761168	0.177448
518.978141	0.177546
519.195095	0.177616
519.412031	0.177005
519.628949	0.177335
519.845849	0.177888
520.062731	0.178056
520.279594	0.177707
520.496439	0.177918
520.713266	0.178650
520.930074	0.178102
521.146865	0.179882
521.363637	0.181341
521.580391	0.181649
521.797127	0.182343
522.013844	0.183174
522.230543	0.183641
522.447224	0.183533
522.663887	0.183189
522.880532	0.183868
523.097158	0.183304
523.313766	0.182684
523.530356	0.183120
523.746928	0.182749
523.963481	0.182679
524.180017	0.183744
524.396534	0.184236
524.613032	0.184678
524.829513	0.184566
525.045975	0.184273
525.262420	0.185206
525.478845	0.185297
525.695253	0.186039
525.911643	0.185940
526.128014	0.185597
526.344367	0.186279
526.560702	0.185931
526.777018	0.186979
526.993316	0.187102
527.209597	0.187327
527.425858	0.186910
527.642102	0.187062
527.858328	0.187282
528.074535	0.187839
528.290724	0.187773
528.506894	0.188250
528.723047	0.188253
528.939181	0.189198
529.155297	0.189252
529.371395	0.189996
529.587475	0.189719
529.803536	0.190350
530.019579	0.190400
530.235604	0.190972
530.451611	0.191613
530.667600	0.191605
530.883570	0.191697
531.099522	0.191702
531.315456	0.191913
531.531372	0.192557
531.747269	0.193396
531.963148	0.194130
532.179009	0.194244
532.394852	0.194492
532.610676	0.194959
532.826482	0.195104
533.042271	0.195955
533.258040	0.196767
533.473792	0.196756
533.689525	0.196917
533.905240	0.196513
534.120937	0.196932
534.336616	0.196555
534.552277	0.196807
534.767919	0.196681
534.983543	0.197212
535.199149	0.197176
535.414736	0.197431
535.630306	0.197167
535.845857	0.197779
536.061390	0.197833
536.276904	0.198711
536.492401	0.198889
536.707879	0.199371
536.923339	0.199125
537.138781	0.199536
537.354204	0.200202
537.569610	0.201047
537.784997	0.201611
538.000366	0.201340
538.215716	0.201270
538.431049	0.201845
538.646363	0.202329
538.861659	0.203038
539.076937	0.203096
539.292196	0.203685
539.507438	0.203575
539.722661	0.203507
539.937866	0.204554
540.153052	0.205511
540.368221	0.206092
540.583371	0.206200
540.798503	0.205928
541.013617	0.206369
541.228712	0.206503
541.443789	0.207226
541.658848	0.207306
541.873889	0.207515
542.088912	0.207864
542.303916	0.207649
542.518902	0.207976
542.733870	0.208217
542.948820	0.208237
543.163752	0.208421
543.378665	0.208069
543.593560	0.208635
543.808437	0.208734
544.023295	0.208107
544.238136	0.208752
544.452958	0.209108
544.667762	0.209366
544.882548	0.209599
545.097315	0.209923
545.312064	0.210632
545.526795	0.211310
545.741508	0.211827
545.956203	0.211886
546.170879	0.211752
546.385537	0.211705
546.600177	0.212224
546.814799	0.212891
547.029402	0.212771
547.243988	0.212939
547.458555	0.212452
547.673103	0.212533
547.887634	0.213098
548.102146	0.213536
548.316640	0.213802
548.531116	0.213660
548.745574	0.213104
548.960013	0.213724
549.174435	0.213475
549.388838	0.214156
549.603222	0.213879
549.817589	0.214045
550.031937	0.213873
550.246267	0.214366
550.460579	0.215126
550.674873	0.215970
550.889148	0.215639
551.103405	0.216071
551.317644	0.216412
551.531865	0.217410
551.746068	0.218201
551.960252	0.218467
552.174418	0.218399
552.388566	0.218121
552.602696	0.218216
552.816807	0.218435
553.030900	0.218788
553.244975	0.218621
553.459032	0.218519
553.673070	0.218269
553.887091	0.218510
554.101093	0.218895
554.315077	0.219331
554.529042	0.219415
554.742990	0.219854
554.956919	0.219856
555.170830	0.220289
555.384722	0.220351
555.598597	0.220408
555.812453	0.220632
556.026291	0.220594
556.240111	0.220732
556.453913	0.220620
556.667696	0.220556
556.881461	0.220804
557.095208	0.220871
557.308937	0.221269
557.522647	0.221172
557.736339	0.221801
557.950013	0.222116
558.163669	0.223049
558.377307	0.223661
558.590926	0.223992
558.804527	0.224290
559.018110	0.224543
559.231675	0.224387
559.445221	0.225159
559.658749	0.225524
559.872259	0.225813
560.085751	0.225702
560.299225	0.226325
560.512680	0.226414
560.726117	0.226528
560.939536	0.226783
561.152937	0.227275
561.366319	0.227173
561.579683	0.227059
561.793029	0.227800
562.006357	0.227376
562.219667	0.226862
562.432958	0.227057
562.646231	0.227144
562.859486	0.227444
563.072723	0.227149
563.285941	0.227526
563.499141	0.227861
563.712323	0.227745
563.925487	0.227754
564.138632	0.228012
564.351760	0.228209
564.564869	0.228100
564.777960	0.227795
564.991032	0.228410
565.204087	0.228841
565.417123	0.229323
565.630141	0.229217
565.843140	0.229910
566.056122	0.230235
566.269085	0.230706
566.482030	0.231084
566.694957	0.231463
566.907866	0.231715
567.120756	0.231743
567.333628	0.231162
567.546482	0.231425
567.759318	0.230932
567.972135	0.230911
568.184935	0.230764
568.397716	0.230917
568.610478	0.231177
568.823223	0.230916
569.035949	0.230938
569.248657	0.231093
569.461347	0.231278
569.674019	0.232100
569.886672	0.232649
570.099308	0.233301
570.311925	0.233854
570.524523	0.234139
570.737104	0.234495
570.949666	0.234651
571.162210	0.235234
571.374736	0.235277
571.587244	0.235708
571.799733	0.235594
572.012205	0.235297
572.224658	0.235309
572.437092	0.235167
572.649509	0.235177
572.861907	0.235323
573.074287	0.235033
573.286649	0.235191
573.498993	0.234902
573.711318	0.235522
573.923625	0.235763
574.135914	0.236425
574.348185	0.236408
574.560438	0.237108
574.772672	0.237331
574.984888	0.238100
575.197086	0.238577
575.409266	0.238826
575.621427	0.238891
575.833570	0.239109
576.045695	0.238662
576.257802	0.239289
576.469890	0.239280
576.681961	0.239068
576.894013	0.238925
577.106046	0.238984
577.318062	0.239161
577.530059	0.239416
577.742039	0.239611
577.954000	0.239862
578.165942	0.240123
578.377867	0.240185
578.589773	0.240685
578.801661	0.240668
579.013531	0.240706
579.225382	0.240844
579.437216	0.240755
579.649031	0.241061
579.860828	0.241456
580.072606	0.241372
580.284367	0.241492
580.496109	0.241723
580.707833	0.241673
580.919539	0.241947
581.131227	0.242372
581.342896	0.242528
581.554547	0.242566
581.766180	0.242700
581.977795	0.242852
582.189391	0.243226
582.400969	0.243669
582.612529	0.244396
582.824071	0.244676
583.035595	0.244452
583.247100	0.244746
583.458587	0.244767
583.670056	0.245184
583.881506	0.245439
584.092939	0.245742
584.304353	0.245436
584.515749	0.245632
584.727127	0.245954
584.938486	0.246786
585.149828	0.246875
585.361151	0.247107
585.572456	0.246846
585.783742	0.246662
585.995011	0.246410
586.206261	0.246984
586.417493	0.247012
586.628706	0.246885
586.839902	0.246671
587.051079	0.246736
587.262238	0.246808
587.473379	0.247184
587.684502	0.247635
587.895606	0.248097
588.106692	0.248365
588.317760	0.248596
588.528810	0.248737
588.739841	0.248948
588.950855	0.249310
589.161850	0.249760
589.372827	0.249842
589.583785	0.250143
589.794726	0.250425
590.005648	0.249946
590.216552	0.249985
590.427437	0.250132
590.638305	0.250073
590.849154	0.249940
591.059985	0.249973
591.270798	0.250100
591.481592	0.250134
591.692369	0.250171
591.903127	0.250650
592.113867	0.250810
592.324588	0.251003
592.535292	0.251104
592.745977	0.251352
592.956644	0.251431
593.167293	0.251222
593.377923	0.251157
593.588536	0.251258
593.799130	0.251558
594.009706	0.251947
594.220263	0.252243
594.430803	0.252738
594.641324	0.252551
594.851827	0.253001
595.062312	0.253209
595.272778	0.253512
595.483227	0.253604
595.693657	0.253761
595.904069	0.253468
596.114462	0.253491
596.324838	0.253450
596.535195	0.253791
596.745534	0.253987
596.955855	0.254377
597.166157	0.254642
597.376441	0.254576
597.586707	0.254693
597.796955	0.255058
598.007185	0.255179
598.217396	0.255508
598.427589	0.255438
598.637764	0.255335
598.847921	0.255575
599.058060	0.255609
599.268180	0.255960
599.478282	0.255803
599.688366	0.255987
599.898431	0.256194
600.108479	0.255831
600.318508	0.256481
600.528519	0.256686
600.738511	0.256833
600.948486	0.256843
601.158442	0.256790
601.368380	0.257195
601.578300	0.257239
601.788202	0.257059
601.998085	0.257826
602.207950	0.257782
602.417797	0.258430
602.627626	0.258567
602.837436	0.258936
603.047228	0.259193
603.257002	0.259239
603.466758	0.259241
603.676496	0.259534
603.886215	0.259521
604.095916	0.259741
604.305599	0.259232
604.515264	0.259304
604.724910	0.259476
604.934538	0.259676
605.144148	0.260127
605.353740	0.260405
605.563314	0.260807
605.772869	0.260605
605.982406	0.260556
606.191925	0.261306
606.401425	0.261303
606.610908	0.261381
606.820372	0.262000
607.029818	0.262066
607.239246	0.262040
607.448655	0.262215
607.658047	0.262267
607.867420	0.262196
608.076775	0.261790
608.286111	0.261950
608.495430	0.262043
608.704730	0.261513
608.914012	0.261414
609.123275	0.261652
609.332521	0.261582
609.541748	0.261979
609.750957	0.262515
609.960148	0.262902
610.169321	0.263234
610.378475	0.263225
610.587611	0.263470
610.796729	0.263553
611.005829	0.263715
611.214910	0.263652
611.423974	0.263667
611.633019	0.263465
611.842045	0.263427
612.051054	0.263447
612.260044	0.264086
612.469017	0.264261
612.677970	0.264346
612.886906	0.264617
613.095824	0.265042
613.304723	0.265363
613.513604	0.265784
613.722467	0.265961
613.931311	0.265979
614.140138	0.265696
614.348946	0.265914
614.557736	0.266141
614.766507	0.266354
614.975261	0.266266
615.183996	0.266362
615.392713	0.266482
615.601412	0.266575
615.810092	0.266408
616.018754	0.266370
616.227399	0.266203
616.436024	0.266486
616.644632	0.266184
616.853222	0.266578
617.061793	0.266501
617.270346	0.266559
617.478880	0.266743
617.687397	0.267133
617.895895	0.267645
618.104375	0.268168
618.312837	0.267955
618.521281	0.268459
618.729706	0.268634
618.938113	0.269022
619.146502	0.269175
619.354873	0.269384
619.563226	0.269618
619.771560	0.270064
619.979876	0.270080
620.188174	0.270332
620.396453	0.270214
620.604715	0.270264
620.812958	0.270309
621.021183	0.270563
621.229390	0.270686
621.437578	0.270822
621.645748	0.270304
621.853900	0.270391
622.062034	0.270592
622.270150	0.270870
622.478247	0.270509
622.686326	0.270580
622.894387	0.270447
623.102430	0.270279
623.310454	0.270628
623.518461	0.270920
623.726449	0.271173
623.934418	0.271081
624.142370	0.271131
624.350303	0.271411
624.558218	0.271689
624.766115	0.271953
624.973994	0.272500
625.181855	0.272741
625.389697	0.272910
625.597521	0.273270
625.805327	0.273854
626.013114	0.274199
626.220883	0.274680
626.428634	0.274681
626.636367	0.274921
626.844082	0.274886
627.051778	0.274757
627.259457	0.275131
627.467117	0.274747
627.674758	0.274810
627.882382	0.274751
628.089987	0.274580
628.297574	0.274607
628.505143	0.274927
628.712694	0.275059
628.920226	0.275088
629.127740	0.274951
629.335236	0.275127
629.542714	0.275167
629.750174	0.275572
629.957615	0.275969
630.165038	0.276277
630.372443	0.276412
630.579829	0.276561
630.787198	0.276591
630.994548	0.276804
631.201880	0.276935
631.409194	0.276905
631.616489	0.276945
631.823766	0.276865
632.031025	0.277216
632.238266	0.277045
632.445489	0.277297
632.652693	0.277602
632.859879	0.277450
633.067047	0.277726
633.274197	0.278159
633.481329	0.278059
633.688442	0.278604
633.895537	0.278595
634.102614	0.278962
634.309672	0.278801
634.516713	0.278918
634.723735	0.279085
634.930739	0.279053
635.137724	0.278956
635.344692	0.279176
635.551641	0.279202
635.758572	0.279238
635.965485	0.279458
636.172379	0.279713
636.379256	0.280295
636.586114	0.280538
636.792954	0.280986
636.999775	0.281326
637.206579	0.281678
637.413364	0.281755
637.620131	0.282003
637.826880	0.281960
638.033610	0.281806
638.240323	0.281442
638.447017	0.281842
638.653692	0.281644
638.860350	0.281606
639.066990	0.281698
639.273611	0.281809
639.480214	0.281792
639.686798	0.281681
639.893365	0.282288
640.099913	0.282707
640.306443	0.282631
640.512955	0.283024
640.719449	0.283064
640.925924	0.283182
641.132381	0.283332
641.338820	0.283754
641.545241	0.284383
641.751644	0.284337
641.958028	0.284377
642.164394	0.284798
642.370742	0.285036
642.577071	0.285411
642.783383	0.285543
642.989676	0.285729
643.195951	0.285783
643.402207	0.285584
643.608446	0.285893
643.814666	0.285861
644.020868	0.285811
644.227052	0.286033
644.433218	0.286599
644.639365	0.286706
644.845494	0.286859
645.051605	0.287078
645.257698	0.287418
645.463772	0.287441
645.669828	0.287838
645.875866	0.288124
646.081886	0.287846
646.287888	0.287671
646.493871	0.288006
646.699836	0.288138
646.905783	0.288121
647.111712	0.288312
647.317622	0.288502
647.523514	0.288587
647.729388	0.288581
647.935244	0.289125
648.141082	0.289251
648.346901	0.289345
648.552702	0.289520
648.758485	0.289616
648.964250	0.289815
649.169996	0.290260
649.375724	0.290443
649.581434	0.290676
649.787126	0.290725
649.992800	0.290937
650.198455	0.291108
650.404092	0.291099
650.609711	0.291223
650.815311	0.291282
651.020894	0.291098
651.226458	0.291142
651.432004	0.291393
651.637532	0.291547
651.843041	0.291634
652.048532	0.291779
652.254006	0.292110
652.459460	0.292442
652.664897	0.292514
652.870315	0.292984
653.075716	0.293176
653.281097	0.293338
653.486461	0.293595
653.691807	0.293632
653.897134	0.293901
654.102443	0.294225
654.307734	0.294275
654.513006	0.294390
654.718261	0.294482
654.923497	0.294674
655.128715	0.294872
655.333915	0.295248
655.539096	0.295468
655.744259	0.295533
655.949404	0.295350
656.154531	0.295563
656.359640	0.295751
656.564730	0.295760
656.769802	0.295909
656.974856	0.295978
657.179892	0.295953
657.384909	0.296241
657.589908	0.296163
657.794889	0.296457
657.999852	0.296703
658.204797	0.297060
658.409723	0.297261
658.614631	0.297604
658.819521	0.297238
659.024393	0.297096
659.229246	0.297178
659.434081	0.297611
659.638898	0.297689
659.843697	0.297899
660.048478	0.297972
660.253240	0.298210
660.457984	0.298154
660.662710	0.298934
660.867417	0.299384
661.072107	0.299465
661.276778	0.299352
661.481431	0.299806
661.686066	0.299955
661.890682	0.300137
662.095281	0.300162
662.299861	0.300374
662.504422	0.300486
662.708966	0.300575
662.913491	0.301016
663.117999	0.301202
663.322488	0.301198
663.526958	0.301440
663.731411	0.301527
663.935845	0.301774
664.140261	0.302172
664.344659	0.302381
664.549038	0.302637
664.753400	0.302902
664.957743	0.303291
665.162068	0.303955
665.366375	0.304159
665.570663	0.304441
665.774933	0.304581
665.979185	0.304587
666.183419	0.305006
666.387635	0.305300
666.591832	0.305354
666.796011	0.305546
667.000172	0.305361
667.204315	0.305506
667.408439	0.305722
667.612545	0.306115
667.816634	0.306458
668.020703	0.306474
668.224755	0.306670
668.428788	0.307138
668.632803	0.307414
668.836800	0.307587
669.040779	0.307818
669.244739	0.307751
669.448681	0.307711
669.652605	0.307670
669.856511	0.307812
670.060399	0.307848
670.264268	0.307709
670.468119	0.307916
670.671952	0.308179
670.875767	0.308318
671.079563	0.308810
671.283341	0.309245
671.487101	0.309589
671.690843	0.309679
671.894567	0.309941
672.098272	0.310102
672.301959	0.310017
672.505628	0.310114
672.709278	0.310364
672.912911	0.310176
673.116525	0.310404
673.320121	0.310681
673.523699	0.311068
673.727258	0.311022
673.930799	0.311255
674.134322	0.311808
674.337827	0.311985
674.541314	0.311989
674.744782	0.312702
674.948232	0.312617
675.151664	0.312839
675.355078	0.312951
675.558474	0.313626
675.761851	0.313816
675.965210	0.313995
676.168551	0.314313
676.371873	0.314840
676.575178	0.314744
676.778464	0.315071
676.981732	0.315125
677.184981	0.315312
677.388213	0.315475
677.591426	0.315828
677.794621	0.315627
677.997798	0.315783
678.200956	0.315615
678.404097	0.315919
678.607219	0.316049
678.810323	0.316415
679.013408	0.316616
679.216476	0.316549
679.419525	0.316436
679.622556	0.316631
679.825569	0.316676
680.028563	0.317143
680.231540	0.317157
680.434498	0.317420
680.637438	0.317380
680.840359	0.317528
681.043263	0.317633
681.246148	0.317870
681.449015	0.318340
681.651864	0.318422
681.854694	0.318580
682.057506	0.319236
682.260301	0.319437
682.463076	0.319785
682.665834	0.320067
682.868573	0.320539
683.071295	0.320991
683.273998	0.321088
683.476682	0.321538
683.679349	0.321752
683.881997	0.321640
684.084627	0.322146
684.287239	0.322322
684.489833	0.322403
684.692408	0.322304
684.894965	0.322252
685.097504	0.322643
685.300025	0.322769
685.502527	0.322896
685.705012	0.323089
685.907478	0.322956
686.109925	0.323221
686.312355	0.323421
686.514766	0.323761
686.717159	0.323990
686.919534	0.323973
687.121891	0.324253
687.324230	0.324330
687.526550	0.324584
687.728852	0.324491
687.931136	0.324683
688.133401	0.324834
688.335649	0.324823
688.537878	0.324902
688.740089	0.325321
688.942281	0.325248
689.144456	0.325317
689.346612	0.325222
689.548750	0.325679
689.750870	0.325917
689.952971	0.326059
690.155055	0.326413
690.357120	0.326851
690.559167	0.326897
690.761195	0.327150
690.963206	0.327320
691.165198	0.327640
691.367172	0.327780
691.569128	0.327590
691.771065	0.327882
691.972984	0.327961
692.174885	0.327959
692.376768	0.328032
692.578633	0.328163
692.780479	0.328394
692.982308	0.328426
693.184118	0.328463
693.385909	0.328241
693.587683	0.328022
693.789438	0.328020
693.991175	0.328033
694.192894	0.328177
694.394595	0.328110
694.596277	0.328083
694.797941	0.328413
694.999587	0.328483
695.201215	0.329098
695.402824	0.329461
695.604416	0.329523
695.805989	0.329632
696.007543	0.329551
696.209080	0.329764
696.410598	0.329976
696.612099	0.329840
696.813580	0.329917
697.015044	0.329829
697.216490	0.329698
697.417917	0.330164
697.619326	0.330550
697.820717	0.330623
698.022089	0.330607
698.223444	0.330755
698.424780	0.331012
698.626098	0.331245
698.827397	0.331288
699.028679	0.331540
699.229942	0.331466
699.431187	0.331078
699.632414	0.331399
699.833622	0.331712
700.034813	0.332046
700.235985	0.332148
700.437139	0.332368
700.638274	0.332652
700.839392	0.333172
701.040491	0.333560
701.241572	0.334089
701.442635	0.334109
701.643679	0.334387
701.844706	0.334278
702.045714	0.334355
702.246704	0.334417
702.447675	0.334508
702.648629	0.334325
702.849564	0.334106
703.050481	0.334063
703.251380	0.334033
703.452260	0.333944
703.653122	0.334100
703.853966	0.334057
704.054792	0.334139
704.255600	0.334163
704.456389	0.334144
704.657160	0.334280
704.857913	0.334299
705.058648	0.334458
705.259365	0.334468
705.460063	0.334283
705.660743	0.334612
705.861405	0.334642
706.062048	0.334614
706.262674	0.334818
706.463281	0.334705
706.663870	0.334922
706.864441	0.335198
707.064993	0.335360
707.265527	0.335624
707.466043	0.335386
707.666541	0.335443
707.867021	0.335660
708.067482	0.335581
708.267925	0.335871
708.468350	0.335877
708.668757	0.335724
708.869145	0.335633
709.069516	0.335599
709.269868	0.335619
709.470201	0.335578
709.670517	0.335701
709.870814	0.335924
710.071093	0.335929
710.271354	0.335874
710.471597	0.336127
710.671821	0.336374
710.872028	0.336383
711.072216	0.336520
711.272385	0.336514
711.472537	0.336281
711.672670	0.336027
711.872785	0.335678
712.072882	0.335452
712.272961	0.334745
712.473021	0.334552
712.673063	0.334243
712.873087	0.334134
713.073093	0.333973
713.273081	0.333830
713.473050	0.333690
713.673001	0.333830
713.872934	0.333972
714.072849	0.334684
714.272745	0.334959
714.472623	0.335376
714.672483	0.335596
714.872325	0.335819
715.072148	0.336071
715.271954	0.336369
715.471741	0.336552
715.671509	0.336483
715.871260	0.336233
716.070992	0.335836
716.270707	0.335366
716.470403	0.335060
716.670080	0.334801
716.869740	0.334355
717.069381	0.334109
717.269004	0.333764
717.468609	0.333659
717.668195	0.333561
717.867764	0.333319
718.067314	0.333364
718.266846	0.333300
718.466360	0.333020
718.665855	0.333209
718.865332	0.333212
719.064791	0.332827
719.264232	0.332677
719.463655	0.332425
719.663059	0.332622
719.862445	0.332614
720.061813	0.332504
720.261163	0.332598
720.460494	0.332567
720.659807	0.332257
720.859102	0.332524
721.058379	0.332548
721.257638	0.332455
721.456878	0.332395
721.656100	0.332272
721.855304	0.332380
722.054490	0.332386
722.253657	0.332212
722.452806	0.332390
722.651937	0.332435
722.851050	0.332174
723.050145	0.332171
723.249221	0.331969
723.448279	0.332141
723.647319	0.331951
723.846340	0.331859
724.045344	0.331908
724.244329	0.331642
724.443296	0.331342
724.642245	0.331425
724.841175	0.331252
725.040088	0.331098
725.238982	0.330969
725.437857	0.330866
725.636715	0.330882
725.835554	0.330694
726.034376	0.330696
726.233179	0.330544
726.431963	0.330512
726.630730	0.330266
726.829478	0.330250
727.028208	0.330198
727.226920	0.330381
727.425614	0.330162
727.624289	0.330133
727.822946	0.330008
728.021585	0.330194
728.220206	0.330074
728.418808	0.330143
728.617392	0.330391
728.815958	0.329972
729.014506	0.329786
729.213036	0.329736
729.411547	0.329624
729.610040	0.329517
729.808515	0.329158
730.006972	0.329047
730.205410	0.328969
730.403831	0.328421
730.602233	0.328398
730.800616	0.328135
730.998982	0.328071
731.197329	0.327662
731.395658	0.327413
731.593969	0.327407
731.792262	0.327174
731.990536	0.327014
732.188793	0.326824
732.387031	0.326535
732.585250	0.326297
732.783452	0.325824
732.981635	0.325728
733.179800	0.325771
733.377947	0.325670
733.576076	0.325447
733.774186	0.325262
733.972278	0.325057
734.170352	0.324762
734.368408	0.324298
734.566446	0.324078
734.764465	0.323832
734.962466	0.323329
735.160449	0.322676
735.358413	0.322243
735.556360	0.321791
735.754288	0.321745
735.952198	0.321785
736.150090	0.321644
736.347963	0.321615
736.545818	0.321613
736.743655	0.321437
736.941474	0.321549
737.139275	0.321644
737.337057	0.321690
737.534821	0.321541
737.732567	0.321071
737.930295	0.321053
738.128005	0.320740
738.325696	0.320381
738.523369	0.320472
738.721024	0.320396
738.918660	0.320337
739.116279	0.320091
739.313879	0.319900
739.511461	0.319709
739.709024	0.319794
739.906570	0.319700
740.104097	0.319553
740.301606	0.319303
740.499097	0.318817
740.696569	0.318592
740.894024	0.318599
741.091460	0.318257
741.288878	0.318383
741.486277	0.317791
741.683659	0.317340
741.881022	0.317230
742.078367	0.317110
742.275694	0.317185
742.473002	0.316979
742.670293	0.316634
742.867565	0.316687
743.064819	0.316540
743.262054	0.316542
743.459272	0.316739
743.656471	0.316449
743.853652	0.316049
744.050815	0.316010
744.247959	0.315747
744.445085	0.315460
744.642194	0.315078
744.839283	0.314605
745.036355	0.314329
745.233408	0.314074
745.430444	0.313996
745.627461	0.313839
745.824459	0.313251
746.021440	0.313031
746.218402	0.312940
746.415346	0.312626
746.612272	0.312568
746.809180	0.312701
747.006069	0.312348
747.202940	0.312196
747.399793	0.311841
747.596628	0.311630
747.793444	0.311579
747.990243	0.311196
748.187023	0.311005
748.383784	0.310836
748.580528	0.310358
748.777253	0.310239
748.973960	0.309804
749.170649	0.309772
749.367320	0.309870
749.563973	0.309462
749.760607	0.309565
749.957223	0.309673
750.153821	0.309358
750.350400	0.309214
750.546962	0.309045
750.743505	0.308881
750.940030	0.308818
751.136536	0.308570
751.333025	0.308803
751.529495	0.308226
751.725947	0.307868
751.922381	0.307730
752.118796	0.307489
752.315194	0.307138
752.511573	0.306955
752.707934	0.306491
752.904276	0.306249
753.100601	0.305472
753.296907	0.305521
753.493195	0.305440
753.689465	0.305313
753.885716	0.305050
754.081949	0.304998
754.278164	0.304810
754.474361	0.304582
754.670540	0.304366
754.866700	0.304342
755.062843	0.304431
755.258967	0.304033
755.455072	0.303982
755.651160	0.303954
755.847229	0.303793
756.043280	0.303527
756.239313	0.303406
756.435328	0.303314
756.631324	0.303343
756.827302	0.302920
757.023262	0.302841
757.219204	0.302465
757.415127	0.302384
757.611033	0.302376
757.806920	0.302360
758.002788	0.302303
758.198639	0.302260
758.394471	0.302204
758.590286	0.302201
758.786081	0.302016
758.981859	0.301900
759.177619	0.301613
759.373360	0.301249
759.569083	0.300959
759.764788	0.300664
759.960474	0.300112
760.156143	0.299684
760.351793	0.299180
760.547425	0.298946
760.743038	0.298613
760.938634	0.298404
761.134211	0.298155
761.329770	0.298172
761.525311	0.298198
761.720833	0.298229
761.916338	0.298150
762.111824	0.298160
762.307292	0.298066
762.502741	0.298229
762.698173	0.297983
762.893586	0.298072
763.088981	0.298087
763.284358	0.298041
763.479716	0.297939
763.675057	0.297791
763.870379	0.297588
764.065683	0.297489
764.260968	0.297313
764.456236	0.297388
764.651485	0.297110
764.846716	0.296877
765.041929	0.296765
765.237123	0.296727
765.432299	0.296649
765.627457	0.296817
765.822597	0.296968
766.017719	0.296870
766.212822	0.296667
766.407907	0.296603
766.602974	0.296685
766.798023	0.296552
766.993054	0.296440
767.188066	0.296363
767.383060	0.296255
767.578036	0.295864
767.772993	0.295695
767.967933	0.295795
768.162854	0.295883
768.357757	0.295807
768.552642	0.295566
768.747508	0.295475
768.942356	0.295363
769.137186	0.295203
769.331998	0.295089
769.526792	0.294985
769.721567	0.294855
769.916324	0.294853
770.111063	0.294563
770.305784	0.294255
770.500486	0.294131
770.695171	0.294280
770.889837	0.294346
771.084484	0.294457
771.279114	0.294434
771.473725	0.294288
771.668318	0.294118
771.862893	0.294307
772.057450	0.294589
772.251988	0.294487
772.446509	0.294230
772.641011	0.294050
772.835494	0.294027
773.029960	0.294027
773.224407	0.294099
773.418836	0.294135
773.613247	0.293874
773.807640	0.293698
774.002014	0.293568
774.196370	0.293508
774.390708	0.293181
774.585028	0.293212
774.779330	0.293093
774.973613	0.292758
775.167878	0.292595
775.362125	0.292756
775.556354	0.292751
775.750564	0.292690
775.944756	0.292626
776.138930	0.292801
776.333086	0.292536
776.527223	0.292586
776.721343	0.292525
776.915444	0.292358
777.109526	0.291947
777.303591	0.291794
777.497637	0.291995
777.691666	0.291931
777.885676	0.291863
778.079667	0.291953
778.273641	0.291889
778.467596	0.292055
778.661533	0.292073
778.855452	0.292282
779.049352	0.292510
779.243235	0.292464
779.437099	0.292741
779.630945	0.292765
779.824773	0.292870
780.018582	0.292933
780.212373	0.292902
780.406146	0.293124
780.599901	0.293456
780.793638	0.293513
780.987356	0.293471
781.181056	0.293163
781.374738	0.293283
781.568402	0.293192
781.762047	0.293042
781.955674	0.293370
782.149283	0.293123
782.342874	0.292792
782.536447	0.292618
782.730001	0.292509
782.923537	0.292751
783.117055	0.292831
783.310555	0.292874
783.504036	0.293004
783.697499	0.292757
783.890944	0.292957
784.084371	0.293057
784.277780	0.293072
784.471170	0.293279
784.664542	0.293135
784.857896	0.293049
785.051231	0.293331
785.244549	0.293356
785.437848	0.293704
785.631129	0.293909
785.824392	0.294082
786.017636	0.294233
786.210863	0.294429
786.404071	0.294641
786.597260	0.294717
786.790432	0.294607
786.983585	0.294676
787.176721	0.294527
787.369838	0.294441
787.562936	0.294130
787.756017	0.294595
787.949079	0.294604
788.142123	0.294640
788.335149	0.294762
788.528156	0.294518
788.721146	0.294726
788.914117	0.294699
789.107070	0.294852
789.300005	0.295292
789.492921	0.295076
789.685819	0.295429
789.878699	0.295476
790.071561	0.295550
790.264405	0.295906
790.457230	0.296222
790.650037	0.296436
790.842826	0.296319
791.035597	0.296336
791.228349	0.296433
791.421084	0.296301
791.613800	0.296445
791.806497	0.296794
791.999177	0.297032
792.191838	0.296560
792.384481	0.296787
792.577106	0.297032
792.769713	0.297151
792.962301	0.297187
793.154871	0.297191
793.347423	0.297203
793.539957	0.297127
793.732473	0.297047
793.924970	0.297559
794.117449	0.297537
794.309910	0.297756
794.502353	0.297627
794.694777	0.297896
794.887183	0.298245
795.079571	0.298595
795.271941	0.298794
795.464293	0.299191
795.656626	0.299339
795.848941	0.299962
796.041238	0.300203
796.233516	0.300573
796.425777	0.300758
796.618019	0.300909
796.810243	0.300996
797.002449	0.301051
797.194636	0.301117
797.386805	0.301203
797.578956	0.300975
797.771089	0.301226
797.963204	0.301405
798.155300	0.301687
798.347378	0.302147
798.539438	0.302414
798.731480	0.302702
798.923503	0.303117
799.115509	0.303209
799.307496	0.303464
799.499465	0.303680
799.691415	0.304206
799.883348	0.304396
800.075262	0.304404
800.267158	0.304828
800.459035	0.305174
800.650895	0.305280
800.842736	0.305817
801.034559	0.306445
801.226364	0.306767
801.418150	0.307054
801.609919	0.307296
801.801669	0.307562
801.993401	0.307690
802.185114	0.307837
802.376810	0.308290
802.568487	0.308781
802.760146	0.308583
802.951787	0.308784
803.143409	0.308799
803.335014	0.308849
803.526600	0.308994
803.718168	0.309144
803.909717	0.309452
804.101249	0.309594
804.292762	0.309505
804.484257	0.309782
804.675734	0.309914
804.867192	0.310231
805.058632	0.310651
805.250054	0.310817
805.441458	0.310836
805.632844	0.311096
805.824211	0.311241
806.015561	0.311399
806.206891	0.311829
806.398204	0.312018
806.589499	0.312318
806.780775	0.312431
806.972033	0.313036
807.163273	0.313463
807.354495	0.313654
807.545698	0.313659
807.736883	0.314051
807.928050	0.314489
808.119199	0.314699
808.310329	0.314835
808.501441	0.315466
808.692535	0.315505
808.883611	0.316130
809.074669	0.316570
809.265708	0.317042
809.456729	0.317257
809.647732	0.317312
809.838717	0.317744
810.029683	0.318199
810.220632	0.318278
810.411562	0.318658
810.602474	0.318845
810.793367	0.319006
810.984242	0.319330
811.175100	0.319808
811.365938	0.320040
811.556759	0.320567
811.747562	0.320799
811.938346	0.321152
812.129112	0.321246
812.319860	0.321546
812.510589	0.322211
812.701300	0.322590
812.891994	0.322948
813.082668	0.323196
813.273325	0.323461
813.463964	0.324055
813.654584	0.324384
813.845186	0.324768
814.035769	0.325236
814.226335	0.325142
814.416882	0.325568
814.607411	0.325836
814.797922	0.326421
814.988415	0.326537
815.178889	0.326581
815.369345	0.327467
815.559783	0.327892
815.750203	0.328201
815.940605	0.328872
816.130988	0.329258
816.321353	0.329470
816.511700	0.330131
816.702028	0.330744
816.892339	0.331573
817.082631	0.331630
817.272905	0.332658
817.463161	0.332970
817.653398	0.333540
817.843617	0.334050
818.033819	0.334376
818.224001	0.334618
818.414166	0.334915
818.604312	0.335120
818.794440	0.335594
818.984550	0.335697
819.174642	0.336041
819.364716	0.336210
819.554771	0.336435
819.744808	0.337408
819.934827	0.337778
820.124827	0.338304
820.314810	0.338806
820.504774	0.339000
820.694720	0.339341
820.884647	0.339858
821.074557	0.340242
821.264448	0.340556
821.454321	0.340487
821.644176	0.340956
821.834012	0.341131
822.023831	0.341365
822.213631	0.341712
822.403413	0.341728
822.593176	0.342257
822.782922	0.342763
822.972649	0.342883
823.162358	0.343298
823.352049	0.343588
823.541721	0.344019
823.731376	0.344375
823.921012	0.344803
824.110629	0.345306
824.300229	0.345785
824.489811	0.346294
824.679374	0.347094
824.868919	0.347946
825.058445	0.348092
825.247954	0.348686
825.437444	0.349058
825.626916	0.349624
825.816370	0.350400
826.005806	0.350843
826.195223	0.351446
826.384622	0.351976
826.574003	0.352358
826.763366	0.352938
826.952711	0.353269
827.142037	0.353617
827.331345	0.354259
827.520635	0.354300
827.709906	0.354475
827.899160	0.354813
828.088395	0.355206
828.277612	0.355532
828.466810	0.356087
828.655991	0.356284
828.845153	0.356820
829.034297	0.356868
829.223423	0.357303
829.412531	0.357790
829.601620	0.357856
829.790691	0.358118
829.979744	0.358331
830.168779	0.358498
830.357795	0.359352
830.546793	0.360288
830.735773	0.361023
830.924735	0.361720
831.113679	0.362328
831.302604	0.362926
831.491511	0.363680
831.680400	0.364366
831.869271	0.365301
832.058123	0.365568
832.246957	0.365665
832.435773	0.365923
832.624571	0.366241
832.813351	0.366470
833.002112	0.367032
833.190855	0.367312
833.379580	0.367708
833.568287	0.368023
833.756975	0.368736
833.945645	0.369254
834.134297	0.369862
834.322931	0.370297
834.511547	0.371074
834.700144	0.371458
834.888723	0.372321
835.077284	0.373086
835.265826	0.373514
835.454351	0.374182
835.642857	0.374650
835.831345	0.375150
836.019815	0.375942
836.208266	0.376367
836.396699	0.377029
836.585114	0.377304
836.773511	0.377492
836.961890	0.377878
837.150250	0.378293
837.338592	0.379035
837.526916	0.379578
837.715222	0.379850
837.903510	0.380287
838.091779	0.380644
838.280030	0.381308
838.468263	0.382240
838.656477	0.382791
838.844674	0.383044
839.032852	0.383244
839.221012	0.383637
839.409153	0.384357
839.597277	0.384797
839.785382	0.385275
839.973469	0.385689
840.161538	0.385730
840.349589	0.386018
840.537621	0.386798
840.725635	0.387598
840.913631	0.387898
841.101609	0.388482
841.289568	0.388992
841.477509	0.389615
841.665432	0.390042
841.853337	0.390638
842.041224	0.391212
842.229092	0.391305
842.416942	0.391414
842.604774	0.392140
842.792588	0.392526
842.980383	0.392873
843.168160	0.393144
843.355919	0.393658
843.543660	0.394369
843.731382	0.395513
843.919087	0.396157
844.106773	0.397072
844.294441	0.397307
844.482090	0.397835
844.669722	0.398755
844.857335	0.399620
845.044930	0.400038
845.232507	0.400544
845.420065	0.400830
845.607605	0.401448
845.795127	0.401613
845.982631	0.402291
846.170117	0.402576
846.357584	0.402968
846.545033	0.403105
846.732464	0.403511
846.919877	0.404017
847.107272	0.403937
847.294648	0.404412
847.482006	0.404883
847.669346	0.405392
847.856667	0.406077
848.043971	0.406352
848.231256	0.406752
848.418523	0.406983
848.605771	0.407228
848.793002	0.407887
848.980214	0.407760
849.167408	0.408307
849.354584	0.408813
849.541742	0.409114
849.728881	0.409781
849.916002	0.410502
850.103105	0.411371
850.290190	0.411821
850.477256	0.412507
850.664304	0.413634
850.851334	0.413901
851.038346	0.414631
851.225340	0.415058
851.412315	0.415267
851.599272	0.415563
851.786211	0.416000
851.973132	0.416800
852.160034	0.417103
852.346918	0.417450
852.533784	0.417934
852.720632	0.417972
852.907462	0.418683
853.094273	0.419503
853.281066	0.420022
853.467841	0.420774
853.654598	0.420826
853.841336	0.421208
854.028056	0.421746
854.214758	0.422560
854.401442	0.423046
854.588107	0.423365
854.774755	0.423483
854.961384	0.424060
855.147995	0.423938
855.334587	0.424681
855.521162	0.425414
855.707718	0.425755
855.894256	0.425772
856.080775	0.426303
856.267277	0.427159
856.453760	0.427830
856.640225	0.428391
856.826672	0.429234
857.013101	0.429917
857.199511	0.430332
857.385903	0.430848
857.572277	0.431860
857.758633	0.432334
857.944970	0.432606
858.131290	0.433147
858.317591	0.433816
858.503873	0.434485
858.690138	0.434708
858.876384	0.434620
859.062612	0.434750
859.248822	0.434953
859.435014	0.435655
859.621188	0.435940
859.807343	0.436421
859.993480	0.436749
860.179599	0.437147
860.365699	0.437146
860.551781	0.438187
860.737846	0.438871
860.923891	0.439274
861.109919	0.439608
861.295929	0.439927
861.481920	0.440674
861.667893	0.441012
861.853848	0.441299
862.039784	0.442130
862.225702	0.442607
862.411603	0.443215
862.597484	0.443627
862.783348	0.444029
862.969193	0.445241
863.155021	0.445013
863.340830	0.445104
863.526620	0.445319
863.712393	0.445525
863.898147	0.445551
864.083883	0.446481
864.269601	0.447011
864.455301	0.447480
864.640982	0.447074
864.826645	0.447477
865.012290	0.448133
865.197917	0.448950
865.383526	0.449094
865.569116	0.449445
865.754688	0.449440
865.940242	0.449639
866.125777	0.450125
866.311295	0.450312
866.496794	0.450435
866.682275	0.450689
866.867737	0.450650
867.053182	0.451406
867.238608	0.452048
867.424016	0.451965
867.609406	0.452749
867.794778	0.453074
867.980131	0.453952
868.165466	0.454245
868.350783	0.454694
868.536082	0.455236
868.721362	0.455534
868.906625	0.455827
869.091869	0.456006
869.277094	0.455534
869.462302	0.455769
869.647491	0.455713
869.832662	0.456386
870.017815	0.457244
870.202950	0.457189
870.388066	0.457661
870.573165	0.458086
870.758245	0.459252
870.943306	0.459634
871.128350	0.459718
871.313375	0.460421
871.498382	0.460830
871.683371	0.460893
871.868342	0.461603
872.053294	0.461472
872.238229	0.461837
872.423144	0.462139
872.608042	0.462783
872.792922	0.462939
872.977783	0.462699
873.162626	0.462679
873.347451	0.462830
873.532258	0.463250
873.717046	0.463778
873.901816	0.463570
874.086568	0.463033
874.271302	0.463286
874.456017	0.463602
874.640715	0.463873
874.825394	0.464356
875.010055	0.464377
875.194697	0.464405
875.379322	0.464315
875.563928	0.464741
875.748516	0.465200
875.933085	0.465543
876.117637	0.466101
876.302170	0.466545
876.486685	0.466856
876.671182	0.467084
876.855661	0.467666
877.040121	0.468080
877.224563	0.468587
877.408987	0.468990
877.593393	0.468942
877.777780	0.468795
877.962150	0.469230
878.146501	0.469232
878.330833	0.469828
878.515148	0.469720
878.699444	0.470210
878.883722	0.470649
879.067982	0.470731
879.252224	0.471421
879.436447	0.472075
879.620653	0.472565
879.804840	0.473290
879.989008	0.473318
880.173159	0.473534
880.357291	0.473944
880.541405	0.473691
880.725501	0.474855
880.909579	0.474593
881.093638	0.474542
881.277680	0.474065
881.461703	0.474467
881.645707	0.474641
881.829694	0.474691
882.013662	0.474008
882.197612	0.474175
882.381544	0.473230
882.565458	0.473470
882.749353	0.473258
882.933230	0.474280
883.117089	0.473871
883.300930	0.473944
883.484753	0.473596
883.668557	0.473925
883.852343	0.474532
884.036111	0.474752
884.219861	0.474805
884.403592	0.475617
884.587305	0.475085
884.771000	0.474900
884.954677	0.475056
885.138335	0.475117
885.321976	0.475788
885.505598	0.476272
885.689201	0.476152
885.872787	0.476428
886.056354	0.476235
886.239904	0.476305
886.423434	0.476924
886.606947	0.476869
886.790442	0.477000
886.973918	0.476983
887.157376	0.475928
887.340816	0.476182
887.524237	0.475978
887.707641	0.475901
887.891026	0.476307
888.074393	0.476025
888.257741	0.475988
888.441072	0.476122
888.624384	0.475882
888.807678	0.476850
888.990954	0.476560
889.174211	0.476845
889.357451	0.476898
889.540672	0.476837
889.723875	0.476440
889.907059	0.476211
890.090226	0.476426
890.273374	0.476306
890.456504	0.476013
890.639616	0.476403
890.822709	0.476472
891.005785	0.476756
891.188842	0.476148
891.371881	0.476097
891.554901	0.476470
891.737904	0.476632
891.920888	0.476790
892.103854	0.476631
892.286802	0.476379
892.469731	0.475974
892.652643	0.475542
892.835536	0.475807
893.018410	0.476745
893.201267	0.476177
893.384106	0.475570
893.566926	0.475506
893.749728	0.474876
893.932511	0.474361
894.115277	0.474368
894.298024	0.474539
894.480753	0.474143
894.663464	0.473659
894.846157	0.473523
895.028831	0.473853
895.211487	0.474016
895.394125	0.473629
895.576745	0.473728
895.759346	0.473490
895.941930	0.472950
896.124495	0.472660
896.307041	0.472009
896.489570	0.471987
896.672080	0.471480
896.854573	0.470722
897.037046	0.470898
897.219502	0.470917
897.401940	0.470533
897.584359	0.470621
897.766760	0.471199
897.949143	0.471305
898.131507	0.471242
898.313854	0.471338
898.496182	0.471359
898.678492	0.471472
898.860783	0.471157
899.043057	0.470772
899.225312	0.470703
899.407549	0.469584
899.589768	0.469162
899.771968	0.467866
899.954151	0.467220
900.136315	0.466376
900.318461	0.466208
900.500588	0.466270
900.682698	0.466351
900.864789	0.465818
901.046862	0.465936
901.228917	0.465912
901.410953	0.466521
901.592971	0.465855
901.774972	0.466207
901.956953	0.465372
902.138917	0.464825
902.320862	0.464332
902.502790	0.463865
902.684699	0.463064
902.866589	0.462914
903.048462	0.462049
903.230316	0.462085
903.412152	0.460795
903.593970	0.460473
903.775770	0.459210
903.957551	0.458644
904.139314	0.458120
904.321059	0.458026
904.502786	0.457243
904.684494	0.457081
904.866185	0.456550
905.047857	0.456851
905.229510	0.456166
905.411146	0.456337
905.592763	0.456615
905.774363	0.455763
905.955943	0.455625
906.137506	0.455015
906.319051	0.454898
906.500577	0.454790
906.682085	0.454257
906.863575	0.453591
907.045046	0.453695
907.226500	0.452660
907.407935	0.452390
907.589352	0.451714
907.770750	0.451164
907.952131	0.450728
908.133493	0.449976
908.314837	0.449650
908.496163	0.449433
908.677470	0.448377
908.858760	0.448100
909.040031	0.447295
909.221284	0.446713
909.402518	0.445802
909.583735	0.444929
909.764933	0.444163
909.946113	0.443735
910.127275	0.443274
910.308418	0.442890
910.489544	0.441914
910.670651	0.441754
910.851740	0.441235
911.032810	0.440707
911.213863	0.440462
911.394897	0.439786
911.575913	0.439408
911.756911	0.438590
911.937890	0.437376
912.118851	0.437150
912.299794	0.436996
912.480719	0.435901
912.661626	0.435798
912.842514	0.435144
913.023384	0.435039
913.204236	0.433393
913.385070	0.433054
913.565886	0.432755
913.746683	0.431962
913.927462	0.430808
914.108223	0.430740
914.288965	0.429918
914.469690	0.429553
914.650396	0.428638
914.831084	0.428488
915.011754	0.427830
915.192405	0.427781
915.373038	0.427458
915.553653	0.426967
915.734250	0.425855
915.914829	0.425044
916.095389	0.424454
916.275931	0.423778
916.456455	0.422926
916.636961	0.423035
916.817448	0.421351
916.997917	0.420334
917.178368	0.419951
917.358801	0.419505
917.539216	0.418519
917.719612	0.417214
917.899990	0.416480
918.080350	0.416248
918.260692	0.414771
918.441015	0.414375
918.621320	0.413713
918.801607	0.412725
918.981876	0.411958
919.162127	0.411608
919.342359	0.410324
919.522573	0.409706
919.702769	0.408892
919.882947	0.407990
920.063106	0.407239
920.243247	0.406100
920.423370	0.405413
920.603475	0.404022
920.783562	0.403079
920.963630	0.402406
921.143680	0.401715
921.323712	0.400662
921.503725	0.399887
921.683721	0.398762
921.863698	0.398277
922.043657	0.396967
922.223598	0.397075
922.403520	0.396293
922.583424	0.395599
922.763311	0.394230
922.943178	0.393939
923.123028	0.393054
923.302859	0.392564
923.482673	0.391204
923.662467	0.390052
923.842244	0.388762
924.022003	0.387563
924.201743	0.386641
924.381465	0.386032
924.561169	0.384429
924.740854	0.383106
924.920522	0.381895
925.100171	0.380969
925.279802	0.380398
925.459414	0.379414
925.639009	0.378927
925.818585	0.378184
925.998143	0.376896
926.177683	0.375970
926.357205	0.375592
926.536708	0.374949
926.716193	0.374034
926.895660	0.372800
927.075109	0.371254
927.254539	0.370260
927.433951	0.369898
927.613345	0.370044
927.792721	0.368850
927.972079	0.367647
928.151418	0.366892
928.330739	0.365628
928.510042	0.364802
928.689327	0.365099
928.868593	0.363458
929.047841	0.361673
929.227071	0.359611
929.406283	0.359082
929.585476	0.358531
929.764652	0.357663
929.943809	0.357703
930.122948	0.357168
930.302068	0.356021
930.481171	0.355833
930.660255	0.355558
930.839321	0.354698
931.018369	0.353586
931.197398	0.351801
931.376409	0.350313
931.555402	0.347721
931.734377	0.345988
931.913334	0.344498
932.092272	0.342261
932.271192	0.340792
932.450094	0.339535
932.628978	0.338699
932.807844	0.337940
932.986691	0.337460
933.165520	0.337337
933.344331	0.337238
933.523123	0.335805
933.701898	0.335518
933.880654	0.333476
934.059392	0.332867
934.238111	0.332111
934.416813	0.331021
934.595496	0.329127
934.774161	0.328293
934.952808	0.325933
935.131437	0.325222
935.310047	0.324206
935.488639	0.323036
935.667213	0.322020
935.845769	0.320441
936.024306	0.319438
936.202825	0.317832
936.381326	0.317002
936.559809	0.316514
936.738274	0.315922
936.916720	0.315247
937.095148	0.314567
937.273558	0.313855
937.451950	0.311937
937.630323	0.310471
937.808678	0.309956
937.987015	0.308526
938.165334	0.307720
938.343635	0.305677
938.521917	0.304162
938.700181	0.303808
938.878427	0.302412
939.056655	0.301392
939.234864	0.300094
939.413055	0.299603
939.591228	0.298163
939.769383	0.296134
939.947519	0.294866
940.125638	0.294144
940.303738	0.292457
940.481820	0.290440
940.659883	0.288951
940.837929	0.287524
941.015956	0.284818
941.193965	0.283993
941.371955	0.283965
941.549928	0.282204
941.727882	0.280563
941.905818	0.279353
942.083736	0.278280
942.261636	0.277260
942.439517	0.278232
942.617380	0.278029
942.795225	0.276170
942.973052	0.275091
943.150860	0.275438
943.328651	0.273788
943.506423	0.272102
943.684176	0.271065
943.861912	0.270067
944.039629	0.267342
944.217328	0.265455
944.395009	0.265013
944.572672	0.262624
944.750317	0.260668
944.927943	0.259772
945.105551	0.259135
945.283141	0.257537
945.460712	0.257205
945.638265	0.255585
945.815801	0.254868
945.993317	0.253489
946.170816	0.253897
946.348297	0.251548
946.525759	0.250037
946.703203	0.248460
946.880629	0.248147
947.058036	0.245434
947.235425	0.244264
947.412797	0.242826
947.590149	0.241395
947.767484	0.239606
947.944800	0.238025
948.122099	0.236953
948.299379	0.235867
948.476640	0.233062
948.653884	0.233208
948.831109	0.231885
949.008316	0.229673
949.185505	0.227614
949.362676	0.225849
949.539828	0.226741
949.716962	0.225044
949.894078	0.223657
950.071176	0.223375
950.248256	0.221685
950.425317	0.220129
950.602360	0.221117
950.779385	0.220682
950.956391	0.218862
951.133380	0.215977
951.310350	0.214727
951.487302	0.213136
951.664235	0.212668
951.841151	0.210532
952.018048	0.209760
952.194927	0.205462
952.371788	0.205351
952.548631	0.203673
952.725455	0.202632
952.902261	0.202852
953.079049	0.203134
953.255819	0.201815
953.432570	0.202628
953.609303	0.202273
953.786018	0.203939
953.962715	0.200912
954.139394	0.200605
954.316054	0.197094
954.492696	0.196555
954.669320	0.194067
954.845926	0.192945
955.022513	0.189210
955.199083	0.188193
955.375634	0.189039
955.552166	0.187454
955.728681	0.185061
955.905177	0.186388
956.081655	0.182854
956.258115	0.182150
956.434557	0.180386
956.610980	0.181770
956.787385	0.180412
956.963772	0.177864
957.140141	0.178308
957.316492	0.177780
957.492824	0.176494
957.669138	0.176564
957.845434	0.173951
958.021712	0.172954
958.197971	0.171172
958.374212	0.168981
958.550435	0.166901
958.726640	0.166329
958.902826	0.166798
959.078995	0.167469
959.255145	0.166496
959.431277	0.167356
959.607390	0.165025
959.783486	0.163165
959.959563	0.162005
960.135622	0.159929
960.311662	0.158774
960.487685	0.159037
960.663689	0.157621
960.839675	0.157669
961.015643	0.156502
961.191593	0.156928
961.367524	0.157405
961.543437	0.159623
961.719332	0.160942
961.895209	0.162384
962.071067	0.160771
962.246907	0.159426
962.422730	0.156584
962.598533	0.157431
962.774319	0.157924
962.950086	0.158029
963.125835	0.156691
963.301566	0.155886
963.477279	0.151769
963.652973	0.151021
963.828650	0.151994
964.004308	0.154652
964.179947	0.153152
964.355569	0.153228
964.531172	0.151877
964.706757	0.150996
964.882324	0.149350
965.057873	0.151302
965.233403	0.152436
965.408916	0.149564
965.584410	0.146644
965.759885	0.148584
965.935343	0.147185
966.110782	0.148437
966.286203	0.149659
966.461606	0.151661
966.636991	0.150707
966.812357	0.147430
966.987705	0.149823
967.163035	0.152672
967.338347	0.148925
967.513641	0.150030
967.688916	0.148683
967.864173	0.146384
968.039412	0.145984
968.214632	0.146759
968.389835	0.149438
968.565019	0.151320
968.740185	0.149671
968.915333	0.153518
969.090462	0.153986
969.265573	0.152783
969.440667	0.153590
969.615741	0.152363
969.790798	0.152185
969.965836	0.151274
970.140856	0.148917
970.315858	0.150116
970.490842	0.148774
970.665808	0.148210
970.840755	0.148914
971.015684	0.146156
971.190595	0.146370
971.365487	0.146224
971.540362	0.148544
971.715218	0.145239
971.890056	0.143940
972.064875	0.141672
972.239677	0.139705
972.414460	0.139626
972.589225	0.142006
972.763972	0.142403
972.938700	0.141076
973.113411	0.139757
973.288103	0.142202
973.462777	0.142493
973.637432	0.142950
973.812070	0.144603
973.986689	0.144116
974.161290	0.146014
974.335873	0.146632
974.510437	0.148848
974.684984	0.148509
974.859512	0.150213
975.034022	0.151149
975.208513	0.154406
975.382987	0.153740
975.557442	0.155374
975.731879	0.153542
975.906298	0.151352
976.080698	0.149159
976.255080	0.146447
976.429445	0.144471
976.603790	0.146074
976.778118	0.143115
976.952427	0.145129
977.126719	0.145013
977.300992	0.144521
977.475246	0.147221
977.649483	0.150501
977.823701	0.150547
977.997901	0.152211
978.172083	0.152836
978.346247	0.153187
978.520392	0.151198
978.694519	0.148894
978.868628	0.149171
979.042719	0.148185
979.216791	0.147126
979.390845	0.150717
979.564882	0.149452
979.738899	0.146273
979.912899	0.146247
980.086880	0.146749
980.260843	0.148911
980.434788	0.149738
980.608715	0.149979
980.782623	0.148359
980.956514	0.146521
981.130386	0.148479
981.304240	0.148381
981.478075	0.148938
981.651892	0.149709
981.825692	0.148159
981.999472	0.149555
982.173235	0.150209
982.346980	0.152399
982.520706	0.152215
982.694414	0.150932
982.868104	0.150441
983.041775	0.151023
983.215428	0.150253
983.389064	0.150868
983.562680	0.148545
983.736279	0.149167
983.909860	0.148040
984.083422	0.150265
984.256966	0.151241
984.430491	0.151242
984.603999	0.149592
984.777488	0.149661
984.950959	0.150678
985.124412	0.149699
985.297847	0.148780
985.471263	0.149346
985.644661	0.146834
985.818041	0.145468
985.991403	0.146098
986.164747	0.146670
986.338072	0.148365
986.511379	0.148421
986.684668	0.150263
986.857938	0.149219
987.031191	0.148453
987.204425	0.149485
987.377641	0.152354
987.550839	0.152764
987.724018	0.153011
987.897179	0.151905
988.070322	0.150678
988.243447	0.149983
988.416554	0.150388
988.589642	0.149756
988.762712	0.149678
988.935764	0.147784
989.108798	0.147958
989.281813	0.148649
989.454811	0.149677
989.627790	0.150258
989.800751	0.151468
989.973693	0.152756
990.146617	0.155099
990.319524	0.154447
990.492412	0.154685
990.665281	0.154237
990.838133	0.154786
991.010966	0.154739
991.183781	0.154821
991.356578	0.155675
991.529356	0.154442
991.702117	0.153655
991.874859	0.153115
992.047583	0.152471
992.220288	0.153668
992.392976	0.154890
992.565645	0.152451
992.738296	0.152494
992.910929	0.151471
993.083543	0.152940
993.256139	0.150745
993.428718	0.151631
993.601277	0.151495
993.773819	0.149527
993.946342	0.148399
994.118848	0.149977
994.291335	0.149713
994.463803	0.147014
994.636254	0.143649
994.808686	0.145003
994.981100	0.145509
995.153496	0.144106
995.325874	0.146078
995.498233	0.145971
995.670574	0.144922
995.842897	0.145156
996.015202	0.147191
996.187488	0.150231
996.359757	0.149296
996.532007	0.150146
996.704239	0.150975
996.876452	0.151802
997.048648	0.151160
997.220825	0.152270
997.392984	0.153117
997.565124	0.154932
997.737247	0.154173
997.909351	0.154393
998.081437	0.153105
998.253505	0.154906
998.425554	0.152074
998.597586	0.152007
998.769599	0.152179
998.941594	0.151724
999.113571	0.149461
999.285529	0.148887
999.457469	0.149299
999.629391	0.150259
999.801295	0.149952
999.973181	0.151917
1000.145048	0.153296
1000.316897	0.152453
1000.488728	0.150760
1000.660541	0.150976
1000.832335	0.153337
1001.004111	0.153448
1001.175869	0.152958
1001.347609	0.150781
1001.519331	0.149405
1001.691034	0.149191
1001.862719	0.148692
1002.034386	0.149289
1002.206035	0.148798
1002.377665	0.146019
1002.549277	0.145928
1002.720871	0.145686
1002.892447	0.147626
1003.064004	0.149121
1003.235544	0.147022
1003.407065	0.148177
1003.578568	0.148503
1003.750052	0.149072
1003.921519	0.151519
1004.092967	0.151555
1004.264397	0.151125
1004.435809	0.151255
1004.607202	0.150718
1004.778577	0.152441
1004.949934	0.152768
1005.121273	0.153421
1005.292594	0.152075
1005.463896	0.151701
1005.635180	0.152876
1005.806446	0.151822
1005.977694	0.151378
1006.148923	0.150551
1006.320135	0.152635
1006.491328	0.152637
1006.662503	0.151832
1006.833659	0.155576
1007.004798	0.155365
1007.175918	0.154992
1007.347020	0.155494
1007.518103	0.156518
1007.689169	0.156860
1007.860216	0.153975
1008.031245	0.152876
1008.202256	0.152604
1008.373248	0.150599
1008.544223	0.149650
1008.715179	0.149778
1008.886117	0.151125
1009.057036	0.150537
1009.227938	0.150363
1009.398821	0.150132
1009.569686	0.148060
1009.740533	0.149137
1009.911361	0.148112
1010.082172	0.149076
1010.252964	0.147756
1010.423738	0.145441
1010.594493	0.144884
1010.765231	0.143514
1010.935950	0.145052
1011.106651	0.146713
1011.277334	0.144693
1011.447998	0.146890
1011.618645	0.145337
1011.789273	0.145675
1011.959882	0.147594
1012.130474	0.148798
1012.301048	0.148695
1012.471603	0.147410
1012.642140	0.146808
1012.812658	0.150104
1012.983159	0.148259
1013.153641	0.147186
1013.324105	0.147297
1013.494551	0.147284
1013.664979	0.146719
1013.835388	0.149238
1014.005779	0.148228
1014.176152	0.149013
1014.346507	0.148771
1014.516843	0.148958
1014.687162	0.150623
1014.857462	0.150975
1015.027744	0.150767
1015.198007	0.148526
1015.368252	0.146551
1015.538480	0.145993
1015.708689	0.145683
1015.878879	0.144098
1016.049052	0.144744
1016.219206	0.144800
1016.389342	0.143958
1016.559460	0.144214
1016.729559	0.145613
1016.899641	0.146280
1017.069704	0.148043
1017.239749	0.150460
1017.409775	0.149856
1017.579784	0.148848
1017.749774	0.148711
1017.919746	0.148885
1018.089700	0.148752
1018.259635	0.149533
1018.429553	0.150185
1018.599452	0.150370
1018.769333	0.150256
1018.939195	0.149830
1019.109040	0.148858
1019.278866	0.149279
1019.448674	0.148372
1019.618464	0.149492
1019.788235	0.148382
1019.957989	0.146718
1020.127724	0.146812
1020.297441	0.144184
1020.467139	0.145509
1020.636820	0.146351
1020.806482	0.144845
1020.976126	0.145293
1021.145752	0.145491
1021.315359	0.146420
1021.484948	0.148351
1021.654519	0.148615
1021.824072	0.149088
1021.993607	0.150130
1022.163123	0.150871
1022.332621	0.152044
1022.502101	0.151940
1022.671563	0.150639
1022.841007	0.149414
1023.010432	0.149171
1023.179839	0.148242
1023.349228	0.148941
1023.518598	0.148539
1023.687951	0.147977
1023.857285	0.146584
1024.026601	0.146842
1024.195899	0.146589
1024.365178	0.145786
1024.534439	0.145926
1024.703682	0.144901
1024.872907	0.144459
1025.042114	0.143508
1025.211302	0.143354
1025.380472	0.143571
1025.549624	0.143743
1025.718758	0.143541
1025.887873	0.145219
1026.056970	0.143232
1026.226049	0.144477
1026.395110	0.145928
1026.564153	0.147767
1026.733177	0.149003
1026.902183	0.149690
1027.071171	0.149672
1027.240141	0.150750
1027.409092	0.149411
1027.578026	0.150750
1027.746940	0.151728
1027.915837	0.150511
1028.084716	0.148253
1028.253576	0.147327
1028.422418	0.147747
1028.591242	0.148790
1028.760048	0.147857
1028.928835	0.148281
1029.097604	0.147426
1029.266355	0.144695
1029.435088	0.144089
1029.603803	0.145967
1029.772499	0.146947
1029.941177	0.145800
1030.109837	0.145846
1030.278478	0.147672
1030.447102	0.146783
1030.615707	0.146382
1030.784294	0.147662
1030.952863	0.148433
1031.121413	0.147972
1031.289945	0.146264
1031.458460	0.148261
1031.626955	0.147722
1031.795433	0.145134
1031.963892	0.145942
1032.132334	0.146384
1032.300756	0.145884
1032.469161	0.144546
1032.637548	0.142393
1032.805916	0.142374
1032.974266	0.141779
1033.142598	0.142957
1033.310911	0.144078
1033.479207	0.143734
1033.647484	0.143310
1033.815743	0.145811
1033.983983	0.145125
1034.152206	0.146140
1034.320410	0.146823
1034.488596	0.147834
1034.656764	0.146368
1034.824914	0.146781
1034.993045	0.148567
1035.161158	0.149149
1035.329253	0.146854
1035.497330	0.149475
1035.665388	0.149414
1035.833428	0.148624
1036.001450	0.147150
1036.169454	0.146795
1036.337440	0.146225
1036.505407	0.146577
1036.673356	0.146642
1036.841287	0.147649
1037.009200	0.148331
1037.177094	0.148308
1037.344970	0.149085
1037.512828	0.148419
1037.680668	0.148261
1037.848489	0.147799
1038.016293	0.146681
1038.184078	0.146753
1038.351845	0.146746
1038.519593	0.145211
1038.687324	0.146259
1038.855036	0.145637
1039.022730	0.143784
1039.190406	0.143416
1039.358063	0.141724
1039.525702	0.142251
1039.693323	0.141284
1039.860926	0.140380
1040.028511	0.141021
1040.196077	0.138278
1040.363625	0.139658
1040.531155	0.141422
1040.698667	0.141549
1040.866161	0.144627
1041.033636	0.142385
1041.201093	0.142659
1041.368532	0.142299
1041.535952	0.141525
1041.703355	0.143117
1041.870739	0.141520
1042.038105	0.142177
1042.205452	0.142181
1042.372782	0.142282
1042.540093	0.143787
1042.707386	0.145141
1042.874661	0.144663
1043.041918	0.145097
1043.209156	0.143366
1043.376376	0.143506
1043.543578	0.143703
1043.710762	0.146873
1043.877927	0.144347
1044.045074	0.144391
1044.212203	0.143661
1044.379314	0.144431
1044.546407	0.142532
1044.713481	0.144408
1044.880537	0.146113
1045.047575	0.146530
1045.214595	0.143047
1045.381596	0.144202
1045.548579	0.144677
1045.715544	0.143721
1045.882491	0.146294
1046.049420	0.147909
1046.216330	0.148192
1046.383222	0.147041
1046.550096	0.146234
1046.716951	0.147135
1046.883789	0.146333
1047.050608	0.146034
1047.217409	0.147961
1047.384192	0.145732
1047.550956	0.144476
1047.717703	0.144257
1047.884431	0.146503
1048.051140	0.145588
1048.217832	0.146075
1048.384505	0.146835
1048.551161	0.145609
1048.717798	0.144792
1048.884416	0.145104
1049.051017	0.146384
1049.217599	0.145200
1049.384163	0.143159
1049.550709	0.145994
1049.717237	0.144687
1049.883746	0.144524
1050.050237	0.145296
1050.216710	0.145464
1050.383165	0.146018
1050.549601	0.144493
1050.716019	0.145923
1050.882420	0.146610
1051.048801	0.145926
1051.215165	0.147832
1051.381510	0.147221
1051.547837	0.147845
1051.714146	0.147247
1051.880437	0.148122
1052.046709	0.148177
1052.212964	0.147103
1052.379200	0.144388
1052.545417	0.142103
1052.711617	0.143218
1052.877798	0.145105
1053.043961	0.143782
1053.210106	0.143709
1053.376233	0.142797
1053.542341	0.143035
1053.708432	0.145569
1053.874504	0.148212
1054.040557	0.148602
1054.206593	0.147861
1054.372610	0.144581
1054.538609	0.145061
1054.704590	0.145724
1054.870553	0.145471
1055.036497	0.147300
1055.202424	0.146040
1055.368331	0.145281
1055.534221	0.145996
1055.700093	0.145225
1055.865946	0.146812
1056.031781	0.147763
1056.197598	0.147706
1056.363397	0.146492
1056.529177	0.145345
1056.694939	0.145385
1056.860683	0.146063
1057.026409	0.145357
1057.192116	0.145175
1057.357806	0.145307
1057.523477	0.146485
1057.689130	0.147771
1057.854764	0.149690
1058.020381	0.151219
1058.185979	0.151658
1058.351559	0.151531
1058.517120	0.153265
1058.682664	0.154145
1058.848189	0.154526
1059.013696	0.153353
1059.179185	0.152892
1059.344656	0.152993
1059.510108	0.153555
1059.675542	0.152352
1059.840958	0.152830
1060.006356	0.152474
1060.171735	0.149536
1060.337096	0.150627
1060.502439	0.149810
1060.667764	0.147926
1060.833071	0.147481
1060.998359	0.145174
1061.163629	0.145803
1061.328881	0.143704
1061.494115	0.143632
1061.659330	0.143855
1061.824527	0.141424
1061.989706	0.140784
1062.154867	0.141515
1062.320010	0.141121
1062.485134	0.140811
1062.650240	0.141632
1062.815328	0.142410
1062.980398	0.141003
1063.145449	0.142015
1063.310482	0.144192
1063.475497	0.145675
1063.640494	0.147072
1063.805473	0.147415
1063.970433	0.148163
1064.135375	0.146856
1064.300299	0.146802
1064.465204	0.146401
1064.630092	0.146838
1064.794961	0.148322
1064.959812	0.147448
1065.124645	0.145080
1065.289459	0.144830
1065.454256	0.143873
1065.619034	0.145401
1065.783793	0.147008
1065.948535	0.149013
1066.113258	0.147333
1066.277964	0.145120
1066.442651	0.146121
1066.607319	0.149126
1066.771970	0.147759
1066.936602	0.149210
1067.101216	0.148657
1067.265812	0.147724
1067.430389	0.148479
1067.594949	0.150415
1067.759490	0.147823
1067.924013	0.147129
1068.088518	0.145785
1068.253004	0.147705
1068.417472	0.147095
1068.581922	0.145527
1068.746354	0.144942
1068.910768	0.144238
1069.075163	0.142796
1069.239540	0.146472
1069.403899	0.146305
1069.568240	0.146419
1069.732562	0.145521
1069.896866	0.147293
1070.061152	0.149226
1070.225420	0.151296
1070.389670	0.151284
1070.553901	0.151329
1070.718114	0.149492
1070.882309	0.149558
1071.046486	0.149944
1071.210644	0.148973
1071.374784	0.148497
1071.538906	0.147301
1071.703010	0.146214
1071.867096	0.145265
1072.031163	0.147493
1072.195212	0.146667
1072.359243	0.147720
1072.523256	0.147161
1072.687250	0.148046
1072.851226	0.148784
1073.015184	0.148954
1073.179124	0.148460
1073.343045	0.147542
1073.506949	0.147659
1073.670834	0.148805
1073.834701	0.148961
1073.998549	0.149415
1074.162380	0.149019
1074.326192	0.149015
1074.489986	0.148593
1074.653761	0.147552
1074.817519	0.150106
1074.981258	0.148791
1075.144979	0.146976
1075.308682	0.146548
1075.472367	0.148240
1075.636033	0.150729
1075.799681	0.149728
1075.963311	0.150724
1076.126923	0.151233
1076.290516	0.151399
1076.454092	0.154071
1076.617649	0.160220
1076.781187	0.159264
1076.944708	0.158506
1077.108210	0.158258
1077.271695	0.157022
1077.435160	0.158111
1077.598608	0.159478
1077.762038	0.157748
1077.925449	0.156843
1078.088842	0.151495
1078.252217	0.152812
1078.415573	0.151511
1078.578912	0.151498
1078.742232	0.152681
1078.905534	0.153267
1079.068817	0.154318
1079.232083	0.153294
1079.395330	0.150261
1079.558559	0.152336
1079.721770	0.153539
1079.884962	0.157500
1080.048136	0.155989
1080.211293	0.153812
1080.374430	0.152533
1080.537550	0.152046
1080.700651	0.154559
1080.863735	0.152810
1081.026800	0.154296
1081.189846	0.153647
1081.352875	0.152980
1081.515885	0.153349
1081.678877	0.155014
1081.841851	0.154592
1082.004807	0.153350
1082.167744	0.150403
1082.330663	0.153959
1082.493564	0.154345
1082.656447	0.155474
1082.819312	0.151167
1082.982158	0.152660
1083.144986	0.152408
1083.307796	0.154577
1083.470587	0.156136
1083.633361	0.159359
1083.796116	0.160712
1083.958853	0.160662
1084.121571	0.159335
1084.284272	0.160018
1084.446954	0.156354
1084.609618	0.155113
1084.772264	0.153324
1084.934892	0.153327
1085.097501	0.150422
1085.260092	0.150499
1085.422665	0.149301
1085.585220	0.150646
1085.747756	0.152548
1085.910274	0.154116
1086.072774	0.158033
1086.235256	0.159245
1086.397720	0.155136
1086.560165	0.156578
1086.722592	0.156448
1086.885001	0.155137
1087.047392	0.153706
1087.209764	0.153080
1087.372119	0.157216
1087.534455	0.154215
1087.696772	0.153926
1087.859072	0.158652
1088.021353	0.158711
1088.183616	0.156811
1088.345861	0.158115
1088.508088	0.157327
1088.670296	0.158537
1088.832486	0.151870
1088.994658	0.155119
1089.156812	0.154188
1089.318948	0.151794
1089.481065	0.150668
1089.643164	0.151695
1089.805245	0.152543
1089.967308	0.152279
1090.129352	0.149586
1090.291378	0.152784
1090.453386	0.150576
1090.615376	0.150560
1090.777347	0.151998
1090.939301	0.156117
1091.101236	0.156519
1091.263153	0.152872
1091.425051	0.153845
1091.586932	0.154598
1091.748794	0.154590
1091.910638	0.154086
1092.072463	0.153327
1092.234271	0.152326
1092.396060	0.151614
1092.557831	0.151482
1092.719584	0.153371
1092.881319	0.153459
1093.043035	0.155706
1093.204733	0.157436
1093.366413	0.157975
1093.528075	0.158720
1093.689718	0.157009
1093.851343	0.160089
1094.012950	0.160570
1094.174539	0.162525
1094.336110	0.160935
1094.497662	0.156941
1094.659196	0.153047
1094.820712	0.152718
1094.982210	0.153944
1095.143689	0.158065
1095.305151	0.151102
1095.466594	0.150706
1095.628018	0.147553
1095.789425	0.148485
1095.950813	0.150259
1096.112183	0.155285
1096.273535	0.156919
1096.434869	0.152149
1096.596184	0.149257
1096.757482	0.149042
1096.918761	0.147985
1097.080021	0.150474
1097.241264	0.156530
1097.402488	0.157395
1097.563694	0.155024
1097.724882	0.152890
1097.886052	0.156383
1098.047203	0.157187
1098.208336	0.159261
1098.369451	0.163892
1098.530548	0.164853
1098.691627	0.162896
1098.852687	0.167895
1099.013729	0.167263
1099.174753	0.167803
1099.335758	0.168884
1099.496746	0.172544
1099.657715	0.177028
1099.818666	0.173228
1099.979599	0.171873
1100.140513	0.165779
1100.301409	0.160448
1100.462287	0.163411
1100.623147	0.161018
1100.783989	0.157642
1100.944812	0.153644
1101.105617	0.148446
1101.266404	0.147831
1101.427173	0.148956
1101.587923	0.153166
1101.748656	0.152117
1101.909370	0.147803
1102.070066	0.149066
1102.230743	0.151552
1102.391403	0.156407
1102.552044	0.159868
1102.712667	0.160231
1102.873271	0.160183
1103.033858	0.157083
1103.194426	0.155353
1103.354976	0.154114
1103.515508	0.156813
1103.676021	0.156513
1103.836517	0.154344
1103.996994	0.155520
1104.157453	0.157241
1104.317893	0.155577
1104.478316	0.155189
1104.638720	0.157544
1104.799106	0.160819
1104.959474	0.158280
1105.119823	0.158687
1105.280155	0.160246
1105.440468	0.157295
1105.600763	0.154630
1105.761039	0.155974
1105.921298	0.154690
1106.081538	0.156179
1106.241760	0.157851
1106.401964	0.156423
1106.562149	0.155412
1106.722316	0.151481
1106.882465	0.152973
1107.042596	0.155010
1107.202709	0.150566
1107.362803	0.148413
1107.522879	0.149885
1107.682937	0.145445
1107.842977	0.150949
1108.002999	0.150775
1108.163002	0.151723
1108.322987	0.150676
1108.482954	0.149085
1108.642902	0.152062
1108.802833	0.156683
1108.962745	0.155108
1109.122639	0.160060
1109.282515	0.154083
1109.442372	0.158757
1109.602211	0.159616
1109.762032	0.156020
1109.921835	0.157589
1110.081620	0.157956
1110.241386	0.155030
1110.401134	0.156081
1110.560864	0.154531
1110.720576	0.156896
1110.880269	0.153908
1111.039945	0.150552
1111.199602	0.153355
1111.359240	0.155107
1111.518861	0.157322
1111.678463	0.161173
1111.838047	0.162086
1111.997613	0.164342
1112.157161	0.167022
1112.316690	0.170567
1112.476202	0.175348
1112.635695	0.176105
1112.795169	0.171558
1112.954626	0.171812
1113.114064	0.173304
1113.273484	0.168055
1113.432886	0.162578
1113.592270	0.158072
1113.751635	0.153983
1113.910983	0.156615
1114.070312	0.156526
1114.229622	0.161673
1114.388915	0.163447
1114.548189	0.159091
1114.707445	0.159871
1114.866683	0.162366
1115.025903	0.166216
1115.185104	0.171356
1115.344287	0.170233
1115.503452	0.173063
1115.662599	0.171733
1115.821727	0.169156
1115.980838	0.171575
1116.139930	0.172971
1116.299004	0.178492
1116.458059	0.173582
1116.617097	0.168328
1116.776116	0.163381
1116.935117	0.162619
1117.094099	0.160891
1117.253064	0.160929
1117.412010	0.162637
1117.570938	0.163489
1117.729848	0.159211
1117.888740	0.166459
1118.047613	0.161070
1118.206468	0.165018
1118.365305	0.161563
1118.524124	0.162508
1118.682924	0.161064
1118.841707	0.161461
1119.000471	0.161854
1119.159216	0.160930
1119.317944	0.159202
1119.476653	0.170452
1119.635344	0.166167
1119.794017	0.172505
1119.952672	0.177087
1120.111308	0.173887
1120.269927	0.170064
1120.428527	0.164664
1120.587108	0.156298
1120.745672	0.157879
1120.904217	0.151534
1121.062744	0.153395
1121.221253	0.146497
1121.379744	0.145362
1121.538216	0.152766
1121.696671	0.154248
1121.855107	0.160085
1122.013524	0.166623
1122.171924	0.162599
1122.330305	0.163270
1122.488668	0.165114
1122.647013	0.166860
1122.805340	0.165473
1122.963648	0.155458
1123.121938	0.151885
1123.280210	0.145073
1123.438464	0.147359
1123.596700	0.149471
1123.754917	0.147340
1123.913116	0.144184
1124.071297	0.144745
1124.229459	0.139043
1124.387604	0.139003
1124.545730	0.135247
1124.703838	0.135446
1124.861928	0.132159
1125.019999	0.135180
1125.178052	0.135401
1125.336088	0.137942
1125.494104	0.138261
1125.652103	0.144715
1125.810083	0.149879
1125.968045	0.156912
1126.125989	0.164594
1126.283915	0.161081
1126.441823	0.160695
1126.599712	0.161711
1126.757583	0.158819
1126.915436	0.151947
1127.073270	0.145200
1127.231087	0.145924
1127.388885	0.145391
1127.546665	0.143218
1127.704426	0.146170
1127.862170	0.139690
1128.019895	0.142420
1128.177602	0.144383
1128.335291	0.153594
1128.492961	0.158253
1128.650614	0.156430
1128.808248	0.157225
1128.965864	0.153372
1129.123461	0.156211
1129.281041	0.160931
1129.438602	0.151924
1129.596145	0.152502
1129.753670	0.150131
1129.911176	0.147341
1130.068665	0.151547
1130.226135	0.151306
1130.383587	0.156119
1130.541020	0.155481
1130.698436	0.155117
1130.855833	0.164667
1131.013212	0.165037
1131.170573	0.158882
1131.327915	0.159311
1131.485239	0.158068
1131.642545	0.160819
1131.799833	0.158691
1131.957103	0.159678
1132.114354	0.156587
1132.271588	0.158763
1132.428803	0.154727
1132.585999	0.162252
1132.743178	0.163115
1132.900338	0.162198
1133.057480	0.157295
1133.214604	0.151975
1133.371710	0.151310
1133.528797	0.151779
1133.685866	0.150218
1133.842917	0.144776
1133.999950	0.139793
1134.156964	0.139366
1134.313960	0.136778
1134.470938	0.139971
1134.627898	0.144929
1134.784840	0.149440
1134.941763	0.148463
1135.098668	0.148813
1135.255555	0.155954
1135.412424	0.158948
1135.569274	0.149648
1135.726107	0.147654
1135.882921	0.144816
1136.039716	0.146595
1136.196494	0.140567
1136.353253	0.132255
1136.509995	0.128439
1136.666717	0.131442
1136.823422	0.135011
1136.980109	0.149079
1137.136777	0.151464
1137.293427	0.151230
1137.450059	0.147532
1137.606672	0.148869
1137.763267	0.156137
1137.919844	0.158908
1138.076403	0.152781
1138.232944	0.146066
1138.389466	0.142374
1138.545971	0.141121
1138.702457	0.135690
1138.858924	0.134285
1139.015374	0.135133
1139.171805	0.136065
1139.328218	0.129562
1139.484613	0.132129
1139.640990	0.132319
1139.797348	0.129329
1139.953688	0.130930
1140.110010	0.147274
1140.266314	0.145368
1140.422600	0.150695
1140.578867	0.147100
1140.735116	0.153824
1140.891347	0.151753
1141.047559	0.155009
1141.203754	0.159035
1141.359930	0.156477
1141.516088	0.153391
1141.672228	0.160872
1141.828349	0.153169
1141.984452	0.157890
1142.140537	0.151492
1142.296604	0.157949
1142.452653	0.149319
1142.608683	0.142544
1142.764695	0.144137
1142.920689	0.136560
1143.076665	0.128231
1143.232622	0.126645
1143.388562	0.124527
1143.544483	0.126752
1143.700385	0.118484
1143.856270	0.127831
1144.012136	0.121380
1144.167985	0.121140
1144.323814	0.128668
1144.479626	0.134015
1144.635420	0.129661
1144.791195	0.132213
1144.946952	0.134108
1145.102691	0.134702
1145.258411	0.134799
1145.414113	0.139616
1145.569798	0.143945
1145.725463	0.140822
1145.881111	0.137578
1146.036741	0.138935
1146.192352	0.136273
1146.347945	0.139391
1146.503519	0.133360
1146.659076	0.133622
1146.814614	0.137356
1146.970134	0.137855
1147.125636	0.130363
1147.281120	0.130284
1147.436585	0.144055
1147.592032	0.139587
1147.747461	0.132300
1147.902872	0.147366
1148.058265	0.149039
1148.213639	0.149630
1148.368995	0.142600
1148.524333	0.140467
1148.679653	0.148506
1148.834954	0.137918
1148.990237	0.150623
1149.145502	0.155001
1149.300749	0.139431
1149.455977	0.132363
1149.611188	0.127474
1149.766380	0.129017
1149.921553	0.140414
1150.076709	0.129073
1150.231846	0.130760
1150.386966	0.127362
1150.542066	0.126519
1150.697149	0.134552
1150.852214	0.135478
1151.007260	0.139633
1151.162288	0.145873
1151.317298	0.143185
1151.472289	0.141486
1151.627263	0.140696
1151.782218	0.136552
1151.937155	0.127979
1152.092073	0.127881
1152.246974	0.130145
1152.401856	0.124808
1152.556720	0.124927
1152.711566	0.113425
1152.866393	0.122396
1153.021203	0.119263
1153.175994	0.119164
1153.330767	0.129507
1153.485521	0.133362
1153.640258	0.132173
1153.794976	0.138092
1153.949676	0.131329
1154.104358	0.144087
1154.259021	0.140015
1154.413667	0.146815
1154.568294	0.149410
1154.722903	0.152707
1154.877493	0.143908
1155.032066	0.133905
1155.186620	0.132321
1155.341156	0.136043
1155.495674	0.132867
1155.650173	0.131613
1155.804654	0.129784
1155.959118	0.133315
1156.113562	0.116935
1156.267989	0.128611
1156.422397	0.141490
1156.576788	0.142787
1156.731160	0.141093
1156.885513	0.137758
1157.039849	0.137786
1157.194166	0.135366
1157.348465	0.134745
1157.502746	0.140007
1157.657009	0.136593
1157.811253	0.133153
1157.965479	0.127049
1158.119687	0.121217
1158.273877	0.126429
1158.428048	0.132791
1158.582201	0.132626
1158.736337	0.129555
1158.890453	0.131967
1159.044552	0.136150
1159.198632	0.134563
1159.352694	0.144961
1159.506738	0.154104
1159.660764	0.137748
1159.814771	0.136594
1159.968761	0.133251
1160.122732	0.120871
1160.276685	0.121242
1160.430619	0.114467
1160.584535	0.111223
1160.738434	0.108968
1160.892313	0.098766
1161.046175	0.114651
1161.200019	0.112185
1161.353844	0.115983
1161.507651	0.127511
1161.661440	0.124083
1161.815210	0.114832
1161.968962	0.108375
1162.122697	0.106495
1162.276412	0.105261
1162.430110	0.100375
1162.583789	0.103253
1162.737451	0.098746
1162.891094	0.090278
1163.044718	0.086188
1163.198325	0.091914
1163.351913	0.100813
1163.505483	0.091293
1163.659035	0.097567
1163.812569	0.099173
1163.966084	0.096394
1164.119581	0.107749
1164.273060	0.108250
1164.426521	0.122441
1164.579964	0.116680
1164.733388	0.109595
1164.886794	0.131184
1165.040182	0.131693
1165.193551	0.121692
1165.346903	0.117448
1165.500236	0.108530
1165.653551	0.120761
1165.806848	0.111424
1165.960126	0.115742
1166.113386	0.123237
1166.266628	0.103280
1166.419852	0.104207
1166.573058	0.098049
1166.726245	0.098061
1166.879414	0.091053
1167.032565	0.089993
1167.185698	0.090825
1167.338812	0.086319
1167.491909	0.090791
1167.644987	0.092493
1167.798046	0.093788
1167.951088	0.094964
1168.104111	0.093790
1168.257117	0.094848
1168.410103	0.083382
1168.563072	0.078004
1168.716023	0.074605
1168.868955	0.070266
1169.021869	0.067006
1169.174765	0.064864
1169.327642	0.086160
1169.480501	0.087695
1169.633343	0.095629
1169.786165	0.094107
1169.938970	0.094903
1170.091757	0.103903
1170.244525	0.086902
1170.397275	0.089844
1170.550007	0.079758
1170.702720	0.065538
1170.855415	0.067177
1171.008092	0.053469
1171.160751	0.051146
1171.313392	0.045692
1171.466014	0.113570
1171.618619	0.012488
1171.771205	0.012488
1171.923772	0.012488
