sample name	sample
index	224
start time	 02-22-2021  10:36:58 AM
880	0.470357
Peak Time (s)	92.035
Peak Height 	0.4704
calc peak height	90,93
Baseline Time (s)	10.036
Baseline Value 	-0.004509
subtract baseline	10,4
Abs	0.327692
Peak Time (s)	90.038
Peak Height 	0.3277
calc peak height	90,93
Baseline Time (s)	9.037
Baseline Value 	0.003704
subtract baseline	10,3
PK_550	0.155885
Peak Time (s)	92.035
Peak Height 	0.1559
calc peak height	90,93
Baseline Time (s)	10.036
Baseline Value 	3.0233E-4
subtract baseline	10,2
PK_880	0.306980
Peak Time (s)	92.035
Peak Height 	0.307
calc peak height	90,93
Baseline Time (s)	9.037
Baseline Value 	0.001821
subtract baseline	10,1


Time (s)	A880-A510	A880-A775	A880-A975	A880	I510	I775	I975	I880	
0.035000	0.001202	-0.000330	0.004175	0.001021	6899.715864	47064.269883	3968.401232	24684.549156
0.535000	-0.001527	-0.000284	-0.000475	0.004092	6845.427636	46757.172065	3947.407748	24530.270700
1.035500	-0.002518	-0.000294	-0.001310	0.004607	6831.450825	46704.095048	3943.776968	24504.508119
1.536000	-0.000346	0.000088	0.001981	0.000120	6893.617922	47198.856024	3964.859326	24730.021861
2.036000	0.003007	0.000316	-0.001299	0.000141	6925.088685	47220.047339	3955.864305	24728.966966
2.536500	-0.000647	0.000192	-0.001538	-0.000051	6892.403759	47227.131484	3955.738300	24738.697684
3.036500	0.000199	0.000635	-0.003122	0.000746	6892.853722	47190.792642	3949.291778	24698.407090
3.537000	-0.000693	-0.000321	-0.000527	-0.000386	6895.120977	47208.841368	3959.397862	24755.618582
4.037000	-0.000711	-0.000143	0.003061	0.000026	6891.077685	47184.914493	3968.076803	24734.798244
4.535000	0.000050	-0.000618	-0.000520	-0.000474	6902.948955	47187.456272	3959.656619	24760.071444
5.035000	0.001045	-0.000276	-0.000612	-0.000464	6912.246292	47221.404324	3959.378703	24759.561999
5.535000	-0.000257	0.000330	-0.003088	0.000190	6893.805872	47216.511785	3950.888424	24726.494160
6.038500	0.000962	0.000403	-0.000879	0.000580	6901.603860	47184.075059	3955.812836	24706.798021
6.536000	0.000766	0.000042	0.000746	0.000210	6903.251088	47185.109173	3961.242816	24725.507935
7.036000	-0.000574	0.000689	0.000577	0.000391	6888.930197	47232.752935	3960.288106	24716.365767
7.536500	-0.000574	-0.000165	-0.003173	-0.000212	6894.601546	47207.013907	3951.745687	24746.831731
8.037000	0.000695	0.000041	0.001819	-0.000278	6907.181481	47234.741109	3965.504257	24750.136267
8.537000	0.001400	-0.000516	0.003494	-0.000451	6915.476073	47195.585627	3970.572180	24758.889788
9.037500	0.000000	0.000472	0.000000	0.000465	6893.629039	47202.844804	3958.514227	24712.591463
9.537000	-0.000133	0.000185	0.001877	0.000402	6892.976403	47180.023931	3963.804535	24715.793242
10.035500	0.000005	0.000000	0.003213	0.000000	6898.055641	47202.202539	3968.564108	24736.097757
10.538000	-0.000272	-0.000579	-0.004193	-0.000906	6903.988658	47235.727541	3950.863705	24781.950472
11.036000	-0.000502	-0.000610	-0.004057	-0.000507	6898.059495	47191.685380	3950.151898	24761.741672
11.536000	0.002202	0.000859	-0.001036	0.000208	6916.837918	47268.790493	3956.397742	24725.587466
12.036000	0.000364	-0.000172	0.001719	-0.000218	6903.497043	47206.907486	3965.066614	24747.115057
12.536500	-0.000008	-0.000175	-0.002373	-0.000567	6903.273322	47242.265186	3954.871122	24764.755962
13.037000	0.001940	-0.000027	-0.001137	-0.002903	6943.878374	47497.085999	3964.600190	24883.278752
13.537000	0.000766	0.000266	0.000849	-0.000575	6910.653512	47288.183515	3963.665241	24765.158382
14.034500	-0.000156	-0.000104	-0.004523	-0.000564	6901.849024	47249.185231	3949.047824	24764.596474
14.534000	-0.000858	0.000178	-0.000875	0.002542	6866.114114	46961.240291	3950.512458	24608.000760
15.038000	0.001087	0.000442	0.002671	0.000460	6903.922005	47200.331499	3965.818460	24712.864684
15.582000	0.001831	-0.000575	0.000333	-0.000841	6923.255780	47229.343047	3962.981458	24778.636908
16.035500	0.001112	0.000435	0.003456	-0.000788	6915.942242	47327.326326	3971.396306	24775.951670
16.539000	-0.000847	0.000271	0.000893	-0.000869	6898.219529	47318.914016	3964.588399	24780.058821
17.036000	-0.000824	-0.000620	-0.000619	-0.000923	6898.939410	47233.228958	3960.608093	24782.790955
17.537000	0.003437	0.000491	0.005944	-0.002354	6952.919083	47493.893001	3982.595723	24855.361672
18.037000	0.000614	0.000597	-0.001083	0.000509	6899.006260	47211.257737	3955.453929	24710.409987
18.537000	0.001130	0.000650	-0.000708	0.001047	6898.786590	47161.589454	3955.010795	24683.237790
19.035000	-0.001410	-0.000093	0.000913	0.000935	6875.987850	47097.339755	3959.721377	24688.913796
19.535000	-0.001786	0.000302	0.002632	0.001316	6868.896403	47098.661841	3963.371247	24669.697299
20.035500	0.000641	0.000374	0.001945	0.001010	6894.539785	47137.241543	3962.330210	24685.135489
20.535500	-0.000816	-0.000686	-0.000529	0.000371	6886.837551	47094.254021	3957.332089	24717.338518
21.036000	0.000252	-0.000036	-0.000571	0.001142	6889.635502	47081.973581	3955.124543	24678.474314
21.536000	0.000939	0.000256	0.002719	0.001081	6896.676503	47118.054791	3964.250974	24681.558718
22.037000	0.000051	-0.000085	-0.001673	0.000597	6892.866864	47132.477618	3953.614845	24705.936244
22.537000	0.000576	-0.000099	0.003805	0.000661	6897.203148	47124.622977	3968.373723	24702.708473
23.034500	0.001554	-0.000377	0.002944	0.000764	6905.461375	47085.748034	3965.731977	24697.531053
23.537500	-0.000835	-0.000361	0.000382	0.000631	6884.232441	47100.991985	3959.104091	24704.245471
24.035000	0.000888	-0.000042	0.003534	0.000925	6897.663733	47103.464183	3966.908935	24689.419209
24.535000	-0.000641	-0.000129	-0.003777	0.000660	6885.777196	47121.649342	3947.760424	24702.770438
25.035500	0.000751	0.000316	-0.000097	0.001070	6895.009808	47125.213973	3956.607509	24682.096804
25.535500	-0.000890	0.000427	-0.000723	0.001231	6878.076691	47120.034413	3954.470592	24673.962161
26.036000	0.001634	0.000372	0.004292	0.001391	6900.306097	47098.224637	3967.709255	24665.935774
26.536000	-0.001542	-0.000172	-0.003117	0.001000	6874.140518	47082.650526	3948.623402	24685.638978
27.036500	-0.000332	0.000577	-0.003366	0.001383	6881.888306	47119.905524	3946.918791	24666.336719
27.537000	0.000680	0.000506	-0.000251	-0.000416	6908.348262	47296.540106	3960.229511	24757.129711
28.037000	0.001607	-0.000701	0.005819	-0.003107	6942.644299	47448.715833	3984.339925	24893.649167
28.538000	0.001540	0.000319	-0.000670	-0.000427	6916.578969	47278.571435	3959.120256	24757.706176
29.038000	0.002994	0.001172	0.002547	0.000222	6924.204126	47299.383535	3966.130941	24724.883728
29.537500	-0.000005	-0.000160	0.002910	0.000113	6896.902843	47174.303107	3967.422095	24730.389055
30.035500	0.001533	0.000189	0.004072	-0.000459	6916.817364	47268.544397	3972.184301	24759.320122
30.536000	0.001048	-0.000113	0.001554	0.000532	6902.868815	47136.301528	3962.567106	24709.209649
31.039500	0.001400	0.000742	-0.001445	0.000291	6908.469164	47248.375771	3955.063985	24721.416395
31.537000	-0.000820	-0.000418	0.000006	0.002525	6866.628506	46902.437031	3952.941338	24608.885519
32.036500	0.000516	0.000104	0.003004	0.000503	6898.129754	47161.468640	3966.611257	24710.693733
32.586000	-0.000079	0.000067	-0.003011	0.003831	6861.351535	46819.225709	3941.294140	24543.355744
33.038000	0.002156	0.000112	-0.000615	-0.000154	6919.821645	47229.338049	3958.524900	24743.870140
33.537500	0.000672	-0.000447	0.002645	-0.000256	6906.758347	47182.635180	3967.707000	24749.015941
34.036500	0.001941	0.000165	0.003657	-0.000748	6923.423027	47295.643139	3971.838770	24773.955162
34.535000	0.000978	0.001318	0.004295	0.002214	6886.391195	47110.770766	3965.461205	24624.507081
35.036000	0.000243	-0.000330	-0.003084	0.001721	6884.107635	46992.987675	3946.766191	24649.276677
35.536500	-0.000040	0.000103	0.003413	0.001573	6882.848214	47052.250222	3964.801626	24656.758929
36.036000	0.000220	0.000280	-0.000021	0.001845	6882.735859	47042.577020	3954.708693	24643.053802
36.536500	-0.001610	-0.000027	0.004824	0.001876	6865.310634	47008.131210	3967.837050	24641.496046
37.037000	-0.001911	0.000354	0.003647	0.001967	6861.652976	47037.635793	3964.364430	24636.933027
37.537000	0.001560	0.000901	0.001356	0.002536	6888.830144	47035.426609	3956.571981	24608.326711
38.037500	0.000734	-0.000118	0.005515	0.001787	6888.103642	47007.951931	3969.977048	24645.969911
38.535000	0.000394	0.000504	0.005575	0.001804	6884.752465	47069.567363	3970.095015	24645.128642
39.035500	0.001563	-0.000206	-0.001798	0.001880	6895.033474	46989.557371	3949.808398	24641.318211
39.536000	0.000342	0.000271	0.002205	0.002110	6881.390714	47014.649464	3960.040624	24629.728326
40.036000	-0.001241	-0.000748	0.002036	0.001012	6876.844889	47022.673533	3962.570858	24684.996996
40.536000	-0.002212	-0.000295	0.001201	0.001751	6860.851274	46993.573708	3958.282823	24647.777486
41.036500	0.000676	0.000470	0.001933	0.002090	6884.709825	47036.938266	3959.352176	24630.722914
41.536500	-0.001090	-0.000468	-0.000061	0.001760	6871.258671	46975.119071	3954.834233	24647.355996
42.034000	-0.000025	0.000491	-0.000020	0.001942	6879.523222	47054.121116	3954.448662	24638.177342
42.534500	0.001457	0.000846	0.002263	0.002391	6889.217655	47044.537801	3959.432117	24615.590581
43.037500	-0.001742	-0.000921	0.000336	0.000808	6874.062996	47025.880099	3958.495223	24695.300483
43.535500	-0.000087	0.000557	0.002557	0.002010	6878.313012	47054.008340	3961.272114	24634.776847
44.035500	0.000287	-0.000870	0.001880	0.001189	6889.517910	46992.201561	3961.662574	24676.084109
44.535500	0.001024	0.000457	-0.002142	0.002670	6882.538077	46976.628549	3946.748616	24601.602487
45.036000	0.000412	-0.000197	0.005138	-0.001048	6911.786892	47289.359573	3976.749943	24789.146626
45.536000	-0.000530	-0.000241	0.003835	-0.000623	6898.886098	47241.215692	3971.984294	24767.598856
46.037000	0.002015	-0.000489	-0.002408	-0.000912	6925.670568	47245.383532	3955.712531	24782.211961
46.536500	-0.002705	-0.000349	-0.002783	0.003738	6837.772784	46786.412571	3942.156360	24548.009849
47.037500	0.000215	0.000291	0.004802	-0.000371	6903.534100	47269.960380	3973.952999	24754.851856
47.540500	0.001482	0.000522	0.002301	0.000636	6905.989206	47190.567494	3964.325734	24703.990359
48.052000	0.002084	0.000114	0.003131	-0.000357	6921.070889	47250.398716	3969.318363	24754.164484
48.535500	-0.002174	-0.000082	0.002515	0.003848	6841.680202	46802.273591	3956.156491	24542.482862
49.035500	0.000294	0.000720	0.002497	0.002274	6879.398219	47043.609432	3960.387361	24621.468006
49.549500	0.000219	0.000360	-0.000394	0.001131	6889.435349	47123.509029	3955.636498	24679.024429
50.036500	0.001449	0.000516	0.003357	-0.000464	6916.067641	47302.546173	3970.234308	24759.579687
50.536500	-0.001496	0.000654	0.002800	0.004136	6845.305152	46847.698466	3956.148229	24528.063715
51.036500	0.003833	0.000679	0.003893	-0.002258	6955.783439	47503.412649	3976.652893	24850.521728
51.537000	0.003876	0.000461	0.002321	0.000266	6932.150981	47222.066366	3965.389992	24722.643175
52.040000	0.000932	0.000174	0.003740	-0.001693	6922.810313	47393.479822	3974.671863	24821.839938
52.534500	-0.019487	-0.018561	0.004948	0.127445	5723.898118	34528.943318	3669.102939	19154.558903
53.035500	-0.027899	-0.028823	0.005342	-0.007730	6712.385596	45097.885578	3995.919731	25130.210170
53.534500	-0.019532	-0.026385	0.001538	-0.090290	7621.812386	54238.575476	4238.260466	29807.869446
54.035000	-0.010039	-0.020150	0.008045	-0.077334	7583.589810	53448.957608	4216.724387	29013.768754
54.536000	-0.010087	-0.010876	0.002163	-0.055380	7347.648888	51992.072984	4127.343885	27721.025772
55.036000	0.008888	-0.006967	0.016439	-0.065732	7664.817750	53633.660809	4206.126558	28322.438259
55.537000	0.015138	-0.005151	0.020453	-0.045076	7506.345624	51476.243778	4152.401436	27136.445466
56.037000	0.025825	-0.001518	0.031620	-0.026158	7418.126833	49793.355907	4128.073043	26098.607254
56.537000	0.039022	0.001886	0.042601	-0.004033	7324.311201	47811.225902	4093.847834	24940.841011
57.034500	0.060871	0.009331	0.059294	0.019411	7307.745733	46183.776796	4073.536275	23776.734701
57.535500	0.081902	0.018587	0.085302	0.061304	7096.690464	43044.116509	4026.975627	21846.815853
58.035000	0.108170	0.032094	0.109150	0.107747	6901.987714	40106.010868	3963.607919	19913.935568
58.535500	0.133663	0.046166	0.142773	0.158321	6672.231594	37099.856410	3918.189439	18031.462629
59.036000	0.159472	0.063070	0.167682	0.201927	6517.068253	35055.359997	3870.105270	16575.335538
59.536000	0.184058	0.077355	0.193346	0.240993	6395.423706	33267.206947	3836.890888	15389.355409
60.036000	0.202300	0.089391	0.213944	0.275620	6262.582808	31723.677090	3803.201665	14423.704718
60.536500	0.217274	0.102056	0.230895	0.333928	5934.475853	28839.566582	3709.992562	12961.931797
61.036500	0.229800	0.110304	0.245790	0.346813	5931.888431	28563.207431	3714.318710	12664.538408
61.536500	0.239446	0.121129	0.258843	0.354235	5947.937384	28765.746917	3726.552846	12497.212417
62.034000	0.250849	0.129800	0.266886	0.367358	5935.518470	28501.042312	3715.509179	12208.231345
62.535000	0.253905	0.134573	0.274525	0.401066	5722.361959	26845.448960	3660.835579	11504.796646
63.035500	0.265143	0.139828	0.281090	0.399950	5806.471449	27200.626335	3676.605681	11527.237636
63.539500	0.268215	0.143755	0.282683	0.402481	5810.204357	27279.098615	3674.665311	11476.449773
64.035500	0.268517	0.145718	0.287978	0.407574	5777.264236	27103.429079	3675.082658	11375.167548
64.536000	0.265556	0.145890	0.286730	0.411700	5729.194753	26883.269868	3664.039010	11293.974670
65.050500	0.272791	0.148958	0.289035	0.408872	5797.682131	27212.258266	3674.583184	11349.536899
65.537500	0.275255	0.149167	0.294403	0.409950	5807.245186	27163.558692	3683.494288	11328.330327
66.037000	0.277362	0.150544	0.292114	0.411946	5808.008991	27128.883137	3674.595130	11289.172722
66.537500	0.277848	0.151193	0.290184	0.418428	5766.867117	26804.472775	3657.377900	11163.245286
67.038000	0.281282	0.152190	0.293063	0.413997	5820.948867	27106.159421	3672.319143	11249.107759
67.538000	0.283016	0.154147	0.294443	0.416752	5813.872836	27061.582129	3669.488596	11195.610057
68.035000	0.283083	0.154486	0.299528	0.418297	5803.654723	26994.319738	3676.794189	11165.760114
68.535500	0.283817	0.156089	0.301514	0.425663	5758.251666	26675.597606	3665.718591	11024.885527
69.036000	0.287591	0.156568	0.301052	0.421949	5809.569804	26907.101124	3672.396002	11095.613895
69.536500	0.284249	0.155797	0.302513	0.422090	5785.585360	26856.553709	3675.121510	11092.912685
70.037000	0.287969	0.157501	0.302282	0.425197	5789.798617	26778.993996	3668.245676	11033.722282
70.539500	0.287878	0.156452	0.304795	0.426634	5779.322642	26642.216946	3670.455098	11006.484966
71.034500	0.287420	0.157839	0.307897	0.429362	5757.601154	26568.766333	3671.227910	10955.039092
71.537500	0.289711	0.158629	0.305942	0.432447	5752.207135	26443.545280	3660.907704	10897.221927
72.038000	0.288816	0.157099	0.311906	0.433087	5741.826123	26325.795569	3671.811543	10885.293756
72.535000	0.288957	0.158819	0.298326	0.441476	5686.618650	25967.525850	3627.676264	10730.394285
73.035500	0.290273	0.157127	0.307408	0.436445	5729.010262	26146.213609	3655.772389	10822.930627
73.536000	0.290697	0.158240	0.303566	0.439044	5714.416487	26066.525609	3642.836362	10774.995253
74.036000	0.294120	0.158238	0.307606	0.441125	5723.407442	25955.277581	3646.750394	10736.820802
74.536500	0.292283	0.158518	0.309368	0.443190	5697.331094	25860.375312	3646.144005	10699.125444
75.039500	0.294535	0.158362	0.311780	0.444520	5703.469156	25781.646720	3648.310530	10674.930962
75.537000	0.291408	0.157676	0.312586	0.446080	5672.382840	25663.139954	3646.800211	10646.648734
76.037000	0.293227	0.156121	0.311085	0.446083	5684.388995	25581.335423	3643.793929	10646.597928
76.538000	0.291671	0.156106	0.307154	0.453233	5627.296491	25208.843782	3621.958521	10518.300382
77.035500	0.296810	0.157741	0.309976	0.450018	5682.057608	25460.278932	3633.784845	10575.717801
77.535500	0.293346	0.156503	0.312454	0.450538	5655.809960	25368.861570	3637.656050	10566.408330
78.035500	0.297728	0.157712	0.315725	0.452949	5668.768661	25306.486647	3639.362158	10523.354135
78.536000	0.292705	0.155878	0.315547	0.458842	5597.741985	24909.863217	3627.391135	10419.105239
79.039500	0.296080	0.155660	0.314392	0.453195	5656.314915	25187.786686	3636.231387	10518.962817
79.536500	0.295180	0.156645	0.317740	0.454899	5639.282981	25150.794482	3639.491692	10488.704200
80.037000	0.297074	0.156146	0.315678	0.455099	5650.348498	25114.856553	3635.010173	10485.149363
80.540000	0.294298	0.156984	0.314530	0.462508	5584.457189	24780.011411	3618.272072	10354.975656
81.034500	0.297955	0.156918	0.315697	0.456675	5645.803810	25073.647163	3631.940493	10457.279781
81.535000	0.298450	0.157298	0.317210	0.457989	5640.456284	25025.793011	3632.332829	10434.105426
82.038000	0.302781	0.157121	0.315196	0.458498	5665.497476	24990.738096	3627.378965	10425.157070
82.535000	0.298315	0.156214	0.313397	0.464107	5599.958745	24660.485839	3612.995965	10327.155497
83.036000	0.299911	0.157477	0.317219	0.460690	5632.382152	24897.209641	3627.046653	10386.706267
83.536000	0.299328	0.157377	0.319978	0.460829	5627.686916	24885.055671	3632.191504	10384.276232
84.036500	0.300473	0.157059	0.318066	0.460705	5635.940006	24875.173416	3628.678225	10386.445587
84.536500	0.299867	0.155916	0.314757	0.463159	5616.083786	24693.232949	3617.451698	10343.644946
85.037000	0.303688	0.155909	0.319658	0.461571	5651.282219	24773.030721	3630.102820	10371.312505
85.537500	0.299917	0.156039	0.319219	0.462214	5622.528625	24747.115234	3627.981154	10360.100041
86.037500	0.304309	0.157538	0.320061	0.464323	5637.360400	24716.323429	3625.502079	10323.419542
86.535000	0.301750	0.157356	0.315149	0.469076	5590.118459	24468.859481	3606.828391	10241.412744
87.035000	0.301387	0.155047	0.315494	0.463077	5626.463267	24653.613952	3619.038342	10345.063850
87.536000	0.303615	0.155684	0.324576	0.463951	5635.262319	24641.710912	3635.101836	10329.871538
88.035500	0.304316	0.156565	0.321787	0.465285	5631.142445	24618.956049	3626.993376	10306.739023
88.536000	0.301737	0.154943	0.314763	0.464816	5617.460899	24561.157916	3614.263742	10314.870779
89.039500	0.302009	0.155174	0.322561	0.465348	5615.778590	24546.057100	3628.388002	10305.657114
89.536500	0.300736	0.153864	0.324934	0.466141	5602.451006	24441.097746	3631.491489	10291.946334
90.037500	0.304585	0.155769	0.327692	0.467964	5615.519394	24445.157626	3633.331039	10260.504404
90.537500	0.304597	0.155136	0.322485	0.467591	5618.012000	24432.259126	3623.854566	10266.940849
91.035000	0.305106	0.155150	0.321910	0.468431	5615.869551	24391.173993	3621.099158	10252.484218
91.535000	0.304809	0.154985	0.321537	0.468353	5614.453011	24386.829729	3620.525371	10253.815709
92.035000	0.306980	0.155885	0.322775	0.470357	5615.535698	24332.069576	3619.039926	10219.460082
92.535500	0.304486	0.153491	0.319987	0.468451	5611.729815	24307.903674	3617.330805	10252.130923
93.037000	0.306719	0.155147	0.324287	0.470695	5611.659506	24278.794328	3621.318616	10213.668870
93.539000	0.304747	0.153780	0.324234	0.470511	5600.141062	24220.442700	3621.573397	10216.826733
94.037000	0.306048	0.152589	0.323338	0.470282	5609.994936	24173.068635	3620.276237	10220.736491
94.537000	0.307683	0.155814	0.323170	0.472434	5606.661644	24225.915322	3615.785336	10184.003445
95.106500	0.308337	0.152955	0.325989	0.472144	5612.754398	24099.622105	3621.810362	10188.946864
95.535000	0.305462	0.153284	0.329216	0.472683	5590.787894	24089.342838	3627.055897	10179.769836
96.062500	0.307913	0.154477	0.323662	0.473957	5598.341359	24085.358948	3613.795373	10158.108565
96.534500	0.302875	0.152306	0.322816	0.475921	5553.712977	23883.818364	3608.400921	10124.874525
97.035500	0.312249	0.153598	0.327715	0.474798	5620.891476	24001.277356	3620.007254	10143.859585
97.536000	0.304529	0.152283	0.328530	0.474727	5571.775818	23940.708323	3621.728545	10145.060671
98.064500	0.309936	0.153758	0.332787	0.475605	5600.755110	23969.764880	3628.325860	10130.206737
98.536500	0.308232	0.151606	0.324917	0.477515	5577.605670	23772.826575	3609.371864	10097.991618
