sample name	sample
index	1426
start time	 05-10-2021  12:22:03 PM


Wavelength (nm)	Absorbance
494.344910	-0.025947
494.563924	-0.025947
494.782919	-0.025947
495.001897	0.072274
495.220856	-0.008786
495.439797	-0.013302
495.658719	-0.010145
495.877624	-0.006988
496.096510	-0.004760
496.315378	0.017963
496.534227	0.015368
496.753059	0.020845
496.971872	0.004107
497.190667	0.056475
497.409444	0.084944
497.628203	0.092889
497.846943	0.096841
498.065665	0.097944
498.284369	0.099115
498.503055	0.101898
498.721723	0.102767
498.940372	0.104766
499.159003	0.104786
499.377616	0.104605
499.596210	0.104655
499.814787	0.105531
500.033345	0.105967
500.251885	0.106611
500.470406	0.106125
500.688910	0.106502
500.907395	0.105451
501.125862	0.104887
501.344311	0.105299
501.562742	0.105925
501.781154	0.105158
501.999548	0.105664
502.217924	0.104787
502.436282	0.104930
502.654621	0.105266
502.872942	0.106483
503.091245	0.107168
503.309530	0.106395
503.527797	0.105902
503.746045	0.105436
503.964275	0.104954
504.182487	0.106001
504.400681	0.105779
504.618856	0.105717
504.837013	0.105136
505.055152	0.105810
505.273273	0.106457
505.491376	0.107008
505.709460	0.107805
505.927526	0.107193
506.145574	0.106987
506.363604	0.108549
506.581615	0.108622
506.799608	0.109341
507.017583	0.108761
507.235540	0.108345
507.453478	0.108353
507.671399	0.108372
507.889301	0.109047
508.107185	0.108434
508.325050	0.106756
508.542898	0.106963
508.760727	0.106297
508.978538	0.106813
509.196330	0.107480
509.414105	0.106969
509.631861	0.106807
509.849599	0.107677
510.067319	0.108629
510.285021	0.109069
510.502704	0.108573
510.720369	0.108817
510.938016	0.109086
511.155645	0.108401
511.373255	0.108588
511.590848	0.109181
511.808422	0.109224
512.025977	0.109262
512.243515	0.110140
512.461034	0.110054
512.678536	0.110210
512.896018	0.110171
513.113483	0.110374
513.330930	0.110406
513.548358	0.109770
513.765768	0.110020
513.983160	0.110364
514.200533	0.109804
514.417889	0.110032
514.635226	0.110094
514.852545	0.110514
515.069845	0.110930
515.287128	0.111481
515.504392	0.111832
515.721638	0.110826
515.938866	0.109846
516.156075	0.110438
516.373267	0.111307
516.590440	0.110796
516.807594	0.110116
517.024731	0.110160
517.241850	0.109535
517.458950	0.110365
517.676032	0.111467
517.893095	0.112302
518.110141	0.111640
518.327168	0.110792
518.544177	0.111389
518.761168	0.111841
518.978141	0.112632
519.195095	0.113957
519.412031	0.113746
519.628949	0.113078
519.845849	0.113605
520.062731	0.114517
520.279594	0.114634
520.496439	0.114841
520.713266	0.115467
520.930074	0.115009
521.146865	0.113963
521.363637	0.113745
521.580391	0.113921
521.797127	0.113388
522.013844	0.113066
522.230543	0.113499
522.447224	0.113583
522.663887	0.113113
522.880532	0.112791
523.097158	0.113444
523.313766	0.112956
523.530356	0.112965
523.746928	0.113585
523.963481	0.113327
524.180017	0.113355
524.396534	0.112385
524.613032	0.112984
524.829513	0.113372
525.045975	0.113631
525.262420	0.114276
525.478845	0.114682
525.695253	0.114129
525.911643	0.114609
526.128014	0.114879
526.344367	0.116202
526.560702	0.116173
526.777018	0.116454
526.993316	0.115959
527.209597	0.116129
527.425858	0.115478
527.642102	0.115367
527.858328	0.115729
528.074535	0.115278
528.290724	0.114938
528.506894	0.115277
528.723047	0.115517
528.939181	0.116339
529.155297	0.116176
529.371395	0.117422
529.587475	0.117959
529.803536	0.117337
530.019579	0.117824
530.235604	0.118102
530.451611	0.117150
530.667600	0.116800
530.883570	0.116390
531.099522	0.116378
531.315456	0.116253
531.531372	0.115794
531.747269	0.116406
531.963148	0.116947
532.179009	0.117260
532.394852	0.118045
532.610676	0.118499
532.826482	0.118322
533.042271	0.118745
533.258040	0.118548
533.473792	0.119570
533.689525	0.120077
533.905240	0.119930
534.120937	0.120284
534.336616	0.120259
534.552277	0.120231
534.767919	0.120730
534.983543	0.121345
535.199149	0.121730
535.414736	0.121561
535.630306	0.121424
535.845857	0.121545
536.061390	0.121887
536.276904	0.121802
536.492401	0.122111
536.707879	0.121959
536.923339	0.121880
537.138781	0.121703
537.354204	0.121331
537.569610	0.121359
537.784997	0.121403
538.000366	0.120992
538.215716	0.121762
538.431049	0.122191
538.646363	0.122572
538.861659	0.122292
539.076937	0.122477
539.292196	0.122593
539.507438	0.122330
539.722661	0.122488
539.937866	0.122723
540.153052	0.122257
540.368221	0.122127
540.583371	0.121887
540.798503	0.121916
541.013617	0.121946
541.228712	0.122322
541.443789	0.123056
541.658848	0.123299
541.873889	0.123332
542.088912	0.123267
542.303916	0.123417
542.518902	0.123857
542.733870	0.124331
542.948820	0.124580
543.163752	0.124770
543.378665	0.124308
543.593560	0.124209
543.808437	0.124469
544.023295	0.125257
544.238136	0.125001
544.452958	0.125335
544.667762	0.125633
544.882548	0.125833
545.097315	0.126114
545.312064	0.126077
545.526795	0.126341
545.741508	0.126072
545.956203	0.125824
546.170879	0.126023
546.385537	0.125825
546.600177	0.125730
546.814799	0.125854
547.029402	0.126011
547.243988	0.126642
547.458555	0.126412
547.673103	0.126630
547.887634	0.126860
548.102146	0.127345
548.316640	0.127715
548.531116	0.127932
548.745574	0.127847
548.960013	0.127691
549.174435	0.128175
549.388838	0.128752
549.603222	0.128625
549.817589	0.128493
550.031937	0.127829
550.246267	0.127781
550.460579	0.127412
550.674873	0.127088
550.889148	0.127152
551.103405	0.126487
551.317644	0.126174
551.531865	0.126676
551.746068	0.126835
551.960252	0.127285
552.174418	0.127424
552.388566	0.128091
552.602696	0.128229
552.816807	0.128557
553.030900	0.128937
553.244975	0.129146
553.459032	0.128909
553.673070	0.128962
553.887091	0.128947
554.101093	0.128999
554.315077	0.128716
554.529042	0.128955
554.742990	0.128742
554.956919	0.128899
555.170830	0.129155
555.384722	0.129269
555.598597	0.129044
555.812453	0.129396
556.026291	0.129403
556.240111	0.129682
556.453913	0.129853
556.667696	0.129653
556.881461	0.129457
557.095208	0.128862
557.308937	0.128886
557.522647	0.129240
557.736339	0.128611
557.950013	0.128714
558.163669	0.128583
558.377307	0.128734
558.590926	0.129015
558.804527	0.128940
559.018110	0.129082
559.231675	0.128816
559.445221	0.128883
559.658749	0.129039
559.872259	0.128592
560.085751	0.128624
560.299225	0.128411
560.512680	0.128147
560.726117	0.128399
560.939536	0.128990
561.152937	0.129639
561.366319	0.129505
561.579683	0.130063
561.793029	0.130335
562.006357	0.130218
562.219667	0.130595
562.432958	0.130923
562.646231	0.130863
562.859486	0.130852
563.072723	0.130712
563.285941	0.130924
563.499141	0.130911
563.712323	0.131079
563.925487	0.131293
564.138632	0.131770
564.351760	0.132163
564.564869	0.132276
564.777960	0.132428
564.991032	0.132288
565.204087	0.132524
565.417123	0.132904
565.630141	0.133370
565.843140	0.133739
566.056122	0.133308
566.269085	0.133302
566.482030	0.133557
566.694957	0.133340
566.907866	0.133565
567.120756	0.133338
567.333628	0.132753
567.546482	0.132458
567.759318	0.132201
567.972135	0.132167
568.184935	0.131966
568.397716	0.131731
568.610478	0.131820
568.823223	0.132020
569.035949	0.132298
569.248657	0.132710
569.461347	0.132685
569.674019	0.133168
569.886672	0.133485
570.099308	0.133628
570.311925	0.134109
570.524523	0.133995
570.737104	0.134182
570.949666	0.134156
571.162210	0.134160
571.374736	0.134732
571.587244	0.134573
571.799733	0.134447
572.012205	0.134509
572.224658	0.134555
572.437092	0.134855
572.649509	0.135119
572.861907	0.135335
573.074287	0.135498
573.286649	0.135061
573.498993	0.134873
573.711318	0.135228
573.923625	0.135563
574.135914	0.135957
574.348185	0.135833
574.560438	0.135464
574.772672	0.135376
574.984888	0.135475
575.197086	0.135848
575.409266	0.136120
575.621427	0.135885
575.833570	0.135981
576.045695	0.135708
576.257802	0.135927
576.469890	0.136264
576.681961	0.136575
576.894013	0.136670
577.106046	0.136556
577.318062	0.136798
577.530059	0.137220
577.742039	0.136965
577.954000	0.137100
578.165942	0.137102
578.377867	0.136900
578.589773	0.136830
578.801661	0.136756
579.013531	0.136894
579.225382	0.136914
579.437216	0.136706
579.649031	0.137290
579.860828	0.137380
580.072606	0.137587
580.284367	0.138039
580.496109	0.138059
580.707833	0.138070
580.919539	0.138167
581.131227	0.137950
581.342896	0.138021
581.554547	0.137598
581.766180	0.137486
581.977795	0.137517
582.189391	0.137470
582.400969	0.137715
582.612529	0.138141
582.824071	0.138264
583.035595	0.138759
583.247100	0.139035
583.458587	0.139375
583.670056	0.139678
583.881506	0.139999
584.092939	0.140347
584.304353	0.140567
584.515749	0.140660
584.727127	0.140913
584.938486	0.140977
585.149828	0.141448
585.361151	0.141659
585.572456	0.141770
585.783742	0.141836
585.995011	0.141718
586.206261	0.141476
586.417493	0.141302
586.628706	0.141617
586.839902	0.141854
587.051079	0.141521
587.262238	0.141820
587.473379	0.141977
587.684502	0.141860
587.895606	0.142268
588.106692	0.143118
588.317760	0.143120
588.528810	0.142937
588.739841	0.142791
588.950855	0.143097
589.161850	0.143119
589.372827	0.143063
589.583785	0.143407
589.794726	0.143284
590.005648	0.143025
590.216552	0.143597
590.427437	0.143845
590.638305	0.144141
590.849154	0.143974
591.059985	0.143932
591.270798	0.143887
591.481592	0.143856
591.692369	0.143844
591.903127	0.143528
592.113867	0.143420
592.324588	0.143329
592.535292	0.143541
592.745977	0.143960
592.956644	0.144098
593.167293	0.144047
593.377923	0.143820
593.588536	0.143889
593.799130	0.144167
594.009706	0.144176
594.220263	0.144064
594.430803	0.143988
594.641324	0.144122
594.851827	0.144224
595.062312	0.144399
595.272778	0.145186
595.483227	0.145311
595.693657	0.145318
595.904069	0.145585
596.114462	0.145888
596.324838	0.145376
596.535195	0.145053
596.745534	0.144865
596.955855	0.145003
597.166157	0.144668
597.376441	0.144544
597.586707	0.144583
597.796955	0.144259
598.007185	0.144166
598.217396	0.144606
598.427589	0.144454
598.637764	0.144665
598.847921	0.144773
599.058060	0.144872
599.268180	0.144814
599.478282	0.145065
599.688366	0.145195
599.898431	0.145208
600.108479	0.145246
600.318508	0.145362
600.528519	0.145182
600.738511	0.145026
600.948486	0.144897
601.158442	0.145068
601.368380	0.145211
601.578300	0.145343
601.788202	0.145359
601.998085	0.145575
602.207950	0.145830
602.417797	0.146333
602.627626	0.146631
602.837436	0.146795
603.047228	0.146825
603.257002	0.146601
603.466758	0.146770
603.676496	0.147036
603.886215	0.146885
604.095916	0.147112
604.305599	0.147283
604.515264	0.147407
604.724910	0.147541
604.934538	0.147952
605.144148	0.148166
605.353740	0.148310
605.563314	0.148356
605.772869	0.148378
605.982406	0.148483
606.191925	0.148042
606.401425	0.148018
606.610908	0.148254
606.820372	0.148294
607.029818	0.148225
607.239246	0.148438
607.448655	0.148309
607.658047	0.148626
607.867420	0.148586
608.076775	0.148907
608.286111	0.149088
608.495430	0.148932
608.704730	0.149039
608.914012	0.149117
609.123275	0.149151
609.332521	0.149735
609.541748	0.149800
609.750957	0.149729
609.960148	0.149551
610.169321	0.149620
610.378475	0.149837
610.587611	0.149526
610.796729	0.149924
611.005829	0.149885
611.214910	0.149458
611.423974	0.149646
611.633019	0.149929
611.842045	0.150038
612.051054	0.150074
612.260044	0.150103
612.469017	0.150499
612.677970	0.150557
612.886906	0.150316
613.095824	0.150598
613.304723	0.150518
613.513604	0.150489
613.722467	0.150712
613.931311	0.150705
614.140138	0.150729
614.348946	0.150617
614.557736	0.150445
614.766507	0.150739
614.975261	0.151016
615.183996	0.151425
615.392713	0.151276
615.601412	0.151455
615.810092	0.151597
616.018754	0.151510
616.227399	0.151521
616.436024	0.151688
616.644632	0.151667
616.853222	0.151411
617.061793	0.151148
617.270346	0.151639
617.478880	0.151544
617.687397	0.151577
617.895895	0.151778
618.104375	0.151891
618.312837	0.151872
618.521281	0.151978
618.729706	0.152116
618.938113	0.152250
619.146502	0.151874
619.354873	0.151928
619.563226	0.151900
619.771560	0.151767
619.979876	0.151943
620.188174	0.152039
620.396453	0.151960
620.604715	0.151800
620.812958	0.151746
621.021183	0.152085
621.229390	0.152164
621.437578	0.152227
621.645748	0.152604
621.853900	0.152447
622.062034	0.152415
622.270150	0.152491
622.478247	0.152912
622.686326	0.152936
622.894387	0.153061
623.102430	0.153207
623.310454	0.153487
623.518461	0.153351
623.726449	0.153755
623.934418	0.153800
624.142370	0.154025
624.350303	0.153925
624.558218	0.154009
624.766115	0.153954
624.973994	0.153715
625.181855	0.153646
625.389697	0.153715
625.597521	0.153438
625.805327	0.153423
626.013114	0.153445
626.220883	0.153640
626.428634	0.153723
626.636367	0.153590
626.844082	0.153933
627.051778	0.153833
627.259457	0.153545
627.467117	0.153810
627.674758	0.153981
627.882382	0.154158
628.089987	0.154079
628.297574	0.154174
628.505143	0.154443
628.712694	0.154443
628.920226	0.154790
629.127740	0.155269
629.335236	0.155326
629.542714	0.155289
629.750174	0.155234
629.957615	0.155304
630.165038	0.155340
630.372443	0.155437
630.579829	0.155427
630.787198	0.155120
630.994548	0.155157
631.201880	0.155199
631.409194	0.155358
631.616489	0.155413
631.823766	0.155486
632.031025	0.155518
632.238266	0.155732
632.445489	0.155999
632.652693	0.156425
632.859879	0.156384
633.067047	0.156419
633.274197	0.156487
633.481329	0.156417
633.688442	0.156561
633.895537	0.156698
634.102614	0.156500
634.309672	0.156437
634.516713	0.156353
634.723735	0.156529
634.930739	0.156423
635.137724	0.156499
635.344692	0.156786
635.551641	0.156889
635.758572	0.157004
635.965485	0.157045
636.172379	0.156907
636.379256	0.157063
636.586114	0.157118
636.792954	0.157573
636.999775	0.157685
637.206579	0.157740
637.413364	0.157955
637.620131	0.158137
637.826880	0.158336
638.033610	0.158522
638.240323	0.158653
638.447017	0.158948
638.653692	0.158995
638.860350	0.159158
639.066990	0.159123
639.273611	0.159109
639.480214	0.159082
639.686798	0.159123
639.893365	0.159431
640.099913	0.159328
640.306443	0.159285
640.512955	0.159472
640.719449	0.159355
640.925924	0.159600
641.132381	0.159437
641.338820	0.159507
641.545241	0.159527
641.751644	0.159331
641.958028	0.159273
642.164394	0.159391
642.370742	0.159191
642.577071	0.159545
642.783383	0.159506
642.989676	0.159770
643.195951	0.159824
643.402207	0.159919
643.608446	0.159894
643.814666	0.160378
644.020868	0.160491
644.227052	0.160660
644.433218	0.160735
644.639365	0.161064
644.845494	0.161183
645.051605	0.161299
645.257698	0.161503
645.463772	0.161914
645.669828	0.161770
645.875866	0.161745
646.081886	0.161752
646.287888	0.161837
646.493871	0.161657
646.699836	0.161663
646.905783	0.161643
647.111712	0.161816
647.317622	0.161870
647.523514	0.161864
647.729388	0.161950
647.935244	0.161921
648.141082	0.161722
648.346901	0.161850
648.552702	0.161998
648.758485	0.161999
648.964250	0.161782
649.169996	0.161932
649.375724	0.161850
649.581434	0.161824
649.787126	0.161998
649.992800	0.162158
650.198455	0.162183
650.404092	0.162157
650.609711	0.162261
650.815311	0.162387
651.020894	0.162030
651.226458	0.162140
651.432004	0.162301
651.637532	0.162308
651.843041	0.162271
652.048532	0.162322
652.254006	0.162185
652.459460	0.162235
652.664897	0.162091
652.870315	0.162402
653.075716	0.162652
653.281097	0.162759
653.486461	0.162877
653.691807	0.163003
653.897134	0.163133
654.102443	0.163368
654.307734	0.163589
654.513006	0.164074
654.718261	0.164309
654.923497	0.164481
655.128715	0.164474
655.333915	0.164730
655.539096	0.164822
655.744259	0.164915
655.949404	0.164924
656.154531	0.164969
656.359640	0.164866
656.564730	0.164768
656.769802	0.164566
656.974856	0.164512
657.179892	0.164466
657.384909	0.164675
657.589908	0.164856
657.794889	0.164953
657.999852	0.165034
658.204797	0.165142
658.409723	0.165135
658.614631	0.165502
658.819521	0.165680
659.024393	0.165639
659.229246	0.165607
659.434081	0.165795
659.638898	0.166034
659.843697	0.166180
660.048478	0.166169
660.253240	0.166254
660.457984	0.166152
660.662710	0.166252
660.867417	0.166304
661.072107	0.166369
661.276778	0.166387
661.481431	0.166498
661.686066	0.166520
661.890682	0.166694
662.095281	0.167050
662.299861	0.167144
662.504422	0.167297
662.708966	0.167386
662.913491	0.167675
663.117999	0.167698
663.322488	0.167727
663.526958	0.167813
663.731411	0.167757
663.935845	0.167606
664.140261	0.167916
664.344659	0.168064
664.549038	0.168093
664.753400	0.168064
664.957743	0.167985
665.162068	0.167843
665.366375	0.167791
665.570663	0.167897
665.774933	0.168109
665.979185	0.168165
666.183419	0.168190
666.387635	0.168291
666.591832	0.168365
666.796011	0.168572
667.000172	0.168821
667.204315	0.168934
667.408439	0.169181
667.612545	0.169114
667.816634	0.169113
668.020703	0.169158
668.224755	0.169336
668.428788	0.169506
668.632803	0.169549
668.836800	0.169610
669.040779	0.169838
669.244739	0.169739
669.448681	0.169924
669.652605	0.170080
669.856511	0.170070
670.060399	0.170500
670.264268	0.170584
670.468119	0.170765
670.671952	0.170830
670.875767	0.170785
671.079563	0.171029
671.283341	0.171213
671.487101	0.171362
671.690843	0.171586
671.894567	0.171279
672.098272	0.171307
672.301959	0.171483
672.505628	0.171782
672.709278	0.172049
672.912911	0.171995
673.116525	0.171980
673.320121	0.171776
673.523699	0.171704
673.727258	0.171906
673.930799	0.171868
674.134322	0.171800
674.337827	0.171597
674.541314	0.171575
674.744782	0.172030
674.948232	0.172130
675.151664	0.172156
675.355078	0.172216
675.558474	0.172173
675.761851	0.172331
675.965210	0.172225
676.168551	0.172353
676.371873	0.172490
676.575178	0.172447
676.778464	0.172488
676.981732	0.172894
677.184981	0.172925
677.388213	0.173067
677.591426	0.172827
677.794621	0.173075
677.997798	0.173197
678.200956	0.173098
678.404097	0.172950
678.607219	0.172873
678.810323	0.172917
679.013408	0.173198
679.216476	0.173396
679.419525	0.173802
679.622556	0.173890
679.825569	0.173975
680.028563	0.174269
680.231540	0.174557
680.434498	0.174850
680.637438	0.174986
680.840359	0.175214
681.043263	0.175338
681.246148	0.175564
681.449015	0.175573
681.651864	0.175711
681.854694	0.175632
682.057506	0.175711
682.260301	0.175743
682.463076	0.175600
682.665834	0.175475
682.868573	0.175450
683.071295	0.175442
683.273998	0.175781
683.476682	0.176014
683.679349	0.176199
683.881997	0.176192
684.084627	0.176376
684.287239	0.176670
684.489833	0.176919
684.692408	0.176742
684.894965	0.176762
685.097504	0.176694
685.300025	0.176575
685.502527	0.176550
685.705012	0.176497
685.907478	0.176428
686.109925	0.176241
686.312355	0.176101
686.514766	0.176287
686.717159	0.176431
686.919534	0.176395
687.121891	0.176502
687.324230	0.176454
687.526550	0.176564
687.728852	0.176551
687.931136	0.176711
688.133401	0.176841
688.335649	0.176994
688.537878	0.176940
688.740089	0.176828
688.942281	0.176690
689.144456	0.176973
689.346612	0.176908
689.548750	0.177023
689.750870	0.177048
689.952971	0.177140
690.155055	0.177183
690.357120	0.177021
690.559167	0.177257
690.761195	0.177554
690.963206	0.177422
691.165198	0.177679
691.367172	0.177721
691.569128	0.177786
691.771065	0.177725
691.972984	0.177886
692.174885	0.178348
692.376768	0.178522
692.578633	0.178084
692.780479	0.178098
692.982308	0.178013
693.184118	0.178130
693.385909	0.178290
693.587683	0.178399
693.789438	0.178367
693.991175	0.178321
694.192894	0.178136
694.394595	0.178540
694.596277	0.178870
694.797941	0.178958
694.999587	0.179151
695.201215	0.179173
695.402824	0.179330
695.604416	0.179389
695.805989	0.179251
696.007543	0.179466
696.209080	0.179602
696.410598	0.179637
696.612099	0.179825
696.813580	0.179805
697.015044	0.179712
697.216490	0.179685
697.417917	0.179770
697.619326	0.180026
697.820717	0.180038
698.022089	0.179838
698.223444	0.179822
698.424780	0.179775
698.626098	0.179803
698.827397	0.179966
699.028679	0.180042
699.229942	0.180152
699.431187	0.180151
699.632414	0.180265
699.833622	0.180516
700.034813	0.180479
700.235985	0.180645
700.437139	0.180658
700.638274	0.180838
700.839392	0.181100
701.040491	0.181191
701.241572	0.181209
701.442635	0.181224
701.643679	0.181395
701.844706	0.181428
702.045714	0.181325
702.246704	0.181509
702.447675	0.181563
702.648629	0.181360
702.849564	0.181537
703.050481	0.181669
703.251380	0.181676
703.452260	0.181790
703.653122	0.181984
703.853966	0.182149
704.054792	0.181950
704.255600	0.181874
704.456389	0.182063
704.657160	0.181853
704.857913	0.181873
705.058648	0.181743
705.259365	0.181633
705.460063	0.181436
705.660743	0.181548
705.861405	0.181703
706.062048	0.181588
706.262674	0.181473
706.463281	0.181465
706.663870	0.181482
706.864441	0.181474
707.064993	0.181556
707.265527	0.181707
707.466043	0.181638
707.666541	0.181640
707.867021	0.181807
708.067482	0.181964
708.267925	0.181915
708.468350	0.181908
708.668757	0.182128
708.869145	0.182146
709.069516	0.182091
709.269868	0.181879
709.470201	0.181602
709.670517	0.181333
709.870814	0.181075
710.071093	0.181184
710.271354	0.181272
710.471597	0.181183
710.671821	0.181257
710.872028	0.181347
711.072216	0.181543
711.272385	0.181700
711.472537	0.181910
711.672670	0.182175
711.872785	0.182124
712.072882	0.182049
712.272961	0.182004
712.473021	0.181632
712.673063	0.181508
712.873087	0.181337
713.073093	0.181504
713.273081	0.181389
713.473050	0.181275
713.673001	0.181230
713.872934	0.181108
714.072849	0.181377
714.272745	0.181591
714.472623	0.181886
714.672483	0.182224
714.872325	0.182320
715.072148	0.182628
715.271954	0.182817
715.471741	0.182947
715.671509	0.183101
715.871260	0.183010
716.070992	0.183066
716.270707	0.183092
716.470403	0.182929
716.670080	0.182950
716.869740	0.183062
717.069381	0.182956
717.269004	0.183115
717.468609	0.183001
717.668195	0.183037
717.867764	0.183064
718.067314	0.182881
718.266846	0.183154
718.466360	0.183166
718.665855	0.183005
718.865332	0.182904
719.064791	0.182823
719.264232	0.183033
719.463655	0.183220
719.663059	0.183334
719.862445	0.183386
720.061813	0.183221
720.261163	0.183153
720.460494	0.183001
720.659807	0.183049
720.859102	0.182936
721.058379	0.182971
721.257638	0.182626
721.456878	0.182420
721.656100	0.182247
721.855304	0.182260
722.054490	0.182233
722.253657	0.182148
722.452806	0.181891
722.651937	0.181926
722.851050	0.181885
723.050145	0.181900
723.249221	0.181959
723.448279	0.182025
723.647319	0.181703
723.846340	0.181522
724.045344	0.181539
724.244329	0.181658
724.443296	0.181495
724.642245	0.181276
724.841175	0.181267
725.040088	0.181122
725.238982	0.180945
725.437857	0.180965
725.636715	0.181223
725.835554	0.181116
726.034376	0.181061
726.233179	0.181021
726.431963	0.181068
726.630730	0.180864
726.829478	0.180597
727.028208	0.180502
727.226920	0.180302
727.425614	0.179935
727.624289	0.179831
727.822946	0.179836
728.021585	0.179662
728.220206	0.179476
728.418808	0.179412
728.617392	0.179458
728.815958	0.179607
729.014506	0.179754
729.213036	0.179927
729.411547	0.180083
729.610040	0.180046
729.808515	0.180172
730.006972	0.180163
730.205410	0.180203
730.403831	0.180051
730.602233	0.179936
730.800616	0.179778
730.998982	0.179441
731.197329	0.179036
731.395658	0.179054
731.593969	0.178724
731.792262	0.178586
731.990536	0.178508
732.188793	0.178712
732.387031	0.178649
732.585250	0.178555
732.783452	0.178538
732.981635	0.178721
733.179800	0.178519
733.377947	0.178730
733.576076	0.178492
733.774186	0.178414
733.972278	0.178347
734.170352	0.178381
734.368408	0.178546
734.566446	0.178625
734.764465	0.178659
734.962466	0.178720
735.160449	0.178744
735.358413	0.178930
735.556360	0.178821
735.754288	0.178837
735.952198	0.178631
736.150090	0.178422
736.347963	0.178271
736.545818	0.178089
736.743655	0.177931
736.941474	0.177402
737.139275	0.177360
737.337057	0.177328
737.534821	0.176953
737.732567	0.176686
737.930295	0.176684
738.128005	0.176486
738.325696	0.176708
738.523369	0.176586
738.721024	0.176686
738.918660	0.176625
739.116279	0.176649
739.313879	0.176919
739.511461	0.177063
739.709024	0.177191
739.906570	0.177159
740.104097	0.176829
740.301606	0.176834
740.499097	0.176951
740.696569	0.176867
740.894024	0.176740
741.091460	0.176415
741.288878	0.176244
741.486277	0.175898
741.683659	0.175785
741.881022	0.175717
742.078367	0.175428
742.275694	0.175198
742.473002	0.174988
742.670293	0.174672
742.867565	0.174643
743.064819	0.174503
743.262054	0.174405
743.459272	0.174384
743.656471	0.174236
743.853652	0.174201
744.050815	0.174055
744.247959	0.173954
744.445085	0.174217
744.642194	0.174040
744.839283	0.174082
745.036355	0.174130
745.233408	0.174160
745.430444	0.173923
745.627461	0.173999
745.824459	0.174025
746.021440	0.173982
746.218402	0.173832
746.415346	0.173714
746.612272	0.173794
746.809180	0.173834
747.006069	0.173802
747.202940	0.174117
747.399793	0.173878
747.596628	0.173864
747.793444	0.173946
747.990243	0.174154
748.187023	0.174310
748.383784	0.174266
748.580528	0.174021
748.777253	0.173988
748.973960	0.173755
749.170649	0.174037
749.367320	0.174067
749.563973	0.174164
749.760607	0.174009
749.957223	0.174093
750.153821	0.173897
750.350400	0.173791
750.546962	0.173547
750.743505	0.173533
750.940030	0.173354
751.136536	0.173108
751.333025	0.172918
751.529495	0.172725
751.725947	0.172427
751.922381	0.172434
752.118796	0.172304
752.315194	0.172077
752.511573	0.171837
752.707934	0.171732
752.904276	0.171711
753.100601	0.171577
753.296907	0.171290
753.493195	0.171242
753.689465	0.171027
753.885716	0.170962
754.081949	0.171198
754.278164	0.171109
754.474361	0.171099
754.670540	0.170977
754.866700	0.170863
755.062843	0.170943
755.258967	0.170950
755.455072	0.170899
755.651160	0.171074
755.847229	0.170900
756.043280	0.171175
756.239313	0.170980
756.435328	0.171244
756.631324	0.171294
756.827302	0.171334
757.023262	0.171190
757.219204	0.171241
757.415127	0.171014
757.611033	0.170936
757.806920	0.170646
758.002788	0.170494
758.198639	0.170208
758.394471	0.169918
758.590286	0.169608
758.786081	0.169623
758.981859	0.169406
759.177619	0.169326
759.373360	0.169226
759.569083	0.169107
759.764788	0.169008
759.960474	0.168849
760.156143	0.168860
760.351793	0.168902
760.547425	0.168763
760.743038	0.168655
760.938634	0.168696
761.134211	0.168677
761.329770	0.168733
761.525311	0.168862
761.720833	0.168970
761.916338	0.168904
762.111824	0.168850
762.307292	0.168992
762.502741	0.169100
762.698173	0.169030
762.893586	0.169198
763.088981	0.169114
763.284358	0.168908
763.479716	0.168962
763.675057	0.169166
763.870379	0.169188
764.065683	0.169110
764.260968	0.168786
764.456236	0.168840
764.651485	0.168667
764.846716	0.168790
765.041929	0.169148
765.237123	0.169031
765.432299	0.168954
765.627457	0.169082
765.822597	0.169052
766.017719	0.169413
766.212822	0.169278
766.407907	0.169175
766.602974	0.169021
766.798023	0.168804
766.993054	0.168697
767.188066	0.168451
767.383060	0.168258
767.578036	0.168014
767.772993	0.167983
767.967933	0.167927
768.162854	0.167865
768.357757	0.167649
768.552642	0.167539
768.747508	0.167542
768.942356	0.167384
769.137186	0.167376
769.331998	0.167217
769.526792	0.166978
769.721567	0.166884
769.916324	0.166561
770.111063	0.166769
770.305784	0.166680
770.500486	0.166690
770.695171	0.166679
770.889837	0.166602
771.084484	0.166744
771.279114	0.166660
771.473725	0.166793
771.668318	0.166999
771.862893	0.166888
772.057450	0.166879
772.251988	0.166731
772.446509	0.166766
772.641011	0.166653
772.835494	0.166714
773.029960	0.166908
773.224407	0.166762
773.418836	0.166946
773.613247	0.166982
773.807640	0.166987
774.002014	0.167105
774.196370	0.167200
774.390708	0.167246
774.585028	0.167001
774.779330	0.166940
774.973613	0.166769
775.167878	0.166740
775.362125	0.166844
775.556354	0.166632
775.750564	0.166622
775.944756	0.166675
776.138930	0.166671
776.333086	0.166804
776.527223	0.166834
776.721343	0.167150
776.915444	0.167113
777.109526	0.167146
777.303591	0.167378
777.497637	0.167225
777.691666	0.167081
777.885676	0.167005
778.079667	0.167201
778.273641	0.167156
778.467596	0.167152
778.661533	0.167178
778.855452	0.166925
779.049352	0.166688
779.243235	0.166616
779.437099	0.166734
779.630945	0.167108
779.824773	0.166976
780.018582	0.166965
780.212373	0.166933
780.406146	0.166955
780.599901	0.167134
780.793638	0.167199
780.987356	0.167431
781.181056	0.167493
781.374738	0.167433
781.568402	0.167420
781.762047	0.167533
781.955674	0.167439
782.149283	0.167368
782.342874	0.167096
782.536447	0.167388
782.730001	0.167325
782.923537	0.167202
783.117055	0.167025
783.310555	0.167107
783.504036	0.167200
783.697499	0.167367
783.890944	0.167376
784.084371	0.167461
784.277780	0.167514
784.471170	0.167593
784.664542	0.167701
784.857896	0.167752
785.051231	0.167858
785.244549	0.167820
785.437848	0.167937
785.631129	0.168077
785.824392	0.168331
786.017636	0.167971
786.210863	0.167919
786.404071	0.167926
786.597260	0.168095
786.790432	0.168195
786.983585	0.168326
787.176721	0.168234
787.369838	0.168125
787.562936	0.168050
787.756017	0.168465
787.949079	0.168614
788.142123	0.168598
788.335149	0.168547
788.528156	0.168351
788.721146	0.168198
788.914117	0.168065
789.107070	0.168286
789.300005	0.168391
789.492921	0.168359
789.685819	0.168150
789.878699	0.168399
790.071561	0.168502
790.264405	0.168642
790.457230	0.168675
790.650037	0.168903
790.842826	0.168556
791.035597	0.168579
791.228349	0.168767
791.421084	0.169044
791.613800	0.169086
791.806497	0.169196
791.999177	0.169530
792.191838	0.169639
792.384481	0.169755
792.577106	0.170138
792.769713	0.170283
792.962301	0.170211
793.154871	0.170324
793.347423	0.170220
793.539957	0.170241
793.732473	0.169832
793.924970	0.170038
794.117449	0.170018
794.309910	0.170199
794.502353	0.170287
794.694777	0.170630
794.887183	0.170744
795.079571	0.170984
795.271941	0.170959
795.464293	0.171348
795.656626	0.171407
795.848941	0.171528
796.041238	0.171614
796.233516	0.171707
796.425777	0.171767
796.618019	0.172149
796.810243	0.172393
797.002449	0.172746
797.194636	0.172961
797.386805	0.173207
797.578956	0.173214
797.771089	0.173266
797.963204	0.173307
798.155300	0.173452
798.347378	0.173411
798.539438	0.173582
798.731480	0.173801
798.923503	0.173952
799.115509	0.174100
799.307496	0.174406
799.499465	0.174618
799.691415	0.174882
799.883348	0.174741
800.075262	0.174676
800.267158	0.174719
800.459035	0.174489
800.650895	0.174196
800.842736	0.173979
801.034559	0.173999
801.226364	0.174317
801.418150	0.174365
801.609919	0.174517
801.801669	0.174712
801.993401	0.174572
802.185114	0.174727
802.376810	0.175079
802.568487	0.175280
802.760146	0.175558
802.951787	0.175457
803.143409	0.175690
803.335014	0.175688
803.526600	0.175852
803.718168	0.176086
803.909717	0.176345
804.101249	0.176479
804.292762	0.176590
804.484257	0.176427
804.675734	0.176604
804.867192	0.176788
805.058632	0.176997
805.250054	0.176946
805.441458	0.176984
805.632844	0.176841
805.824211	0.176943
806.015561	0.177199
806.206891	0.177722
806.398204	0.177737
806.589499	0.177726
806.780775	0.177977
806.972033	0.178211
807.163273	0.178345
807.354495	0.178760
807.545698	0.178974
807.736883	0.179105
807.928050	0.179422
808.119199	0.179868
808.310329	0.180055
808.501441	0.180222
808.692535	0.180481
808.883611	0.180809
809.074669	0.181095
809.265708	0.181453
809.456729	0.181634
809.647732	0.181674
809.838717	0.181860
810.029683	0.182229
810.220632	0.182649
810.411562	0.182975
810.602474	0.183425
810.793367	0.183811
810.984242	0.183932
811.175100	0.184382
811.365938	0.184293
811.556759	0.184328
811.747562	0.184335
811.938346	0.184431
812.129112	0.184495
812.319860	0.184342
812.510589	0.184397
812.701300	0.184529
812.891994	0.184630
813.082668	0.184984
813.273325	0.185320
813.463964	0.185733
813.654584	0.185963
813.845186	0.186329
814.035769	0.186681
814.226335	0.186771
814.416882	0.187316
814.607411	0.187550
814.797922	0.187713
814.988415	0.187822
815.178889	0.187967
815.369345	0.188174
815.559783	0.188196
815.750203	0.188456
815.940605	0.188556
816.130988	0.188533
816.321353	0.188723
816.511700	0.188908
816.702028	0.189203
816.892339	0.189418
817.082631	0.189348
817.272905	0.189361
817.463161	0.189232
817.653398	0.189268
817.843617	0.189451
818.033819	0.189367
818.224001	0.189505
818.414166	0.189587
818.604312	0.189417
818.794440	0.189589
818.984550	0.189749
819.174642	0.190139
819.364716	0.190405
819.554771	0.190295
819.744808	0.190559
819.934827	0.190539
820.124827	0.190457
820.314810	0.190593
820.504774	0.190745
820.694720	0.190888
820.884647	0.190786
821.074557	0.191010
821.264448	0.190834
821.454321	0.190972
821.644176	0.191174
821.834012	0.191534
822.023831	0.191717
822.213631	0.191880
822.403413	0.192108
822.593176	0.192440
822.782922	0.192624
822.972649	0.193288
823.162358	0.193478
823.352049	0.193836
823.541721	0.193942
823.731376	0.194364
823.921012	0.194529
824.110629	0.194842
824.300229	0.195046
824.489811	0.195315
824.679374	0.195139
824.868919	0.195304
825.058445	0.195629
825.247954	0.195869
825.437444	0.196026
825.626916	0.196205
825.816370	0.196698
826.005806	0.196708
826.195223	0.196926
826.384622	0.197496
826.574003	0.197500
826.763366	0.197458
826.952711	0.197580
827.142037	0.197858
827.331345	0.198146
827.520635	0.197797
827.709906	0.198396
827.899160	0.198677
828.088395	0.198639
828.277612	0.199164
828.466810	0.199215
828.655991	0.199349
828.845153	0.199246
829.034297	0.199415
829.223423	0.200010
829.412531	0.199843
829.601620	0.200090
829.790691	0.200259
829.979744	0.200306
830.168779	0.200856
830.357795	0.201061
830.546793	0.201201
830.735773	0.201308
830.924735	0.201448
831.113679	0.201663
831.302604	0.201812
831.491511	0.201856
831.680400	0.202190
831.869271	0.202240
832.058123	0.202386
832.246957	0.202696
832.435773	0.203023
832.624571	0.202917
832.813351	0.203462
833.002112	0.203324
833.190855	0.203816
833.379580	0.204102
833.568287	0.204247
833.756975	0.204204
833.945645	0.204509
834.134297	0.204561
834.322931	0.204925
834.511547	0.204984
834.700144	0.205442
834.888723	0.205532
835.077284	0.205653
835.265826	0.205674
835.454351	0.206312
835.642857	0.206550
835.831345	0.206994
836.019815	0.207339
836.208266	0.207570
836.396699	0.207578
836.585114	0.207876
836.773511	0.207785
836.961890	0.208316
837.150250	0.208600
837.338592	0.208716
837.526916	0.208902
837.715222	0.209193
837.903510	0.209529
838.091779	0.209768
838.280030	0.210319
838.468263	0.211047
838.656477	0.211532
838.844674	0.211647
839.032852	0.212341
839.221012	0.212673
839.409153	0.212991
839.597277	0.213189
839.785382	0.213588
839.973469	0.213782
840.161538	0.213639
840.349589	0.213677
840.537621	0.214157
840.725635	0.214250
840.913631	0.214398
841.101609	0.214457
841.289568	0.214769
841.477509	0.215227
841.665432	0.215390
841.853337	0.215850
842.041224	0.216114
842.229092	0.216280
842.416942	0.216343
842.604774	0.216300
842.792588	0.216494
842.980383	0.216436
843.168160	0.216387
843.355919	0.216789
843.543660	0.216943
843.731382	0.217335
843.919087	0.217608
844.106773	0.217656
844.294441	0.218046
844.482090	0.218130
844.669722	0.218547
844.857335	0.219109
845.044930	0.219507
845.232507	0.219899
845.420065	0.220504
845.607605	0.220639
845.795127	0.221230
845.982631	0.221755
846.170117	0.222359
846.357584	0.222723
846.545033	0.223005
846.732464	0.222880
846.919877	0.223244
847.107272	0.223001
847.294648	0.223343
847.482006	0.223557
847.669346	0.223708
847.856667	0.223958
848.043971	0.224172
848.231256	0.224432
848.418523	0.224830
848.605771	0.224956
848.793002	0.225617
848.980214	0.226256
849.167408	0.226525
849.354584	0.226864
849.541742	0.226840
849.728881	0.227354
849.916002	0.227326
850.103105	0.227520
850.290190	0.228030
850.477256	0.228024
850.664304	0.228198
850.851334	0.228532
851.038346	0.228733
851.225340	0.229270
851.412315	0.229377
851.599272	0.229706
851.786211	0.229995
851.973132	0.230035
852.160034	0.230283
852.346918	0.230248
852.533784	0.230203
852.720632	0.230412
852.907462	0.230532
853.094273	0.230458
853.281066	0.230605
853.467841	0.230980
853.654598	0.231177
853.841336	0.231164
854.028056	0.231432
854.214758	0.232214
854.401442	0.232442
854.588107	0.232779
854.774755	0.233641
854.961384	0.234005
855.147995	0.234182
855.334587	0.234652
855.521162	0.235015
855.707718	0.235558
855.894256	0.235472
856.080775	0.236517
856.267277	0.237040
856.453760	0.236739
856.640225	0.237292
856.826672	0.237601
857.013101	0.237924
857.199511	0.238431
857.385903	0.238375
857.572277	0.238581
857.758633	0.238076
857.944970	0.237811
858.131290	0.237921
858.317591	0.237886
858.503873	0.237909
858.690138	0.237760
858.876384	0.237676
859.062612	0.237745
859.248822	0.237968
859.435014	0.238253
859.621188	0.238883
859.807343	0.239793
859.993480	0.239660
860.179599	0.240005
860.365699	0.240171
860.551781	0.240552
860.737846	0.240849
860.923891	0.241243
861.109919	0.241283
861.295929	0.241402
861.481920	0.241001
861.667893	0.241531
861.853848	0.241895
862.039784	0.242153
862.225702	0.242225
862.411603	0.242836
862.597484	0.242960
862.783348	0.243514
862.969193	0.243511
863.155021	0.243920
863.340830	0.244257
863.526620	0.244264
863.712393	0.244494
863.898147	0.244737
864.083883	0.244268
864.269601	0.244651
864.455301	0.244824
864.640982	0.245219
864.826645	0.245704
865.012290	0.245670
865.197917	0.245635
865.383526	0.245985
865.569116	0.246163
865.754688	0.247203
865.940242	0.247175
866.125777	0.247273
866.311295	0.247415
866.496794	0.247510
866.682275	0.247710
866.867737	0.248314
867.053182	0.248221
867.238608	0.248632
867.424016	0.248368
867.609406	0.248518
867.794778	0.248737
867.980131	0.249147
868.165466	0.249073
868.350783	0.249443
868.536082	0.249196
868.721362	0.249242
868.906625	0.249154
869.091869	0.249305
869.277094	0.249264
869.462302	0.249593
869.647491	0.249472
869.832662	0.249856
870.017815	0.249996
870.202950	0.250219
870.388066	0.250637
870.573165	0.250863
870.758245	0.250904
870.943306	0.251128
871.128350	0.251365
871.313375	0.251704
871.498382	0.251783
871.683371	0.252384
871.868342	0.252954
872.053294	0.253300
872.238229	0.253691
872.423144	0.254313
872.608042	0.254823
872.792922	0.254920
872.977783	0.255279
873.162626	0.255447
873.347451	0.255435
873.532258	0.255481
873.717046	0.255344
873.901816	0.255257
874.086568	0.255443
874.271302	0.255606
874.456017	0.255908
874.640715	0.255968
874.825394	0.256297
875.010055	0.256314
875.194697	0.256628
875.379322	0.257191
875.563928	0.257757
875.748516	0.257633
875.933085	0.257665
876.117637	0.257699
876.302170	0.258052
876.486685	0.258491
876.671182	0.258620
876.855661	0.258799
877.040121	0.258959
877.224563	0.258900
877.408987	0.258971
877.593393	0.259271
877.777780	0.259270
877.962150	0.258828
878.146501	0.258621
878.330833	0.258983
878.515148	0.259022
878.699444	0.258927
878.883722	0.258950
879.067982	0.258942
879.252224	0.259048
879.436447	0.259327
879.620653	0.259682
879.804840	0.259606
879.989008	0.259699
880.173159	0.259805
880.357291	0.260028
880.541405	0.260226
880.725501	0.260666
880.909579	0.260823
881.093638	0.260796
881.277680	0.260708
881.461703	0.261177
881.645707	0.260749
881.829694	0.260613
882.013662	0.260796
882.197612	0.260614
882.381544	0.260686
882.565458	0.261018
882.749353	0.261198
882.933230	0.261633
883.117089	0.261340
883.300930	0.261571
883.484753	0.261771
883.668557	0.261562
883.852343	0.262030
884.036111	0.261680
884.219861	0.261544
884.403592	0.261485
884.587305	0.261458
884.771000	0.261496
884.954677	0.261476
885.138335	0.261502
885.321976	0.261705
885.505598	0.261478
885.689201	0.261634
885.872787	0.261185
886.056354	0.261473
886.239904	0.261326
886.423434	0.261540
886.606947	0.261638
886.790442	0.261728
886.973918	0.261690
887.157376	0.261687
887.340816	0.261834
887.524237	0.262121
887.707641	0.261765
887.891026	0.262051
888.074393	0.262043
888.257741	0.262544
888.441072	0.262244
888.624384	0.262274
888.807678	0.262264
888.990954	0.262081
889.174211	0.262394
889.357451	0.262825
889.540672	0.262481
889.723875	0.262545
889.907059	0.261958
890.090226	0.262212
890.273374	0.262345
890.456504	0.262415
890.639616	0.262773
890.822709	0.262605
891.005785	0.261974
891.188842	0.262384
891.371881	0.262454
891.554901	0.262864
891.737904	0.262868
891.920888	0.262798
892.103854	0.262792
892.286802	0.262743
892.469731	0.262829
892.652643	0.263055
892.835536	0.262333
893.018410	0.261900
893.201267	0.261447
893.384106	0.261289
893.566926	0.261075
893.749728	0.260952
893.932511	0.260442
894.115277	0.259893
894.298024	0.259585
894.480753	0.259680
894.663464	0.259215
894.846157	0.259612
895.028831	0.259795
895.211487	0.259732
895.394125	0.259736
895.576745	0.259837
895.759346	0.259854
895.941930	0.260174
896.124495	0.260253
896.307041	0.261006
896.489570	0.260341
896.672080	0.259970
896.854573	0.260585
897.037046	0.260730
897.219502	0.260966
897.401940	0.260826
897.584359	0.260738
897.766760	0.260972
897.949143	0.260414
898.131507	0.260432
898.313854	0.260771
898.496182	0.260227
898.678492	0.259907
898.860783	0.259594
899.043057	0.259625
899.225312	0.259605
899.407549	0.259481
899.589768	0.259731
899.771968	0.260048
899.954151	0.259215
900.136315	0.259095
900.318461	0.258987
900.500588	0.258663
900.682698	0.258385
900.864789	0.257833
901.046862	0.257001
901.228917	0.256682
901.410953	0.255926
901.592971	0.255953
901.774972	0.255434
901.956953	0.254998
902.138917	0.254846
902.320862	0.254978
902.502790	0.254694
902.684699	0.254955
902.866589	0.254153
903.048462	0.254177
903.230316	0.253945
903.412152	0.253761
903.593970	0.253976
903.775770	0.253880
903.957551	0.253149
904.139314	0.253051
904.321059	0.253118
904.502786	0.253074
904.684494	0.252919
904.866185	0.253172
905.047857	0.252907
905.229510	0.252427
905.411146	0.252180
905.592763	0.252223
905.774363	0.251882
905.955943	0.251401
906.137506	0.251634
906.319051	0.251550
906.500577	0.251496
906.682085	0.251513
906.863575	0.251798
907.045046	0.251745
907.226500	0.251498
907.407935	0.251376
907.589352	0.251160
907.770750	0.251190
907.952131	0.250733
908.133493	0.249988
908.314837	0.249925
908.496163	0.248497
908.677470	0.248202
908.858760	0.247978
909.040031	0.247758
909.221284	0.247378
909.402518	0.246523
909.583735	0.246733
909.764933	0.246271
909.946113	0.245867
910.127275	0.246598
910.308418	0.246560
910.489544	0.246175
910.670651	0.246392
910.851740	0.245857
911.032810	0.245814
911.213863	0.245233
911.394897	0.245122
911.575913	0.244465
911.756911	0.243704
911.937890	0.242534
912.118851	0.242203
912.299794	0.241139
912.480719	0.240964
912.661626	0.240524
912.842514	0.240062
913.023384	0.239693
913.204236	0.239979
913.385070	0.239742
913.565886	0.239943
913.746683	0.239707
913.927462	0.239335
914.108223	0.239187
914.288965	0.238746
914.469690	0.238525
914.650396	0.238216
914.831084	0.237420
915.011754	0.237055
915.192405	0.236461
915.373038	0.236165
915.553653	0.235902
915.734250	0.235457
915.914829	0.235629
916.095389	0.235245
916.275931	0.234806
916.456455	0.234421
916.636961	0.234193
916.817448	0.234031
916.997917	0.233905
917.178368	0.233983
917.358801	0.233319
917.539216	0.232571
917.719612	0.231858
917.899990	0.231071
918.080350	0.231258
918.260692	0.230692
918.441015	0.230161
918.621320	0.229218
918.801607	0.228201
918.981876	0.228044
919.162127	0.227438
919.342359	0.227138
919.522573	0.227549
919.702769	0.226886
919.882947	0.226248
920.063106	0.225200
920.243247	0.225167
920.423370	0.224691
920.603475	0.223872
920.783562	0.223540
920.963630	0.223112
921.143680	0.222111
921.323712	0.220924
921.503725	0.220618
921.683721	0.220432
921.863698	0.219786
922.043657	0.219343
922.223598	0.219637
922.403520	0.219532
922.583424	0.219128
922.763311	0.218509
922.943178	0.218037
923.123028	0.217144
923.302859	0.216907
923.482673	0.216374
923.662467	0.216172
923.842244	0.215434
924.022003	0.214328
924.201743	0.213927
924.381465	0.213532
924.561169	0.213257
924.740854	0.213379
924.920522	0.213016
925.100171	0.211891
925.279802	0.211883
925.459414	0.211403
925.639009	0.211728
925.818585	0.210829
925.998143	0.210484
926.177683	0.210205
926.357205	0.209564
926.536708	0.209084
926.716193	0.208711
926.895660	0.207657
927.075109	0.206582
927.254539	0.205190
927.433951	0.204719
927.613345	0.204267
927.792721	0.203059
927.972079	0.202583
928.151418	0.202607
928.330739	0.202198
928.510042	0.201579
928.689327	0.201300
928.868593	0.200780
929.047841	0.200669
929.227071	0.200224
929.406283	0.200522
929.585476	0.199884
929.764652	0.198243
929.943809	0.198489
930.122948	0.198163
930.302068	0.197624
930.481171	0.197135
930.660255	0.195863
930.839321	0.195443
931.018369	0.194437
931.197398	0.194156
931.376409	0.193954
931.555402	0.193449
931.734377	0.192681
931.913334	0.192717
932.092272	0.192798
932.271192	0.192072
932.450094	0.191121
932.628978	0.190088
932.807844	0.188602
932.986691	0.188409
933.165520	0.186786
933.344331	0.185875
933.523123	0.184520
933.701898	0.183299
933.880654	0.182737
934.059392	0.181131
934.238111	0.181571
934.416813	0.180998
934.595496	0.179741
934.774161	0.180057
934.952808	0.180236
935.131437	0.179753
935.310047	0.179222
935.488639	0.178725
935.667213	0.178752
935.845769	0.177088
936.024306	0.176507
936.202825	0.176155
936.381326	0.175062
936.559809	0.173782
936.738274	0.172987
936.916720	0.171834
937.095148	0.171450
937.273558	0.171202
937.451950	0.171051
937.630323	0.169961
937.808678	0.169359
937.987015	0.168749
938.165334	0.167419
938.343635	0.167219
938.521917	0.167141
938.700181	0.166173
938.878427	0.165935
939.056655	0.164795
939.234864	0.164922
939.413055	0.164587
939.591228	0.163791
939.769383	0.163994
939.947519	0.162737
940.125638	0.161300
940.303738	0.160837
940.481820	0.159657
940.659883	0.159074
940.837929	0.158907
941.015956	0.158246
941.193965	0.157969
941.371955	0.157301
941.549928	0.157149
941.727882	0.157863
941.905818	0.157165
942.083736	0.156006
942.261636	0.155273
942.439517	0.155112
942.617380	0.154305
942.795225	0.153040
942.973052	0.153112
943.150860	0.152477
943.328651	0.150238
943.506423	0.149662
943.684176	0.148861
943.861912	0.149665
944.039629	0.148358
944.217328	0.147363
944.395009	0.146900
944.572672	0.145284
944.750317	0.144053
944.927943	0.143402
945.105551	0.141993
945.283141	0.142414
945.460712	0.140652
945.638265	0.139579
945.815801	0.139234
945.993317	0.138067
946.170816	0.137723
946.348297	0.137089
946.525759	0.138441
946.703203	0.138516
946.880629	0.137588
947.058036	0.136830
947.235425	0.136426
947.412797	0.135209
947.590149	0.135297
947.767484	0.134845
947.944800	0.134085
948.122099	0.132004
948.299379	0.131299
948.476640	0.130302
948.653884	0.130626
948.831109	0.130085
949.008316	0.128921
949.185505	0.127263
949.362676	0.126479
949.539828	0.125407
949.716962	0.125337
949.894078	0.125625
950.071176	0.124195
950.248256	0.123223
950.425317	0.122411
950.602360	0.121246
950.779385	0.120422
950.956391	0.120883
951.133380	0.119308
951.310350	0.117217
951.487302	0.116046
951.664235	0.117116
951.841151	0.115857
952.018048	0.113945
952.194927	0.115537
952.371788	0.117968
952.548631	0.114840
952.725455	0.115619
952.902261	0.116715
953.079049	0.115190
953.255819	0.115425
953.432570	0.115271
953.609303	0.115643
953.786018	0.114451
953.962715	0.112254
954.139394	0.112632
954.316054	0.113267
954.492696	0.113843
954.669320	0.113670
954.845926	0.112072
955.022513	0.111531
955.199083	0.111249
955.375634	0.110928
955.552166	0.110892
955.728681	0.109849
955.905177	0.108993
956.081655	0.106827
956.258115	0.105885
956.434557	0.105258
956.610980	0.105350
956.787385	0.104414
956.963772	0.103253
957.140141	0.102262
957.316492	0.102389
957.492824	0.102579
957.669138	0.101338
957.845434	0.100688
958.021712	0.099835
958.197971	0.099432
958.374212	0.098824
958.550435	0.099152
958.726640	0.098691
958.902826	0.098440
959.078995	0.097389
959.255145	0.098026
959.431277	0.100989
959.607390	0.100825
959.783486	0.101529
959.959563	0.104031
960.135622	0.104157
960.311662	0.103178
960.487685	0.103850
960.663689	0.102790
960.839675	0.101923
961.015643	0.099640
961.191593	0.101104
961.367524	0.100464
961.543437	0.097836
961.719332	0.098688
961.895209	0.099178
962.071067	0.098731
962.246907	0.099152
962.422730	0.101250
962.598533	0.101679
962.774319	0.100258
962.950086	0.100215
963.125835	0.100943
963.301566	0.098936
963.477279	0.097892
963.652973	0.097742
963.828650	0.099464
964.004308	0.097335
964.179947	0.097871
964.355569	0.097542
964.531172	0.096385
964.706757	0.096465
964.882324	0.096657
965.057873	0.097201
965.233403	0.097096
965.408916	0.096692
965.584410	0.096499
965.759885	0.097653
965.935343	0.099114
966.110782	0.099987
966.286203	0.100110
966.461606	0.098719
966.636991	0.098440
966.812357	0.100407
966.987705	0.099360
967.163035	0.102603
967.338347	0.101321
967.513641	0.101031
967.688916	0.100991
967.864173	0.100431
968.039412	0.100202
968.214632	0.101867
968.389835	0.099876
968.565019	0.099564
968.740185	0.096284
968.915333	0.095680
969.090462	0.095177
969.265573	0.092917
969.440667	0.094185
969.615741	0.095666
969.790798	0.094352
969.965836	0.093980
970.140856	0.093106
970.315858	0.095658
970.490842	0.095761
970.665808	0.094014
970.840755	0.094426
971.015684	0.093382
971.190595	0.091655
971.365487	0.094995
971.540362	0.095475
971.715218	0.097672
971.890056	0.098571
972.064875	0.097437
972.239677	0.097401
972.414460	0.097741
972.589225	0.098872
972.763972	0.100146
972.938700	0.096294
973.113411	0.096671
973.288103	0.094876
973.462777	0.092400
973.637432	0.093964
973.812070	0.094956
973.986689	0.094654
974.161290	0.095010
974.335873	0.093468
974.510437	0.096238
974.684984	0.097739
974.859512	0.098909
975.034022	0.098229
975.208513	0.095139
975.382987	0.095268
975.557442	0.094405
975.731879	0.094967
975.906298	0.096401
976.080698	0.094113
976.255080	0.090349
976.429445	0.087874
976.603790	0.089141
976.778118	0.091377
976.952427	0.092123
977.126719	0.092951
977.300992	0.090217
977.475246	0.089782
977.649483	0.090644
977.823701	0.092618
977.997901	0.093748
978.172083	0.094799
978.346247	0.095944
978.520392	0.095834
978.694519	0.096228
978.868628	0.097196
979.042719	0.096639
979.216791	0.096039
979.390845	0.097147
979.564882	0.098208
979.738899	0.098170
979.912899	0.095828
980.086880	0.095202
980.260843	0.096038
980.434788	0.095207
980.608715	0.095693
980.782623	0.097450
980.956514	0.097265
981.130386	0.098768
981.304240	0.098141
981.478075	0.100370
981.651892	0.099439
981.825692	0.099605
981.999472	0.099385
982.173235	0.099607
982.346980	0.097649
982.520706	0.098150
982.694414	0.097485
982.868104	0.095558
983.041775	0.094809
983.215428	0.096328
983.389064	0.096258
983.562680	0.097237
983.736279	0.096072
983.909860	0.096384
984.083422	0.095374
984.256966	0.092660
984.430491	0.092854
984.603999	0.092649
984.777488	0.092595
984.950959	0.091790
985.124412	0.092328
985.297847	0.094553
985.471263	0.095645
985.644661	0.094225
985.818041	0.095348
985.991403	0.097037
986.164747	0.096579
986.338072	0.096708
986.511379	0.097354
986.684668	0.097604
986.857938	0.096277
987.031191	0.094631
987.204425	0.096642
987.377641	0.097808
987.550839	0.098070
987.724018	0.099960
987.897179	0.100348
988.070322	0.101797
988.243447	0.100852
988.416554	0.101892
988.589642	0.102132
988.762712	0.100271
988.935764	0.099039
989.108798	0.098922
989.281813	0.097871
989.454811	0.097183
989.627790	0.097097
989.800751	0.097197
989.973693	0.098192
990.146617	0.097600
990.319524	0.099739
990.492412	0.100807
990.665281	0.098924
990.838133	0.099457
991.010966	0.099237
991.183781	0.099809
991.356578	0.101500
991.529356	0.099967
991.702117	0.100312
991.874859	0.099785
992.047583	0.100037
992.220288	0.100907
992.392976	0.100777
992.565645	0.100742
992.738296	0.098561
992.910929	0.097435
993.083543	0.097832
993.256139	0.099247
993.428718	0.098894
993.601277	0.099003
993.773819	0.098892
993.946342	0.098285
994.118848	0.097782
994.291335	0.096644
994.463803	0.097395
994.636254	0.098802
994.808686	0.098560
994.981100	0.098577
995.153496	0.098020
995.325874	0.098201
995.498233	0.097874
995.670574	0.099273
995.842897	0.099548
996.015202	0.098822
996.187488	0.098356
996.359757	0.098818
996.532007	0.098544
996.704239	0.098726
996.876452	0.097601
997.048648	0.097982
997.220825	0.098404
997.392984	0.098863
997.565124	0.097850
997.737247	0.095545
997.909351	0.094758
998.081437	0.095206
998.253505	0.095974
998.425554	0.097603
998.597586	0.098384
998.769599	0.095234
998.941594	0.095070
999.113571	0.095265
999.285529	0.096482
999.457469	0.096943
999.629391	0.096199
999.801295	0.095071
999.973181	0.094198
1000.145048	0.093371
1000.316897	0.095389
1000.488728	0.094914
1000.660541	0.094661
1000.832335	0.095620
1001.004111	0.095270
1001.175869	0.096700
1001.347609	0.095806
1001.519331	0.095539
1001.691034	0.095170
1001.862719	0.095095
1002.034386	0.095457
1002.206035	0.095513
1002.377665	0.093789
1002.549277	0.092986
1002.720871	0.092134
1002.892447	0.093007
1003.064004	0.093637
1003.235544	0.093796
1003.407065	0.094576
1003.578568	0.095257
1003.750052	0.096027
1003.921519	0.097672
1004.092967	0.096978
1004.264397	0.095920
1004.435809	0.094151
1004.607202	0.093936
1004.778577	0.092918
1004.949934	0.092281
1005.121273	0.091806
1005.292594	0.090596
1005.463896	0.087959
1005.635180	0.088993
1005.806446	0.090150
1005.977694	0.091649
1006.148923	0.089760
1006.320135	0.090704
1006.491328	0.091017
1006.662503	0.091963
1006.833659	0.092075
1007.004798	0.094711
1007.175918	0.094254
1007.347020	0.092459
1007.518103	0.093684
1007.689169	0.096076
1007.860216	0.097312
1008.031245	0.097017
1008.202256	0.096075
1008.373248	0.097096
1008.544223	0.095392
1008.715179	0.094339
1008.886117	0.095145
1009.057036	0.094179
1009.227938	0.092876
1009.398821	0.092643
1009.569686	0.093042
1009.740533	0.092947
1009.911361	0.090687
1010.082172	0.090727
1010.252964	0.092058
1010.423738	0.092162
1010.594493	0.090483
1010.765231	0.092541
1010.935950	0.091591
1011.106651	0.091400
1011.277334	0.093191
1011.447998	0.095746
1011.618645	0.096007
1011.789273	0.096485
1011.959882	0.097010
1012.130474	0.098715
1012.301048	0.097421
1012.471603	0.099063
1012.642140	0.098400
1012.812658	0.097429
1012.983159	0.096839
1013.153641	0.096318
1013.324105	0.098503
1013.494551	0.098539
1013.664979	0.098654
1013.835388	0.100944
1014.005779	0.099402
1014.176152	0.099267
1014.346507	0.098475
1014.516843	0.098771
1014.687162	0.101465
1014.857462	0.095615
1015.027744	0.096099
1015.198007	0.096723
1015.368252	0.093992
1015.538480	0.096160
1015.708689	0.095314
1015.878879	0.094764
1016.049052	0.093883
1016.219206	0.092172
1016.389342	0.095486
1016.559460	0.095091
1016.729559	0.093034
1016.899641	0.093151
1017.069704	0.091320
1017.239749	0.093007
1017.409775	0.094626
1017.579784	0.096423
1017.749774	0.096372
1017.919746	0.095282
1018.089700	0.095896
1018.259635	0.095570
1018.429553	0.095406
1018.599452	0.093566
1018.769333	0.093060
1018.939195	0.091713
1019.109040	0.091380
1019.278866	0.092746
1019.448674	0.093524
1019.618464	0.093516
1019.788235	0.095263
1019.957989	0.095073
1020.127724	0.094614
1020.297441	0.096054
1020.467139	0.097421
1020.636820	0.095912
1020.806482	0.095197
1020.976126	0.094780
1021.145752	0.093076
1021.315359	0.092967
1021.484948	0.094643
1021.654519	0.096170
1021.824072	0.092865
1021.993607	0.091010
1022.163123	0.091456
1022.332621	0.090131
1022.502101	0.090297
1022.671563	0.090153
1022.841007	0.089251
1023.010432	0.089012
1023.179839	0.089571
1023.349228	0.092167
1023.518598	0.091542
1023.687951	0.091708
1023.857285	0.091714
1024.026601	0.092817
1024.195899	0.093934
1024.365178	0.094482
1024.534439	0.093024
1024.703682	0.092545
1024.872907	0.091299
1025.042114	0.092314
1025.211302	0.092403
1025.380472	0.092371
1025.549624	0.090466
1025.718758	0.090358
1025.887873	0.089531
1026.056970	0.092121
1026.226049	0.091789
1026.395110	0.090594
1026.564153	0.093371
1026.733177	0.092493
1026.902183	0.092438
1027.071171	0.094247
1027.240141	0.093130
1027.409092	0.093852
1027.578026	0.092502
1027.746940	0.092568
1027.915837	0.093857
1028.084716	0.091505
1028.253576	0.091769
1028.422418	0.091568
1028.591242	0.091038
1028.760048	0.090559
1028.928835	0.089138
1029.097604	0.089035
1029.266355	0.090294
1029.435088	0.089782
1029.603803	0.090453
1029.772499	0.089148
1029.941177	0.090214
1030.109837	0.091111
1030.278478	0.091716
1030.447102	0.094113
1030.615707	0.093537
1030.784294	0.093514
1030.952863	0.093820
1031.121413	0.092846
1031.289945	0.094003
1031.458460	0.093172
1031.626955	0.091678
1031.795433	0.091733
1031.963892	0.090143
1032.132334	0.091608
1032.300756	0.090626
1032.469161	0.091942
1032.637548	0.092432
1032.805916	0.092360
1032.974266	0.091606
1033.142598	0.090504
1033.310911	0.091519
1033.479207	0.092075
1033.647484	0.091452
1033.815743	0.092859
1033.983983	0.092120
1034.152206	0.093691
1034.320410	0.092901
1034.488596	0.095038
1034.656764	0.095656
1034.824914	0.094980
1034.993045	0.095511
1035.161158	0.095815
1035.329253	0.094290
1035.497330	0.094130
1035.665388	0.093367
1035.833428	0.095790
1036.001450	0.095031
1036.169454	0.094836
1036.337440	0.094639
1036.505407	0.095088
1036.673356	0.093174
1036.841287	0.095081
1037.009200	0.095880
1037.177094	0.094108
1037.344970	0.093665
1037.512828	0.094588
1037.680668	0.097029
1037.848489	0.098278
1038.016293	0.096564
1038.184078	0.099134
1038.351845	0.098635
1038.519593	0.096763
1038.687324	0.096398
1038.855036	0.094822
1039.022730	0.092631
1039.190406	0.091066
1039.358063	0.089693
1039.525702	0.090136
1039.693323	0.089144
1039.860926	0.087563
1040.028511	0.087624
1040.196077	0.087719
1040.363625	0.089915
1040.531155	0.089440
1040.698667	0.089912
1040.866161	0.089990
1041.033636	0.090386
1041.201093	0.089815
1041.368532	0.090019
1041.535952	0.091319
1041.703355	0.091758
1041.870739	0.090056
1042.038105	0.090896
1042.205452	0.090102
1042.372782	0.090519
1042.540093	0.090564
1042.707386	0.089533
1042.874661	0.088796
1043.041918	0.088064
1043.209156	0.089009
1043.376376	0.089289
1043.543578	0.089368
1043.710762	0.089091
1043.877927	0.089918
1044.045074	0.089432
1044.212203	0.089578
1044.379314	0.089711
1044.546407	0.089863
1044.713481	0.089456
1044.880537	0.090441
1045.047575	0.091794
1045.214595	0.092117
1045.381596	0.091304
1045.548579	0.090860
1045.715544	0.091424
1045.882491	0.090679
1046.049420	0.088830
1046.216330	0.089111
1046.383222	0.089318
1046.550096	0.089557
1046.716951	0.090021
1046.883789	0.087908
1047.050608	0.089242
1047.217409	0.088672
1047.384192	0.089790
1047.550956	0.091433
1047.717703	0.091179
1047.884431	0.089326
1048.051140	0.087582
1048.217832	0.087053
1048.384505	0.089159
1048.551161	0.087598
1048.717798	0.087782
1048.884416	0.088263
1049.051017	0.088623
1049.217599	0.088221
1049.384163	0.088717
1049.550709	0.088365
1049.717237	0.089914
1049.883746	0.089291
1050.050237	0.090478
1050.216710	0.091543
1050.383165	0.091519
1050.549601	0.091143
1050.716019	0.090085
1050.882420	0.089362
1051.048801	0.090219
1051.215165	0.088603
1051.381510	0.089240
1051.547837	0.089181
1051.714146	0.089055
1051.880437	0.088329
1052.046709	0.089216
1052.212964	0.091641
1052.379200	0.091598
1052.545417	0.090598
1052.711617	0.091291
1052.877798	0.091732
1053.043961	0.091017
1053.210106	0.090126
1053.376233	0.093454
1053.542341	0.092278
1053.708432	0.092915
1053.874504	0.093781
1054.040557	0.095412
1054.206593	0.093745
1054.372610	0.092026
1054.538609	0.091322
1054.704590	0.091070
1054.870553	0.088039
1055.036497	0.088288
1055.202424	0.085735
1055.368331	0.084934
1055.534221	0.084970
1055.700093	0.087205
1055.865946	0.085583
1056.031781	0.086849
1056.197598	0.086679
1056.363397	0.086510
1056.529177	0.085100
1056.694939	0.085254
1056.860683	0.085242
1057.026409	0.083604
1057.192116	0.084119
1057.357806	0.085972
1057.523477	0.086563
1057.689130	0.087822
1057.854764	0.085473
1058.020381	0.087259
1058.185979	0.086863
1058.351559	0.087905
1058.517120	0.089503
1058.682664	0.088144
1058.848189	0.088303
1059.013696	0.085046
1059.179185	0.084181
1059.344656	0.086734
1059.510108	0.086119
1059.675542	0.086879
1059.840958	0.086139
1060.006356	0.085898
1060.171735	0.086772
1060.337096	0.088407
1060.502439	0.089975
1060.667764	0.090854
1060.833071	0.093070
1060.998359	0.091885
1061.163629	0.091575
1061.328881	0.092341
1061.494115	0.091843
1061.659330	0.090915
1061.824527	0.089290
1061.989706	0.089402
1062.154867	0.089422
1062.320010	0.086372
1062.485134	0.088917
1062.650240	0.087790
1062.815328	0.088771
1062.980398	0.089989
1063.145449	0.088561
1063.310482	0.090376
1063.475497	0.091506
1063.640494	0.091138
1063.805473	0.094694
1063.970433	0.093771
1064.135375	0.095018
1064.300299	0.093753
1064.465204	0.093340
1064.630092	0.094313
1064.794961	0.093507
1064.959812	0.092853
1065.124645	0.092191
1065.289459	0.091016
1065.454256	0.091156
1065.619034	0.090879
1065.783793	0.089439
1065.948535	0.090047
1066.113258	0.091160
1066.277964	0.091962
1066.442651	0.091134
1066.607319	0.089913
1066.771970	0.089707
1066.936602	0.087498
1067.101216	0.087836
1067.265812	0.089044
1067.430389	0.087487
1067.594949	0.085848
1067.759490	0.085955
1067.924013	0.087021
1068.088518	0.087799
1068.253004	0.087294
1068.417472	0.090430
1068.581922	0.090124
1068.746354	0.089728
1068.910768	0.090135
1069.075163	0.090942
1069.239540	0.089820
1069.403899	0.090659
1069.568240	0.091601
1069.732562	0.092005
1069.896866	0.092739
1070.061152	0.093806
1070.225420	0.092091
1070.389670	0.092802
1070.553901	0.095037
1070.718114	0.094130
1070.882309	0.094096
1071.046486	0.094753
1071.210644	0.095407
1071.374784	0.092827
1071.538906	0.092228
1071.703010	0.095957
1071.867096	0.097539
1072.031163	0.095469
1072.195212	0.096048
1072.359243	0.094810
1072.523256	0.094507
1072.687250	0.094174
1072.851226	0.095980
1073.015184	0.097388
1073.179124	0.096544
1073.343045	0.094739
1073.506949	0.095007
1073.670834	0.094727
1073.834701	0.095415
1073.998549	0.095371
1074.162380	0.094561
1074.326192	0.091873
1074.489986	0.089914
1074.653761	0.089228
1074.817519	0.087081
1074.981258	0.086429
1075.144979	0.088156
1075.308682	0.087112
1075.472367	0.087284
1075.636033	0.087002
1075.799681	0.089210
1075.963311	0.091411
1076.126923	0.093061
1076.290516	0.095149
1076.454092	0.096454
1076.617649	0.096068
1076.781187	0.094971
1076.944708	0.091752
1077.108210	0.092891
1077.271695	0.093878
1077.435160	0.091650
1077.598608	0.090547
1077.762038	0.092731
1077.925449	0.090822
1078.088842	0.090132
1078.252217	0.092875
1078.415573	0.096817
1078.578912	0.096702
1078.742232	0.095254
1078.905534	0.095693
1079.068817	0.093837
1079.232083	0.091445
1079.395330	0.093584
1079.558559	0.093045
1079.721770	0.093653
1079.884962	0.094821
1080.048136	0.093401
1080.211293	0.094141
1080.374430	0.095639
1080.537550	0.098969
1080.700651	0.098342
1080.863735	0.095556
1081.026800	0.095246
1081.189846	0.091608
1081.352875	0.088186
1081.515885	0.089447
1081.678877	0.088334
1081.841851	0.087247
1082.004807	0.084315
1082.167744	0.085162
1082.330663	0.086545
1082.493564	0.087861
1082.656447	0.088755
1082.819312	0.090357
1082.982158	0.088823
1083.144986	0.089867
1083.307796	0.090802
1083.470587	0.090266
1083.633361	0.089582
1083.796116	0.091161
1083.958853	0.090292
1084.121571	0.089439
1084.284272	0.088894
1084.446954	0.089267
1084.609618	0.087989
1084.772264	0.086676
1084.934892	0.088573
1085.097501	0.086016
1085.260092	0.084397
1085.422665	0.084835
1085.585220	0.088352
1085.747756	0.088979
1085.910274	0.087788
1086.072774	0.089891
1086.235256	0.090853
1086.397720	0.089955
1086.560165	0.092174
1086.722592	0.091040
1086.885001	0.087483
1087.047392	0.088605
1087.209764	0.085999
1087.372119	0.084991
1087.534455	0.083977
1087.696772	0.084216
1087.859072	0.084342
1088.021353	0.081707
1088.183616	0.083536
1088.345861	0.085225
1088.508088	0.081928
1088.670296	0.081339
1088.832486	0.085160
1088.994658	0.083925
1089.156812	0.082364
1089.318948	0.082261
1089.481065	0.085927
1089.643164	0.084215
1089.805245	0.085840
1089.967308	0.086979
1090.129352	0.089898
1090.291378	0.088912
1090.453386	0.090868
1090.615376	0.091383
1090.777347	0.089743
1090.939301	0.088784
1091.101236	0.090767
1091.263153	0.089274
1091.425051	0.089310
1091.586932	0.088484
1091.748794	0.087429
1091.910638	0.084597
1092.072463	0.087646
1092.234271	0.090743
1092.396060	0.092972
1092.557831	0.093427
1092.719584	0.094049
1092.881319	0.092565
1093.043035	0.093813
1093.204733	0.093072
1093.366413	0.097979
1093.528075	0.095565
1093.689718	0.094560
1093.851343	0.090701
1094.012950	0.089553
1094.174539	0.086422
1094.336110	0.089421
1094.497662	0.088661
1094.659196	0.087982
1094.820712	0.082445
1094.982210	0.082921
1095.143689	0.084333
1095.305151	0.087567
1095.466594	0.087604
1095.628018	0.095699
1095.789425	0.091861
1095.950813	0.092528
1096.112183	0.096460
1096.273535	0.097030
1096.434869	0.096548
1096.596184	0.091793
1096.757482	0.090801
1096.918761	0.091657
1097.080021	0.085568
1097.241264	0.088843
1097.402488	0.089996
1097.563694	0.087370
1097.724882	0.090027
1097.886052	0.091081
1098.047203	0.095768
1098.208336	0.096295
1098.369451	0.095235
1098.530548	0.098706
1098.691627	0.101615
1098.852687	0.099117
1099.013729	0.102235
1099.174753	0.102425
1099.335758	0.102450
1099.496746	0.100367
1099.657715	0.099477
1099.818666	0.099098
1099.979599	0.097398
1100.140513	0.094706
1100.301409	0.095978
1100.462287	0.091169
1100.623147	0.093541
1100.783989	0.090728
1100.944812	0.092829
1101.105617	0.096081
1101.266404	0.095081
1101.427173	0.094892
1101.587923	0.094692
1101.748656	0.096163
1101.909370	0.099144
1102.070066	0.096240
1102.230743	0.096393
1102.391403	0.096776
1102.552044	0.095543
1102.712667	0.093541
1102.873271	0.097531
1103.033858	0.097117
1103.194426	0.093847
1103.354976	0.089098
1103.515508	0.087609
1103.676021	0.090622
1103.836517	0.087708
1103.996994	0.085500
1104.157453	0.090080
1104.317893	0.086481
1104.478316	0.086984
1104.638720	0.085990
1104.799106	0.087260
1104.959474	0.087309
1105.119823	0.085540
1105.280155	0.087366
1105.440468	0.087276
1105.600763	0.087057
1105.761039	0.088734
1105.921298	0.087080
1106.081538	0.090061
1106.241760	0.092287
1106.401964	0.088682
1106.562149	0.088710
1106.722316	0.087923
1106.882465	0.085989
1107.042596	0.086296
1107.202709	0.083451
1107.362803	0.082999
1107.522879	0.082885
1107.682937	0.085906
1107.842977	0.091981
1108.002999	0.094609
1108.163002	0.096486
1108.322987	0.097981
1108.482954	0.097172
1108.642902	0.096002
1108.802833	0.096618
1108.962745	0.093775
1109.122639	0.088952
1109.282515	0.085283
1109.442372	0.082937
1109.602211	0.078471
1109.762032	0.080299
1109.921835	0.076510
1110.081620	0.076531
1110.241386	0.076248
1110.401134	0.076816
1110.560864	0.079656
1110.720576	0.081905
1110.880269	0.080014
1111.039945	0.083870
1111.199602	0.080328
1111.359240	0.082859
1111.518861	0.087476
1111.678463	0.085978
1111.838047	0.086988
1111.997613	0.087235
1112.157161	0.087543
1112.316690	0.089568
1112.476202	0.091547
1112.635695	0.092495
1112.795169	0.096658
1112.954626	0.093958
1113.114064	0.093054
1113.273484	0.094260
1113.432886	0.092345
1113.592270	0.093403
1113.751635	0.089162
1113.910983	0.087133
1114.070312	0.091312
1114.229622	0.087518
1114.388915	0.086929
1114.548189	0.091066
1114.707445	0.089978
1114.866683	0.089041
1115.025903	0.088949
1115.185104	0.092208
1115.344287	0.089445
1115.503452	0.084271
1115.662599	0.084503
1115.821727	0.082151
1115.980838	0.079185
1116.139930	0.078750
1116.299004	0.080875
1116.458059	0.077273
1116.617097	0.078126
1116.776116	0.081914
1116.935117	0.087202
1117.094099	0.087347
1117.253064	0.086889
1117.412010	0.086517
1117.570938	0.087290
1117.729848	0.087058
1117.888740	0.085221
1118.047613	0.083045
1118.206468	0.079202
1118.365305	0.076545
1118.524124	0.071734
1118.682924	0.079728
1118.841707	0.083251
1119.000471	0.080063
1119.159216	0.082564
1119.317944	0.084882
1119.476653	0.088699
1119.635344	0.091656
1119.794017	0.090421
1119.952672	0.092824
1120.111308	0.090008
1120.269927	0.091048
1120.428527	0.094135
1120.587108	0.093220
1120.745672	0.094283
1120.904217	0.092015
1121.062744	0.089434
1121.221253	0.089483
1121.379744	0.094362
1121.538216	0.093909
1121.696671	0.089861
1121.855107	0.091364
1122.013524	0.088487
1122.171924	0.086221
1122.330305	0.084745
1122.488668	0.082938
1122.647013	0.083171
1122.805340	0.083911
1122.963648	0.081662
1123.121938	0.082411
1123.280210	0.078026
1123.438464	0.079222
1123.596700	0.079026
1123.754917	0.077116
1123.913116	0.080663
1124.071297	0.083455
1124.229459	0.082371
1124.387604	0.082399
1124.545730	0.082981
1124.703838	0.082418
1124.861928	0.079971
1125.019999	0.084728
1125.178052	0.089668
1125.336088	0.091667
1125.494104	0.090122
1125.652103	0.088985
1125.810083	0.090355
1125.968045	0.088479
1126.125989	0.085887
1126.283915	0.086287
1126.441823	0.086142
1126.599712	0.086751
1126.757583	0.082448
1126.915436	0.078885
1127.073270	0.074173
1127.231087	0.071797
1127.388885	0.073430
1127.546665	0.078294
1127.704426	0.078446
1127.862170	0.080265
1128.019895	0.075008
1128.177602	0.076160
1128.335291	0.080387
1128.492961	0.079625
1128.650614	0.079829
1128.808248	0.077201
1128.965864	0.079067
1129.123461	0.078793
1129.281041	0.069975
1129.438602	0.075114
1129.596145	0.075026
1129.753670	0.075942
1129.911176	0.081319
1130.068665	0.086872
1130.226135	0.088194
1130.383587	0.088944
1130.541020	0.087842
1130.698436	0.090635
1130.855833	0.085654
1131.013212	0.085821
1131.170573	0.080409
1131.327915	0.079891
1131.485239	0.072949
1131.642545	0.072994
1131.799833	0.075462
1131.957103	0.075748
1132.114354	0.074402
1132.271588	0.076066
1132.428803	0.077414
1132.585999	0.084894
1132.743178	0.082090
1132.900338	0.084594
1133.057480	0.088649
1133.214604	0.084665
1133.371710	0.085240
1133.528797	0.086576
1133.685866	0.089158
1133.842917	0.082222
1133.999950	0.073824
1134.156964	0.072595
1134.313960	0.070559
1134.470938	0.065407
1134.627898	0.067345
1134.784840	0.068001
1134.941763	0.071410
1135.098668	0.072763
1135.255555	0.076219
1135.412424	0.078332
1135.569274	0.084336
1135.726107	0.081977
1135.882921	0.084088
1136.039716	0.077397
1136.196494	0.077688
1136.353253	0.072815
1136.509995	0.066385
1136.666717	0.064053
1136.823422	0.069817
1136.980109	0.063791
1137.136777	0.067626
1137.293427	0.064236
1137.450059	0.066293
1137.606672	0.061207
1137.763267	0.065658
1137.919844	0.064666
1138.076403	0.064653
1138.232944	0.061478
1138.389466	0.064412
1138.545971	0.064733
1138.702457	0.063816
1138.858924	0.063812
1139.015374	0.069972
1139.171805	0.066980
1139.328218	0.070669
1139.484613	0.072512
1139.640990	0.069923
1139.797348	0.073058
1139.953688	0.073933
1140.110010	0.075125
1140.266314	0.075261
1140.422600	0.068427
1140.578867	0.070361
1140.735116	0.071459
1140.891347	0.070742
1141.047559	0.072533
1141.203754	0.069546
1141.359930	0.069206
1141.516088	0.069852
1141.672228	0.073828
1141.828349	0.076537
1141.984452	0.076374
1142.140537	0.071866
1142.296604	0.071921
1142.452653	0.064535
1142.608683	0.061417
1142.764695	0.061674
1142.920689	0.061190
1143.076665	0.057525
1143.232622	0.059154
1143.388562	0.062581
1143.544483	0.061076
1143.700385	0.059912
1143.856270	0.065576
1144.012136	0.066945
1144.167985	0.066594
1144.323814	0.069406
1144.479626	0.071319
1144.635420	0.070041
1144.791195	0.060874
1144.946952	0.065818
1145.102691	0.066208
1145.258411	0.064062
1145.414113	0.066537
1145.569798	0.066647
1145.725463	0.065627
1145.881111	0.059363
1146.036741	0.057585
1146.192352	0.061059
1146.347945	0.067442
1146.503519	0.069571
1146.659076	0.075710
1146.814614	0.073770
1146.970134	0.072489
1147.125636	0.073467
1147.281120	0.082381
1147.436585	0.086177
1147.592032	0.087318
1147.747461	0.074233
1147.902872	0.075053
1148.058265	0.074973
1148.213639	0.077143
1148.368995	0.079525
1148.524333	0.069741
1148.679653	0.065983
1148.834954	0.066999
1148.990237	0.064669
1149.145502	0.072707
1149.300749	0.071103
1149.455977	0.066419
1149.611188	0.065799
1149.766380	0.061685
1149.921553	0.068197
1150.076709	0.072306
1150.231846	0.073504
1150.386966	0.072190
1150.542066	0.071689
1150.697149	0.074290
1150.852214	0.074734
1151.007260	0.075304
1151.162288	0.078666
1151.317298	0.080083
1151.472289	0.070074
1151.627263	0.071803
1151.782218	0.070080
1151.937155	0.071228
1152.092073	0.067788
1152.246974	0.070637
1152.401856	0.064750
1152.556720	0.066092
1152.711566	0.061027
1152.866393	0.066614
1153.021203	0.063894
1153.175994	0.066181
1153.330767	0.062801
1153.485521	0.060788
1153.640258	0.052454
1153.794976	0.055383
1153.949676	0.046983
1154.104358	0.054007
1154.259021	0.054890
1154.413667	0.056853
1154.568294	0.058386
1154.722903	0.056017
1154.877493	0.051973
1155.032066	0.057052
1155.186620	0.052142
1155.341156	0.056712
1155.495674	0.052360
1155.650173	0.044525
1155.804654	0.037975
1155.959118	0.040685
1156.113562	0.047825
1156.267989	0.053081
1156.422397	0.051382
1156.576788	0.061742
1156.731160	0.062515
1156.885513	0.058505
1157.039849	0.062875
1157.194166	0.061045
1157.348465	0.053388
1157.502746	0.049226
1157.657009	0.045438
1157.811253	0.044577
1157.965479	0.037761
1158.119687	0.039062
1158.273877	0.047642
1158.428048	0.045326
1158.582201	0.053414
1158.736337	0.065302
1158.890453	0.068266
1159.044552	0.072151
1159.198632	0.075707
1159.352694	0.076103
1159.506738	0.070586
1159.660764	0.071015
1159.814771	0.076066
1159.968761	0.077915
1160.122732	0.072852
1160.276685	0.068169
1160.430619	0.066624
1160.584535	0.067693
1160.738434	0.065407
1160.892313	0.063814
1161.046175	0.054442
1161.200019	0.048996
1161.353844	0.037598
1161.507651	0.038573
1161.661440	0.037868
1161.815210	0.042146
1161.968962	0.035965
1162.122697	0.028743
1162.276412	0.032263
1162.430110	0.034748
1162.583789	0.039146
1162.737451	0.041971
1162.891094	0.038534
1163.044718	0.041320
1163.198325	0.036733
1163.351913	0.037992
1163.505483	0.045626
1163.659035	0.035959
1163.812569	0.030516
1163.966084	0.030517
1164.119581	0.031336
1164.273060	0.028554
1164.426521	0.025957
1164.579964	0.026294
1164.733388	0.031931
1164.886794	0.035313
1165.040182	0.040412
1165.193551	0.043336
1165.346903	0.037703
1165.500236	0.034079
1165.653551	0.037408
1165.806848	0.044780
1165.960126	0.042013
1166.113386	0.036615
1166.266628	0.037296
1166.419852	0.039418
1166.573058	0.041549
1166.726245	0.044116
1166.879414	0.054293
1167.032565	0.052710
1167.185698	0.056379
1167.338812	0.056105
1167.491909	0.056960
1167.644987	0.043219
1167.798046	0.047019
1167.951088	0.051883
1168.104111	0.056024
1168.257117	0.046358
1168.410103	0.039028
1168.563072	0.032120
1168.716023	0.031507
1168.868955	0.032625
1169.021869	0.041889
1169.174765	0.037353
1169.327642	0.036508
1169.480501	0.041374
1169.633343	0.046300
1169.786165	0.046806
1169.938970	0.034755
1170.091757	0.043165
1170.244525	0.046327
1170.397275	0.048793
1170.550007	0.053536
1170.702720	0.043003
1170.855415	0.036373
1171.008092	0.028618
1171.160751	0.027664
1171.313392	0.026254
1171.466014	0.061397
1171.618619	-0.016744
1171.771205	-0.016744
1171.923772	-0.016744
