sample name	sample
index	177
start time	 02-18-2021  11:01:29 AM


Wavelength (nm)	Absorbance
494.344910	0.064611
494.563924	0.064611
494.782919	0.064611
495.001897	-0.184186
495.220856	-0.083225
495.439797	-0.087160
495.658719	-0.084921
495.877624	-0.074374
496.096510	-0.061582
496.315378	-0.079920
496.534227	-0.050345
496.753059	-0.013654
496.971872	0.013748
497.190667	0.134355
497.409444	0.161315
497.628203	0.167375
497.846943	0.168284
498.065665	0.171478
498.284369	0.173155
498.503055	0.171772
498.721723	0.172725
498.940372	0.172931
499.159003	0.171823
499.377616	0.172074
499.596210	0.171982
499.814787	0.171283
500.033345	0.170937
500.251885	0.171055
500.470406	0.172509
500.688910	0.171852
500.907395	0.172330
501.125862	0.174105
501.344311	0.172531
501.562742	0.172177
501.781154	0.172845
501.999548	0.174224
502.217924	0.175269
502.436282	0.175724
502.654621	0.176891
502.872942	0.176527
503.091245	0.176632
503.309530	0.178077
503.527797	0.179631
503.746045	0.179476
503.964275	0.179162
504.182487	0.178864
504.400681	0.177818
504.618856	0.177395
504.837013	0.178630
505.055152	0.178093
505.273273	0.177543
505.491376	0.175758
505.709460	0.175929
505.927526	0.175637
506.145574	0.175693
506.363604	0.176234
506.581615	0.176741
506.799608	0.175637
507.017583	0.175007
507.235540	0.174730
507.453478	0.174624
507.671399	0.174811
507.889301	0.174941
508.107185	0.175485
508.325050	0.175271
508.542898	0.175071
508.760727	0.175787
508.978538	0.176939
509.196330	0.178405
509.414105	0.179639
509.631861	0.179879
509.849599	0.179433
510.067319	0.178956
510.285021	0.179799
510.502704	0.179280
510.720369	0.179239
510.938016	0.179095
511.155645	0.178809
511.373255	0.179196
511.590848	0.179130
511.808422	0.179785
512.025977	0.180592
512.243515	0.180872
512.461034	0.182497
512.678536	0.183147
512.896018	0.183892
513.113483	0.183007
513.330930	0.183558
513.548358	0.184224
513.765768	0.184543
513.983160	0.184745
514.200533	0.185089
514.417889	0.184183
514.635226	0.184297
514.852545	0.183098
515.069845	0.184031
515.287128	0.183038
515.504392	0.183488
515.721638	0.183490
515.938866	0.183628
516.156075	0.183386
516.373267	0.184117
516.590440	0.184672
516.807594	0.186697
517.024731	0.186777
517.241850	0.187020
517.458950	0.187149
517.676032	0.187890
517.893095	0.188667
518.110141	0.189069
518.327168	0.188830
518.544177	0.188640
518.761168	0.188223
518.978141	0.188697
519.195095	0.189693
519.412031	0.190613
519.628949	0.190345
519.845849	0.190146
520.062731	0.190196
520.279594	0.190899
520.496439	0.190676
520.713266	0.189965
520.930074	0.189352
521.146865	0.189822
521.363637	0.189518
521.580391	0.189534
521.797127	0.189464
522.013844	0.189762
522.230543	0.189530
522.447224	0.190115
522.663887	0.190286
522.880532	0.191588
523.097158	0.191488
523.313766	0.191581
523.530356	0.192049
523.746928	0.192581
523.963481	0.192717
524.180017	0.193272
524.396534	0.193324
524.613032	0.194006
524.829513	0.193856
525.045975	0.194391
525.262420	0.194286
525.478845	0.194727
525.695253	0.194960
525.911643	0.195942
526.128014	0.195762
526.344367	0.195805
526.560702	0.196495
526.777018	0.196845
526.993316	0.196641
527.209597	0.197297
527.425858	0.197761
527.642102	0.198550
527.858328	0.198586
528.074535	0.198987
528.290724	0.200101
528.506894	0.199655
528.723047	0.200074
528.939181	0.200278
529.155297	0.200094
529.371395	0.199907
529.587475	0.199414
529.803536	0.199369
530.019579	0.200080
530.235604	0.199897
530.451611	0.200912
530.667600	0.200894
530.883570	0.201149
531.099522	0.202331
531.315456	0.202795
531.531372	0.203039
531.747269	0.202426
531.963148	0.202825
532.179009	0.203304
532.394852	0.202933
532.610676	0.203656
532.826482	0.204202
533.042271	0.203898
533.258040	0.203795
533.473792	0.204178
533.689525	0.204964
533.905240	0.205006
534.120937	0.205096
534.336616	0.205741
534.552277	0.205409
534.767919	0.205442
534.983543	0.205740
535.199149	0.206681
535.414736	0.207233
535.630306	0.207997
535.845857	0.208479
536.061390	0.208897
536.276904	0.209239
536.492401	0.210032
536.707879	0.210252
536.923339	0.210305
537.138781	0.210347
537.354204	0.210450
537.569610	0.210305
537.784997	0.210250
538.000366	0.210723
538.215716	0.211166
538.431049	0.211101
538.646363	0.211138
538.861659	0.211833
539.076937	0.212265
539.292196	0.212723
539.507438	0.213291
539.722661	0.213711
539.937866	0.214455
540.153052	0.214855
540.368221	0.215343
540.583371	0.216333
540.798503	0.216453
541.013617	0.215985
541.228712	0.216240
541.443789	0.216217
541.658848	0.215850
541.873889	0.215599
542.088912	0.215884
542.303916	0.216549
542.518902	0.216260
542.733870	0.217362
542.948820	0.217926
543.163752	0.218679
543.378665	0.219119
543.593560	0.219949
543.808437	0.220475
544.023295	0.220676
544.238136	0.220687
544.452958	0.221789
544.667762	0.221856
544.882548	0.222393
545.097315	0.221730
545.312064	0.221604
545.526795	0.222023
545.741508	0.222437
545.956203	0.222783
546.170879	0.222822
546.385537	0.222754
546.600177	0.222440
546.814799	0.222538
547.029402	0.223016
547.243988	0.223630
547.458555	0.223805
547.673103	0.223583
547.887634	0.223720
548.102146	0.223836
548.316640	0.223895
548.531116	0.223858
548.745574	0.224562
548.960013	0.225090
549.174435	0.225984
549.388838	0.226311
549.603222	0.226797
549.817589	0.226988
550.031937	0.227920
550.246267	0.228463
550.460579	0.229048
550.674873	0.228868
550.889148	0.229576
551.103405	0.228730
551.317644	0.229324
551.531865	0.229331
551.746068	0.229349
551.960252	0.229449
552.174418	0.229663
552.388566	0.230396
552.602696	0.231045
552.816807	0.230300
553.030900	0.230979
553.244975	0.230646
553.459032	0.230655
553.673070	0.230876
553.887091	0.230376
554.101093	0.230741
554.315077	0.230694
554.529042	0.230350
554.742990	0.231339
554.956919	0.231824
555.170830	0.232281
555.384722	0.232830
555.598597	0.233385
555.812453	0.234373
556.026291	0.233976
556.240111	0.233731
556.453913	0.234690
556.667696	0.234668
556.881461	0.234689
557.095208	0.235270
557.308937	0.235664
557.522647	0.235907
557.736339	0.235495
557.950013	0.236286
558.163669	0.236960
558.377307	0.236708
558.590926	0.236778
558.804527	0.237509
559.018110	0.236772
559.231675	0.236704
559.445221	0.236860
559.658749	0.237583
559.872259	0.237531
560.085751	0.237759
560.299225	0.238347
560.512680	0.238945
560.726117	0.239051
560.939536	0.240128
561.152937	0.240284
561.366319	0.240459
561.579683	0.240591
561.793029	0.241116
562.006357	0.241152
562.219667	0.240855
562.432958	0.240597
562.646231	0.240383
562.859486	0.240230
563.072723	0.240174
563.285941	0.240157
563.499141	0.239824
563.712323	0.239614
563.925487	0.239651
564.138632	0.239737
564.351760	0.239935
564.564869	0.240417
564.777960	0.240660
564.991032	0.241068
565.204087	0.241685
565.417123	0.242442
565.630141	0.242586
565.843140	0.243329
566.056122	0.243985
566.269085	0.244490
566.482030	0.244546
566.694957	0.244763
566.907866	0.245253
567.120756	0.245520
567.333628	0.245506
567.546482	0.245776
567.759318	0.245829
567.972135	0.245549
568.184935	0.245498
568.397716	0.245762
568.610478	0.245954
568.823223	0.246149
569.035949	0.246445
569.248657	0.246877
569.461347	0.247320
569.674019	0.247242
569.886672	0.247933
570.099308	0.248539
570.311925	0.248762
570.524523	0.249031
570.737104	0.249216
570.949666	0.249123
571.162210	0.249084
571.374736	0.249286
571.587244	0.249733
571.799733	0.249660
572.012205	0.249330
572.224658	0.249907
572.437092	0.249899
572.649509	0.250196
572.861907	0.250196
573.074287	0.250593
573.286649	0.250253
573.498993	0.250239
573.711318	0.250405
573.923625	0.250834
574.135914	0.250622
574.348185	0.250755
574.560438	0.250442
574.772672	0.250342
574.984888	0.250391
575.197086	0.250714
575.409266	0.250238
575.621427	0.250695
575.833570	0.250755
576.045695	0.250747
576.257802	0.251315
576.469890	0.251682
576.681961	0.252326
576.894013	0.252592
577.106046	0.252744
577.318062	0.253519
577.530059	0.253416
577.742039	0.253037
577.954000	0.253316
578.165942	0.253240
578.377867	0.253330
578.589773	0.253616
578.801661	0.253591
579.013531	0.254030
579.225382	0.254261
579.437216	0.254215
579.649031	0.254879
579.860828	0.254774
580.072606	0.255146
580.284367	0.255443
580.496109	0.255390
580.707833	0.255623
580.919539	0.255652
581.131227	0.256197
581.342896	0.256896
581.554547	0.257404
581.766180	0.258160
581.977795	0.258099
582.189391	0.258406
582.400969	0.258465
582.612529	0.258735
582.824071	0.259095
583.035595	0.258979
583.247100	0.258851
583.458587	0.258655
583.670056	0.258541
583.881506	0.258947
584.092939	0.259081
584.304353	0.259736
584.515749	0.260407
584.727127	0.261041
584.938486	0.261117
585.149828	0.261516
585.361151	0.262225
585.572456	0.262453
585.783742	0.262613
585.995011	0.262751
586.206261	0.262826
586.417493	0.262590
586.628706	0.262391
586.839902	0.262528
587.051079	0.262967
587.262238	0.263061
587.473379	0.263422
587.684502	0.263842
587.895606	0.263674
588.106692	0.263444
588.317760	0.264048
588.528810	0.264364
588.739841	0.264874
588.950855	0.264713
589.161850	0.264399
589.372827	0.264392
589.583785	0.264110
589.794726	0.264912
590.005648	0.265680
590.216552	0.265258
590.427437	0.265101
590.638305	0.265821
590.849154	0.265904
591.059985	0.266491
591.270798	0.266771
591.481592	0.267425
591.692369	0.267588
591.903127	0.267486
592.113867	0.267695
592.324588	0.268346
592.535292	0.267848
592.745977	0.268110
592.956644	0.267885
593.167293	0.268062
593.377923	0.268023
593.588536	0.267973
593.799130	0.268338
594.009706	0.268543
594.220263	0.268633
594.430803	0.268467
594.641324	0.268940
594.851827	0.269219
595.062312	0.269158
595.272778	0.269317
595.483227	0.269263
595.693657	0.269350
595.904069	0.269707
596.114462	0.269676
596.324838	0.270412
596.535195	0.270495
596.745534	0.271003
596.955855	0.271548
597.166157	0.271794
597.376441	0.272253
597.586707	0.272650
597.796955	0.272966
598.007185	0.273431
598.217396	0.273762
598.427589	0.274149
598.637764	0.274210
598.847921	0.274461
599.058060	0.274882
599.268180	0.275057
599.478282	0.275002
599.688366	0.275472
599.898431	0.275446
600.108479	0.275467
600.318508	0.275644
600.528519	0.275977
600.738511	0.275864
600.948486	0.276148
601.158442	0.276584
601.368380	0.276849
601.578300	0.276977
601.788202	0.276951
601.998085	0.277016
602.207950	0.276986
602.417797	0.277092
602.627626	0.277542
602.837436	0.277464
603.047228	0.277219
603.257002	0.277150
603.466758	0.276957
603.676496	0.277660
603.886215	0.278014
604.095916	0.278077
604.305599	0.278399
604.515264	0.278472
604.724910	0.278702
604.934538	0.279098
605.144148	0.279764
605.353740	0.280166
605.563314	0.280079
605.772869	0.280200
605.982406	0.280393
606.191925	0.280829
606.401425	0.281312
606.610908	0.281543
606.820372	0.281502
607.029818	0.281453
607.239246	0.281360
607.448655	0.281577
607.658047	0.281680
607.867420	0.281944
608.076775	0.281721
608.286111	0.281323
608.495430	0.281516
608.704730	0.281595
608.914012	0.281529
609.123275	0.281762
609.332521	0.282056
609.541748	0.282315
609.750957	0.282293
609.960148	0.282310
610.169321	0.282918
610.378475	0.283106
610.587611	0.283866
610.796729	0.284062
611.005829	0.284211
611.214910	0.284070
611.423974	0.284168
611.633019	0.284549
611.842045	0.284704
612.051054	0.284596
612.260044	0.284597
612.469017	0.284657
612.677970	0.284780
612.886906	0.284822
613.095824	0.285089
613.304723	0.285129
613.513604	0.285046
613.722467	0.285295
613.931311	0.285689
614.140138	0.285852
614.348946	0.285821
614.557736	0.286235
614.766507	0.286516
614.975261	0.286617
615.183996	0.286815
615.392713	0.287200
615.601412	0.287310
615.810092	0.287076
616.018754	0.286966
616.227399	0.287305
616.436024	0.287341
616.644632	0.287562
616.853222	0.288072
617.061793	0.287709
617.270346	0.287669
617.478880	0.287940
617.687397	0.288312
617.895895	0.288704
618.104375	0.288785
618.312837	0.289084
618.521281	0.289202
618.729706	0.289521
618.938113	0.290038
619.146502	0.290320
619.354873	0.290395
619.563226	0.290464
619.771560	0.290590
619.979876	0.290650
620.188174	0.290595
620.396453	0.290736
620.604715	0.290386
620.812958	0.290617
621.021183	0.290848
621.229390	0.291176
621.437578	0.291555
621.645748	0.291754
621.853900	0.291750
622.062034	0.292145
622.270150	0.292339
622.478247	0.292558
622.686326	0.292505
622.894387	0.292745
623.102430	0.292880
623.310454	0.292638
623.518461	0.292945
623.726449	0.293447
623.934418	0.293398
624.142370	0.293592
624.350303	0.294048
624.558218	0.294550
624.766115	0.294541
624.973994	0.294776
625.181855	0.295165
625.389697	0.295220
625.597521	0.295612
625.805327	0.295653
626.013114	0.295840
626.220883	0.296003
626.428634	0.296097
626.636367	0.296202
626.844082	0.296458
627.051778	0.296821
627.259457	0.297115
627.467117	0.296871
627.674758	0.297226
627.882382	0.297410
628.089987	0.297411
628.297574	0.297470
628.505143	0.297937
628.712694	0.297859
628.920226	0.297825
629.127740	0.297796
629.335236	0.297709
629.542714	0.298138
629.750174	0.298321
629.957615	0.298250
630.165038	0.298627
630.372443	0.298394
630.579829	0.298772
630.787198	0.299013
630.994548	0.299314
631.201880	0.299802
631.409194	0.299411
631.616489	0.299356
631.823766	0.299964
632.031025	0.300051
632.238266	0.300591
632.445489	0.300444
632.652693	0.300741
632.859879	0.300551
633.067047	0.300756
633.274197	0.301185
633.481329	0.301163
633.688442	0.300711
633.895537	0.300855
634.102614	0.300875
634.309672	0.301121
634.516713	0.301318
634.723735	0.301720
634.930739	0.301821
635.137724	0.301962
635.344692	0.302604
635.551641	0.302876
635.758572	0.303335
635.965485	0.303756
636.172379	0.304042
636.379256	0.303881
636.586114	0.303990
636.792954	0.304324
636.999775	0.304584
637.206579	0.304793
637.413364	0.305344
637.620131	0.305519
637.826880	0.305466
638.033610	0.305506
638.240323	0.305856
638.447017	0.306170
638.653692	0.306204
638.860350	0.306238
639.066990	0.306399
639.273611	0.306274
639.480214	0.306145
639.686798	0.306169
639.893365	0.306437
640.099913	0.306465
640.306443	0.306510
640.512955	0.306573
640.719449	0.307057
640.925924	0.307089
641.132381	0.307645
641.338820	0.307966
641.545241	0.308323
641.751644	0.308513
641.958028	0.308768
642.164394	0.308955
642.370742	0.309228
642.577071	0.309123
642.783383	0.309051
642.989676	0.308870
643.195951	0.308878
643.402207	0.309140
643.608446	0.309197
643.814666	0.309655
644.020868	0.310014
644.227052	0.310252
644.433218	0.310577
644.639365	0.311267
644.845494	0.311550
645.051605	0.312011
645.257698	0.312035
645.463772	0.312545
645.669828	0.312619
645.875866	0.312781
646.081886	0.313108
646.287888	0.313402
646.493871	0.313257
646.699836	0.313524
646.905783	0.313682
647.111712	0.314148
647.317622	0.314227
647.523514	0.314119
647.729388	0.314310
647.935244	0.314295
648.141082	0.314337
648.346901	0.314885
648.552702	0.315057
648.758485	0.315173
648.964250	0.315198
649.169996	0.315470
649.375724	0.316037
649.581434	0.316394
649.787126	0.316684
649.992800	0.317149
650.198455	0.317223
650.404092	0.317760
650.609711	0.317862
650.815311	0.317941
651.020894	0.317933
651.226458	0.318136
651.432004	0.318035
651.637532	0.318205
651.843041	0.318207
652.048532	0.318299
652.254006	0.318351
652.459460	0.318637
652.664897	0.318932
652.870315	0.319313
653.075716	0.319364
653.281097	0.319683
653.486461	0.319987
653.691807	0.320034
653.897134	0.320453
654.102443	0.320651
654.307734	0.320748
654.513006	0.321013
654.718261	0.321170
654.923497	0.321406
655.128715	0.321817
655.333915	0.321962
655.539096	0.322217
655.744259	0.322148
655.949404	0.322183
656.154531	0.322530
656.359640	0.322793
656.564730	0.322915
656.769802	0.323490
656.974856	0.323695
657.179892	0.324057
657.384909	0.324294
657.589908	0.324341
657.794889	0.324871
657.999852	0.325143
658.204797	0.325376
658.409723	0.326039
658.614631	0.325937
658.819521	0.326130
659.024393	0.326108
659.229246	0.326469
659.434081	0.326945
659.638898	0.326946
659.843697	0.326978
660.048478	0.327045
660.253240	0.326870
660.457984	0.327234
660.662710	0.327294
660.867417	0.327428
661.072107	0.327701
661.276778	0.327897
661.481431	0.327958
661.686066	0.328366
661.890682	0.328665
662.095281	0.328975
662.299861	0.329188
662.504422	0.329578
662.708966	0.330078
662.913491	0.330387
663.117999	0.330797
663.322488	0.331097
663.526958	0.331243
663.731411	0.331559
663.935845	0.331564
664.140261	0.331730
664.344659	0.331667
664.549038	0.331995
664.753400	0.332090
664.957743	0.332236
665.162068	0.332721
665.366375	0.332886
665.570663	0.333154
665.774933	0.333874
665.979185	0.334103
666.183419	0.334449
666.387635	0.334741
666.591832	0.334947
666.796011	0.335176
667.000172	0.335196
667.204315	0.335413
667.408439	0.335339
667.612545	0.335298
667.816634	0.335512
668.020703	0.335641
668.224755	0.335297
668.428788	0.335489
668.632803	0.335732
668.836800	0.335724
669.040779	0.335946
669.244739	0.336193
669.448681	0.336273
669.652605	0.336303
669.856511	0.336434
670.060399	0.336939
670.264268	0.336847
670.468119	0.336726
670.671952	0.337198
670.875767	0.337590
671.079563	0.337974
671.283341	0.338206
671.487101	0.338597
671.690843	0.338833
671.894567	0.339039
672.098272	0.339677
672.301959	0.340289
672.505628	0.340659
672.709278	0.340643
672.912911	0.341081
673.116525	0.341229
673.320121	0.341375
673.523699	0.341974
673.727258	0.342166
673.930799	0.342194
674.134322	0.342451
674.337827	0.342752
674.541314	0.343311
674.744782	0.343415
674.948232	0.343942
675.151664	0.344461
675.355078	0.344485
675.558474	0.344853
675.761851	0.345344
675.965210	0.345403
676.168551	0.345558
676.371873	0.345616
676.575178	0.345887
676.778464	0.346122
676.981732	0.346303
677.184981	0.346469
677.388213	0.346706
677.591426	0.347161
677.794621	0.347454
677.997798	0.347597
678.200956	0.347864
678.404097	0.348020
678.607219	0.348025
678.810323	0.348109
679.013408	0.348504
679.216476	0.348930
679.419525	0.348772
679.622556	0.349225
679.825569	0.349694
680.028563	0.349970
680.231540	0.350106
680.434498	0.350359
680.637438	0.350483
680.840359	0.350793
681.043263	0.350887
681.246148	0.351203
681.449015	0.351441
681.651864	0.351276
681.854694	0.351526
682.057506	0.351654
682.260301	0.351845
682.463076	0.352322
682.665834	0.352516
682.868573	0.352832
683.071295	0.353117
683.273998	0.353255
683.476682	0.353718
683.679349	0.353809
683.881997	0.354199
684.084627	0.354618
684.287239	0.354550
684.489833	0.354734
684.692408	0.354750
684.894965	0.354863
685.097504	0.354954
685.300025	0.355157
685.502527	0.355424
685.705012	0.355685
685.907478	0.355739
686.109925	0.356009
686.312355	0.356206
686.514766	0.356506
686.717159	0.356802
686.919534	0.356915
687.121891	0.357194
687.324230	0.357494
687.526550	0.357747
687.728852	0.357851
687.931136	0.358212
688.133401	0.358394
688.335649	0.358620
688.537878	0.358950
688.740089	0.359505
688.942281	0.359721
689.144456	0.359759
689.346612	0.359931
689.548750	0.360581
689.750870	0.360792
689.952971	0.360996
690.155055	0.361328
690.357120	0.361287
690.559167	0.361378
690.761195	0.361449
690.963206	0.361843
691.165198	0.361889
691.367172	0.361905
691.569128	0.362043
691.771065	0.362520
691.972984	0.362371
692.174885	0.362762
692.376768	0.362893
692.578633	0.363066
692.780479	0.363145
692.982308	0.363281
693.184118	0.363588
693.385909	0.363726
693.587683	0.363527
693.789438	0.363945
693.991175	0.363887
694.192894	0.363953
694.394595	0.364250
694.596277	0.364479
694.797941	0.364946
694.999587	0.364758
695.201215	0.365009
695.402824	0.365395
695.604416	0.365637
695.805989	0.366030
696.007543	0.365992
696.209080	0.366116
696.410598	0.366145
696.612099	0.366254
696.813580	0.366504
697.015044	0.366464
697.216490	0.366479
697.417917	0.366467
697.619326	0.366579
697.820717	0.366798
698.022089	0.366704
698.223444	0.367053
698.424780	0.366946
698.626098	0.367228
698.827397	0.367686
699.028679	0.367968
699.229942	0.368108
699.431187	0.367970
699.632414	0.368323
699.833622	0.368570
700.034813	0.368788
700.235985	0.369074
700.437139	0.369011
700.638274	0.368977
700.839392	0.369230
701.040491	0.369202
701.241572	0.369511
701.442635	0.369551
701.643679	0.369873
701.844706	0.369561
702.045714	0.369526
702.246704	0.369870
702.447675	0.369906
702.648629	0.369457
702.849564	0.369633
703.050481	0.369655
703.251380	0.369826
703.452260	0.369838
703.653122	0.370318
703.853966	0.370529
704.054792	0.370440
704.255600	0.370643
704.456389	0.371050
704.657160	0.371071
704.857913	0.371158
705.058648	0.371308
705.259365	0.371214
705.460063	0.370876
705.660743	0.370791
705.861405	0.370801
706.062048	0.370878
706.262674	0.370808
706.463281	0.370621
706.663870	0.370713
706.864441	0.370684
707.064993	0.370690
707.265527	0.370840
707.466043	0.371170
707.666541	0.371199
707.867021	0.371179
708.067482	0.371239
708.267925	0.371503
708.468350	0.371449
708.668757	0.371522
708.869145	0.371522
709.069516	0.371849
709.269868	0.371797
709.470201	0.371820
709.670517	0.371957
709.870814	0.372091
710.071093	0.372422
710.271354	0.372672
710.471597	0.372613
710.671821	0.372944
710.872028	0.372720
711.072216	0.372773
711.272385	0.372791
711.472537	0.372793
711.672670	0.372670
711.872785	0.372725
712.072882	0.372645
712.272961	0.372668
712.473021	0.372655
712.673063	0.372708
712.873087	0.372750
713.073093	0.373032
713.273081	0.373121
713.473050	0.373221
713.673001	0.373108
713.872934	0.373102
714.072849	0.373000
714.272745	0.372755
714.472623	0.372730
714.672483	0.372674
714.872325	0.372914
715.072148	0.372623
715.271954	0.372534
715.471741	0.372318
715.671509	0.372273
715.871260	0.372329
716.070992	0.372506
716.270707	0.372297
716.470403	0.372290
716.670080	0.371800
716.869740	0.371798
717.069381	0.372071
717.269004	0.372189
717.468609	0.372170
717.668195	0.372242
717.867764	0.372048
718.067314	0.372264
718.266846	0.372268
718.466360	0.372242
718.665855	0.372383
718.865332	0.372146
719.064791	0.372044
719.264232	0.371957
719.463655	0.372084
719.663059	0.372022
719.862445	0.371943
720.061813	0.371933
720.261163	0.371848
720.460494	0.371507
720.659807	0.371528
720.859102	0.371600
721.058379	0.371694
721.257638	0.371414
721.456878	0.371458
721.656100	0.371305
721.855304	0.371138
722.054490	0.371052
722.253657	0.371193
722.452806	0.371020
722.651937	0.370715
722.851050	0.370718
723.050145	0.370532
723.249221	0.370447
723.448279	0.370344
723.647319	0.370081
723.846340	0.370144
724.045344	0.370029
724.244329	0.369999
724.443296	0.369819
724.642245	0.369524
724.841175	0.369343
725.040088	0.369338
725.238982	0.369246
725.437857	0.369459
725.636715	0.369412
725.835554	0.369167
726.034376	0.368948
726.233179	0.369295
726.431963	0.369305
726.630730	0.369445
726.829478	0.369342
727.028208	0.369498
727.226920	0.369130
727.425614	0.368914
727.624289	0.368781
727.822946	0.369076
728.021585	0.368664
728.220206	0.368778
728.418808	0.368614
728.617392	0.368382
728.815958	0.368186
729.014506	0.367967
729.213036	0.367852
729.411547	0.367864
729.610040	0.367313
729.808515	0.367526
730.006972	0.367131
730.205410	0.367010
730.403831	0.366857
730.602233	0.366982
730.800616	0.366958
730.998982	0.366985
731.197329	0.366792
731.395658	0.366933
731.593969	0.366343
731.792262	0.366039
731.990536	0.365670
732.188793	0.365328
732.387031	0.364898
732.585250	0.364809
732.783452	0.364411
732.981635	0.364328
733.179800	0.363908
733.377947	0.363823
733.576076	0.363596
733.774186	0.363197
733.972278	0.362961
734.170352	0.362657
734.368408	0.362315
734.566446	0.362272
734.764465	0.361917
734.962466	0.361757
735.160449	0.361652
735.358413	0.361463
735.556360	0.361592
735.754288	0.361725
735.952198	0.361526
736.150090	0.361703
736.347963	0.361252
736.545818	0.361220
736.743655	0.361080
736.941474	0.360948
737.139275	0.361140
737.337057	0.361073
737.534821	0.361120
737.732567	0.360926
737.930295	0.360469
738.128005	0.360436
738.325696	0.360146
738.523369	0.359929
738.721024	0.359851
738.918660	0.359386
739.116279	0.358890
739.313879	0.358372
739.511461	0.358388
739.709024	0.358195
739.906570	0.358096
740.104097	0.357893
740.301606	0.357477
740.499097	0.357237
740.696569	0.357068
740.894024	0.357623
741.091460	0.357506
741.288878	0.357059
741.486277	0.356766
741.683659	0.356662
741.881022	0.356502
742.078367	0.356531
742.275694	0.356046
742.473002	0.356050
742.670293	0.355203
742.867565	0.355020
743.064819	0.354829
743.262054	0.354624
743.459272	0.354471
743.656471	0.354113
743.853652	0.353876
744.050815	0.354025
744.247959	0.353797
744.445085	0.353746
744.642194	0.353670
744.839283	0.353504
745.036355	0.353379
745.233408	0.353030
745.430444	0.352897
745.627461	0.352735
745.824459	0.352382
746.021440	0.351967
746.218402	0.351538
746.415346	0.351270
746.612272	0.351242
746.809180	0.351035
747.006069	0.350700
747.202940	0.350644
747.399793	0.350214
747.596628	0.349874
747.793444	0.349602
747.990243	0.349450
748.187023	0.349097
748.383784	0.348766
748.580528	0.348412
748.777253	0.348343
748.973960	0.348075
749.170649	0.347802
749.367320	0.347676
749.563973	0.347603
749.760607	0.347613
749.957223	0.347343
750.153821	0.347335
750.350400	0.347366
750.546962	0.347177
750.743505	0.346961
750.940030	0.346791
751.136536	0.346482
751.333025	0.346165
751.529495	0.345770
751.725947	0.345790
751.922381	0.345252
752.118796	0.345196
752.315194	0.344996
752.511573	0.344937
752.707934	0.345091
752.904276	0.344952
753.100601	0.345123
753.296907	0.345258
753.493195	0.345188
753.689465	0.345249
753.885716	0.344960
754.081949	0.344327
754.278164	0.343836
754.474361	0.343528
754.670540	0.343342
754.866700	0.342813
755.062843	0.342394
755.258967	0.341843
755.455072	0.341810
755.651160	0.341453
755.847229	0.341650
756.043280	0.341900
756.239313	0.341980
756.435328	0.342095
756.631324	0.341855
756.827302	0.341993
757.023262	0.341889
757.219204	0.341744
757.415127	0.342026
757.611033	0.341838
757.806920	0.341481
758.002788	0.341151
758.198639	0.340939
758.394471	0.340949
758.590286	0.340714
758.786081	0.340712
758.981859	0.340191
759.177619	0.339915
759.373360	0.339972
759.569083	0.339880
759.764788	0.339871
759.960474	0.339449
760.156143	0.339338
760.351793	0.339057
760.547425	0.338948
760.743038	0.338868
760.938634	0.338400
761.134211	0.338130
761.329770	0.337885
761.525311	0.337528
761.720833	0.337634
761.916338	0.337508
762.111824	0.337440
762.307292	0.337135
762.502741	0.337107
762.698173	0.337047
762.893586	0.336790
763.088981	0.336742
763.284358	0.336689
763.479716	0.336678
763.675057	0.336313
763.870379	0.336020
764.065683	0.335895
764.260968	0.335658
764.456236	0.335694
764.651485	0.335362
764.846716	0.335291
765.041929	0.335133
765.237123	0.334865
765.432299	0.334964
765.627457	0.334620
765.822597	0.334441
766.017719	0.334315
766.212822	0.333994
766.407907	0.334093
766.602974	0.333807
766.798023	0.333652
766.993054	0.333302
767.188066	0.333210
767.383060	0.333205
767.578036	0.333165
767.772993	0.332948
767.967933	0.332913
768.162854	0.332761
768.357757	0.332936
768.552642	0.332760
768.747508	0.332794
768.942356	0.332714
769.137186	0.332779
769.331998	0.332812
769.526792	0.333111
769.721567	0.333059
769.916324	0.332831
770.111063	0.332626
770.305784	0.332653
770.500486	0.332632
770.695171	0.332596
770.889837	0.332651
771.084484	0.332543
771.279114	0.332466
771.473725	0.332272
771.668318	0.332809
771.862893	0.332327
772.057450	0.332306
772.251988	0.332264
772.446509	0.331950
772.641011	0.331861
772.835494	0.331683
773.029960	0.331315
773.224407	0.331213
773.418836	0.330542
773.613247	0.330955
773.807640	0.330773
774.002014	0.330660
774.196370	0.330528
774.390708	0.330192
774.585028	0.330004
774.779330	0.329783
774.973613	0.329727
775.167878	0.329861
775.362125	0.329603
775.556354	0.329510
775.750564	0.329064
775.944756	0.329236
776.138930	0.329522
776.333086	0.329649
776.527223	0.329877
776.721343	0.330021
776.915444	0.330047
777.109526	0.330118
777.303591	0.330084
777.497637	0.330653
777.691666	0.330498
777.885676	0.330122
778.079667	0.330138
778.273641	0.330032
778.467596	0.329918
778.661533	0.330114
778.855452	0.330078
779.049352	0.329987
779.243235	0.329617
779.437099	0.329719
779.630945	0.329569
779.824773	0.329626
780.018582	0.329147
780.212373	0.329214
780.406146	0.328508
780.599901	0.328345
780.793638	0.328428
780.987356	0.328217
781.181056	0.328056
781.374738	0.327864
781.568402	0.327501
781.762047	0.327790
781.955674	0.327508
782.149283	0.327772
782.342874	0.327912
782.536447	0.327790
782.730001	0.328047
782.923537	0.327646
783.117055	0.327904
783.310555	0.327924
783.504036	0.327976
783.697499	0.328304
783.890944	0.328551
784.084371	0.328599
784.277780	0.328580
784.471170	0.328738
784.664542	0.329318
784.857896	0.329486
785.051231	0.329499
785.244549	0.329761
785.437848	0.329693
785.631129	0.329555
785.824392	0.329240
786.017636	0.329263
786.210863	0.329253
786.404071	0.329004
786.597260	0.329085
786.790432	0.329522
786.983585	0.329466
787.176721	0.329428
787.369838	0.329381
787.562936	0.329697
787.756017	0.329819
787.949079	0.329854
788.142123	0.330082
788.335149	0.330068
788.528156	0.329710
788.721146	0.329682
788.914117	0.329775
789.107070	0.330051
789.300005	0.329980
789.492921	0.330303
789.685819	0.330387
789.878699	0.330235
790.071561	0.330341
790.264405	0.330350
790.457230	0.330549
790.650037	0.330773
790.842826	0.330850
791.035597	0.330983
791.228349	0.330909
791.421084	0.330961
791.613800	0.331130
791.806497	0.331249
791.999177	0.331597
792.191838	0.331710
792.384481	0.331515
792.577106	0.331421
792.769713	0.331217
792.962301	0.331463
793.154871	0.331590
793.347423	0.331855
793.539957	0.331806
793.732473	0.331746
793.924970	0.331682
794.117449	0.331950
794.309910	0.332316
794.502353	0.332710
794.694777	0.332644
794.887183	0.332706
795.079571	0.332961
795.271941	0.332973
795.464293	0.333200
795.656626	0.333121
795.848941	0.333337
796.041238	0.333459
796.233516	0.333684
796.425777	0.333582
796.618019	0.333604
796.810243	0.333569
797.002449	0.333853
797.194636	0.333862
797.386805	0.334114
797.578956	0.334042
797.771089	0.334125
797.963204	0.334209
798.155300	0.334403
798.347378	0.334638
798.539438	0.334890
798.731480	0.335205
798.923503	0.335428
799.115509	0.335869
799.307496	0.336095
799.499465	0.336102
799.691415	0.336169
799.883348	0.336432
800.075262	0.336610
800.267158	0.336653
800.459035	0.337011
800.650895	0.337406
800.842736	0.337564
801.034559	0.337776
801.226364	0.338000
801.418150	0.338404
801.609919	0.338659
801.801669	0.338692
801.993401	0.338701
802.185114	0.338776
802.376810	0.338779
802.568487	0.339004
802.760146	0.339077
802.951787	0.339110
803.143409	0.339151
803.335014	0.339203
803.526600	0.339526
803.718168	0.340052
803.909717	0.340300
804.101249	0.340560
804.292762	0.340828
804.484257	0.341116
804.675734	0.341749
804.867192	0.342187
805.058632	0.342764
805.250054	0.343086
805.441458	0.343101
805.632844	0.342988
805.824211	0.343216
806.015561	0.343217
806.206891	0.343717
806.398204	0.344143
806.589499	0.344340
806.780775	0.344595
806.972033	0.344563
807.163273	0.344974
807.354495	0.345367
807.545698	0.345739
807.736883	0.345884
807.928050	0.345852
808.119199	0.345915
808.310329	0.345866
808.501441	0.345930
808.692535	0.346260
808.883611	0.346529
809.074669	0.346881
809.265708	0.346957
809.456729	0.347423
809.647732	0.347750
809.838717	0.347852
810.029683	0.348111
810.220632	0.348324
810.411562	0.348648
810.602474	0.348810
810.793367	0.349231
810.984242	0.349336
811.175100	0.349861
811.365938	0.350113
811.556759	0.350422
811.747562	0.350813
811.938346	0.351121
812.129112	0.351408
812.319860	0.351780
812.510589	0.351856
812.701300	0.352337
812.891994	0.352544
813.082668	0.352789
813.273325	0.352864
813.463964	0.353278
813.654584	0.353613
813.845186	0.354110
814.035769	0.354357
814.226335	0.354532
814.416882	0.354655
814.607411	0.354604
814.797922	0.354860
814.988415	0.355423
815.178889	0.355393
815.369345	0.355684
815.559783	0.355992
815.750203	0.356329
815.940605	0.356671
816.130988	0.357071
816.321353	0.357511
816.511700	0.358040
816.702028	0.358305
816.892339	0.358778
817.082631	0.359196
817.272905	0.359309
817.463161	0.359761
817.653398	0.360075
817.843617	0.360565
818.033819	0.360957
818.224001	0.361428
818.414166	0.361777
818.604312	0.362184
818.794440	0.362471
818.984550	0.362710
819.174642	0.362932
819.364716	0.363250
819.554771	0.363679
819.744808	0.363948
819.934827	0.363961
820.124827	0.364315
820.314810	0.364577
820.504774	0.365042
820.694720	0.365640
820.884647	0.366053
821.074557	0.366710
821.264448	0.366859
821.454321	0.367116
821.644176	0.367622
821.834012	0.367981
822.023831	0.368191
822.213631	0.368489
822.403413	0.368883
822.593176	0.369189
822.782922	0.369426
822.972649	0.369739
823.162358	0.370212
823.352049	0.370685
823.541721	0.371001
823.731376	0.371540
823.921012	0.372155
824.110629	0.372273
824.300229	0.372605
824.489811	0.373122
824.679374	0.373625
824.868919	0.374054
825.058445	0.374365
825.247954	0.374802
825.437444	0.375205
825.626916	0.375160
825.816370	0.375478
826.005806	0.375920
826.195223	0.376092
826.384622	0.376322
826.574003	0.376700
826.763366	0.376960
826.952711	0.377517
827.142037	0.377962
827.331345	0.378459
827.520635	0.378846
827.709906	0.379054
827.899160	0.379281
828.088395	0.379678
828.277612	0.379825
828.466810	0.380163
828.655991	0.380207
828.845153	0.380827
829.034297	0.381267
829.223423	0.381926
829.412531	0.382603
829.601620	0.383078
829.790691	0.383663
829.979744	0.384402
830.168779	0.384788
830.357795	0.385326
830.546793	0.385748
830.735773	0.386192
830.924735	0.386162
831.113679	0.386668
831.302604	0.387173
831.491511	0.387939
831.680400	0.388523
831.869271	0.389199
832.058123	0.389591
832.246957	0.389822
832.435773	0.390236
832.624571	0.391006
832.813351	0.391247
833.002112	0.392035
833.190855	0.392316
833.379580	0.392497
833.568287	0.392725
833.756975	0.393244
833.945645	0.393694
834.134297	0.394257
834.322931	0.394708
834.511547	0.395284
834.700144	0.395376
834.888723	0.395173
835.077284	0.395422
835.265826	0.395938
835.454351	0.396192
835.642857	0.396672
835.831345	0.396616
836.019815	0.396929
836.208266	0.396921
836.396699	0.397192
836.585114	0.397941
836.773511	0.398487
836.961890	0.398992
837.150250	0.399548
837.338592	0.399877
837.526916	0.400386
837.715222	0.401166
837.903510	0.401810
838.091779	0.402416
838.280030	0.403062
838.468263	0.403716
838.656477	0.404105
838.844674	0.404287
839.032852	0.405104
839.221012	0.406225
839.409153	0.406462
839.597277	0.407025
839.785382	0.407569
839.973469	0.408259
840.161538	0.408509
840.349589	0.408962
840.537621	0.409585
840.725635	0.410031
840.913631	0.410059
841.101609	0.410474
841.289568	0.410987
841.477509	0.411198
841.665432	0.411349
841.853337	0.411668
842.041224	0.411832
842.229092	0.412432
842.416942	0.412146
842.604774	0.412513
842.792588	0.413083
842.980383	0.413484
843.168160	0.414283
843.355919	0.414643
843.543660	0.415221
843.731382	0.415862
843.919087	0.416451
844.106773	0.417616
844.294441	0.417859
844.482090	0.418365
844.669722	0.418866
844.857335	0.419284
845.044930	0.419572
845.232507	0.420450
845.420065	0.420897
845.607605	0.421260
845.795127	0.421536
845.982631	0.422384
846.170117	0.422269
846.357584	0.422593
846.545033	0.422673
846.732464	0.422960
846.919877	0.423078
847.107272	0.423347
847.294648	0.423870
847.482006	0.424192
847.669346	0.424357
847.856667	0.425566
848.043971	0.425822
848.231256	0.426617
848.418523	0.427294
848.605771	0.427648
848.793002	0.428591
848.980214	0.429206
849.167408	0.429778
849.354584	0.429833
849.541742	0.430248
849.728881	0.430840
849.916002	0.431079
850.103105	0.431498
850.290190	0.431942
850.477256	0.432613
850.664304	0.432553
850.851334	0.432888
851.038346	0.433771
851.225340	0.434045
851.412315	0.434610
851.599272	0.435106
851.786211	0.435566
851.973132	0.436124
852.160034	0.436074
852.346918	0.436886
852.533784	0.437261
852.720632	0.437992
852.907462	0.438296
853.094273	0.438345
853.281066	0.438868
853.467841	0.439409
853.654598	0.439799
853.841336	0.440643
854.028056	0.440594
854.214758	0.441426
854.401442	0.441570
854.588107	0.442051
854.774755	0.442706
854.961384	0.443128
855.147995	0.443571
855.334587	0.444041
855.521162	0.444070
855.707718	0.445245
855.894256	0.445255
856.080775	0.445871
856.267277	0.446281
856.453760	0.447297
856.640225	0.448034
856.826672	0.448309
857.013101	0.448613
857.199511	0.449064
857.385903	0.448809
857.572277	0.449543
857.758633	0.449790
857.944970	0.450346
858.131290	0.450363
858.317591	0.450240
858.503873	0.450899
858.690138	0.451242
858.876384	0.451838
859.062612	0.452308
859.248822	0.452690
859.435014	0.453303
859.621188	0.453488
859.807343	0.453997
859.993480	0.454518
860.179599	0.455123
860.365699	0.455584
860.551781	0.456185
860.737846	0.456784
860.923891	0.457046
861.109919	0.457557
861.295929	0.457964
861.481920	0.458250
861.667893	0.458778
861.853848	0.459043
862.039784	0.459613
862.225702	0.459772
862.411603	0.459898
862.597484	0.459981
862.783348	0.460114
862.969193	0.460860
863.155021	0.460923
863.340830	0.461130
863.526620	0.461241
863.712393	0.461335
863.898147	0.461671
864.083883	0.462270
864.269601	0.462851
864.455301	0.463476
864.640982	0.463612
864.826645	0.464126
865.012290	0.464806
865.197917	0.465227
865.383526	0.465645
865.569116	0.465789
865.754688	0.466338
865.940242	0.466834
866.125777	0.466574
866.311295	0.466965
866.496794	0.466910
866.682275	0.467262
866.867737	0.468100
867.053182	0.469009
867.238608	0.469508
867.424016	0.469934
867.609406	0.470325
867.794778	0.470939
867.980131	0.471401
868.165466	0.472341
868.350783	0.472673
868.536082	0.472893
868.721362	0.473040
868.906625	0.473905
869.091869	0.473956
869.277094	0.473817
869.462302	0.473975
869.647491	0.473886
869.832662	0.474178
870.017815	0.474407
870.202950	0.474593
870.388066	0.474340
870.573165	0.474737
870.758245	0.475091
870.943306	0.475267
871.128350	0.476029
871.313375	0.476690
871.498382	0.477109
871.683371	0.476938
871.868342	0.477216
872.053294	0.478024
872.238229	0.477664
872.423144	0.478183
872.608042	0.478978
872.792922	0.479259
872.977783	0.479120
873.162626	0.479609
873.347451	0.479886
873.532258	0.480206
873.717046	0.480505
873.901816	0.480819
874.086568	0.480793
874.271302	0.481320
874.456017	0.481652
874.640715	0.482139
874.825394	0.481845
875.010055	0.482314
875.194697	0.482246
875.379322	0.482236
875.563928	0.482261
875.748516	0.481935
875.933085	0.481566
876.117637	0.481121
876.302170	0.481465
876.486685	0.481871
876.671182	0.481789
876.855661	0.481850
877.040121	0.482263
877.224563	0.482794
877.408987	0.483693
877.593393	0.484210
877.777780	0.484751
877.962150	0.484913
878.146501	0.484821
878.330833	0.485621
878.515148	0.486165
878.699444	0.486298
878.883722	0.485956
879.067982	0.485772
879.252224	0.485810
879.436447	0.486222
879.620653	0.486419
879.804840	0.487046
879.989008	0.487059
880.173159	0.487163
880.357291	0.487901
880.541405	0.488612
880.725501	0.488508
880.909579	0.488939
881.093638	0.489005
881.277680	0.489137
881.461703	0.488951
881.645707	0.489027
881.829694	0.489197
882.013662	0.488395
882.197612	0.488340
882.381544	0.488928
882.565458	0.488429
882.749353	0.488225
882.933230	0.488353
883.117089	0.488404
883.300930	0.489024
883.484753	0.488975
883.668557	0.489545
883.852343	0.489281
884.036111	0.489618
884.219861	0.490083
884.403592	0.490374
884.587305	0.490035
884.771000	0.490003
884.954677	0.489387
885.138335	0.489711
885.321976	0.489545
885.505598	0.489991
885.689201	0.489677
885.872787	0.490125
886.056354	0.490610
886.239904	0.491490
886.423434	0.491857
886.606947	0.492262
886.790442	0.492032
886.973918	0.491886
887.157376	0.492003
887.340816	0.492457
887.524237	0.492126
887.707641	0.491404
887.891026	0.490347
888.074393	0.490594
888.257741	0.489939
888.441072	0.490130
888.624384	0.490322
888.807678	0.490207
888.990954	0.490346
889.174211	0.490856
889.357451	0.491309
889.540672	0.491678
889.723875	0.491234
889.907059	0.492015
890.090226	0.492620
890.273374	0.492975
890.456504	0.492692
890.639616	0.492324
890.822709	0.492166
891.005785	0.491835
891.188842	0.492245
891.371881	0.492417
891.554901	0.492047
891.737904	0.491365
891.920888	0.490650
892.103854	0.490735
892.286802	0.490839
892.469731	0.490378
892.652643	0.490794
892.835536	0.490373
893.018410	0.490542
893.201267	0.490500
893.384106	0.490503
893.566926	0.490698
893.749728	0.490514
893.932511	0.489951
894.115277	0.489542
894.298024	0.488738
894.480753	0.488800
894.663464	0.488384
894.846157	0.488071
895.028831	0.487771
895.211487	0.487743
895.394125	0.487666
895.576745	0.488088
895.759346	0.488651
895.941930	0.488464
896.124495	0.487657
896.307041	0.487442
896.489570	0.487885
896.672080	0.487377
896.854573	0.487135
897.037046	0.487223
897.219502	0.486462
897.401940	0.485816
897.584359	0.485593
897.766760	0.484987
897.949143	0.484709
898.131507	0.484742
898.313854	0.484802
898.496182	0.484263
898.678492	0.483391
898.860783	0.483195
899.043057	0.483310
899.225312	0.483520
899.407549	0.484225
899.589768	0.484072
899.771968	0.483041
899.954151	0.482746
900.136315	0.482771
900.318461	0.482663
900.500588	0.482361
900.682698	0.482240
900.864789	0.481812
901.046862	0.481414
901.228917	0.480717
901.410953	0.480497
901.592971	0.480860
901.774972	0.480355
901.956953	0.480042
902.138917	0.479862
902.320862	0.479049
902.502790	0.478852
902.684699	0.478231
902.866589	0.477783
903.048462	0.477145
903.230316	0.476268
903.412152	0.476547
903.593970	0.476811
903.775770	0.476349
903.957551	0.475430
904.139314	0.474593
904.321059	0.474532
904.502786	0.474243
904.684494	0.473271
904.866185	0.472632
905.047857	0.471717
905.229510	0.470428
905.411146	0.470099
905.592763	0.470094
905.774363	0.470397
905.955943	0.469477
906.137506	0.469567
906.319051	0.469748
906.500577	0.470173
906.682085	0.469327
906.863575	0.469413
907.045046	0.468728
907.226500	0.468381
907.407935	0.467578
907.589352	0.467721
907.770750	0.466928
907.952131	0.466290
908.133493	0.465686
908.314837	0.465275
908.496163	0.464460
908.677470	0.464347
908.858760	0.463764
909.040031	0.463241
909.221284	0.463119
909.402518	0.462236
909.583735	0.462187
909.764933	0.461409
909.946113	0.460990
910.127275	0.460483
910.308418	0.459711
910.489544	0.459652
910.670651	0.459942
910.851740	0.458622
911.032810	0.458436
911.213863	0.458125
911.394897	0.457315
911.575913	0.456525
911.756911	0.456105
911.937890	0.455550
912.118851	0.454377
912.299794	0.453135
912.480719	0.452832
912.661626	0.452471
912.842514	0.451538
913.023384	0.450772
913.204236	0.450507
913.385070	0.449804
913.565886	0.449044
913.746683	0.448424
913.927462	0.447515
914.108223	0.446755
914.288965	0.446721
914.469690	0.446090
914.650396	0.445380
914.831084	0.444531
915.011754	0.443806
915.192405	0.443115
915.373038	0.442283
915.553653	0.441966
915.734250	0.441585
915.914829	0.440093
916.095389	0.439795
916.275931	0.439228
916.456455	0.438609
916.636961	0.437991
916.817448	0.437620
916.997917	0.437541
917.178368	0.436066
917.358801	0.435711
917.539216	0.434708
917.719612	0.433703
917.899990	0.433329
918.080350	0.432834
918.260692	0.431945
918.441015	0.431579
918.621320	0.430259
918.801607	0.430344
918.981876	0.429058
919.162127	0.428793
919.342359	0.427620
919.522573	0.426562
919.702769	0.425863
919.882947	0.424781
920.063106	0.423579
920.243247	0.423873
920.423370	0.423235
920.603475	0.422332
920.783562	0.421549
920.963630	0.421289
921.143680	0.420376
921.323712	0.419526
921.503725	0.419223
921.683721	0.418577
921.863698	0.416852
922.043657	0.415572
922.223598	0.414538
922.403520	0.413739
922.583424	0.412660
922.763311	0.411813
922.943178	0.411759
923.123028	0.411264
923.302859	0.410708
923.482673	0.409780
923.662467	0.408816
923.842244	0.408392
924.022003	0.407871
924.201743	0.407259
924.381465	0.406559
924.561169	0.405516
924.740854	0.404925
924.920522	0.403729
925.100171	0.403185
925.279802	0.403133
925.459414	0.403024
925.639009	0.401889
925.818585	0.401280
925.998143	0.401403
926.177683	0.399334
926.357205	0.397237
926.536708	0.396509
926.716193	0.395836
926.895660	0.394045
927.075109	0.391711
927.254539	0.390833
927.433951	0.390008
927.613345	0.388081
927.792721	0.388189
927.972079	0.388213
928.151418	0.386493
928.330739	0.385326
928.510042	0.383870
928.689327	0.384158
928.868593	0.383133
929.047841	0.380943
929.227071	0.380173
929.406283	0.378962
929.585476	0.377507
929.764652	0.377658
929.943809	0.376540
930.122948	0.376158
930.302068	0.374815
930.481171	0.373898
930.660255	0.373121
930.839321	0.371729
931.018369	0.370120
931.197398	0.369641
931.376409	0.367577
931.555402	0.367029
931.734377	0.366190
931.913334	0.364899
932.092272	0.363894
932.271192	0.363153
932.450094	0.362715
932.628978	0.361693
932.807844	0.360558
932.986691	0.359527
933.165520	0.358473
933.344331	0.357278
933.523123	0.354897
933.701898	0.354272
933.880654	0.353680
934.059392	0.351808
934.238111	0.350998
934.416813	0.350303
934.595496	0.349539
934.774161	0.348470
934.952808	0.346130
935.131437	0.346598
935.310047	0.344568
935.488639	0.343553
935.667213	0.343354
935.845769	0.342315
936.024306	0.341446
936.202825	0.341057
936.381326	0.339418
936.559809	0.340460
936.738274	0.339452
936.916720	0.337955
937.095148	0.335041
937.273558	0.333368
937.451950	0.332651
937.630323	0.330704
937.808678	0.328360
937.987015	0.327825
938.165334	0.326973
938.343635	0.325919
938.521917	0.325609
938.700181	0.325705
938.878427	0.324691
939.056655	0.323243
939.234864	0.321603
939.413055	0.320599
939.591228	0.320208
939.769383	0.318496
939.947519	0.316923
940.125638	0.314660
940.303738	0.313843
940.481820	0.312774
940.659883	0.311086
940.837929	0.310123
941.015956	0.309894
941.193965	0.308035
941.371955	0.306698
941.549928	0.304181
941.727882	0.303985
941.905818	0.302392
942.083736	0.300320
942.261636	0.300522
942.439517	0.300373
942.617380	0.298944
942.795225	0.297792
942.973052	0.296145
943.150860	0.296845
943.328651	0.295544
943.506423	0.295246
943.684176	0.294623
943.861912	0.292616
944.039629	0.291061
944.217328	0.289403
944.395009	0.285818
944.572672	0.285343
944.750317	0.283842
944.927943	0.282447
945.105551	0.281083
945.283141	0.279714
945.460712	0.278164
945.638265	0.276557
945.815801	0.275209
945.993317	0.275151
946.170816	0.273526
946.348297	0.272068
946.525759	0.270965
946.703203	0.268639
946.880629	0.267581
947.058036	0.266115
947.235425	0.266003
947.412797	0.264021
947.590149	0.263537
947.767484	0.262649
947.944800	0.262354
948.122099	0.261419
948.299379	0.260117
948.476640	0.259373
948.653884	0.258359
948.831109	0.256553
949.008316	0.256120
949.185505	0.254495
949.362676	0.253008
949.539828	0.249399
949.716962	0.247144
949.894078	0.246884
950.071176	0.244259
950.248256	0.242994
950.425317	0.241796
950.602360	0.241025
950.779385	0.240388
950.956391	0.237970
951.133380	0.239582
951.310350	0.238961
951.487302	0.236339
951.664235	0.236454
951.841151	0.234756
952.018048	0.232134
952.194927	0.230718
952.371788	0.229506
952.548631	0.228168
952.725455	0.225429
952.902261	0.227217
953.079049	0.228332
953.255819	0.226408
953.432570	0.225247
953.609303	0.224730
953.786018	0.222257
953.962715	0.220534
954.139394	0.219203
954.316054	0.218594
954.492696	0.214589
954.669320	0.211475
954.845926	0.210186
955.022513	0.210006
955.199083	0.207830
955.375634	0.208773
955.552166	0.209659
955.728681	0.208204
955.905177	0.206715
956.081655	0.205796
956.258115	0.206999
956.434557	0.207342
956.610980	0.206210
956.787385	0.206066
956.963772	0.205472
957.140141	0.203663
957.316492	0.202732
957.492824	0.199802
957.669138	0.198696
957.845434	0.195586
958.021712	0.194928
958.197971	0.196406
958.374212	0.195885
958.550435	0.194320
958.726640	0.192353
958.902826	0.193784
959.078995	0.193709
959.255145	0.192498
959.431277	0.190480
959.607390	0.189518
959.783486	0.185156
959.959563	0.185472
960.135622	0.184040
960.311662	0.184698
960.487685	0.183187
960.663689	0.183663
960.839675	0.185212
961.015643	0.186587
961.191593	0.186289
961.367524	0.187233
961.543437	0.184290
961.719332	0.184588
961.895209	0.181879
962.071067	0.179665
962.246907	0.178032
962.422730	0.174526
962.598533	0.173042
962.774319	0.176258
962.950086	0.177211
963.125835	0.180077
963.301566	0.181849
963.477279	0.182021
963.652973	0.183846
963.828650	0.185298
964.004308	0.186224
964.179947	0.187793
964.355569	0.183776
964.531172	0.180882
964.706757	0.177240
964.882324	0.172884
965.057873	0.173523
965.233403	0.173346
965.408916	0.171872
965.584410	0.172479
965.759885	0.172806
965.935343	0.171465
966.110782	0.171811
966.286203	0.172305
966.461606	0.174822
966.636991	0.173248
966.812357	0.172848
966.987705	0.172887
967.163035	0.171113
967.338347	0.168500
967.513641	0.168525
967.688916	0.168353
967.864173	0.170097
968.039412	0.167757
968.214632	0.167264
968.389835	0.166156
968.565019	0.166504
968.740185	0.168166
968.915333	0.169499
969.090462	0.168013
969.265573	0.169928
969.440667	0.165135
969.615741	0.164893
969.790798	0.165778
969.965836	0.166528
970.140856	0.167368
970.315858	0.167738
970.490842	0.168030
970.665808	0.169447
970.840755	0.167334
971.015684	0.169584
971.190595	0.173153
971.365487	0.175367
971.540362	0.174357
971.715218	0.176302
971.890056	0.174216
972.064875	0.173854
972.239677	0.174441
972.414460	0.174841
972.589225	0.174139
972.763972	0.174557
972.938700	0.171234
973.113411	0.171752
973.288103	0.168444
973.462777	0.169363
973.637432	0.169454
973.812070	0.168875
973.986689	0.167236
974.161290	0.168529
974.335873	0.167072
974.510437	0.169104
974.684984	0.171411
974.859512	0.172120
975.034022	0.173685
975.208513	0.174535
975.382987	0.175016
975.557442	0.177866
975.731879	0.178659
975.906298	0.177648
976.080698	0.175165
976.255080	0.174424
976.429445	0.173744
976.603790	0.172163
976.778118	0.173614
976.952427	0.174334
977.126719	0.173050
977.300992	0.170291
977.475246	0.173565
977.649483	0.174566
977.823701	0.171210
977.997901	0.171619
978.172083	0.170838
978.346247	0.167999
978.520392	0.164453
978.694519	0.163356
978.868628	0.165634
979.042719	0.163324
979.216791	0.165197
979.390845	0.166322
979.564882	0.165570
979.738899	0.165915
979.912899	0.166172
980.086880	0.168044
980.260843	0.170199
980.434788	0.170345
980.608715	0.170149
980.782623	0.169179
980.956514	0.169765
981.130386	0.170984
981.304240	0.170365
981.478075	0.168769
981.651892	0.170055
981.825692	0.169332
981.999472	0.169695
982.173235	0.168839
982.346980	0.168425
982.520706	0.168789
982.694414	0.170017
982.868104	0.170990
983.041775	0.173985
983.215428	0.173548
983.389064	0.172402
983.562680	0.173010
983.736279	0.174482
983.909860	0.174497
984.083422	0.173097
984.256966	0.172183
984.430491	0.171383
984.603999	0.167538
984.777488	0.167422
984.950959	0.169026
985.124412	0.165855
985.297847	0.165328
985.471263	0.166010
985.644661	0.166582
985.818041	0.164752
985.991403	0.165934
986.164747	0.168388
986.338072	0.167702
986.511379	0.166867
986.684668	0.169139
986.857938	0.169112
987.031191	0.168898
987.204425	0.168988
987.377641	0.169927
987.550839	0.167150
987.724018	0.167736
987.897179	0.169579
988.070322	0.167662
988.243447	0.166878
988.416554	0.165052
988.589642	0.164082
988.762712	0.164514
988.935764	0.163782
989.108798	0.166606
989.281813	0.166651
989.454811	0.166497
989.627790	0.166218
989.800751	0.166046
989.973693	0.167471
990.146617	0.166220
990.319524	0.167770
990.492412	0.168383
990.665281	0.165833
990.838133	0.165569
991.010966	0.163720
991.183781	0.166078
991.356578	0.166596
991.529356	0.167739
991.702117	0.169913
991.874859	0.167807
992.047583	0.166902
992.220288	0.168555
992.392976	0.167275
992.565645	0.167306
992.738296	0.168378
992.910929	0.169102
993.083543	0.167535
993.256139	0.166101
993.428718	0.167172
993.601277	0.168007
993.773819	0.168306
993.946342	0.168526
994.118848	0.170082
994.291335	0.167981
994.463803	0.168075
994.636254	0.167670
994.808686	0.168583
994.981100	0.168250
995.153496	0.166571
995.325874	0.165893
995.498233	0.167652
995.670574	0.167332
995.842897	0.167392
996.015202	0.165084
996.187488	0.166937
996.359757	0.165328
996.532007	0.165563
996.704239	0.168648
996.876452	0.168834
997.048648	0.167052
997.220825	0.166035
997.392984	0.166022
997.565124	0.165946
997.737247	0.163948
997.909351	0.165776
998.081437	0.165076
998.253505	0.163207
998.425554	0.162370
998.597586	0.162729
998.769599	0.162434
998.941594	0.163399
999.113571	0.166690
999.285529	0.166975
999.457469	0.165999
999.629391	0.165989
999.801295	0.167869
999.973181	0.171420
1000.145048	0.172434
1000.316897	0.172797
1000.488728	0.170507
1000.660541	0.168668
1000.832335	0.170854
1001.004111	0.171234
1001.175869	0.171008
1001.347609	0.170190
1001.519331	0.167853
1001.691034	0.167976
1001.862719	0.168692
1002.034386	0.170709
1002.206035	0.171730
1002.377665	0.170823
1002.549277	0.171212
1002.720871	0.171807
1002.892447	0.171372
1003.064004	0.171186
1003.235544	0.169623
1003.407065	0.167840
1003.578568	0.169498
1003.750052	0.169630
1003.921519	0.169142
1004.092967	0.168901
1004.264397	0.167997
1004.435809	0.166837
1004.607202	0.164750
1004.778577	0.165142
1004.949934	0.165330
1005.121273	0.162957
1005.292594	0.163146
1005.463896	0.163496
1005.635180	0.164617
1005.806446	0.164903
1005.977694	0.165327
1006.148923	0.168058
1006.320135	0.168723
1006.491328	0.170850
1006.662503	0.171045
1006.833659	0.169346
1007.004798	0.167555
1007.175918	0.165008
1007.347020	0.165824
1007.518103	0.165815
1007.689169	0.165085
1007.860216	0.162943
1008.031245	0.161451
1008.202256	0.161181
1008.373248	0.161239
1008.544223	0.163407
1008.715179	0.163420
1008.886117	0.161133
1009.057036	0.162800
1009.227938	0.163445
1009.398821	0.165457
1009.569686	0.166334
1009.740533	0.166649
1009.911361	0.167112
1010.082172	0.168503
1010.252964	0.170057
1010.423738	0.173111
1010.594493	0.173208
1010.765231	0.173580
1010.935950	0.173710
1011.106651	0.173407
1011.277334	0.175094
1011.447998	0.175057
1011.618645	0.172501
1011.789273	0.173807
1011.959882	0.173011
1012.130474	0.173685
1012.301048	0.175411
1012.471603	0.175793
1012.642140	0.175462
1012.812658	0.172609
1012.983159	0.172308
1013.153641	0.171590
1013.324105	0.170714
1013.494551	0.170176
1013.664979	0.169459
1013.835388	0.166067
1014.005779	0.164132
1014.176152	0.164718
1014.346507	0.165076
1014.516843	0.165532
1014.687162	0.167369
1014.857462	0.166818
1015.027744	0.167105
1015.198007	0.165326
1015.368252	0.168608
1015.538480	0.168945
1015.708689	0.168403
1015.878879	0.168983
1016.049052	0.169531
1016.219206	0.169260
1016.389342	0.168665
1016.559460	0.169461
1016.729559	0.169915
1016.899641	0.168909
1017.069704	0.170218
1017.239749	0.172385
1017.409775	0.173801
1017.579784	0.173508
1017.749774	0.172173
1017.919746	0.173426
1018.089700	0.172358
1018.259635	0.172720
1018.429553	0.171056
1018.599452	0.170347
1018.769333	0.168425
1018.939195	0.169359
1019.109040	0.168745
1019.278866	0.170644
1019.448674	0.169022
1019.618464	0.168692
1019.788235	0.167835
1019.957989	0.168952
1020.127724	0.168920
1020.297441	0.167482
1020.467139	0.163954
1020.636820	0.165015
1020.806482	0.163113
1020.976126	0.165276
1021.145752	0.164760
1021.315359	0.166153
1021.484948	0.164331
1021.654519	0.165442
1021.824072	0.165896
1021.993607	0.169440
1022.163123	0.168690
1022.332621	0.168797
1022.502101	0.167080
1022.671563	0.168167
1022.841007	0.167061
1023.010432	0.166897
1023.179839	0.165814
1023.349228	0.167492
1023.518598	0.165497
1023.687951	0.167458
1023.857285	0.168204
1024.026601	0.169160
1024.195899	0.168856
1024.365178	0.170459
1024.534439	0.171687
1024.703682	0.172081
1024.872907	0.170819
1025.042114	0.170974
1025.211302	0.168549
1025.380472	0.169107
1025.549624	0.166555
1025.718758	0.166328
1025.887873	0.164513
1026.056970	0.164133
1026.226049	0.163287
1026.395110	0.163229
1026.564153	0.163485
1026.733177	0.164699
1026.902183	0.164249
1027.071171	0.164577
1027.240141	0.164499
1027.409092	0.165234
1027.578026	0.165262
1027.746940	0.166089
1027.915837	0.167628
1028.084716	0.166601
1028.253576	0.166044
1028.422418	0.163059
1028.591242	0.165385
1028.760048	0.166565
1028.928835	0.167562
1029.097604	0.167170
1029.266355	0.166704
1029.435088	0.166542
1029.603803	0.166845
1029.772499	0.165816
1029.941177	0.166990
1030.109837	0.165288
1030.278478	0.163669
1030.447102	0.162182
1030.615707	0.162781
1030.784294	0.163015
1030.952863	0.161514
1031.121413	0.160984
1031.289945	0.160022
1031.458460	0.162787
1031.626955	0.163404
1031.795433	0.165794
1031.963892	0.166272
1032.132334	0.164621
1032.300756	0.165157
1032.469161	0.165312
1032.637548	0.165264
1032.805916	0.166849
1032.974266	0.163798
1033.142598	0.164263
1033.310911	0.163403
1033.479207	0.162432
1033.647484	0.165499
1033.815743	0.163600
1033.983983	0.162843
1034.152206	0.161694
1034.320410	0.162889
1034.488596	0.164478
1034.656764	0.165224
1034.824914	0.164860
1034.993045	0.166217
1035.161158	0.164373
1035.329253	0.165596
1035.497330	0.166178
1035.665388	0.168871
1035.833428	0.167529
1036.001450	0.169150
1036.169454	0.169172
1036.337440	0.171106
1036.505407	0.170963
1036.673356	0.168891
1036.841287	0.169251
1037.009200	0.168887
1037.177094	0.168402
1037.344970	0.168696
1037.512828	0.166081
1037.680668	0.163434
1037.848489	0.162749
1038.016293	0.160862
1038.184078	0.162657
1038.351845	0.160847
1038.519593	0.159768
1038.687324	0.158173
1038.855036	0.156641
1039.022730	0.157886
1039.190406	0.159948
1039.358063	0.156772
1039.525702	0.157436
1039.693323	0.156915
1039.860926	0.156918
1040.028511	0.157783
1040.196077	0.160915
1040.363625	0.163613
1040.531155	0.162938
1040.698667	0.163717
1040.866161	0.164926
1041.033636	0.165020
1041.201093	0.165821
1041.368532	0.167372
1041.535952	0.168323
1041.703355	0.168811
1041.870739	0.166961
1042.038105	0.167721
1042.205452	0.166458
1042.372782	0.168410
1042.540093	0.168412
1042.707386	0.169451
1042.874661	0.168667
1043.041918	0.167870
1043.209156	0.164555
1043.376376	0.164031
1043.543578	0.162810
1043.710762	0.163158
1043.877927	0.160070
1044.045074	0.161867
1044.212203	0.158888
1044.379314	0.159002
1044.546407	0.161217
1044.713481	0.162033
1044.880537	0.160940
1045.047575	0.157330
1045.214595	0.157638
1045.381596	0.157988
1045.548579	0.157472
1045.715544	0.159368
1045.882491	0.160648
1046.049420	0.158967
1046.216330	0.158708
1046.383222	0.160659
1046.550096	0.164334
1046.716951	0.163951
1046.883789	0.167069
1047.050608	0.165813
1047.217409	0.166006
1047.384192	0.165332
1047.550956	0.165275
1047.717703	0.165739
1047.884431	0.164698
1048.051140	0.164940
1048.217832	0.163548
1048.384505	0.158484
1048.551161	0.156554
1048.717798	0.157140
1048.884416	0.157290
1049.051017	0.157405
1049.217599	0.157424
1049.384163	0.159142
1049.550709	0.160148
1049.717237	0.160436
1049.883746	0.163958
1050.050237	0.167922
1050.216710	0.166711
1050.383165	0.165842
1050.549601	0.165518
1050.716019	0.166750
1050.882420	0.165683
1051.048801	0.164510
1051.215165	0.166405
1051.381510	0.167120
1051.547837	0.164352
1051.714146	0.164083
1051.880437	0.162744
1052.046709	0.163340
1052.212964	0.161444
1052.379200	0.162082
1052.545417	0.161374
1052.711617	0.160761
1052.877798	0.159814
1053.043961	0.161000
1053.210106	0.161508
1053.376233	0.160474
1053.542341	0.159107
1053.708432	0.159374
1053.874504	0.160093
1054.040557	0.160563
1054.206593	0.160848
1054.372610	0.161218
1054.538609	0.159996
1054.704590	0.161601
1054.870553	0.163225
1055.036497	0.164348
1055.202424	0.164135
1055.368331	0.164107
1055.534221	0.164135
1055.700093	0.162645
1055.865946	0.161578
1056.031781	0.163194
1056.197598	0.162057
1056.363397	0.164014
1056.529177	0.163275
1056.694939	0.163732
1056.860683	0.163390
1057.026409	0.166396
1057.192116	0.166604
1057.357806	0.168932
1057.523477	0.168823
1057.689130	0.168155
1057.854764	0.166523
1058.020381	0.166897
1058.185979	0.168422
1058.351559	0.169556
1058.517120	0.166976
1058.682664	0.167317
1058.848189	0.164968
1059.013696	0.165033
1059.179185	0.165863
1059.344656	0.165682
1059.510108	0.165484
1059.675542	0.165352
1059.840958	0.164740
1060.006356	0.164926
1060.171735	0.165086
1060.337096	0.166501
1060.502439	0.165200
1060.667764	0.162573
1060.833071	0.164089
1060.998359	0.163742
1061.163629	0.162358
1061.328881	0.160567
1061.494115	0.162432
1061.659330	0.163218
1061.824527	0.162475
1061.989706	0.164943
1062.154867	0.167128
1062.320010	0.168744
1062.485134	0.169196
1062.650240	0.169034
1062.815328	0.168725
1062.980398	0.167273
1063.145449	0.167211
1063.310482	0.166513
1063.475497	0.165195
1063.640494	0.164451
1063.805473	0.162080
1063.970433	0.162657
1064.135375	0.165203
1064.300299	0.166357
1064.465204	0.168010
1064.630092	0.165004
1064.794961	0.166876
1064.959812	0.167613
1065.124645	0.169831
1065.289459	0.171105
1065.454256	0.171876
1065.619034	0.170963
1065.783793	0.170133
1065.948535	0.168503
1066.113258	0.170534
1066.277964	0.170411
1066.442651	0.171353
1066.607319	0.171785
1066.771970	0.171125
1066.936602	0.171006
1067.101216	0.168878
1067.265812	0.171973
1067.430389	0.174796
1067.594949	0.175092
1067.759490	0.174270
1067.924013	0.174316
1068.088518	0.174567
1068.253004	0.174869
1068.417472	0.174085
1068.581922	0.174810
1068.746354	0.175016
1068.910768	0.170751
1069.075163	0.171363
1069.239540	0.171412
1069.403899	0.170665
1069.568240	0.169942
1069.732562	0.169878
1069.896866	0.170560
1070.061152	0.171972
1070.225420	0.172883
1070.389670	0.175400
1070.553901	0.173981
1070.718114	0.174561
1070.882309	0.173361
1071.046486	0.172996
1071.210644	0.173640
1071.374784	0.175503
1071.538906	0.173578
1071.703010	0.170519
1071.867096	0.170558
1072.031163	0.171700
1072.195212	0.172408
1072.359243	0.174872
1072.523256	0.174478
1072.687250	0.175985
1072.851226	0.173621
1073.015184	0.174849
1073.179124	0.174910
1073.343045	0.174742
1073.506949	0.174814
1073.670834	0.173355
1073.834701	0.170335
1073.998549	0.168455
1074.162380	0.164969
1074.326192	0.165661
1074.489986	0.163662
1074.653761	0.161433
1074.817519	0.163022
1074.981258	0.159940
1075.144979	0.160656
1075.308682	0.162091
1075.472367	0.165603
1075.636033	0.167047
1075.799681	0.167635
1075.963311	0.167802
1076.126923	0.168419
1076.290516	0.166011
1076.454092	0.171357
1076.617649	0.171886
1076.781187	0.172798
1076.944708	0.170997
1077.108210	0.170531
1077.271695	0.170092
1077.435160	0.171184
1077.598608	0.173208
1077.762038	0.173745
1077.925449	0.170866
1078.088842	0.173012
1078.252217	0.172353
1078.415573	0.173213
1078.578912	0.174764
1078.742232	0.175793
1078.905534	0.176747
1079.068817	0.177928
1079.232083	0.177521
1079.395330	0.179085
1079.558559	0.174982
1079.721770	0.176465
1079.884962	0.174182
1080.048136	0.174621
1080.211293	0.174165
1080.374430	0.175292
1080.537550	0.171070
1080.700651	0.173278
1080.863735	0.175012
1081.026800	0.175822
1081.189846	0.176220
1081.352875	0.177386
1081.515885	0.175186
1081.678877	0.171277
1081.841851	0.168777
1082.004807	0.171108
1082.167744	0.170599
1082.330663	0.168664
1082.493564	0.169287
1082.656447	0.167950
1082.819312	0.169266
1082.982158	0.169339
1083.144986	0.172017
1083.307796	0.173085
1083.470587	0.173323
1083.633361	0.168707
1083.796116	0.169294
1083.958853	0.170293
1084.121571	0.170026
1084.284272	0.172746
1084.446954	0.172595
1084.609618	0.171791
1084.772264	0.171646
1084.934892	0.173410
1085.097501	0.176057
1085.260092	0.177340
1085.422665	0.177090
1085.585220	0.176779
1085.747756	0.173588
1085.910274	0.175047
1086.072774	0.177513
1086.235256	0.178948
1086.397720	0.178100
1086.560165	0.175730
1086.722592	0.173635
1086.885001	0.172394
1087.047392	0.171746
1087.209764	0.172171
1087.372119	0.172289
1087.534455	0.173768
1087.696772	0.173952
1087.859072	0.175521
1088.021353	0.177923
1088.183616	0.174864
1088.345861	0.174418
1088.508088	0.174827
1088.670296	0.173121
1088.832486	0.176612
1088.994658	0.173689
1089.156812	0.174904
1089.318948	0.172076
1089.481065	0.173767
1089.643164	0.175441
1089.805245	0.177084
1089.967308	0.177413
1090.129352	0.178756
1090.291378	0.174861
1090.453386	0.175658
1090.615376	0.173349
1090.777347	0.172424
1090.939301	0.174523
1091.101236	0.173680
1091.263153	0.171136
1091.425051	0.168960
1091.586932	0.172219
1091.748794	0.174540
1091.910638	0.177258
1092.072463	0.175566
1092.234271	0.178576
1092.396060	0.178409
1092.557831	0.181985
1092.719584	0.183826
1092.881319	0.185955
1093.043035	0.182625
1093.204733	0.178922
1093.366413	0.173928
1093.528075	0.177126
1093.689718	0.177196
1093.851343	0.177461
1094.012950	0.175955
1094.174539	0.177131
1094.336110	0.176592
1094.497662	0.176707
1094.659196	0.177747
1094.820712	0.181379
1094.982210	0.181729
1095.143689	0.179105
1095.305151	0.177306
1095.466594	0.180582
1095.628018	0.178262
1095.789425	0.180437
1095.950813	0.179557
1096.112183	0.182861
1096.273535	0.180793
1096.434869	0.176693
1096.596184	0.177822
1096.757482	0.175815
1096.918761	0.171593
1097.080021	0.172827
1097.241264	0.171614
1097.402488	0.173569
1097.563694	0.168956
1097.724882	0.168615
1097.886052	0.167984
1098.047203	0.168333
1098.208336	0.173001
1098.369451	0.174584
1098.530548	0.171890
1098.691627	0.172236
1098.852687	0.172112
1099.013729	0.171584
1099.174753	0.174826
1099.335758	0.176650
1099.496746	0.174820
1099.657715	0.170754
1099.818666	0.169703
1099.979599	0.172969
1100.140513	0.174695
1100.301409	0.174053
1100.462287	0.175788
1100.623147	0.173993
1100.783989	0.174598
1100.944812	0.173886
1101.105617	0.172828
1101.266404	0.177579
1101.427173	0.174926
1101.587923	0.173879
1101.748656	0.175813
1101.909370	0.177529
1102.070066	0.177211
1102.230743	0.180938
1102.391403	0.185628
1102.552044	0.188104
1102.712667	0.187643
1102.873271	0.188925
1103.033858	0.192132
1103.194426	0.190586
1103.354976	0.190842
1103.515508	0.193330
1103.676021	0.188607
1103.836517	0.185826
1103.996994	0.187022
1104.157453	0.185774
1104.317893	0.187337
1104.478316	0.182219
1104.638720	0.177654
1104.799106	0.176995
1104.959474	0.173204
1105.119823	0.178507
1105.280155	0.179811
1105.440468	0.178258
1105.600763	0.175101
1105.761039	0.174636
1105.921298	0.175422
1106.081538	0.178197
1106.241760	0.177056
1106.401964	0.176522
1106.562149	0.172660
1106.722316	0.174223
1106.882465	0.172373
1107.042596	0.170529
1107.202709	0.173539
1107.362803	0.175087
1107.522879	0.176096
1107.682937	0.177548
1107.842977	0.180427
1108.002999	0.182962
1108.163002	0.185351
1108.322987	0.189348
1108.482954	0.194172
1108.642902	0.195829
1108.802833	0.194915
1108.962745	0.197238
1109.122639	0.199199
1109.282515	0.199829
1109.442372	0.196406
1109.602211	0.190802
1109.762032	0.184200
1109.921835	0.185029
1110.081620	0.183009
1110.241386	0.184920
1110.401134	0.180417
1110.560864	0.178939
1110.720576	0.174064
1110.880269	0.179161
1111.039945	0.179598
1111.199602	0.179038
1111.359240	0.177113
1111.518861	0.179757
1111.678463	0.178423
1111.838047	0.182858
1111.997613	0.183385
1112.157161	0.187319
1112.316690	0.187085
1112.476202	0.187476
1112.635695	0.190964
1112.795169	0.195315
1112.954626	0.191229
1113.114064	0.191519
1113.273484	0.191397
1113.432886	0.187141
1113.592270	0.189753
1113.751635	0.185488
1113.910983	0.187278
1114.070312	0.185874
1114.229622	0.183693
1114.388915	0.185328
1114.548189	0.179762
1114.707445	0.178935
1114.866683	0.179238
1115.025903	0.177208
1115.185104	0.179607
1115.344287	0.179688
1115.503452	0.180479
1115.662599	0.179608
1115.821727	0.177271
1115.980838	0.188086
1116.139930	0.185311
1116.299004	0.186504
1116.458059	0.189454
1116.617097	0.190153
1116.776116	0.188282
1116.935117	0.196884
1117.094099	0.200775
1117.253064	0.200780
1117.412010	0.196036
1117.570938	0.195420
1117.729848	0.202916
1117.888740	0.201340
1118.047613	0.196298
1118.206468	0.198471
1118.365305	0.192409
1118.524124	0.187060
1118.682924	0.190442
1118.841707	0.187592
1119.000471	0.187846
1119.159216	0.184597
1119.317944	0.180635
1119.476653	0.182639
1119.635344	0.179389
1119.794017	0.178987
1119.952672	0.181299
1120.111308	0.179508
1120.269927	0.180560
1120.428527	0.187548
1120.587108	0.188426
1120.745672	0.193364
1120.904217	0.196142
1121.062744	0.202412
1121.221253	0.198470
1121.379744	0.195279
1121.538216	0.195756
1121.696671	0.195921
1121.855107	0.189021
1122.013524	0.187130
1122.171924	0.180545
1122.330305	0.181581
1122.488668	0.178183
1122.647013	0.184464
1122.805340	0.186233
1122.963648	0.185834
1123.121938	0.190445
1123.280210	0.194941
1123.438464	0.195656
1123.596700	0.204133
1123.754917	0.200468
1123.913116	0.200563
1124.071297	0.195185
1124.229459	0.191282
1124.387604	0.188694
1124.545730	0.179720
1124.703838	0.174160
1124.861928	0.171705
1125.019999	0.165516
1125.178052	0.170624
1125.336088	0.169939
1125.494104	0.172636
1125.652103	0.178701
1125.810083	0.187067
1125.968045	0.192631
1126.125989	0.200532
1126.283915	0.202367
1126.441823	0.206217
1126.599712	0.195879
1126.757583	0.199219
1126.915436	0.200388
1127.073270	0.198131
1127.231087	0.191671
1127.388885	0.192279
1127.546665	0.184108
1127.704426	0.191210
1127.862170	0.191785
1128.019895	0.198915
1128.177602	0.193565
1128.335291	0.188243
1128.492961	0.189188
1128.650614	0.193590
1128.808248	0.192366
1128.965864	0.202534
1129.123461	0.200873
1129.281041	0.195224
1129.438602	0.198336
1129.596145	0.203077
1129.753670	0.207258
1129.911176	0.208792
1130.068665	0.202533
1130.226135	0.199661
1130.383587	0.192632
1130.541020	0.185558
1130.698436	0.194228
1130.855833	0.194497
1131.013212	0.197677
1131.170573	0.198273
1131.327915	0.192914
1131.485239	0.191635
1131.642545	0.196535
1131.799833	0.201356
1131.957103	0.196696
1132.114354	0.196289
1132.271588	0.187377
1132.428803	0.182953
1132.585999	0.185853
1132.743178	0.187731
1132.900338	0.187635
1133.057480	0.182426
1133.214604	0.186348
1133.371710	0.185005
1133.528797	0.180195
1133.685866	0.185779
1133.842917	0.186423
1133.999950	0.187224
1134.156964	0.186680
1134.313960	0.188411
1134.470938	0.195750
1134.627898	0.186452
1134.784840	0.192179
1134.941763	0.201902
1135.098668	0.204364
1135.255555	0.205890
1135.412424	0.202839
1135.569274	0.208596
1135.726107	0.208227
1135.882921	0.202531
1136.039716	0.202803
1136.196494	0.201637
1136.353253	0.192505
1136.509995	0.191337
1136.666717	0.188556
1136.823422	0.187487
1136.980109	0.181816
1137.136777	0.183394
1137.293427	0.185342
1137.450059	0.188620
1137.606672	0.192741
1137.763267	0.191849
1137.919844	0.188629
1138.076403	0.195671
1138.232944	0.194130
1138.389466	0.197612
1138.545971	0.191129
1138.702457	0.198490
1138.858924	0.199869
1139.015374	0.196925
1139.171805	0.193286
1139.328218	0.196149
1139.484613	0.192711
1139.640990	0.184782
1139.797348	0.181119
1139.953688	0.189683
1140.110010	0.184302
1140.266314	0.192440
1140.422600	0.200637
1140.578867	0.212465
1140.735116	0.208147
1140.891347	0.202675
1141.047559	0.213830
1141.203754	0.215224
1141.359930	0.206943
1141.516088	0.207001
1141.672228	0.193647
1141.828349	0.188138
1141.984452	0.173088
1142.140537	0.179360
1142.296604	0.182656
1142.452653	0.179779
1142.608683	0.180039
1142.764695	0.182331
1142.920689	0.177540
1143.076665	0.177754
1143.232622	0.185603
1143.388562	0.184707
1143.544483	0.184218
1143.700385	0.179805
1143.856270	0.183725
1144.012136	0.185228
1144.167985	0.190306
1144.323814	0.188420
1144.479626	0.189628
1144.635420	0.174878
1144.791195	0.185516
1144.946952	0.177098
1145.102691	0.182573
1145.258411	0.185548
1145.414113	0.187643
1145.569798	0.181070
1145.725463	0.180623
1145.881111	0.179570
1146.036741	0.185595
1146.192352	0.189088
1146.347945	0.191500
1146.503519	0.192933
1146.659076	0.183584
1146.814614	0.178263
1146.970134	0.180630
1147.125636	0.183524
1147.281120	0.187118
1147.436585	0.188243
1147.592032	0.181620
1147.747461	0.177850
1147.902872	0.176278
1148.058265	0.184264
1148.213639	0.185025
1148.368995	0.183734
1148.524333	0.182587
1148.679653	0.178134
1148.834954	0.174285
1148.990237	0.185369
1149.145502	0.190598
1149.300749	0.194485
1149.455977	0.186309
1149.611188	0.179150
1149.766380	0.178502
1149.921553	0.177738
1150.076709	0.173850
1150.231846	0.176156
1150.386966	0.161500
1150.542066	0.154042
1150.697149	0.141799
1150.852214	0.135575
1151.007260	0.149009
1151.162288	0.147976
1151.317298	0.157371
1151.472289	0.155857
1151.627263	0.155473
1151.782218	0.165831
1151.937155	0.174381
1152.092073	0.183896
1152.246974	0.199938
1152.401856	0.187413
1152.556720	0.195766
1152.711566	0.187243
1152.866393	0.193765
1153.021203	0.193283
1153.175994	0.174456
1153.330767	0.178971
1153.485521	0.187152
1153.640258	0.179087
1153.794976	0.176179
1153.949676	0.170156
1154.104358	0.170408
1154.259021	0.170886
1154.413667	0.169352
1154.568294	0.189487
1154.722903	0.175572
1154.877493	0.160514
1155.032066	0.167681
1155.186620	0.177751
1155.341156	0.175865
1155.495674	0.184690
1155.650173	0.191349
1155.804654	0.193455
1155.959118	0.186997
1156.113562	0.191605
1156.267989	0.194583
1156.422397	0.187397
1156.576788	0.185048
1156.731160	0.181402
1156.885513	0.185501
1157.039849	0.177285
1157.194166	0.170240
1157.348465	0.170850
1157.502746	0.176289
1157.657009	0.172463
1157.811253	0.170961
1157.965479	0.174110
1158.119687	0.185768
1158.273877	0.170735
1158.428048	0.174443
1158.582201	0.175432
1158.736337	0.174069
1158.890453	0.172884
1159.044552	0.174075
1159.198632	0.179050
1159.352694	0.175612
1159.506738	0.173146
1159.660764	0.166037
1159.814771	0.170132
1159.968761	0.171862
1160.122732	0.166561
1160.276685	0.164459
1160.430619	0.174829
1160.584535	0.166804
1160.738434	0.162537
1160.892313	0.151288
1161.046175	0.156729
1161.200019	0.152066
1161.353844	0.157746
1161.507651	0.160135
1161.661440	0.161958
1161.815210	0.157596
1161.968962	0.161076
1162.122697	0.155668
1162.276412	0.162437
1162.430110	0.166692
1162.583789	0.168797
1162.737451	0.163326
1162.891094	0.162398
1163.044718	0.165424
1163.198325	0.157272
1163.351913	0.157704
1163.505483	0.170678
1163.659035	0.173927
1163.812569	0.177472
1163.966084	0.176984
1164.119581	0.178034
1164.273060	0.183142
1164.426521	0.188366
1164.579964	0.190245
1164.733388	0.186713
1164.886794	0.179995
1165.040182	0.183157
1165.193551	0.184551
1165.346903	0.174795
1165.500236	0.167111
1165.653551	0.159147
1165.806848	0.145363
1165.960126	0.154732
1166.113386	0.157031
1166.266628	0.147822
1166.419852	0.142105
1166.573058	0.138337
1166.726245	0.139985
1166.879414	0.139130
1167.032565	0.148550
1167.185698	0.150976
1167.338812	0.144113
1167.491909	0.143568
1167.644987	0.153060
1167.798046	0.154352
1167.951088	0.144294
1168.104111	0.142481
1168.257117	0.141212
1168.410103	0.130227
1168.563072	0.128619
1168.716023	0.114321
1168.868955	0.122419
1169.021869	0.122434
1169.174765	0.122413
1169.327642	0.130660
1169.480501	0.138996
1169.633343	0.167465
1169.786165	0.168447
1169.938970	0.158774
1170.091757	0.164669
1170.244525	0.153061
1170.397275	0.152002
1170.550007	0.131003
1170.702720	0.124793
1170.855415	0.128255
1171.008092	0.113624
1171.160751	0.120126
1171.313392	0.135628
1171.466014	0.238312
1171.618619	0.188475
1171.771205	0.188475
1171.923772	0.188475
